'Start Wavelength	183.907
'End Wavelength	1046.922
'Gate Delay	5.000
'Gate Width (ms)	1.050
'Laser Output Level	0.000
'X Position	0.000
'Y Position	0.000
'Z Position	0.000
'Grid Point Number	1.000
'Shot Number	100.000
183.907	452.000
183.977	-251.000
184.047	-134
184.116	496
184.186	-239
184.256	227
184.325	-49
184.395	287
184.465	422
184.534	108
184.604	-80
184.674	-35
184.743	161
184.813	35
184.883	877
184.952	772
185.022	355
185.092	886
185.161	65
185.231	225
185.301	198
185.370	12
185.440	-64
185.509	-120
185.579	-108
185.649	-89
185.718	269
185.788	308
185.857	-102
185.927	327
185.996	654
186.066	694
186.136	910
186.205	110
186.275	66
186.344	674
186.414	31
186.483	624
186.553	167
186.622	350
186.692	744
186.761	155
186.831	-235
186.900	402
186.970	736
187.039	665
187.109	1507
187.178	410
187.248	514
187.317	881
187.387	-146
187.456	729
187.526	1039
187.595	615
187.664	280
187.734	1257
187.803	945
187.873	235
187.942	816
188.012	1671
188.081	8
188.150	868
188.220	547
188.289	-129
188.358	910
188.428	951
188.497	1046
188.567	323
188.636	788
188.705	613
188.775	576
188.844	1167
188.913	385
188.983	2
189.052	911
189.121	744
189.191	884
189.260	1907
189.329	1153
189.399	544
189.468	204
189.537	849
189.606	670
189.676	1737
189.745	1477
189.814	890
189.883	735
189.953	1025
190.022	1336
190.091	3256
190.161	2406
190.230	1032
190.299	1196
190.368	538
190.437	807
190.507	559
190.576	807
190.645	218
190.714	825
190.783	301
190.853	302
190.922	405
190.991	1182
191.060	819
191.129	1037
191.198	1058
191.268	445
191.337	523
191.406	841
191.475	389
191.544	-181
191.613	702
191.682	328
191.752	331
191.821	577
191.890	965
191.959	1016
192.028	1260
192.097	718
192.166	550
192.235	913
192.304	845
192.373	657
192.442	649
192.511	608
192.580	1172
192.650	751
192.719	1297
192.788	1001
192.857	1377
192.926	1096
192.995	1587
193.064	1661
193.133	2308
193.202	2594
193.271	2399
193.340	1930
193.409	2364
193.478	2940
193.547	3682
193.615	3444
193.684	3155
193.753	2360
193.822	1948
193.891	224
193.960	1647
194.029	1290
194.098	1494
194.167	913
194.236	346
194.305	1504
194.374	1003
194.443	604
194.512	1471
194.580	1083
194.649	1933
194.718	954
194.787	781
194.856	1683
194.925	1069
194.994	1630
195.062	1055
195.131	1905
195.200	1750
195.269	2073
195.338	1369
195.407	1120
195.475	1310
195.544	1645
195.613	703
195.682	1355
195.751	1997
195.819	1723
195.888	1529
195.957	2309
196.026	2352
196.094	2059
196.163	2004
196.232	1852
196.301	1447
196.369	2325
196.438	1604
196.507	1766
196.576	1633
196.644	1057
196.713	1279
196.782	1683
196.850	603
196.919	1421
196.988	1686
197.056	1583
197.125	1338
197.194	1298
197.262	1685
197.331	1371
197.400	1121
197.468	1327
197.537	2234
197.606	1819
197.674	2808
197.743	2881
197.812	2143
197.880	4394
197.949	2499
198.017	3546
198.086	2355
198.155	1666
198.223	2692
198.292	3569
198.360	1871
198.429	1117
198.497	2138
198.566	3363
198.635	2676
198.703	2429
198.772	2657
198.840	4490
198.909	3218
198.977	1877
199.046	2398
199.114	2429
199.183	1902
199.251	1424
199.320	1109
199.388	1333
199.457	1611
199.525	1870
199.594	1784
199.662	1924
199.731	1537
199.799	2441
199.867	2180
199.936	1818
200.004	1680
200.073	1449
200.141	1902
200.210	2174
200.278	1639
200.346	1883
200.415	1682
200.483	1735
200.552	1979
200.620	1944
200.688	1720
200.757	1701
200.825	1771
200.893	1432
200.962	2372
201.030	2060
201.098	2024
201.167	2636
201.235	2338
201.303	2546
201.372	2007
201.440	1800
201.508	2400
201.577	1938
201.645	1527
201.713	2161
201.781	2621
201.850	2232
201.918	3011
201.986	2237
202.055	2103
202.123	2609
202.191	2430
202.259	1983
202.327	2422
202.396	2305
202.464	1708
202.532	3416
202.600	4425
202.669	1757
202.737	2421
202.805	2197
202.873	2316
202.941	2125
203.009	2429
203.078	2286
203.146	2230
203.214	2322
203.282	2444
203.350	2828
203.418	1891
203.487	2383
203.555	2302
203.623	2233
203.691	2482
203.759	1853
203.827	2114
203.895	2844
203.963	3556
204.031	1801
204.099	2649
204.168	2544
204.236	2342
204.304	3301
204.372	2640
204.440	2423
204.508	1913
204.576	1889
204.644	2482
204.712	2802
204.780	2991
204.848	3225
204.916	2924
204.984	2490
205.052	2867
205.120	2721
205.188	2606
205.256	2518
205.324	2980
205.392	2339
205.460	3228
205.528	3598
205.596	3148
205.664	2557
205.732	3144
205.799	8285
205.867	5979
205.935	3194
206.003	2567
206.071	2716
206.139	3484
206.207	2942
206.275	3419
206.343	2534
206.411	2679
206.478	3326
206.546	3413
206.614	3098
206.682	3523
206.750	2864
206.818	2880
206.885	2988
206.953	3059
207.021	2699
207.089	3246
207.157	2954
207.225	3191
207.292	3346
207.360	4209
207.428	3273
207.496	2375
207.563	3144
207.631	3145
207.699	2708
207.767	2984
207.834	3503
207.902	3726
207.970	3304
208.038	3754
208.105	3240
208.173	4538
208.241	4650
208.309	3565
208.376	5234
208.444	5598
208.512	2586
208.579	3485
208.647	3540
208.715	2891
208.782	3529
208.850	3484
208.918	3135
208.985	4002
209.053	3840
209.120	3911
209.188	2804
209.256	3873
209.323	4207
209.391	4965
209.459	3607
209.526	3528
209.594	3519
209.661	3983
209.729	3659
209.796	3816
209.864	3855
209.932	3577
209.999	4340
210.067	4012
210.134	4227
210.202	4702
210.269	4437
210.337	3745
210.404	3933
210.472	3826
210.539	3761
210.607	4453
210.674	4123
210.742	3954
210.809	4157
210.877	5092
210.944	4579
211.012	4652
211.079	4753
211.146	3907
211.214	4296
211.281	4486
211.349	4553
211.416	4781
211.484	5147
211.551	4586
211.618	4251
211.686	4583
211.753	4556
211.821	4363
211.888	4198
211.955	4348
212.023	4609
212.090	4831
212.157	5136
212.225	5068
212.292	8011
212.359	12932
212.427	16606
212.494	8202
212.561	5750
212.629	5923
212.696	4921
212.763	5206
212.831	5043
212.898	5116
212.965	4524
213.032	4920
213.100	5611
213.167	5433
213.234	5685
213.301	4317
213.369	4852
213.436	4993
213.503	4517
213.570	5158
213.638	5089
213.705	4698
213.772	4215
213.839	5367
213.906	5119
213.973	5188
214.041	4979
214.108	5182
214.175	5862
214.242	5157
214.309	5401
214.376	5050
214.444	5837
214.511	5010
214.578	5424
214.645	5324
214.712	5630
214.779	4919
214.846	6722
214.913	5989
214.980	6831
215.048	6507
215.115	6891
215.182	6290
215.249	5608
215.316	5121
215.383	5172
215.450	5080
215.517	5489
215.584	5282
215.651	4145
215.718	5007
215.785	5778
215.852	5933
215.919	5889
215.986	5394
216.053	5325
216.120	5404
216.187	5315
216.254	5736
216.321	4939
216.388	5350
216.455	5661
216.522	5726
216.589	6435
216.656	9044
216.722	7768
216.789	8209
216.856	8019
216.923	7751
216.990	7155
217.057	7447
217.124	8766
217.191	8763
217.258	10009
217.324	11453
217.391	10083
217.458	8791
217.525	6871
217.592	6940
217.659	7290
217.725	6060
217.792	7060
217.859	5968
217.926	5554
217.993	5164
218.059	5692
218.126	5484
218.193	4551
218.260	4999
218.327	5092
218.393	4660
218.460	3943
218.527	4703
218.594	5464
218.660	7321
218.727	5623
218.794	4102
218.860	4959
218.927	3983
218.994	4801
219.061	5692
219.127	5624
219.194	5562
219.261	4189
219.327	4597
219.394	4151
219.461	4045
219.527	4467
219.594	5685
219.661	4188
219.727	4288
219.794	4359
219.860	5166
219.927	4795
219.994	6972
220.060	7755
220.127	6303
220.193	6553
220.260	6955
220.326	10939
220.393	16619
220.460	15112
220.526	11330
220.593	7758
220.659	8044
220.726	10120
220.792	15656
220.859	16708
220.925	23853
220.992	22993
221.058	20849
221.125	15856
221.191	11732
221.258	7613
221.324	7423
221.391	6112
221.457	6168
221.524	6084
221.590	10263
221.657	15832
221.723	9431
221.789	11281
221.856	8811
221.922	7048
221.989	5964
222.055	5610
222.121	5757
222.188	5867
222.254	6149
222.321	5643
222.387	4374
222.453	4246
222.520	5234
222.586	5104
222.652	4258
222.719	5121
222.785	4680
222.851	4551
222.918	4344
222.984	5020
223.050	4544
223.116	4443
223.183	3948
223.249	4219
223.315	4008
223.382	3572
223.448	3896
223.514	3836
223.580	4582
223.647	4372
223.713	4178
223.779	4137
223.845	4742
223.911	4922
223.978	4146
224.044	4957
224.110	3831
224.176	3724
224.242	4413
224.309	3994
224.375	3906
224.441	4455
224.507	4022
224.573	4726
224.639	4087
224.705	2750
224.772	3618
224.838	4203
224.904	4372
224.970	4129
225.036	4125
225.102	3977
225.168	3833
225.234	3890
225.300	4349
225.366	3687
225.432	3578
225.499	3688
225.565	5510
225.631	5761
225.697	6877
225.763	6750
225.829	7591
225.895	7929
225.961	8627
226.027	7501
226.093	8575
226.159	9257
226.225	16035
226.291	31839
226.357	30495
226.423	17106
226.489	11771
226.554	9170
226.620	10281
226.686	12590
226.752	17391
226.818	29253
226.884	39309
226.950	27514
227.016	15312
227.082	11178
227.148	10378
227.214	8463
227.279	7537
227.345	6617
227.411	6482
227.477	6085
227.543	6607
227.609	7469
227.674	5963
227.740	6765
227.806	6051
227.872	6442
227.938	6255
228.003	6914
228.069	5658
228.135	5008
228.201	4958
228.267	5231
228.332	6646
228.398	6498
228.464	4796
228.530	3888
228.595	4319
228.661	4966
228.727	7086
228.792	5428
228.858	5602
228.924	5431
228.990	6527
229.055	6296
229.121	5301
229.187	4713
229.252	5089
229.318	4358
229.384	4843
229.449	4606
229.515	3781
229.581	3148
229.646	5275
229.712	5374
229.777	9055
229.843	7365
229.909	9092
229.974	8687
230.040	7836
230.105	7865
230.171	8061
230.236	10916
230.302	12257
230.368	9118
230.433	7262
230.499	7095
230.564	7039
230.630	6393
230.695	5848
230.761	6600
230.826	6255
230.892	7598
230.957	5304
231.023	5070
231.088	5660
231.154	5448
231.219	4882
231.284	8021
231.350	6583
231.415	6133
231.481	5664
231.546	5624
231.612	6017
231.677	4651
231.742	4801
231.808	4550
231.873	5453
231.939	4661
232.004	7108
232.069	5824
232.135	6188
232.200	5340
232.265	5361
232.331	4553
232.396	5381
232.461	4156
232.527	4751
232.592	4707
232.657	4873
232.723	5574
232.788	4682
232.853	5274
232.918	5014
232.984	4374
233.049	3841
233.114	5330
233.179	5282
233.245	8034
233.310	6021
233.375	4361
233.440	4477
233.506	5862
233.571	4210
233.636	4179
233.701	4862
233.766	6404
233.832	5616
233.897	5262
233.962	5381
234.027	5471
234.092	5010
234.157	4896
234.222	5420
234.288	9242
234.353	12785
234.418	10879
234.483	9368
234.548	8309
234.613	7787
234.678	7784
234.743	10420
234.808	15186
234.873	8676
234.938	7226
235.004	6634
235.069	6545
235.134	6509
235.199	6303
235.264	5994
235.329	5761
235.394	6400
235.459	6896
235.524	6475
235.589	6576
235.654	5532
235.719	5209
235.784	5720
235.849	7284
235.913	8587
235.978	10219
236.043	7959
236.108	6783
236.173	6470
236.238	5970
236.303	6299
236.368	6831
236.433	9773
236.498	10368
236.563	12120
236.627	29716
236.692	50926
236.757	29973
236.822	17490
236.887	14757
236.952	12553
237.017	11763
237.081	13403
237.146	19773
237.211	36021
237.276	55235
237.341	54207
237.405	28800
237.470	16912
237.535	13385
237.600	9870
237.664	9038
237.729	9195
237.794	17078
237.859	17990
237.923	10348
237.988	8340
238.053	9984
238.118	10981
238.182	19504
238.247	10145
238.312	8774
238.376	7831
238.441	6784
238.506	6933
238.570	5277
238.635	6173
238.700	5501
238.764	6249
238.829	11428
238.893	9106
238.958	8473
239.023	7443
239.087	6729
239.152	8017
239.216	5649
239.281	5907
239.346	6154
239.410	6319
239.475	7595
239.539	18344
239.604	8361
239.668	6814
239.733	4974
239.797	6496
239.862	8884
239.926	10168
239.991	6005
240.055	5552
240.120	5419
240.184	5217
240.249	5700
240.313	5128
240.378	5493
240.442	13336
240.507	10820
240.571	6535
240.635	10029
240.700	7267
240.764	6000
240.829	4809
240.893	4757
240.957	5161
241.022	13331
241.086	11386
241.151	6443
241.215	4692
241.279	7171
241.344	8189
241.408	7700
241.472	7907
241.537	8186
241.601	7439
241.665	7849
241.730	7782
241.794	7965
241.858	8383
241.922	7903
241.987	7439
242.051	7602
242.115	7768
242.179	6944
242.244	6917
242.308	7935
242.372	7752
242.436	8129
242.501	6684
242.565	7005
242.629	6604
242.693	6374
242.757	6599
242.822	5911
242.886	7025
242.950	7296
243.014	6996
243.078	8571
243.142	7589
243.206	6883
243.271	7447
243.335	8522
243.399	13911
243.463	48676
243.527	48920
243.591	16596
243.655	10244
243.719	9450
243.783	10563
243.847	17093
243.911	15584
243.975	17736
244.040	9998
244.104	7559
244.168	7031
244.232	12772
244.296	15372
244.360	13242
244.424	7158
244.488	6795
244.552	6364
244.615	5476
244.679	6429
244.743	9014
244.807	7069
244.871	5606
244.935	5745
244.999	6120
245.063	6741
245.127	8207
245.191	13374
245.255	8274
245.319	9671
245.383	6980
245.446	6804
245.510	6686
245.574	6642
245.638	6247
245.702	8382
245.766	12110
245.829	7851
245.893	6608
245.957	7547
246.021	8237
246.085	8283
246.149	9377
246.212	20304
246.276	18128
246.340	10864
246.404	8518
246.467	11942
246.531	11817
246.595	8689
246.659	8388
246.722	9317
246.786	10025
246.850	12685
246.913	9888
246.977	8023
247.041	8402
247.104	7999
247.168	9353
247.232	21523
247.295	24757
247.359	11666
247.423	11477
247.486	13156
247.550	9269
247.614	9672
247.677	10600
247.741	7226
247.804	7861
247.868	9049
247.932	22150
247.995	20954
248.059	9445
248.122	8301
248.186	10683
248.249	22428
248.313	46426
248.376	36395
248.440	23144
248.503	12252
248.567	13241
248.630	19916
248.694	23815
248.757	32976
248.821	41183
248.884	26388
248.948	32582
249.011	39910
249.075	51801
249.138	32918
249.202	18368
249.265	15896
249.328	15389
249.392	14632
249.455	11595
249.519	11536
249.582	14996
249.645	19598
249.709	13306
249.772	11443
249.835	11915
249.899	10323
249.962	11161
250.025	12659
250.089	26040
250.152	21122
250.215	14126
250.279	12918
250.342	12233
250.405	12206
250.468	12512
250.532	17295
250.595	29611
250.658	88592
250.721	67692
250.785	30697
250.848	19462
250.911	14468
250.974	14983
251.038	24670
251.101	25773
251.164	17284
251.227	20210
251.290	19730
251.354	41471
251.417	99133
251.480	64236
251.543	89388
251.606	137812
251.669	77727
251.732	46612
251.795	47485
251.859	62365
251.922	91351
251.985	38336
252.048	22171
252.111	19586
252.174	21125
252.237	41163
252.300	52293
252.363	87621
252.426	88009
252.489	38256
252.552	23240
252.615	19041
252.678	27638
252.741	48468
252.804	84852
252.867	102167
252.930	55164
252.993	31162
253.056	24216
253.119	17945
253.182	20278
253.245	27693
253.308	16810
253.371	18982
253.434	14343
253.497	17998
253.559	25624
253.622	18163
253.685	29750
253.748	18809
253.811	12587
253.874	15284
253.937	13324
254.000	13107
254.062	26723
254.125	22373
254.188	29428
254.251	15534
254.314	14055
254.376	25801
254.439	21360
254.502	18868
254.565	27045
254.628	28478
254.690	18274
254.753	11751
254.816	11647
254.878	12847
254.941	25053
255.004	13641
255.067	11491
255.129	9946
255.192	6815
255.255	8521
255.317	7802
255.380	5463
255.443	5828
255.505	6184
255.568	6452
255.631	6494
255.693	6987
255.756	5348
255.819	5729
255.881	5484
255.944	5813
256.006	5561
256.069	5881
256.132	6117
256.194	9612
256.257	12170
256.319	10185
256.382	9015
256.444	8905
256.507	8314
256.569	8649
256.632	10147
256.694	16643
256.757	55181
256.819	69410
256.882	25853
256.944	15014
257.007	14113
257.069	12746
257.132	8835
257.194	8944
257.257	9226
257.319	9580
257.381	13727
257.444	42732
257.506	112033
257.569	72024
257.631	33888
257.693	21587
257.756	12680
257.818	11156
257.880	9204
257.943	9265
258.005	8437
258.067	7446
258.130	8117
258.192	12640
258.254	14035
258.317	8240
258.379	10118
258.441	20422
258.503	12574
258.566	23376
258.628	13113
258.690	7750
258.753	11940
258.815	15765
258.877	9510
258.939	8298
259.001	8145
259.064	8159
259.126	10439
259.188	9159
259.250	8812
259.312	12024
259.375	18602
259.437	9745
259.499	7589
259.561	8070
259.623	8530
259.685	7564
259.747	9311
259.809	24884
259.872	25187
259.934	47855
259.996	24906
260.058	10187
260.120	8423
260.182	7349
260.244	7355
260.306	6563
260.368	6905
260.430	7486
260.492	16336
260.554	17589
260.616	13306
260.678	33362
260.740	18404
260.802	9076
260.864	9586
260.926	8593
260.988	8198
261.050	9842
261.112	23118
261.174	32857
261.236	15268
261.298	9743
261.359	18091
261.421	12995
261.483	7511
261.545	7556
261.607	5719
261.669	7689
261.731	15677
261.793	20114
261.854	9798
261.916	7601
261.978	9003
262.040	7777
262.102	6670
262.164	8875
262.225	6309
262.287	9350
262.349	18601
262.411	8473
262.472	6598
262.534	14994
262.596	12331
262.658	6162
262.719	6431
262.781	10628
262.843	14765
262.904	7238
262.966	8379
263.028	12499
263.090	71162
263.151	68950
263.213	25428
263.275	14999
263.336	8872
263.398	7282
263.459	6138
263.521	8721
263.583	15947
263.644	7511
263.706	4709
263.767	3723
263.829	4449
263.891	4506
263.952	4443
264.014	4381
264.075	13186
264.137	14454
264.198	7338
264.260	4218
264.321	5974
264.383	21735
264.444	20203
264.506	7548
264.567	7178
264.629	19536
264.690	17357
264.752	8933
264.813	6460
264.875	5134
264.936	5194
264.998	5398
265.059	5599
265.120	7281
265.182	19423
265.243	69588
265.305	27883
265.366	9839
265.427	7115
265.489	6256
265.550	6336
265.611	7199
265.673	6349
265.734	5478
265.795	5708
265.857	5939
265.918	7942
265.979	29984
266.040	91852
266.102	34546
266.163	15655
266.224	13032
266.286	7844
266.347	6279
266.408	6002
266.469	4668
266.530	4998
266.592	5850
266.653	14765
266.714	12491
266.775	5428
266.836	4934
266.898	5350
266.959	9085
267.020	5492
267.081	6097
267.142	4616
267.203	4673
267.264	5315
267.326	6367
267.387	4940
267.448	4917
267.509	5602
267.570	5365
267.631	5589
267.692	4911
267.753	5043
267.814	4749
267.875	16334
267.936	14345
267.997	10946
268.058	7926
268.119	6291
268.180	6506
268.241	5424
268.302	4918
268.363	5319
268.424	5610
268.485	5458
268.546	4548
268.607	3855
268.668	4816
268.729	3488
268.790	4591
268.851	7354
268.912	18366
268.972	12859
269.033	7220
269.094	4773
269.155	4765
269.216	5014
269.277	4903
269.338	4226
269.398	5837
269.459	6757
269.520	9317
269.581	12079
269.642	11468
269.702	7866
269.763	7021
269.824	5853
269.885	11424
269.945	9152
270.006	5649
270.067	4999
270.128	4631
270.188	5219
270.249	5331
270.310	3897
270.370	5381
270.431	4812
270.492	4553
270.553	6787
270.613	14861
270.674	17200
270.734	6722
270.795	6241
270.856	9636
270.916	5333
270.977	6694
271.038	8046
271.098	7667
271.159	13500
271.219	6905
271.280	4338
271.340	5179
271.401	7728
271.462	9080
271.522	6637
271.583	5329
271.643	5855
271.704	5975
271.764	9064
271.825	24963
271.885	57885
271.946	37914
272.006	18648
272.066	38846
272.127	29625
272.187	10175
272.248	8652
272.308	15602
272.369	28123
272.429	12433
272.489	16919
272.550	12668
272.610	17104
272.671	8746
272.731	12018
272.791	12945
272.852	9599
272.912	7898
272.972	4554
273.033	7039
273.093	9148
273.153	7905
273.214	5875
273.274	8165
273.334	35858
273.394	31254
273.455	14954
273.515	27666
273.575	30709
273.635	12994
273.696	29285
273.756	30060
273.816	11738
273.876	10180
273.936	24282
273.997	17056
274.057	8431
274.117	9074
274.177	23448
274.237	58921
274.297	27312
274.358	25783
274.418	34035
274.478	19264
274.538	9495
274.598	10934
274.658	25438
274.718	20924
274.778	8730
274.838	7579
274.898	23132
274.958	32583
275.018	38630
275.078	17376
275.138	9715
275.198	6526
275.258	5943
275.318	10087
275.378	17072
275.438	13317
275.498	10155
275.558	28029
275.618	39007
275.678	20472
275.738	21051
275.798	12001
275.858	7779
275.918	6108
275.978	9101
276.038	6324
276.098	6633
276.157	22778
276.217	28683
276.277	13174
276.337	9778
276.397	6877
276.457	8353
276.517	5489
276.576	4884
276.636	6085
276.696	11909
276.756	23193
276.815	9321
276.875	6824
276.935	8863
276.995	5808
277.055	5035
277.114	5441
277.174	16638
277.234	22322
277.293	8579
277.353	6242
277.413	5082
277.472	7596
277.532	5784
277.592	8014
277.651	27689
277.711	18733
277.771	16290
277.830	45882
277.890	18520
277.950	35423
278.009	42881
278.069	15060
278.128	29939
278.188	20780
278.248	17531
278.307	32062
278.367	10994
278.426	7401
278.486	5185
278.545	5124
278.605	4939
278.664	5421
278.724	7475
278.783	29676
278.843	27393
278.902	8797
278.962	7960
279.021	7002
279.081	7199
279.140	7690
279.199	6628
279.259	7628
279.318	8912
279.378	10517
279.437	25813
279.496	70604
279.556	137262
279.615	48036
279.675	18235
279.734	17237
279.793	35450
279.853	32885
279.912	12129
279.971	9087
280.031	9526
280.090	27748
280.149	23773
280.208	31719
280.268	112445
280.327	43028
280.386	17043
280.445	25181
280.505	14463
280.564	10276
280.623	8821
280.682	21992
280.742	14732
280.801	7563
280.860	5664
280.919	5622
280.978	4624
281.037	4650
281.097	4377
281.156	4857
281.215	4603
281.274	10898
281.333	31634
281.392	10854
281.451	4839
281.510	4752
281.569	4076
281.628	3468
281.688	3745
281.747	6637
281.806	4294
281.865	3868
281.924	5305
281.983	3808
282.042	3509
282.101	3711
282.160	4007
282.219	4291
282.278	9016
282.337	20177
282.396	7090
282.454	5252
282.513	12926
282.572	27722
282.631	8616
282.690	5924
282.749	5184
282.808	6391
282.867	7743
282.926	5256
282.985	4080
283.043	3910
283.102	4671
283.161	6408
283.220	21637
283.279	19867
283.338	6862
283.396	4777
283.455	5816
283.514	8039
283.573	9400
283.631	6375
283.690	4588
283.749	6925
283.808	16618
283.866	8579
283.925	4969
283.984	5943
284.043	9575
284.101	6640
284.160	5268
284.219	6319
284.277	7040
284.336	17892
284.395	39460
284.453	15937
284.512	10096
284.570	15023
284.629	9069
284.688	9179
284.746	9080
284.805	10410
284.863	13786
284.922	15408
284.981	19346
285.039	30430
285.098	60192
285.156	139242
285.215	172739
285.273	153856
285.332	80375
285.390	46156
285.449	30888
285.507	22379
285.566	16767
285.624	13481
285.683	10806
285.741	9956
285.799	8257
285.858	8382
285.916	7677
285.975	5684
286.033	5248
286.091	5180
286.150	5534
286.208	4307
286.267	5969
286.325	8253
286.383	12889
286.442	7007
286.500	4820
286.558	4755
286.616	5042
286.675	7446
286.733	5703
286.791	5351
286.850	7168
286.908	13232
286.966	11914
287.024	5942
287.083	4367
287.141	4465
287.199	6860
287.257	8494
287.315	5721
287.374	10960
287.432	18199
287.490	8928
287.548	6556
287.606	5392
287.664	5903
287.723	10475
287.781	7762
287.839	7945
287.897	8996
287.955	11873
288.013	20973
288.071	57408
288.129	208671
288.187	248828
288.245	89288
288.303	39063
288.361	24372
288.419	18638
288.477	13421
288.535	11124
288.593	8603
288.651	7059
288.709	4908
288.767	5630
288.825	4319
288.883	4500
288.941	4526
288.999	4098
289.057	3563
289.115	3849
289.173	3544
289.231	4568
289.289	3949
289.346	4799
289.404	6987
289.462	10178
289.520	8213
289.578	3551
289.636	3059
289.694	2817
289.751	3333
289.809	3433
289.867	3694
289.925	6389
289.983	5263
290.040	3812
290.098	3791
290.156	6339
290.214	6093
290.271	3124
290.329	2728
290.387	2882
290.444	3145
290.502	2760
290.560	3433
290.617	3438
290.675	2790
290.733	3988
290.790	3125
290.848	3641
290.906	4320
290.963	3175
291.021	3539
291.078	3105
291.136	5544
291.194	24761
291.251	19435
291.309	5899
291.366	3223
291.424	4093
291.481	4170
291.539	3070
291.596	2948
291.654	2592
291.711	2830
291.769	6323
291.826	8846
291.884	4820
291.941	2943
291.999	3812
292.056	5524
292.114	4034
292.171	3325
292.228	4075
292.286	6107
292.343	10956
292.401	8930
292.458	5445
292.515	5273
292.573	6042
292.630	5261
292.687	5215
292.745	4680
292.802	8942
292.859	21456
292.917	29083
292.974	10437
293.031	4984
293.089	4463
293.146	3425
293.203	3491
293.260	3975
293.318	5267
293.375	5666
293.432	4310
293.489	3522
293.546	3942
293.604	8754
293.661	29226
293.718	37517
293.775	14760
293.832	9025
293.889	7275
293.947	7449
294.004	5813
294.061	8222
294.118	22306
294.175	31630
294.232	24046
294.289	9479
294.346	8019
294.403	7523
294.460	4830
294.517	4731
294.574	5035
294.631	4302
294.688	7108
294.745	26066
294.802	59695
294.859	37089
294.916	14773
294.973	10500
295.030	9983
295.087	6706
295.144	5817
295.201	4226
295.258	4853
295.315	9888
295.372	30506
295.429	27794
295.486	12099
295.542	11684
295.599	34924
295.656	31430
295.713	31964
295.770	26661
295.827	10479
295.883	7365
295.940	8184
295.997	15064
296.054	8756
296.111	5450
296.167	4850
296.224	3726
296.281	4183
296.338	4372
296.394	5278
296.451	8144
296.508	25326
296.564	26418
296.621	24043
296.678	56404
296.734	40138
296.791	15635
296.848	12009
296.904	19530
296.961	35463
297.018	42562
297.074	20450
297.131	10428
297.187	9752
297.244	18420
297.301	57324
297.357	46685
297.414	16273
297.470	8721
297.527	6760
297.583	6801
297.640	6241
297.696	6086
297.753	4679
297.809	3671
297.866	3190
297.922	3495
297.979	4391
298.035	6135
298.092	12386
298.148	28633
298.204	15881
298.261	11184
298.317	31897
298.374	44898
298.430	18695
298.486	11293
298.543	8289
298.599	8882
298.656	14066
298.712	32762
298.768	57000
298.824	23075
298.881	9789
298.937	7055
298.993	7149
299.050	8385
299.106	6125
299.162	6827
299.218	5477
299.275	5962
299.331	7744
299.387	20287
299.443	50301
299.500	25213
299.556	10971
299.612	7570
299.668	6456
299.724	5505
299.780	4776
299.837	6484
299.893	17934
299.949	45094
300.005	32293
300.061	43584
300.117	45590
300.173	18540
300.229	12365
300.285	20643
300.341	15001
300.397	7359
300.453	5471
300.510	5840
300.566	5686
300.622	5959
300.678	16734
300.734	31742
300.790	36347
300.845	32468
300.901	24224
300.957	37967
301.013	19197
301.069	9319
301.125	8746
301.181	8205
301.237	6478
301.293	4621
301.349	4703
301.405	4748
301.461	5256
301.516	5828
301.572	9392
301.628	13979
301.684	11895
301.740	22684
301.796	23020
301.851	22009
301.907	33223
301.963	30729
302.019	69733
302.074	122227
302.130	84301
302.186	34417
302.242	17784
302.297	14200
302.353	18782
302.409	29835
302.464	19302
302.520	27202
302.576	52999
302.631	42767
302.687	22276
302.743	10858
302.798	7669
302.854	7276
302.910	8578
302.965	11529
303.021	17698
303.076	16597
303.132	23564
303.187	19606
303.243	9827
303.299	7313
303.354	5623
303.410	5481
303.465	5774
303.521	5210
303.576	6994
303.632	8788
303.687	21625
303.743	41053
303.798	21435
303.853	10352
303.909	7845
303.964	8204
304.020	16765
304.075	17315
304.130	21359
304.186	33889
304.241	28399
304.297	19728
304.352	10886
304.358	10493
304.407	7311
304.449	7796
304.463	7964
304.518	8297
304.539	7735
304.573	6848
304.629	8425
304.630	8576
304.684	15519
304.720	30369
304.739	38046
304.794	32514
304.811	27640
304.850	15571
304.902	8806
304.905	8392
304.960	7438
304.992	7744
305.015	7990
305.071	6856
305.083	6575
305.126	5519
305.173	4197
305.181	3983
305.236	3800
305.264	4736
305.292	5706
305.347	5814
305.354	5878
305.402	6308
305.445	7821
305.457	8256
305.512	10399
305.535	9976
305.567	9290
305.622	10942
305.626	11555
305.678	22285
305.716	40643
305.733	48368
305.788	35902
305.807	33619
305.843	28075
305.897	39103
305.898	39269
305.953	28004
305.988	20190
306.008	15256
306.063	10443
306.078	9397
306.118	7462
306.168	5402
306.173	5220
306.228	4189
306.259	4289
306.283	4420
306.338	4130
306.349	4364
306.393	5553
306.440	6376
306.448	6426
306.503	5931
306.530	6707
306.558	8261
306.613	18006
306.620	19081
306.668	26475
306.711	35605
306.723	37437
306.778	23861
306.801	19879
306.833	13847
306.888	7647
306.892	7383
306.943	5965
306.982	5363
306.997	5133
307.052	4971
307.072	4966
307.107	5221
307.162	6369
307.163	6392
307.217	8706
307.253	10716
307.272	11554
307.327	11084
307.343	10756
307.381	8890
307.434	8783
307.436	8963
307.491	18260
307.524	26612
307.546	31380
307.600	28638
307.614	26557
307.655	16014
307.704	8906
307.710	8602
307.765	10301
307.795	12558
307.819	15559
307.874	21882
307.885	21886
307.929	17844
307.975	16531
307.984	16889
308.038	24538
308.065	33310
308.093	49280
308.148	105332
308.156	115439
308.202	190450
308.246	211531
308.257	201096
308.312	118051
308.336	90298
308.366	70400
308.421	39744
308.426	37423
308.475	24921
308.517	17818
308.530	16584
308.585	13766
308.607	12866
308.639	12213
308.694	11900
308.697	12107
308.748	18803
308.787	24586
308.803	25602
308.857	20998
308.877	20177
308.912	17420
308.967	15885
308.967	15914
309.021	21456
309.058	28042
309.076	34045
309.130	61104
309.148	74157
309.185	122867
309.238	203313
309.239	204499
309.293	245844
309.328	246489
309.348	211886
309.402	112292
309.418	88016
309.457	61192
309.508	33865
309.511	33101
309.566	25911
309.598	22975
309.620	23037
309.674	25533
309.688	25883
309.729	25610
309.778	22525
309.783	21920
309.837	17050
309.868	15296
309.892	16740
309.946	25965
309.959	28705
310.001	42318
310.049	49615
310.055	48025
310.109	29338
310.139	20696
310.163	15970
310.218	8919
310.229	7654
310.272	6022
310.319	5133
310.326	5090
310.381	4527
310.409	4426
310.435	4253
310.489	3746
310.499	3718
310.543	3888
310.589	4273
310.598	4342
310.652	4566
310.679	4673
310.706	4102
310.760	2894
310.769	2738
310.814	2593
310.859	2459
310.868	2478
310.923	2546
310.948	2690
310.977	2892
311.031	3291
311.038	3339
311.085	3013
311.128	2559
311.139	2607
311.193	3267
311.218	3432
311.247	3296
311.301	3128
311.308	3120
311.356	2938
311.398	2724
311.410	2730
311.464	2819
311.488	2831
311.518	2775
311.572	2804
311.578	2831
311.626	3861
311.668	4617
311.680	4518
311.734	4099
311.758	3905
311.788	4048
311.842	4359
311.847	4403
311.896	4507
311.937	4682
311.950	4987
312.004	6292
312.027	6867
312.058	5643
312.112	3491
312.117	3283
312.165	3263
312.207	3263
312.297	4146
312.386	4925
312.476	3270
312.566	5979
312.656	4572
312.745	2831
312.835	2506
312.925	2679
313.015	3825
313.104	3105
313.194	1945
313.284	2464
313.374	3741
313.463	3725
313.553	2778
313.643	2824
313.732	1434
313.822	2358
313.912	2606
314.001	3162
314.091	3990
314.180	5241
314.270	4460
314.360	4373
314.449	4161
314.539	3608
314.628	2343
314.718	3052
314.808	4053
314.897	2688
314.987	2394
315.076	3478
315.166	4176
315.255	3878
315.345	3822
315.434	4193
315.524	3262
315.613	3660
315.703	4515
315.792	4213
315.881	3156
315.971	3495
316.060	5710
316.150	9728
316.239	11454
316.328	7252
316.418	2280
316.507	2763
316.597	3498
316.686	3356
316.775	3821
316.865	11360
316.954	4166
317.043	2320
317.133	3056
317.222	2359
317.311	2296
317.400	2278
317.490	2490
317.579	4185
317.668	2000
317.757	2698
317.847	4614
317.936	5071
318.025	8329
318.114	4443
318.203	4497
318.293	4927
318.382	8722
318.471	9866
318.560	12528
318.649	31303
318.738	15214
318.828	4345
318.917	5752
319.006	6070
319.095	12704
319.184	34678
319.273	33572
319.362	13657
319.451	4207
319.540	3722
319.629	6172
319.718	14287
319.807	7299
319.896	11568
319.985	43987
320.074	32162
320.163	5144
320.252	6465
320.341	6649
320.430	6624
320.519	5985
320.608	5674
320.697	3932
320.786	3424
320.875	4621
320.964	5749
321.053	8229
321.142	11187
321.230	14282
321.319	9138
321.408	20353
321.497	14263
321.586	8581
321.675	9697
321.764	14005
321.852	8113
321.941	10738
322.030	11358
322.119	7618
322.207	21401
322.296	19859
322.385	10071
322.474	8434
322.562	22006
322.651	22266
322.740	8766
322.829	14137
322.917	15380
323.006	10903
323.095	7039
323.183	5727
323.272	8720
323.361	12842
323.449	44316
323.538	28053
323.626	24697
323.715	32548
323.804	8601
323.892	23145
323.981	25418
324.069	6091
324.158	10092
324.246	21949
324.335	6190
324.424	8587
324.512	4642
324.601	3541
324.689	4407
324.778	5339
324.866	10445
324.954	4823
325.043	3263
325.131	5823
325.220	12138
325.308	14541
325.397	9866
325.485	9115
325.574	2096
325.662	1738
325.750	2989
325.839	2534
325.927	2453
326.015	3930
326.104	3696
326.192	8377
326.280	3320
326.369	2167
326.457	3494
326.545	6553
326.634	4265
326.722	1877
326.810	1899
326.898	2330
326.987	2367
327.075	4732
327.163	7164
327.251	3584
327.340	1938
327.428	3215
327.516	2014
327.604	1260
327.692	2411
327.781	2146
327.869	5560
327.957	4387
328.045	3367
328.133	1732
328.221	2689
328.309	2355
328.397	2032
328.485	2409
328.574	3593
328.662	12413
328.750	11823
328.838	3863
328.926	2795
329.014	1131
329.102	3415
329.190	7707
329.278	8881
329.366	2507
329.454	1639
329.542	1400
329.630	2165
329.718	1928
329.806	2773
329.893	2638
329.981	3522
330.069	3682
330.157	12159
330.245	50774
330.333	39619
330.421	6874
330.509	4305
330.597	13857
330.684	16109
330.772	5290
330.860	5959
330.948	7490
331.036	5033
331.123	1874
331.211	1819
331.299	2238
331.387	4661
331.475	13491
331.562	4993
331.650	1711
331.738	1730
331.825	3235
331.913	1937
332.001	1301
332.089	2162
332.176	6110
332.264	10794
332.352	16853
332.439	4222
332.527	2892
332.614	2442
332.702	2601
332.790	2297
332.877	4379
332.965	14528
333.052	5643
333.140	3198
333.228	6687
333.315	3404
333.403	2102
333.490	6514
333.578	9280
333.665	6458
333.753	4540
333.840	1525
333.928	2747
334.015	7736
334.103	14133
334.190	46418
334.278	26383
334.365	4451
334.452	3108
334.540	1576
334.627	2379
334.715	5426
334.802	6809
334.889	35556
334.977	76632
335.064	10586
335.151	2201
335.239	3428
335.326	3890
335.413	16404
335.501	47024
335.588	7543
335.675	2634
335.762	3204
335.850	7201
335.937	4091
336.024	8002
336.111	45768
336.199	38129
336.286	4575
336.373	2306
336.460	1698
336.547	1048
336.635	1907
336.722	2941
336.809	1816
336.896	2928
336.983	10382
337.070	32491
337.157	59231
337.245	38992
337.332	41176
337.419	5302
337.506	2680
337.593	2716
337.680	6365
337.767	35300
337.854	15254
337.941	11178
338.028	11816
338.115	7348
338.202	4262
338.289	7420
338.376	31656
338.463	21675
338.550	14486
338.637	31287
338.724	5771
338.811	12529
338.898	4554
338.984	1329
339.071	2536
339.158	2636
339.245	7046
339.332	7233
339.419	4977
339.506	9778
339.593	2036
339.679	2110
339.766	1781
339.853	2229
339.940	5607
340.027	3174
340.113	2225
340.200	3018
340.287	2353
340.374	2833
340.460	6365
340.547	2629
340.634	3211
340.720	13481
340.807	15762
340.894	2392
340.980	1804
341.067	1652
341.154	2786
341.240	2477
341.327	8676
341.414	4390
341.500	3102
341.587	1927
341.674	1290
341.760	4905
341.847	7398
341.933	3371
342.020	1113
342.106	593
342.193	1862
342.279	4390
342.366	2798
342.452	6420
342.539	3069
342.625	5408
342.712	18624
342.798	10719
342.885	4818
342.971	820
343.058	637
343.144	1131
343.230	2113
343.317	1082
343.403	1584
343.490	551
343.576	671
343.662	1051
343.749	2136
343.835	2311
343.921	6009
344.008	24463
344.094	95008
344.180	36925
344.267	6944
344.353	17054
344.439	34230
344.525	12338
344.612	8279
344.698	8268
344.784	5997
344.870	2514
344.957	1421
345.043	3193
345.129	2720
345.215	5357
345.301	3414
345.387	1690
345.474	1346
345.560	1063
345.646	1680
345.732	2020
345.818	1859
345.904	1041
345.990	2456
346.076	1732
346.162	4622
346.249	2968
346.335	956
346.421	1710
346.507	5336
346.593	34252
346.679	17284
346.765	2511
346.851	1474
346.937	2154
347.023	1501
347.108	1894
347.194	1838
347.280	1146
347.366	2126
347.452	6513
347.538	36021
347.624	36904
347.710	30735
347.796	6711
347.882	2307
347.967	1549
348.053	2386
348.139	1946
348.225	1265
348.311	1154
348.397	1877
348.482	950
348.568	2363
348.654	1721
348.740	787
348.825	1168
348.911	2569
348.997	12678
349.083	44747
349.168	12779
349.254	2077
349.340	1943
349.425	792
349.511	1904
349.597	3027
349.682	4542
349.768	20898
349.854	19148
349.939	2334
350.025	949
350.110	1897
350.196	894
350.282	262
350.367	139
350.453	1294
350.538	3524
350.624	2296
350.709	2639
350.795	1479
350.880	1769
350.966	1298
351.051	1714
351.137	3620
351.222	1020
351.308	4116
351.393	20461
351.479	9005
351.564	1612
351.649	2267
351.735	1599
351.820	1093
351.906	1215
351.991	2852
352.076	8720
352.162	23930
352.247	5708
352.332	2705
352.418	3466
352.503	6362
352.588	22081
352.673	31846
352.759	6847
352.844	3690
352.929	1739
353.014	3746
353.100	2356
353.185	3009
353.270	5483
353.355	7426
353.441	1970
353.526	2245
353.611	4148
353.696	8138
353.781	4158
353.866	2392
353.952	1481
354.037	3894
354.122	11880
354.207	13014
354.292	6428
354.377	1777
354.462	1758
354.547	2371
354.632	2293
354.717	3160
354.802	4539
354.887	2482
354.972	770
355.057	1155
355.142	461
355.227	1473
355.312	3185
355.397	6477
355.482	17928
355.567	15625
355.652	6199
355.737	8265
355.822	19925
355.907	33907
355.991	5504
356.076	2048
356.161	772
356.246	1970
356.331	2540
356.416	4252
356.501	30434
356.585	67645
356.670	12050
356.755	4292
356.840	4912
356.924	17119
357.009	95151
357.094	71742
357.179	9798
357.263	6251
357.348	4489
357.433	5105
357.517	3674
357.602	3970
357.687	3114
357.771	3203
357.856	10041
357.941	10176
358.025	13505
358.110	88293
358.195	81516
358.279	11251
358.364	4786
358.448	11250
358.533	46622
358.617	45547
358.702	37183
358.787	21102
358.871	6481
358.956	7213
359.040	1809
359.125	1079
359.209	1663
359.294	3582
359.378	9033
359.462	5254
359.547	3289
359.631	2810
359.716	1089
359.800	1237
359.885	3580
359.969	2997
360.053	1130
360.138	1705
360.222	2243
360.306	5369
360.391	6243
360.475	5698
360.559	17889
360.644	15739
360.728	16920
360.812	14571
360.896	68073
360.981	40569
361.065	17874
361.149	5018
361.233	3358
361.318	2400
361.402	2825
361.486	3450
361.570	2365
361.654	2085
361.739	5722
361.823	27711
361.907	82699
361.991	23364
362.075	4532
362.159	11928
362.243	10266
362.327	5340
362.411	4656
362.495	3471
362.580	2974
362.664	2183
362.748	1062
362.832	1278
362.916	1637
363.000	5064
363.084	20353
363.168	84589
363.252	33703
363.336	5907
363.420	6169
363.503	21037
363.587	58102
363.671	13299
363.755	3390
363.839	6717
363.923	3651
364.007	4448
364.091	8404
364.175	8115
364.258	45564
364.342	47532
364.426	8018
364.510	5788
364.594	6229
364.677	8871
364.761	44244
364.845	66285
364.929	14271
365.013	11781
365.096	6633
365.180	11075
365.264	8284
365.347	51929
365.431	45529
365.515	8971
365.598	3351
365.682	2306
365.766	3932
365.849	8683
365.933	3157
366.017	4293
366.100	4494
366.184	1795
366.267	1783
366.351	1553
366.435	1601
366.518	1278
366.602	914
366.685	1177
366.769	1888
366.852	2834
366.936	9134
367.019	5435
367.103	2439
367.186	7291
367.270	3442
367.353	1128
367.436	1494
367.520	1320
367.603	1475
367.687	3383
367.770	7415
367.853	4996
367.937	10221
368.020	35377
368.104	11900
368.187	4298
368.270	8984
368.353	8850
368.437	6605
368.520	20191
368.603	20788
368.687	13101
368.770	42685
368.853	16274
368.936	5955
369.020	8784
369.103	3639
369.186	1322
369.269	817
369.352	3645
369.436	7899
369.519	5548
369.602	2383
369.685	1496
369.768	3134
369.851	1841
369.934	840
370.018	1484
370.101	5321
370.184	5605
370.267	3735
370.350	4964
370.433	8662
370.516	21607
370.599	45592
370.682	12379
370.765	15930
370.848	22564
370.931	46749
371.014	31210
371.097	4037
371.180	2947
371.263	1253
371.346	988
371.429	1228
371.511	1156
371.594	3388
371.677	6403
371.760	9006
371.843	7185
371.926	20546
372.009	93348
372.091	46697
372.174	13796
372.257	43885
372.340	31119
372.423	9158
372.505	15044
372.588	7959
372.671	8125
372.754	40260
372.836	38605
372.919	10421
373.002	35835
373.085	17399
373.167	6510
373.250	14469
373.332	41742
373.415	48358
373.498	119244
373.580	71694
373.663	33188
373.746	85539
373.828	29117
373.911	6900
373.993	6199
374.076	20547
374.159	43595
374.241	13154
374.324	30992
374.406	36714
374.489	20218
374.571	94106
374.654	70737
374.736	16636
374.819	49612
374.901	78258
374.983	113154
375.066	31718
375.148	5960
375.231	12588
375.313	56246
375.395	30092
375.478	6467
375.560	2585
375.643	3562
375.725	9030
375.807	59545
375.890	82156
375.972	32076
376.054	12375
376.136	17698
376.219	12979
376.301	10677
376.383	63696
376.465	45054
376.548	11536
376.630	13583
376.712	47503
376.794	46295
376.877	5520
376.959	1999
377.041	1840
377.123	3875
377.205	9384
377.287	2344
377.369	1473
377.452	813
377.534	1251
377.616	1915
377.698	1176
377.780	837
377.862	1278
377.944	1527
378.026	911
378.108	1683
378.190	1080
378.272	1332
378.354	749
378.436	1054
378.518	1173
378.600	10354
378.682	12237
378.764	20587
378.846	31445
378.928	6496
379.010	7549
379.091	6351
379.173	2034
379.255	1716
379.337	1745
379.419	7417
379.501	35671
379.583	27661
379.664	3951
379.746	6216
379.828	20714
379.910	36370
379.991	41063
380.073	11202
380.155	2492
380.237	2313
380.318	873
380.400	1366
380.482	1823
380.564	7747
380.645	6579
380.727	7230
380.809	4326
380.890	2629
380.972	1842
381.053	2550
381.135	2064
381.217	4672
381.298	24545
381.380	20013
381.461	7486
381.543	33012
381.624	86657
381.706	24402
381.787	5093
381.869	5775
381.951	10438
382.032	74059
382.113	88495
382.195	17327
382.276	6200
382.358	9311
382.439	43419
382.521	52994
382.602	90613
382.684	53631
382.765	49754
382.846	71803
382.928	50845
383.009	42365
383.090	17025
383.172	46560
383.253	134952
383.334	66800
383.416	66398
383.497	60181
383.578	13529
383.659	13733
383.741	38690
383.822	165477
383.903	152586
383.984	42476
384.066	82859
384.147	81747
384.228	18930
384.309	6291
384.390	6344
384.471	3475
384.553	3842
384.634	5663
384.715	6386
384.796	3554
384.877	3386
384.958	13882
385.039	36229
385.120	15474
385.201	3994
385.282	4152
385.363	5435
385.444	4120
385.525	5599
385.606	27443
385.687	49209
385.768	11881
385.849	7064
385.930	23828
386.011	83478
386.092	39031
386.173	5991
386.254	2954
386.335	3283
386.416	2894
386.496	8815
386.577	29845
386.658	15115
386.739	6045
386.820	4677
386.901	3989
386.981	3336
387.062	2688
387.143	2701
387.224	18035
387.304	32495
387.385	10225
387.466	4541
387.547	5503
387.627	3221
387.708	4170
387.789	30855
387.869	72292
387.950	30481
388.031	3117
388.111	1042
388.192	5396
388.273	10463
388.353	9181
388.434	3887
388.514	5031
388.595	28938
388.676	70651
388.756	39235
388.837	20480
388.917	21696
388.998	5086
389.078	2525
389.159	2373
389.239	1714
389.320	3319
389.400	3456
389.480	5096
389.561	27380
389.641	25358
389.722	4317
389.802	6075
389.883	8314
389.963	30640
390.043	33978
390.124	9578
390.204	5203
390.284	23287
390.365	26579
390.445	15161
390.525	55334
390.605	98425
390.686	32969
390.766	7716
390.846	3333
390.927	1974
391.007	2108
391.087	2125
391.167	2347
391.247	2055
391.328	3579
391.408	5925
391.488	6779
391.568	2322
391.648	2124
391.728	4578
391.808	3491
391.888	4763
391.969	9091
392.049	29232
392.129	16009
392.209	7635
392.289	29929
392.369	27247
392.449	10740
392.529	10587
392.609	5018
392.689	5432
392.769	22030
392.849	37765
392.929	12081
393.009	33624
393.089	43042
393.169	9215
393.248	6996
393.328	50032
393.408	154437
393.488	45676
393.568	6437
393.648	5076
393.728	2901
393.807	3334
393.887	3846
393.967	3893
394.047	5199
394.127	7847
394.206	12341
394.286	34331
394.366	180805
394.446	398985
394.525	153475
394.605	30302
394.685	13163
394.764	16191
394.844	29275
394.924	35489
395.003	11244
395.083	6525
395.163	5336
395.242	4447
395.322	4677
395.402	3274
395.481	5133
395.561	7686
395.640	32264
395.720	33137
395.799	31351
395.879	54386
395.958	26728
396.038	54955
396.117	249468
396.197	509535
396.276	228666
396.356	58514
396.435	27584
396.515	16083
396.594	9527
396.673	11045
396.753	12197
396.832	61967
396.912	116527
396.991	48336
397.070	9656
397.150	4145
397.229	2962
397.308	2490
397.388	2020
397.467	2649
397.546	1519
397.625	1507
397.705	2757
397.784	3539
397.863	2070
397.942	986
398.022	2003
398.101	4087
398.180	29055
398.259	31672
398.338	6013
398.417	2288
398.497	1444
398.576	1797
398.655	1646
398.734	804
398.813	457
398.892	3323
398.971	28414
399.050	37227
399.129	4683
399.208	668
399.287	1177
399.366	686
399.445	1134
399.524	1269
399.603	859
399.682	1376
399.761	5424
399.840	26872
399.919	53365
399.998	11260
400.077	1510
400.156	142
400.235	1110
400.313	1031
400.392	1212
400.471	6625
400.550	23350
400.629	11570
400.708	1874
400.786	1313
400.865	4052
400.944	9375
401.023	5678
401.102	994
401.180	258
401.259	1119
401.338	783
401.416	1175
401.495	1487
401.574	2078
401.652	605
401.731	469
401.810	2132
401.888	638
401.967	-530
402.046	254
402.124	270
402.203	2260
402.281	1639
402.360	877
402.438	4955
402.517	10402
402.596	3010
402.674	1698
402.753	1151
402.831	639
402.910	1309
402.988	3670
403.066	26233
403.145	29140
403.223	7300
403.302	20984
403.380	23038
403.459	18445
403.537	11310
403.615	2266
403.694	493
403.772	1257
403.850	364
403.929	125
404.007	489
404.085	2150
404.164	3827
404.242	2282
404.320	6301
404.398	39120
404.477	56449
404.555	52536
404.633	96811
404.711	47574
404.789	31966
404.868	6104
404.946	2102
405.024	1054
405.102	-10
405.180	794
405.258	232
405.336	399
405.415	-380
405.493	2034
405.571	3428
405.649	875
405.727	-876
405.805	1859
405.883	1626
405.961	1660
406.039	2115
406.117	1558
406.195	1711
406.273	5398
406.351	42519
406.429	60940
406.507	11118
406.585	2880
406.663	1044
406.740	1555
406.818	1502
406.896	1615
406.974	528
407.052	1934
407.130	14732
407.208	58559
407.285	22985
407.363	1686
407.441	628
407.519	848
407.596	789
407.674	2325
407.752	9826
407.830	23111
407.907	10939
407.985	2778
408.063	745
408.141	376
408.218	112
408.296	1984
408.373	1402
408.451	860
408.529	1284
408.606	562
408.684	-115
408.762	-721
408.839	-937
408.917	-940
408.994	-171
409.072	-1119
409.149	79
409.227	152
409.304	-361
409.382	-142
409.459	-350
409.537	427
409.614	40
409.692	229
409.769	-312
409.846	10
409.924	30
410.001	198
410.079	264
410.156	-37
410.233	146
410.311	549
410.388	489
410.465	66
410.543	657
410.620	382
410.697	-58
410.775	1073
410.852	-77
410.929	-208
411.006	1094
411.083	-242
411.161	996
411.238	2713
411.315	2126
411.392	354
411.469	661
411.547	361
411.624	-467
411.701	75
411.778	270
411.855	2490
411.932	2682
412.009	238
412.086	-30
412.163	-359
412.240	624
412.317	1240
412.394	1470
412.471	1205
412.548	-223
412.625	-75
412.702	533
412.779	948
412.856	2434
412.933	160
413.010	-374
413.087	563
413.164	4454
413.241	19640
413.318	8207
413.395	1471
413.471	1665
413.548	2994
413.625	-245
413.702	431
413.779	1392
413.855	326
413.932	-628
414.009	-659
414.086	-165
414.162	390
414.239	-77
414.316	3868
414.393	23434
414.469	21162
414.546	2421
414.623	-74
414.699	-82
414.776	940
414.853	204
414.929	1101
415.006	-252
415.082	1160
415.159	939
415.236	34
415.312	582
415.389	1061
415.465	2956
415.542	1660
415.618	-395
415.695	1626
415.771	731
415.848	347
415.924	648
416.000	548
416.077	210
416.153	-578
416.230	-801
416.306	-255
416.383	-12
416.459	-52
416.535	-54
416.612	-302
416.688	-230
416.764	-115
416.841	-660
416.917	253
416.993	208
417.069	35
417.146	748
417.222	2637
417.298	2660
417.374	485
417.451	447
417.527	463
417.603	1212
417.679	588
417.755	433
417.831	153
417.908	127
417.984	-178
418.060	-716
418.136	436
418.212	3909
418.288	2575
418.364	-212
418.440	-560
418.516	994
418.592	1026
418.668	3981
418.744	6134
418.820	7265
418.896	2502
418.972	-545
419.048	-280
419.124	1018
419.200	3590
419.276	623
419.352	238
419.428	-798
419.504	-66
419.579	-61
419.655	314
419.731	85
419.807	1950
419.883	6711
419.959	8854
420.034	2732
420.110	506
420.186	9525
420.262	21113
420.337	4445
420.413	1203
420.489	411
420.565	86
420.640	33
420.716	910
420.792	-1004
420.867	320
420.943	-825
421.019	623
421.094	1436
421.170	604
421.245	-815
421.321	341
421.397	-261
421.472	1112
421.548	4551
421.623	10016
421.699	2224
421.774	858
421.850	-245
421.925	884
422.001	1519
422.076	393
422.152	-220
422.227	964
422.302	1890
422.378	350
422.453	1718
422.529	3278
422.604	13559
422.679	84884
422.755	92630
422.830	20606
422.905	2792
422.981	474
423.056	379
423.131	320
423.207	-228
423.282	-220
423.357	1224
423.432	3840
423.508	885
423.583	4155
423.658	7717
423.733	2063
423.808	776
423.883	1882
423.959	1329
424.034	339
424.109	502
424.184	-363
424.259	-345
424.334	91
424.409	-502
424.484	168
424.559	432
424.634	45
424.709	-411
424.784	1535
424.859	914
424.934	230
425.009	4922
425.084	16833
425.159	15455
425.234	1846
425.309	-487
425.384	477
425.459	3837
425.534	2808
425.609	194
425.683	470
425.758	-464
425.833	767
425.908	438
425.983	1662
426.058	12887
426.132	16596
426.207	2801
426.282	1660
426.357	1671
426.431	786
426.506	167
426.581	-74
426.655	529
426.730	68
426.805	143
426.879	-203
426.954	-482
427.029	765
427.103	5779
427.178	39586
427.253	48555
427.327	7856
427.402	774
427.476	4470
427.551	4848
427.625	495
427.700	1002
427.774	-427
427.849	369
427.923	-82
427.998	-341
428.072	-328
428.147	623
428.221	2488
428.296	7673
428.370	5216
428.444	847
428.519	533
428.593	3528
428.667	6567
428.742	4616
428.816	5311
428.890	4900
428.965	12430
429.039	7282
429.113	6738
429.188	5884
429.262	770
429.336	264
429.410	5400
429.485	9544
429.559	2999
429.633	6742
429.707	1840
429.781	583
429.855	5788
429.930	19647
430.004	15960
430.078	22455
430.152	35939
430.226	13560
430.300	10555
430.374	3649
430.448	728
430.522	1921
430.596	20747
430.670	35229
430.744	12887
430.818	49858
430.892	35965
430.966	4044
431.040	461
431.114	-792
431.188	-110
431.262	-984
431.336	71
431.410	178
431.484	4445
431.557	10353
431.631	1608
431.705	-493
431.779	-895
431.853	1056
431.927	3975
432.000	546
432.074	-451
432.148	-904
432.222	741
432.295	-243
432.369	-281
432.443	-309
432.516	5377
432.590	39665
432.664	46494
432.737	7823
432.811	-313
432.885	-295
432.958	-32
433.032	-330
433.106	-476
433.179	-544
433.253	-1079
433.326	-356
433.400	-1427
433.473	-580
433.547	-607
433.620	-427
433.694	-228
433.767	2495
433.841	-134
433.914	-740
433.988	-1044
434.061	-1048
434.134	-369
434.208	-414
434.281	-722
434.355	-934
434.428	-609
434.501	-895
434.575	-672
434.648	-725
434.721	-1332
434.795	-1350
434.868	-1072
434.941	-1292
435.014	-828
435.088	-879
435.161	-722
435.234	-468
435.307	1125
435.381	200
435.454	142
435.527	-1474
435.600	-970
435.673	-224
435.746	-1092
435.819	-886
435.892	-543
435.966	-871
436.039	-812
436.112	-359
436.185	-733
436.258	-984
436.331	-906
436.404	-564
436.477	-1238
436.550	-1544
436.623	-685
436.696	-1261
436.769	-387
436.842	-570
436.915	-593
436.987	-548
437.060	-41
437.133	-243
437.206	-757
437.279	-688
437.352	-507
437.425	-720
437.498	-192
437.570	573
437.643	3287
437.716	70
437.789	-703
437.861	156
437.934	1260
438.007	2873
438.080	-1
438.152	-516
438.225	600
438.298	5617
438.370	54428
438.443	74085
438.516	15225
438.588	2327
438.661	122
438.734	140
438.806	-18
438.879	97
438.951	103
439.024	881
439.096	249
439.169	-384
439.241	182
439.314	-1420
439.386	-335
439.459	425
439.531	1235
439.604	1344
439.676	388
439.749	-710
439.821	-1230
439.893	-124
439.966	-371
440.038	-665
440.110	-515
440.183	-55
440.255	-348
440.327	53
440.400	2048
440.472	21999
440.544	54698
440.617	16619
440.689	2079
440.761	285
440.833	1656
440.905	2389
440.978	850
441.050	-877
441.122	-622
441.194	-879
441.266	-42
441.338	-755
441.411	-749
441.483	3242
441.555	20470
441.627	14055
441.699	1934
441.771	636
441.843	1166
441.915	-702
441.987	190
442.059	-717
442.131	20
442.203	803
442.275	413
442.347	1577
442.419	84
442.491	-688
442.563	874
442.635	2419
442.706	3442
442.778	10421
442.850	3302
442.922	-633
442.994	-327
443.066	474
443.137	870
443.209	196
443.281	-177
443.353	130
443.425	1612
443.496	2000
443.568	5723
443.640	2163
443.711	1071
443.783	-345
443.855	-555
443.926	-57
443.998	-790
444.070	-453
444.141	-36
444.213	-243
444.285	2109
444.356	1785
444.428	1556
444.499	101
444.571	-75
444.642	-1590
444.714	-526
444.785	417
444.857	1312
444.928	2142
445.000	5235
445.071	1365
445.143	3370
445.214	2853
445.285	282
445.357	2718
445.428	7677
445.500	8452
445.571	12234
445.642	6904
445.714	2140
445.785	7513
445.856	6677
445.928	1897
445.999	1784
446.070	1238
446.141	-9
446.213	1764
446.284	2206
446.355	-160
446.426	269
446.497	-444
446.569	-17
446.640	1645
446.711	2651
446.782	940
446.853	-486
446.924	722
446.995	269
447.066	-282
447.138	733
447.209	1525
447.280	-103
447.351	-1021
447.422	-568
447.493	-1111
447.564	604
447.635	845
447.706	1571
447.777	-224
447.847	-435
447.918	27
447.989	-662
448.060	848
448.131	1630
448.202	3980
448.273	3106
448.344	1481
448.414	580
448.485	67
448.556	-44
448.627	-970
448.698	-314
448.768	-342
448.839	-1086
448.910	-246
448.981	1610
449.051	928
449.122	-114
449.193	-703
449.263	-733
449.334	-236
449.405	59
449.475	1878
449.546	3007
449.616	1537
449.687	2760
449.758	1142
449.828	273
449.899	-35
449.969	-421
450.040	-307
450.110	336
450.181	-48
450.251	826
450.322	-996
450.392	613
450.463	-82
450.533	-331
450.604	-40
450.674	-259
450.744	-529
450.815	-1204
450.885	-38
450.955	-385
451.026	-701
451.096	-154
451.166	270
451.237	119
451.307	3389
451.377	6051
451.447	419
451.518	306
451.588	-592
451.658	-8
451.728	53
451.799	1864
451.869	8766
451.939	5568
452.009	536
452.079	-208
452.149	423
452.219	326
452.289	2148
452.360	9347
452.430	3833
452.500	163
452.570	601
452.640	825
452.710	1071
452.780	5495
452.850	5869
452.920	5836
452.990	4590
453.060	1090
453.129	1297
453.199	2316
453.269	3161
453.339	25447
453.409	47788
453.479	27232
453.549	38284
453.619	48949
453.688	43589
453.758	11961
453.828	1680
453.898	445
453.968	195
454.037	492
454.087	219
454.107	83
454.168	101
454.177	75
454.247	432
454.249	441
454.316	16
454.330	82
454.386	282
454.411	910
454.456	1431
454.492	3964
454.525	6073
454.574	5248
454.595	4946
454.655	1587
454.665	1059
454.734	770
454.736	848
454.804	2108
454.817	2650
454.873	3282
454.898	5736
454.943	9485
454.979	8043
455.013	7153
455.060	3994
455.082	2797
455.141	2246
455.152	2174
455.221	5388
455.222	5627
455.291	13623
455.303	14853
455.360	20203
455.384	25108
455.430	27088
455.465	32231
455.499	38285
455.546	21838
455.569	14071
455.627	9275
455.638	8531
455.707	3945
455.708	3957
455.777	1403
455.789	1568
455.846	1874
455.869	1798
455.916	1755
455.950	1597
455.985	1369
456.031	1398
456.054	1324
456.112	746
456.124	650
456.193	1245
456.193	1219
456.262	1752
456.274	1833
456.332	1941
456.355	1986
456.401	1751
456.436	1766
456.470	1860
456.516	1879
456.540	1811
456.597	1118
456.609	960
456.678	1637
456.678	1619
456.747	1501
456.759	1479
456.817	1307
456.840	1402
456.886	1495
456.920	1539
456.955	1618
457.001	1697
457.024	1767
457.082	2266
457.093	2333
457.162	2582
457.163	2612
457.232	2594
457.243	2656
457.301	2771
457.324	2329
457.370	1685
457.405	1792
457.439	1806
457.485	1997
457.508	2152
457.566	2254
457.577	2242
457.646	2828
457.647	2853
457.715	2790
457.727	2903
457.784	3092
457.808	2964
457.853	2978
457.889	3152
457.922	3176
457.969	3553
457.991	3640
458.050	3616
458.060	3581
458.129	3567
458.130	3581
458.198	2831
458.211	2851
458.267	2806
458.292	2640
458.336	2704
458.372	2618
458.405	2686
458.453	3151
458.474	3301
458.533	4106
458.543	4226
458.611	4618
458.614	4697
458.680	4570
458.694	4286
458.749	3660
458.775	3256
458.818	2775
458.855	2751
458.887	2817
458.936	3072
458.955	2999
459.016	3234
459.024	3370
459.093	3727
459.097	3769
459.162	4063
459.177	4229
459.230	4766
459.257	4998
459.299	5015
459.338	5137
459.368	5239
459.418	5270
459.437	4960
459.499	4360
459.505	4422
459.574	4538
459.579	4608
459.643	4665
459.659	4594
459.711	4581
459.740	4600
459.780	4676
459.820	4674
459.849	4887
459.900	5639
459.917	5606
459.981	5667
459.986	5685
460.054	5504
460.061	5504
460.123	5863
460.141	6040
460.191	7186
460.222	8060
460.260	9108
460.302	10184
460.328	9271
460.382	8023
460.397	8121
460.462	7156
460.465	7174
460.534	8434
460.543	8595
460.602	19275
460.623	23176
460.671	41240
460.703	54348
460.739	47301
460.783	42569
460.808	36451
460.864	12446
460.876	11662
460.944	6089
460.945	6022
461.013	6179
461.024	6172
461.081	6007
461.104	6063
461.150	5880
461.184	5935
461.218	5800
461.264	5181
461.286	5299
461.345	5942
461.355	5970
461.423	5987
461.425	5988
461.491	5356
461.505	5290
461.559	8329
461.585	9634
461.628	16241
461.665	22366
461.696	25159
461.745	30040
461.764	25028
461.825	9832
461.832	9966
461.901	7550
461.905	7429
461.969	6084
461.985	6078
462.037	6189
462.065	6128
462.105	6093
462.145	6173
462.173	8518
462.225	12642
462.241	14374
462.305	21730
462.310	21099
462.378	11878
462.385	10763
462.446	8825
462.465	7755
462.514	7057
462.545	7173
462.582	7021
462.625	7043
462.650	6834
462.705	6097
462.718	6278
462.785	7388
462.786	7424
462.854	9431
462.865	9705
462.922	11450
462.945	12367
462.990	9887
463.025	7681
463.058	7262
463.104	6365
463.126	6192
463.184	6094
463.194	6223
463.262	6989
463.264	7021
463.330	7073
463.344	7014
463.398	7535
463.424	7770
463.466	7535
463.504	7501
463.533	7571
463.583	7471
463.601	7609
463.663	8019
463.669	8219
463.737	10380
463.743	10606
463.805	14138
463.823	15110
463.873	23566
463.903	28470
463.940	30473
463.982	33290
464.008	26689
464.062	12576
464.076	12080
464.142	8340
464.144	8336
464.211	8043
464.221	8055
464.279	7848
464.301	7822
464.347	8476
464.381	8935
464.414	9345
464.461	10004
464.482	10859
464.540	12874
464.550	12494
464.617	9876
464.620	9765
464.685	11677
464.699	12074
464.753	15799
464.779	17645
464.820	19992
464.859	22372
464.888	21583
464.938	19956
464.956	19682
465.018	18238
465.023	18099
465.091	16141
465.098	15895
465.158	15582
465.177	15483
465.226	15431
465.257	15339
465.293	15879
465.336	16554
465.361	17564
465.416	19746
465.428	20199
465.495	22362
465.496	22473
465.563	34070
465.575	35988
465.631	45981
465.654	50290
465.698	33066
465.734	18769
465.765	17645
465.813	15299
465.833	15020
465.893	14291
465.900	14326
465.968	14654
465.972	14649
466.035	14122
466.052	13951
466.102	14722
466.131	15112
466.170	14683
466.210	14124
466.237	14388
466.290	14903
466.304	15046
466.369	15440
466.372	15494
466.439	16203
466.449	16274
466.506	17163
466.528	17452
466.573	20502
466.607	22701
466.641	32697
466.687	46516
466.708	53410
466.766	72166
466.775	67040
466.842	27608
466.845	25678
466.909	19981
466.925	18532
466.977	17630
467.004	17184
467.044	18397
467.083	19547
467.111	22268
467.163	27267
467.178	28460
467.242	33125
467.245	33024
467.312	29411
467.321	28868
467.379	26812
467.400	25980
467.446	26834
467.480	27353
467.559	25537
467.638	23255
467.717	23288
467.796	24591
467.875	26186
467.955	25516
468.034	29692
468.113	56857
468.192	90131
468.271	31053
468.350	21148
468.429	20645
468.508	19563
468.588	19177
468.667	20250
468.746	20879
468.825	20146
468.904	18652
468.983	21318
469.062	28340
469.141	35760
469.220	20788
469.299	18730
469.378	23424
469.456	29456
469.535	28166
469.614	25036
469.693	24514
469.772	27508
469.851	33733
469.930	28946
470.009	23407
470.088	22210
470.166	22870
470.245	24755
470.324	28619
470.403	24616
470.482	20724
470.560	21552
470.639	21294
470.718	24960
470.797	21134
470.875	22537
470.954	26204
471.033	30907
471.111	20056
471.190	18343
471.269	18076
471.347	18245
471.426	18904
471.505	21985
471.583	25625
471.662	25909
471.740	21203
471.819	22324
471.898	20950
471.976	20291
472.055	20113
472.133	21751
472.212	23901
472.290	26386
472.369	20966
472.447	19727
472.526	18364
472.604	20810
472.683	19614
472.761	20682
472.839	19503
472.918	18838
472.996	19279
473.075	20662
473.153	20341
473.231	17564
473.310	20000
473.388	21042
473.466	19364
473.545	21550
473.623	27871
473.701	27359
473.780	19825
473.858	19316
473.936	19582
474.014	18682
474.093	19793
474.171	23541
474.249	32316
474.327	24239
474.405	17839
474.484	17291
474.562	17247
474.640	17711
474.718	16579
474.796	18104
474.874	16323
474.952	15850
475.030	16360
475.108	15022
475.187	17520
475.265	17143
475.343	22053
475.421	27526
475.499	19803
475.577	18836
475.655	18931
475.733	29420
475.811	50351
475.889	48946
475.966	37064
476.044	18119
476.122	18446
476.200	22950
476.278	20788
476.356	16575
476.434	17928
476.512	19048
476.590	21910
476.667	21362
476.745	15346
476.823	17728
476.901	16594
476.979	16898
477.056	16623
477.134	17437
477.212	17388
477.290	17000
477.367	15843
477.445	14942
477.523	14525
477.601	15296
477.678	14028
477.756	17189
477.834	19258
477.911	15443
477.989	14855
478.066	15212
478.144	16338
478.222	18101
478.299	23973
478.377	24607
478.454	14400
478.532	14123
478.609	14178
478.687	16473
478.764	14441
478.842	15242
478.919	15294
478.997	14714
479.074	14316
479.152	14841
479.229	17841
479.307	14490
479.384	12538
479.461	12823
479.539	12290
479.616	15398
479.694	14244
479.771	14935
479.848	15157
479.926	18609
480.003	20271
480.080	13712
480.157	11839
480.235	13619
480.312	13377
480.389	14126
480.467	18484
480.544	24767
480.621	15337
480.698	14748
480.775	15640
480.853	16366
480.930	13187
481.007	15459
481.084	14803
481.161	17417
481.238	16586
481.315	12691
481.392	12405
481.470	12384
481.547	12431
481.624	14004
481.701	12180
481.778	13524
481.855	14372
481.932	17331
482.009	28981
482.086	24686
482.163	12705
482.240	15009
482.317	25391
482.393	22847
482.470	13253
482.547	12898
482.624	11909
482.701	13430
482.778	12617
482.855	11319
482.932	11553
483.009	11513
483.085	12426
483.162	14011
483.239	13198
483.316	11516
483.393	11136
483.469	11006
483.546	11864
483.623	14528
483.699	12351
483.776	13111
483.853	14772
483.930	18199
484.006	36941
484.083	80153
484.160	53274
484.236	99956
484.313	79636
484.389	57690
484.466	47537
484.543	46703
484.619	45361
484.696	45741
484.772	46791
484.849	49233
484.925	43543
485.002	43179
485.078	43307
485.155	44739
485.231	41732
485.308	41157
485.384	40821
485.461	44744
485.537	56600
485.614	71417
485.690	42156
485.766	38710
485.843	39273
485.919	47888
485.995	54445
486.072	37149
486.148	36033
486.224	35922
486.301	36207
486.377	40569
486.453	39934
486.530	38215
486.606	53654
486.682	62633
486.758	60702
486.835	68391
486.911	53227
486.987	73357
487.063	79270
487.139	103427
487.215	79801
487.292	47079
487.368	39556
487.444	41879
487.520	43632
487.596	41181
487.672	40267
487.748	45097
487.824	53831
487.900	41434
487.976	36844
488.052	36777
488.128	42158
488.204	39939
488.280	35425
488.356	39228
488.432	54859
488.508	91070
488.584	44520
488.660	33756
488.736	34121
488.812	35383
488.888	42698
488.964	49538
489.039	82973
489.115	136589
489.191	95927
489.267	36932
489.343	33890
489.418	30440
489.494	30620
489.570	28992
489.646	30367
489.722	30199
489.797	30924
489.873	34408
489.949	62458
490.024	64945
490.100	29050
490.176	28350
490.251	31048
490.327	40858
490.403	27735
490.478	27980
490.554	22872
490.629	25484
490.705	23100
490.781	26970
490.856	24207
490.932	28914
491.007	26585
491.083	29220
491.158	24496
491.234	28693
491.309	45567
491.385	56908
491.460	27518
491.536	25552
491.611	25747
491.686	25082
491.762	31970
491.837	50197
491.913	92265
491.988	105127
492.063	173397
492.139	50751
492.214	32952
492.289	22676
492.365	19418
492.440	25053
492.515	22075
492.590	24975
492.666	19169
492.741	22840
492.816	33160
492.891	22477
492.967	21069
493.042	19005
493.117	23279
493.192	24298
493.267	34799
493.342	107881
493.418	215522
493.493	46439
493.568	18573
493.643	18088
493.718	21086
493.793	25189
493.868	34701
493.943	24574
494.018	19495
494.093	17168
494.168	16827
494.243	17294
494.318	15978
494.393	15780
494.468	16185
494.543	15551
494.618	18345
494.693	16936
494.768	14764
494.842	18564
494.917	13634
494.992	16583
495.067	15744
495.142	14023
495.217	16328
495.292	15577
495.366	17803
495.441	22225
495.516	26805
495.591	33355
495.665	81018
495.740	263150
495.815	133637
495.890	26022
495.964	19250
496.039	21164
496.114	19723
496.188	20306
496.263	22079
496.338	17526
496.412	19703
496.487	23862
496.561	22144
496.636	26134
496.710	21328
496.785	19940
496.860	23447
496.934	20294
497.009	18784
497.083	19014
497.158	20308
497.232	21687
497.307	25167
497.381	21528
497.455	20914
497.530	28809
497.604	22020
497.679	20842
497.753	29287
497.827	40903
497.902	34687
497.976	41886
498.050	73317
498.125	306718
498.199	459214
498.273	70110
498.348	39882
498.422	34315
498.496	32541
498.570	32223
498.645	23264
498.719	23948
498.793	26080
498.867	37942
498.941	53319
499.016	103515
499.090	411281
499.164	198115
499.238	24646
499.312	18063
499.386	25482
499.460	23936
499.534	18345
499.609	22126
499.683	35036
499.757	33874
499.831	48202
499.905	223536
499.979	312690
500.053	46256
500.127	40791
500.201	33824
500.275	21109
500.349	20488
500.422	23045
500.496	29495
500.570	57367
500.644	117606
500.718	301297
500.792	85699
500.866	20039
500.940	25807
501.013	22539
501.087	19953
501.161	35096
501.235	50365
501.309	66416
501.382	205866
501.456	260522
501.530	47731
501.603	80024
501.677	41527
501.751	17097
501.825	19371
501.898	28037
501.972	87732
502.046	76153
502.119	20921
502.193	34881
502.266	100704
502.340	62536
502.413	35493
502.487	90193
502.561	57341
502.634	21540
502.708	17629
502.781	16543
502.855	13531
502.928	12029
503.002	12557
503.075	10867
503.149	12882
503.222	13160
503.295	14232
503.369	16522
503.442	20786
503.516	47894
503.589	161246
503.662	131422
503.736	34245
503.809	68961
503.882	71722
503.956	82403
504.029	101679
504.102	32027
504.175	31600
504.249	15401
504.322	15505
504.395	16586
504.468	12682
504.542	13204
504.615	11779
504.688	10988
504.761	11488
504.834	13171
504.907	16580
504.980	29602
505.053	17155
505.127	19286
505.200	23697
505.273	18600
505.346	13230
505.419	10815
505.492	10309
505.565	9048
505.638	9065
505.711	9279
505.784	9360
505.857	8800
505.930	10225
506.003	9848
506.076	11154
506.149	12297
506.221	18746
506.294	15368
506.367	29861
506.440	117550
506.513	92707
506.586	18404
506.659	13227
506.731	11302
506.804	12192
506.877	19201
506.950	14043
507.022	9528
507.095	11602
507.168	16174
507.241	11317
507.313	9908
507.386	9629
507.459	14777
507.531	12149
507.604	10084
507.677	9915
507.749	9844
507.822	12321
507.894	27264
507.967	43525
508.040	26118
508.112	21948
508.185	20029
508.257	18370
508.330	24737
508.402	19629
508.475	17388
508.547	17644
508.620	16900
508.692	23176
508.765	19165
508.837	15796
508.909	14588
508.982	14312
509.054	16688
509.127	15670
509.199	13311
509.271	14013
509.344	13505
509.416	14542
509.488	14337
509.560	15004
509.633	15561
509.705	18349
509.777	17186
509.849	23283
509.922	20061
509.994	17759
510.066	17234
510.138	18540
510.210	35041
510.283	38047
510.355	28929
510.427	24749
510.499	21844
510.571	20448
510.643	21970
510.715	27897
510.787	31237
510.859	20838
510.931	23713
511.003	29894
511.076	31434
511.148	21256
511.219	20845
511.291	26307
511.363	31774
511.435	21005
511.507	19040
511.579	18888
511.651	17701
511.723	18296
511.795	16954
511.867	18002
511.939	18005
512.010	27729
512.082	28953
512.154	17728
512.226	19557
512.298	24264
512.369	43507
512.441	33167
512.513	30084
512.585	25464
512.656	23926
512.728	25516
512.800	21867
512.871	19974
512.943	20656
513.015	18919
513.086	20769
513.158	20971
513.230	20348
513.301	25171
513.373	30504
513.444	21600
513.516	18837
513.588	19090
513.659	18635
513.731	22918
513.802	20956
513.874	29502
513.945	60581
514.016	29741
514.088	19218
514.159	20638
514.231	22213
514.302	36655
514.374	28719
514.445	26313
514.516	34316
514.588	33767
514.659	22329
514.730	32228
514.802	29653
514.873	22719
514.944	22135
515.016	22197
515.087	23906
515.158	25809
515.229	36271
515.301	21416
515.372	22774
515.443	19948
515.514	18625
515.585	16902
515.656	17076
515.728	16722
515.799	16300
515.870	17240
515.941	16943
516.012	19413
516.083	23785
516.154	28729
516.225	29734
516.296	27749
516.367	24920
516.438	25697
516.509	29663
516.580	38053
516.651	71027
516.722	277337
516.793	215732
516.864	42103
516.935	38491
517.006	38536
517.077	48473
517.148	95327
517.219	208610
517.289	510450
517.360	185682
517.431	85223
517.502	27281
517.573	23868
517.643	21957
517.714	26947
517.785	27925
517.856	25687
517.926	27793
517.997	28920
518.068	35132
518.138	43888
518.209	57078
518.280	133323
518.350	610597
518.421	387809
518.492	48228
518.562	27729
518.633	24830
518.703	23125
518.774	21484
518.845	23054
518.915	25235
518.986	23350
519.056	25839
519.127	44987
519.197	66668
519.268	132439
519.338	123871
519.408	31443
519.479	34834
519.549	31172
519.620	20201
519.690	16958
519.760	17486
519.831	17504
519.901	19245
519.971	14892
520.042	16495
520.112	18575
520.182	19361
520.253	25416
520.323	18907
520.393	20429
520.463	29406
520.534	20737
520.604	34567
520.674	24299
520.744	19798
520.814	35773
520.885	43108
520.955	37376
521.025	146919
521.095	101254
521.165	19740
521.235	18099
521.305	16952
521.375	15204
521.445	16533
521.515	20101
521.585	22281
521.655	26929
521.725	17989
521.795	19184
521.865	15060
521.935	18473
522.005	20976
522.075	14385
522.145	14802
522.215	15872
522.285	19855
522.355	24235
522.424	39711
522.494	44163
522.564	25946
522.634	35083
522.704	118236
522.774	76021
522.843	17444
522.913	15323
522.983	18816
523.053	16816
523.122	15033
523.192	19085
523.262	50916
523.331	79602
523.401	19015
523.471	12653
523.540	13660
523.610	12278
523.680	11375
523.749	11639
523.819	12620
523.888	15022
523.958	11687
524.027	11477
524.097	12917
524.166	12575
524.236	13807
524.305	13838
524.375	11591
524.444	11866
524.514	12717
524.583	12331
524.653	15204
524.722	17198
524.791	13038
524.861	11256
524.930	11694
524.999	12646
525.069	16400
525.138	14928
525.207	15894
525.277	13486
525.346	12406
525.415	11344
525.484	11760
525.554	12672
525.623	12891
525.692	11339
525.761	11062
525.830	10444
525.900	9856
525.969	11678
526.038	12695
526.107	11047
526.176	16960
526.245	18640
526.314	18045
526.383	20893
526.452	19700
526.522	23507
526.591	39870
526.660	56269
526.729	35198
526.797	29361
526.867	54766
526.935	255169
527.004	278194
527.073	95873
527.142	18447
527.211	12996
527.280	13086
527.349	16856
527.418	10381
527.487	10065
527.555	9485
527.624	9358
527.693	9272
527.762	9128
527.831	8284
527.899	8770
527.968	9042
528.037	9755
528.106	11033
528.174	20228
528.243	17665
528.312	18874
528.380	33127
528.449	13954
528.518	9105
528.586	8018
528.655	8094
528.723	8491
528.792	7861
528.861	9492
528.929	7455
528.998	7942
529.066	8017
529.135	8192
529.203	7115
529.272	7502
529.340	8426
529.409	8385
529.477	7982
529.545	9982
529.614	12287
529.682	10565
529.751	13964
529.819	12228
529.887	10379
529.956	8004
530.024	7581
530.092	7810
530.161	9080
530.229	14439
530.297	11073
530.365	8061
530.434	6830
530.502	6406
530.570	7979
530.638	6720
530.707	8355
530.775	9766
530.843	7762
530.911	7785
530.979	7308
531.047	7635
531.115	6986
531.183	8274
531.252	6776
531.320	7634
531.388	7780
531.456	7137
531.524	6277
531.592	7466
531.660	8424
531.728	8419
531.796	7095
531.864	7086
531.932	8221
532.000	8168
532.067	7766
532.135	9169
532.203	11133
532.271	13004
532.339	17112
532.407	45959
532.475	40146
532.542	18074
532.610	18475
532.678	25279
532.746	60209
532.814	258537
532.881	102400
532.949	14970
533.017	10479
533.084	9183
533.152	8461
533.220	8169
533.287	10339
533.355	8959
533.423	7318
533.490	6966
533.558	8104
533.625	9851
533.693	11111
533.761	11277
533.828	12141
533.896	12333
533.963	20498
534.031	30591
534.098	35106
534.166	23730
534.233	12433
534.300	12431
534.368	12971
534.435	11638
534.503	9872
534.570	10296
534.637	8911
534.705	8689
534.772	8138
534.840	8181
534.907	9803
534.974	12824
535.041	9857
535.109	10410
535.176	8017
535.243	8030
535.310	7738
535.378	7759
535.445	8167
535.512	7183
535.579	7857
535.646	9237
535.714	9392
535.781	13260
535.848	13715
535.915	14168
535.982	16435
536.049	17392
536.116	15135
536.183	12288
536.250	12104
536.317	12057
536.384	12442
536.451	15051
536.518	17886
536.585	13464
536.652	13249
536.719	19408
536.786	20362
536.853	15469
536.920	17991
536.987	30608
537.053	31574
537.120	90181
537.187	150247
537.254	18932
537.321	10094
537.388	11079
537.454	7957
537.521	8660
537.588	8323
537.654	10112
537.721	13838
537.788	13729
537.855	10222
537.921	10104
537.988	11353
538.055	10621
538.121	10678
538.188	10753
538.254	13338
538.321	27123
538.388	22687
538.454	10139
538.521	9373
538.587	9267
538.654	9299
538.720	9191
538.787	8459
538.853	9873
538.920	12069
538.986	12897
539.053	10674
539.119	11236
539.185	11122
539.252	12563
539.318	17292
539.385	16145
539.451	16552
539.517	16508
539.583	17532
539.650	26921
539.716	92655
539.782	46548
539.849	12888
539.915	12284
539.981	11166
540.047	13845
540.114	13256
540.180	12849
540.246	13960
540.312	15129
540.378	26420
540.444	34351
540.510	28787
540.576	96212
540.643	59479
540.709	12258
540.775	11016
540.841	12280
540.907	12557
540.973	21273
541.039	20727
541.105	22344
541.171	14761
541.237	12297
541.303	11653
541.369	13222
541.435	14396
541.500	23656
541.566	20814
541.632	11422
541.698	9891
541.764	9338
541.830	9845
541.896	9870
541.961	10818
542.027	11029
542.093	10930
542.159	11360
542.224	13358
542.290	16870
542.356	23793
542.421	32798
542.487	19029
542.553	13450
542.618	14618
542.684	14185
542.750	12959
542.815	15136
542.881	21089
542.947	68816
543.012	95204
543.078	16535
543.143	12135
543.209	13763
543.274	13239
543.340	17070
543.405	25170
543.471	64023
543.536	22614
543.602	12353
543.667	11035
543.732	10631
543.798	9883
543.863	11609
543.928	10837
543.994	9950
544.059	9594
544.124	10633
544.190	10677
544.255	10685
544.320	11006
544.386	12532
544.451	15254
544.516	20039
544.581	19945
544.646	38546
544.712	103050
544.777	30842
544.842	14645
544.907	16053
544.972	14032
545.037	13290
545.102	13966
545.168	14390
545.233	13838
545.298	15413
545.363	17816
545.428	20364
545.493	26629
545.558	67009
545.623	46711
545.688	15700
545.753	13353
545.818	12952
545.883	13081
545.947	14452
546.012	13997
546.077	13879
546.142	14135
546.207	13672
546.272	15339
546.337	18452
546.401	16866
546.466	14736
546.531	13159
546.596	14299
546.661	13704
546.725	13322
546.790	11178
546.855	12331
546.919	11468
546.984	12240
547.049	12649
547.113	13896
547.178	11852
547.243	12668
547.307	12697
547.372	14484
547.436	16605
547.501	13787
547.565	12267
547.630	13630
547.695	16114
547.759	16096
547.823	15020
547.888	12090
547.952	11771
548.017	12396
548.081	13534
548.146	18042
548.210	16877
548.274	11908
548.339	11668
548.403	11377
548.468	10324
548.532	10969
548.596	11258
548.660	11636
548.725	11041
548.789	14155
548.853	15237
548.917	12701
548.982	14067
549.046	18022
549.110	11507
549.174	10756
549.238	10784
549.303	10435
549.367	10831
549.431	11045
549.495	10644
549.559	11004
549.623	10713
549.687	12265
549.751	20990
549.815	16827
549.879	12084
549.943	11274
550.007	12399
550.071	13043
550.135	18092
550.199	16412
550.263	11773
550.327	13271
550.391	15834
550.455	15348
550.519	11478
550.582	12394
550.646	15858
550.710	22763
550.774	12521
550.838	11228
550.901	11263
550.965	12404
551.029	12366
551.093	13794
551.156	15528
551.220	26473
551.284	39561
551.347	19351
551.411	28744
551.475	54342
551.538	18468
551.602	11262
551.666	10766
551.729	11332
551.793	10462
551.856	11004
551.920	12203
551.983	13409
552.047	9572
552.110	10656
552.174	9373
552.237	10915
552.301	9744
552.364	9886
552.428	9424
552.491	10104
552.554	11072
552.618	11412
552.681	11393
552.745	11410
552.808	14729
552.871	22220
552.934	17459
552.998	12439
553.061	13024
553.124	13677
553.187	13998
553.251	15927
553.314	18935
553.377	21436
553.440	29734
553.503	70616
553.567	215630
553.630	71448
553.693	14774
553.756	12338
553.819	10555
553.882	11533
553.945	9938
554.008	9683
554.071	9737
554.134	10081
554.197	9665
554.260	8666
554.323	9819
554.386	10467
554.449	9746
554.512	9285
554.575	9043
554.638	9334
554.701	9448
554.764	9189
554.827	9687
554.889	8492
554.952	9206
555.015	8697
555.078	8582
555.141	9479
555.203	9043
555.266	8720
555.329	9820
555.391	10073
555.454	9212
555.517	11126
555.580	8914
555.642	8322
555.705	9380
555.768	10271
555.830	10194
555.893	8347
555.955	8672
556.018	8797
556.080	8497
556.143	9193
556.206	7913
556.268	9245
556.330	10397
556.393	10607
556.455	9340
556.518	12492
556.580	16864
556.643	10281
556.705	9449
556.767	8089
556.830	9892
556.892	10855
556.955	15235
557.017	16483
557.079	10270
557.142	10176
557.204	10444
557.266	20296
557.328	25431
557.391	10202
557.453	8508
557.515	8644
557.577	10744
557.639	12955
557.701	9006
557.764	7421
557.826	7123
557.888	9602
557.950	8237
558.012	8452
558.074	7793
558.136	9810
558.198	11871
558.260	11433
558.322	9982
558.384	9254
558.446	11133
558.508	10716
558.570	13043
558.632	19409
558.694	39257
558.756	22951
558.818	16440
558.880	38090
558.942	25892
559.003	13036
559.065	11062
559.127	9966
559.189	9014
559.251	9995
559.312	9428
559.374	11408
559.436	21269
559.498	24102
559.559	8933
559.621	8849
559.683	9600
559.744	12572
559.806	19662
559.868	27523
559.929	15421
559.991	11845
560.052	11939
560.114	12895
560.176	14769
560.237	12430
560.299	18235
560.360	14245
560.422	10988
560.483	10525
560.545	10362
560.606	10478
560.667	10040
560.729	10313
560.790	10014
560.852	9671
560.913	9455
560.974	11095
561.036	9666
561.097	11002
561.158	9393
561.220	11320
561.281	11123
561.342	11696
561.403	13520
561.465	15585
561.526	25680
561.587	52544
561.648	22530
561.709	11687
561.771	11006
561.832	11361
561.893	10433
561.954	11025
562.015	10165
562.076	11592
562.137	10220
562.198	11326
562.259	10866
562.320	10656
562.381	10775
562.442	14614
562.503	15618
562.564	11175
562.625	10469
562.686	10412
562.747	10934
562.808	11475
562.869	10946
562.930	11971
562.991	13765
563.051	12454
563.112	11754
563.173	11950
563.234	10748
563.294	10446
563.355	10388
563.416	11558
563.477	10599
563.537	11220
563.598	12568
563.659	11603
563.720	11417
563.780	11043
563.841	11592
563.901	12245
563.962	11521
564.023	10927
564.083	10861
564.144	11295
564.204	11902
564.265	12644
564.325	11774
564.386	16817
564.446	22841
564.507	12078
564.567	10134
564.628	10263
564.688	10324
564.749	10717
564.809	12005
564.869	14255
564.930	12168
564.990	10821
565.050	10623
565.111	11848
565.171	10645
565.231	10315
565.292	11198
565.352	9944
565.412	9858
565.472	10571
565.532	11607
565.593	10408
565.653	10393
565.713	11328
565.773	11511
565.833	12495
565.893	16607
565.953	12597
566.013	10444
566.074	11750
566.134	12886
566.194	17732
566.254	22129
566.314	17217
566.374	12346
566.434	12129
566.494	11792
566.554	11605
566.614	12038
566.673	11890
566.733	11881
566.793	11636
566.853	12695
566.913	12751
566.973	11980
567.033	13236
567.092	13091
567.152	13337
567.212	12587
567.272	12881
567.331	13337
567.391	12312
567.451	13719
567.511	15677
567.570	18597
567.630	14000
567.690	12722
567.749	12317
567.809	12593
567.868	13764
567.928	14973
567.988	16681
568.047	17262
568.107	17831
568.166	22665
568.226	28891
568.285	39602
568.345	43156
568.404	35916
568.464	30904
568.523	27261
568.582	26367
568.642	27896
568.701	33306
568.761	40732
568.820	60047
568.879	74545
568.939	64018
568.998	47391
569.057	35277
569.116	26993
569.176	22509
569.235	19560
569.294	16217
569.353	15774
569.413	15047
569.472	14162
569.531	13590
569.590	11837
569.649	12492
569.708	10813
569.767	11535
569.827	11137
569.886	11862
569.945	10346
570.004	10982
570.063	10513
570.122	11462
570.181	11915
570.240	11915
570.299	12676
570.358	12447
570.417	10353
570.475	10417
570.534	10693
570.593	11245
570.652	10819
570.711	10810
570.770	10475
570.829	11341
570.887	11468
570.946	11735
571.005	10601
571.064	9959
571.122	9229
571.181	10418
571.240	10079
571.299	9300
571.357	9887
571.416	10893
571.475	10439
571.533	11999
571.592	9728
571.650	9703
571.709	9504
571.768	9780
571.826	8794
571.885	8211
571.943	8428
572.002	7464
572.060	8738
572.119	8517
572.177	8094
572.236	7463
572.294	7538
572.352	7590
572.411	8284
572.469	8376
572.528	8436
572.586	8608
572.644	7707
572.703	10239
572.761	9133
572.819	8781
572.877	7233
572.936	7623
572.994	6985
573.052	8239
573.110	7845
573.169	8584
573.227	7666
573.285	7917
573.343	6475
573.401	7108
573.459	8280
573.517	7598
573.576	7199
573.634	7575
573.692	7727
573.750	8433
573.808	8000
573.866	7721
573.924	9165
573.982	10676
574.040	8107
574.098	8317
574.155	7336
574.213	7155
574.271	6570
574.329	7873
574.387	7476
574.445	6526
574.503	6171
574.560	6175
574.618	5899
574.676	6603
574.734	6455
574.792	6980
574.849	6765
574.907	6448
574.965	6361
575.022	6935
575.080	5859
575.138	6741
575.195	7078
575.253	7055
575.311	8126
575.368	7145
575.426	6734
575.483	6941
575.541	6599
575.598	6510
575.656	6669
575.713	6965
575.771	5890
575.828	7358
575.886	6529
575.943	7121
576.001	6868
576.058	7494
576.115	7654
576.173	8228
576.230	9707
576.287	10243
576.345	10089
576.402	7457
576.459	7649
576.517	7507
576.574	8303
576.631	8822
576.688	8595
576.746	6606
576.803	7234
576.860	7815
576.917	7104
576.974	7811
577.031	6650
577.089	7382
577.146	7080
577.203	8352
577.260	7746
577.317	8400
577.374	7459
577.431	9481
577.488	8263
577.545	7590
577.602	7421
577.659	8375
577.716	8626
577.773	10147
577.830	9774
577.886	8232
577.943	8264
578.000	7978
578.057	8400
578.114	9743
578.171	11200
578.227	14784
578.284	18243
578.341	15175
578.398	10699
578.454	10061
578.511	9200
578.568	9283
578.625	8799
578.681	7274
578.738	5975
578.794	7514
578.851	7668
578.908	7821
578.964	7696
579.021	8585
579.077	7345
579.134	7935
579.190	6259
579.247	7625
579.303	7194
579.360	7210
579.416	7034
579.473	7259
579.529	6776
579.586	7070
579.642	7267
579.698	7949
579.755	7985
579.811	7765
579.867	8026
579.924	9841
579.980	9124
580.036	12080
580.093	14186
580.149	20353
580.205	28188
580.261	25062
580.317	16252
580.374	12436
580.430	11378
580.486	10729
580.542	9053
580.598	9502
580.619	9177
580.654	8624
580.692	8138
580.710	7922
580.765	8036
580.767	8048
580.823	8598
580.838	8455
580.879	8144
580.911	8241
580.935	8319
580.984	7836
580.991	7782
581.047	8555
581.057	8596
581.103	8828
581.130	8895
581.159	9010
581.203	11031
581.215	11565
581.270	11868
581.276	11653
581.326	9771
581.349	9560
581.382	9230
581.422	8662
581.438	8431
581.494	8112
581.494	8102
581.550	7913
581.567	7975
581.606	8119
581.640	8021
581.661	7931
581.713	7733
581.717	7731
581.773	7234
581.786	7358
581.829	7793
581.859	7701
581.885	7651
581.932	7823
581.940	7856
581.996	7142
582.004	7331
582.052	8390
582.077	7683
582.107	6827
582.150	6928
582.163	6990
582.219	6922
582.223	6962
582.274	7494
582.296	7478
582.330	7437
582.368	8339
582.386	8738
582.441	7691
582.441	7693
582.497	7823
582.514	7887
582.552	8039
582.587	9138
582.608	9831
582.659	8905
582.663	8823
582.719	8306
582.732	8296
582.774	8338
582.805	8135
582.830	7991
582.877	7742
582.885	7699
582.941	7668
582.950	7804
582.996	8491
583.023	8785
583.052	9148
583.095	9912
583.107	10159
583.162	12604
583.168	12884
583.218	15419
583.240	14979
583.273	14067
583.313	12129
583.328	11430
583.384	10200
583.385	10153
583.439	8783
583.458	8575
583.494	8106
583.531	7656
583.549	7483
583.603	7631
583.605	7636
583.660	7573
583.676	7588
583.715	7614
583.748	7611
583.770	7614
583.820	7697
583.825	7701
583.881	6812
583.893	7064
583.936	7986
583.965	7734
583.991	7448
584.038	7270
584.046	7243
584.101	7171
584.110	7131
584.156	6954
584.183	6825
584.211	6653
584.255	7129
584.266	7272
584.321	6652
584.328	6693
584.376	7054
584.400	6943
584.431	6677
584.472	6898
584.486	7034
584.541	7468
584.545	7481
584.596	7152
584.617	6857
584.651	6718
584.689	7480
584.706	7696
584.761	7105
584.762	7106
584.816	6900
584.834	7117
584.871	7630
584.906	7516
584.926	7477
584.978	7988
584.980	7987
585.035	7726
585.051	7538
585.090	7453
585.123	8126
585.145	8456
585.195	8691
585.200	8718
585.254	9208
585.267	9151
585.309	9070
585.340	10602
585.364	12208
585.412	12711
585.419	12473
585.473	9689
585.484	9345
585.528	8651
585.556	8641
585.583	8749
585.628	9364
585.637	9539
585.692	10453
585.700	10756
585.747	12397
585.772	12508
585.801	12372
585.845	10620
585.856	10005
585.910	8666
585.917	8600
585.965	8998
585.989	9093
586.019	8829
586.061	8938
586.074	9150
586.128	9565
586.133	9603
586.183	9549
586.205	9701
586.237	9974
586.277	10231
586.292	10235
586.346	9864
586.349	9855
586.401	9923
586.421	10265
586.455	10469
586.493	10291
586.509	10551
586.564	12869
586.565	12950
586.618	15871
586.637	17280
586.672	20183
586.709	17419
586.727	14555
586.781	10491
586.781	10476
586.835	10823
586.853	10916
586.889	10815
586.925	10684
586.944	10590
586.996	11450
586.998	11461
587.052	10919
587.068	11057
587.106	11508
587.140	11702
587.161	11753
587.212	11970
587.215	11970
587.269	12745
587.284	12833
587.323	12775
587.356	12318
587.377	12298
587.427	13754
587.431	13796
587.485	13642
587.499	13758
587.539	14476
587.571	14864
587.593	14881
587.643	15365
587.648	15472
587.702	16693
587.715	17001
587.755	17167
587.786	17646
587.810	18451
587.858	19853
587.864	19921
587.917	21052
587.930	21393
587.971	23348
588.001	24727
588.025	25446
588.073	27237
588.079	27528
588.133	30161
588.145	31066
588.187	33946
588.217	36122
588.241	38780
588.288	44571
588.295	45374
588.348	53775
588.360	55796
588.402	64726
588.431	71807
588.456	77109
588.503	89416
588.510	91372
588.564	109974
588.575	114900
588.617	135267
588.646	151824
588.671	167338
588.718	203701
588.725	210903
588.778	284338
588.789	304417
588.832	417563
588.861	515024
588.886	655473
588.932	964416
588.939	1016218
588.993	1331387
589.004	1381347
589.047	1290517
589.075	1192469
589.100	992208
589.147	584900
589.154	547325
589.207	332333
589.218	295049
589.261	247229
589.290	223502
589.314	219674
589.361	223753
589.368	227576
589.421	278073
589.433	294714
589.475	417775
589.504	526699
589.528	687515
589.576	1012138
589.582	1034760
589.635	1128439
589.647	1128900
589.689	771968
589.718	523457
589.742	393005
589.790	185942
589.795	177238
589.849	115163
589.861	102651
589.902	83634
589.932	71826
589.955	65928
590.004	53899
590.009	52801
590.062	43058
590.075	41066
590.115	36962
590.146	33806
590.168	31996
590.218	28894
590.222	28700
590.275	26761
590.289	26389
590.328	24689
590.360	23235
590.381	22491
590.431	20909
590.435	20762
590.488	19315
590.503	18925
590.541	18416
590.574	18060
590.594	17517
590.645	16468
590.647	16416
590.700	15599
590.716	15564
590.753	15019
590.787	14346
590.806	14213
590.859	14176
590.859	14136
590.912	13248
590.930	13063
590.965	12956
591.001	12866
591.018	12781
591.071	12659
591.072	12685
591.124	12463
591.143	12370
591.177	11869
591.214	11541
591.230	11615
591.283	11928
591.285	11965
591.336	11741
591.356	11738
591.389	11769
591.427	11839
591.442	11588
591.495	10589
591.498	10557
591.547	10666
591.569	10748
591.600	10492
591.640	10167
591.653	10138
591.706	10116
591.711	10150
591.759	10040
591.782	10002
591.811	10374
591.853	11028
591.864	10917
591.917	10421
591.924	10359
591.969	9703
591.995	9467
592.022	9580
592.066	9772
592.075	9790
592.127	10056
592.137	10137
592.180	10019
592.208	10003
592.233	10165
592.279	10460
592.285	10183
592.338	8090
592.350	7646
592.390	8148
592.421	8584
592.443	8465
592.491	8292
592.495	8237
592.548	7878
592.562	7810
592.600	7775
592.633	7813
592.653	7649
592.704	7272
592.705	7336
592.775	8574
592.846	8621
592.916	7374
592.987	8723
593.058	7722
593.128	8063
593.199	7664
593.270	7259
593.341	6727
593.411	7396
593.482	6889
593.553	7175
593.623	6260
593.694	7116
593.764	6757
593.835	7461
593.906	6754
593.976	7226
594.047	5731
594.117	7728
594.188	8151
594.258	7123
594.329	6009
594.399	5956
594.470	6211
594.540	6746
594.611	5730
594.681	5750
594.751	5802
594.822	6362
594.892	6777
594.963	7329
595.033	6893
595.103	6357
595.174	5643
595.244	7826
595.314	10785
595.384	10530
595.455	5375
595.525	6144
595.595	6049
595.665	6305
595.736	5528
595.806	6529
595.876	6314
595.946	5678
596.016	5307
596.087	5502
596.157	5361
596.227	5874
596.297	4971
596.367	5849
596.437	6348
596.507	6360
596.577	8266
596.647	9479
596.717	5517
596.787	6014
596.857	4703
596.927	5844
596.997	5434
597.067	5216
597.137	5316
597.207	7125
597.277	6413
597.347	5411
597.417	5772
597.487	5483
597.557	5425
597.626	6331
597.696	6140
597.766	6544
597.836	8302
597.906	9323
597.975	6101
598.045	5602
598.115	4780
598.185	5128
598.254	4820
598.324	5455
598.394	5667
598.464	6158
598.533	5581
598.603	5144
598.672	5183
598.742	5664
598.812	4580
598.881	6188
598.951	5318
599.020	5423
599.090	4419
599.159	5234
599.229	3864
599.299	4432
599.368	4588
599.437	5410
599.507	3984
599.576	5365
599.646	5442
599.715	6506
599.785	5675
599.854	5908
599.924	4986
599.993	5747
600.062	5183
600.132	5008
600.201	4366
600.270	5462
600.340	5111
600.409	4664
600.478	4387
600.547	4652
600.617	4124
600.686	5099
600.755	4906
600.824	5052
600.894	4529
600.963	5019
601.032	4435
601.101	4814
601.170	4775
601.239	4801
601.308	4841
601.378	5007
601.447	4239
601.516	4523
601.585	3898
601.654	4889
601.723	4244
601.792	4400
601.861	4402
601.930	5619
601.999	6936
602.068	5798
602.137	4665
602.206	5945
602.275	4275
602.343	4365
602.412	5365
602.481	5156
602.550	3856
602.619	4466
602.688	4475
602.756	4973
602.825	4096
602.894	4087
602.963	4003
603.032	4133
603.100	3252
603.169	4063
603.238	3030
603.307	3673
603.375	3936
603.444	3834
603.513	3643
603.581	4015
603.650	2963
603.719	3646
603.787	3720
603.856	3805
603.924	3865
603.993	4504
604.061	3318
604.130	3980
604.198	3580
604.267	3608
604.335	3481
604.404	4161
604.472	2925
604.541	3846
604.609	2532
604.678	3151
604.746	2716
604.815	3880
604.883	3188
604.951	3891
605.020	3863
605.088	3192
605.156	3258
605.225	4114
605.293	3814
605.361	4253
605.429	3724
605.498	3567
605.566	3384
605.634	4046
605.702	3287
605.771	3031
605.839	3692
605.907	4092
605.975	3866
606.043	3736
606.111	3082
606.180	4069
606.248	4501
606.316	7397
606.384	5604
606.452	5052
606.520	5460
606.588	6741
606.656	4084
606.724	3184
606.792	3367
606.860	3528
606.928	2613
606.996	3610
607.064	3334
607.132	3081
607.200	2989
607.267	3060
607.335	3731
607.403	3046
607.471	2736
607.539	3307
607.607	3325
607.674	3268
607.742	3166
607.810	3650
607.878	4304
607.946	4190
608.013	3310
608.081	3628
608.149	3243
608.216	3037
608.284	3003
608.352	3099
608.419	3358
608.487	4864
608.555	4657
608.622	3613
608.690	2926
608.757	3261
608.825	3563
608.893	3044
608.960	3793
609.028	4703
609.095	4526
609.163	4979
609.230	2484
609.298	3642
609.365	3155
609.432	3571
609.500	2579
609.567	3763
609.635	3490
609.702	4062
609.769	3194
609.837	3839
609.904	4794
609.971	4506
610.039	4019
610.106	4972
610.173	7013
610.241	13859
610.308	30209
610.375	47941
610.442	23345
610.509	7089
610.577	4223
610.644	4169
610.711	2482
610.778	3925
610.845	3153
610.912	3902
610.980	3572
611.047	6793
611.114	9032
611.181	4808
611.248	3366
611.315	3790
611.382	2459
611.449	3015
611.516	3247
611.583	3577
611.650	2458
611.717	3633
611.784	2390
611.851	4339
611.918	3569
611.984	4697
612.051	4143
612.118	5895
612.185	8990
612.252	18945
612.319	7885
612.386	4265
612.452	3166
612.519	3529
612.586	4083
612.653	6305
612.719	4168
612.786	3091
612.853	2602
612.919	3634
612.986	2392
613.053	3437
613.120	3002
613.186	2965
613.253	3150
613.319	3570
613.386	2459
613.453	3462
613.519	2825
613.586	4255
613.652	5890
613.719	7433
613.785	5749
613.852	4796
613.918	3068
613.985	4331
614.051	6765
614.118	17304
614.184	47140
614.250	25553
614.317	4566
614.383	3233
614.449	3126
614.516	3956
614.582	2633
614.648	4326
614.715	2474
614.781	3181
614.847	2497
614.914	2911
614.980	3074
615.046	3983
615.112	3539
615.179	3379
615.245	3207
615.311	4459
615.377	5330
615.443	9567
615.509	7518
615.575	5203
615.642	3828
615.708	3579
615.774	4249
615.840	4374
615.906	4496
615.972	6533
616.038	9795
616.104	18801
616.170	20421
616.236	28971
616.302	15534
616.368	6546
616.434	4230
616.500	4633
616.565	4263
616.631	4464
616.697	4389
616.763	4203
616.829	3928
616.895	5691
616.961	6462
617.026	5666
617.092	3504
617.158	3762
617.224	2531
617.289	3921
617.355	3256
617.421	3359
617.487	3428
617.552	3604
617.618	2989
617.684	2723
617.749	2916
617.815	3380
617.880	2582
617.946	2896
618.012	2762
618.077	3859
618.143	3083
618.208	3653
618.274	2829
618.339	3761
618.405	2912
618.470	4049
618.536	3558
618.601	3813
618.667	3416
618.732	4008
618.798	2919
618.863	4441
618.928	3358
618.994	4037
619.059	3787
619.124	5078
619.190	6947
619.255	4632
619.320	3546
619.386	4241
619.451	2687
619.516	3302
619.581	2964
619.647	3158
619.712	3599
619.777	3195
619.842	2670
619.907	3755
619.972	2094
620.038	4148
620.103	3260
620.168	3531
620.233	2553
620.298	3484
620.363	2547
620.428	2961
620.493	2513
620.558	3041
620.623	3547
620.688	3038
620.753	2483
620.818	3039
620.883	2620
620.948	3243
621.013	2962
621.078	3464
621.143	2656
621.207	4476
621.272	3033
621.337	4531
621.402	3724
621.467	4349
621.532	5592
621.596	5282
621.661	3966
621.726	3777
621.791	3259
621.855	3955
621.920	3722
621.985	5085
622.049	4077
622.114	6016
622.179	4313
622.243	4843
622.308	4185
622.373	4411
622.437	4134
622.502	3953
622.566	3970
622.631	3927
622.695	3964
622.760	4742
622.824	4137
622.889	4695
622.953	4312
623.018	5253
623.082	7620
623.147	7022
623.211	3890
623.276	4830
623.340	4178
623.404	3613
623.469	3157
623.533	4187
623.597	3489
623.662	4075
623.726	4004
623.790	3815
623.854	3572
623.919	4325
623.983	3362
624.047	3536
624.111	3752
624.176	3843
624.240	4209
624.304	4310
624.368	3939
624.432	4251
624.496	4400
624.560	4347
624.625	4854
624.689	5341
624.753	2867
624.817	3652
624.881	3130
624.945	3788
625.009	3265
625.073	4305
625.137	3316
625.201	4881
625.265	5208
625.329	5372
625.393	3180
625.456	4745
625.520	3108
625.584	4968
625.648	5172
625.712	6167
625.776	10459
625.839	24427
625.903	22875
625.967	6983
626.031	5750
626.095	10266
626.158	11713
626.222	4039
626.286	2784
626.349	2972
626.413	3396
626.477	4098
626.540	3763
626.604	3633
626.668	3628
626.731	3619
626.795	3658
626.858	3170
626.922	2147
626.986	3225
627.049	3704
627.113	3236
627.176	3010
627.240	3248
627.303	2989
627.366	3181
627.430	2186
627.493	3304
627.557	3615
627.620	2960
627.684	3071
627.747	2856
627.810	2398
627.874	3095
627.937	2666
628.000	3106
628.064	2959
628.127	3147
628.190	1704
628.253	2305
628.317	2307
628.380	3218
628.443	2303
628.506	3490
628.569	2194
628.632	3899
628.696	2290
628.759	2844
628.822	2307
628.885	2930
628.948	1779
629.011	2661
629.074	2526
629.137	3138
629.200	2199
629.263	2865
629.326	2165
629.389	2853
629.452	1551
629.515	2908
629.578	2571
629.641	2865
629.704	2317
629.767	3319
629.830	2167
629.892	2912
629.955	2045
630.018	3125
630.081	2797
630.144	3243
630.207	2699
630.269	3431
630.332	2900
630.395	3431
630.458	2805
630.520	2420
630.583	2497
630.646	2544
630.708	1768
630.771	2067
630.834	2227
630.896	1868
630.959	1557
631.021	1705
631.084	1644
631.146	2635
631.209	2243
631.272	3314
631.334	1557
631.397	2133
631.459	1608
631.522	2407
631.584	1551
631.646	3151
631.709	1826
631.771	2911
631.834	2969
631.896	2811
631.958	1775
632.021	2222
632.083	1539
632.145	2723
632.208	1512
632.270	2497
632.332	1677
632.395	1385
632.457	1923
632.519	1755
632.581	1865
632.643	2777
632.706	1945
632.768	2119
632.830	1847
632.892	2163
632.954	1437
633.016	1824
633.078	546
633.141	2225
633.203	1905
633.265	2496
633.327	1897
633.389	2844
633.451	1993
633.513	2059
633.575	2571
633.637	3343
633.698	2935
633.760	2460
633.822	1067
633.884	1781
633.946	1211
634.008	1837
634.070	1783
634.132	2649
634.193	2333
634.255	2401
634.317	1305
634.379	1680
634.441	1352
634.502	2727
634.564	1154
634.626	1449
634.687	1503
634.749	2200
634.811	736
634.873	971
634.934	1174
634.996	1903
635.057	1051
635.119	1500
635.181	1137
635.242	1577
635.304	746
635.365	2735
635.427	273
635.488	1885
635.550	1315
635.611	1801
635.673	1013
635.734	1366
635.796	700
635.857	2037
635.918	1261
635.980	1982
636.041	1209
636.102	1589
636.164	754
636.225	1333
636.286	799
636.348	1930
636.409	293
636.470	941
636.531	1179
636.593	1243
636.654	1437
636.715	1947
636.776	699
636.838	1544
636.899	1299
636.960	1003
637.021	1293
637.082	1820
637.143	1074
637.204	1397
637.265	836
637.326	1589
637.387	739
637.448	1441
637.509	255
637.570	1519
637.631	1469
637.692	1297
637.753	863
637.814	1203
637.875	902
637.936	743
637.997	855
638.058	491
638.119	1425
638.179	1308
638.240	353
638.301	1059
638.362	644
638.423	1062
638.483	1272
638.544	627
638.605	203
638.666	1784
638.726	905
638.787	590
638.848	823
638.908	1531
638.969	827
639.030	1583
639.090	561
639.151	1155
639.211	502
639.272	1159
639.332	1865
639.393	4092
639.453	1555
639.514	856
639.574	811
639.635	1323
639.695	483
639.756	1210
639.816	1372
639.877	802
639.937	1602
639.997	3413
640.058	3709
640.118	1082
640.178	1116
640.239	1505
640.299	-74
640.359	843
640.420	1037
640.480	951
640.540	458
640.600	1989
640.661	183
640.721	1035
640.781	163
640.841	1628
640.901	1858
640.961	1605
641.021	322
641.082	2166
641.142	814
641.202	2826
641.262	815
641.322	968
641.382	590
641.442	773
641.502	278
641.562	811
641.622	501
641.682	804
641.742	393
641.802	1088
641.861	562
641.921	333
641.981	415
642.041	1572
642.101	1205
642.161	2016
642.221	662
642.280	153
642.340	411
642.400	881
642.460	340
642.519	1229
642.579	432
642.639	1201
642.698	-295
642.758	845
642.818	487
642.877	482
642.937	823
642.997	1847
643.056	511
643.116	2278
643.175	831
643.235	261
643.294	172
643.354	1703
643.414	-3
643.473	758
643.532	249
643.592	913
643.651	842
643.711	860
643.770	1322
643.830	3745
643.889	7876
643.948	14694
644.008	2621
644.067	1468
644.126	441
644.186	1136
644.245	503
644.304	743
644.363	594
644.423	636
644.482	163
644.541	677
644.600	371
644.659	597
644.719	181
644.778	373
644.837	39
644.896	685
644.955	839
645.014	2804
645.073	1852
645.132	1380
645.191	639
645.250	885
645.309	-101
645.368	915
645.427	372
645.486	756
645.545	1040
645.604	1315
645.663	163
645.722	792
645.781	243
645.840	610
645.898	390
645.957	1989
646.016	1059
646.075	1229
646.134	121
646.192	2531
646.251	6231
646.310	9012
646.369	932
646.427	188
646.486	212
646.545	862
646.603	814
646.662	795
646.721	376
646.779	294
646.838	-112
646.896	762
646.955	-80
647.014	799
647.072	703
647.131	1304
647.189	1039
647.248	621
647.306	226
647.365	130
647.423	-381
647.481	551
647.540	-251
647.598	560
647.657	54
647.715	414
647.773	-117
647.832	907
647.890	515
647.948	-26
648.007	-161
648.065	69
648.123	-70
648.181	781
648.240	241
648.298	2090
648.356	1172
648.414	233
648.472	943
648.531	1009
648.589	563
648.647	684
648.705	-241
648.763	706
648.821	-6
648.879	146
648.937	540
648.995	786
649.053	-202
649.111	948
649.169	492
649.227	972
649.285	205
649.343	2439
649.401	5283
649.459	3955
649.516	5437
649.574	4227
649.632	5858
649.690	16589
649.748	16908
649.806	3170
649.863	4097
649.921	6386
649.979	1059
650.037	1276
650.094	95
650.152	284
650.210	-207
650.268	455
650.325	-419
650.383	893
650.440	-507
650.498	523
650.556	-128
650.613	354
650.671	424
650.728	515
650.786	-399
650.843	265
650.901	8
650.958	937
651.016	-598
651.073	-651
651.131	-551
651.188	389
651.246	-372
651.303	966
651.360	-474
651.418	196
651.475	-76
651.532	-95
651.590	392
651.647	-215
651.704	269
651.762	81
651.819	434
651.876	146
651.933	-644
651.990	166
652.048	-388
652.105	-50
652.162	-376
652.219	-681
652.276	18
652.333	306
652.390	47
652.448	224
652.505	-162
652.562	-218
652.619	184
652.676	1423
652.733	1727
652.790	1460
652.847	19
652.904	230
652.961	-475
653.017	246
653.074	-624
653.131	-190
653.188	-466
653.245	-185
653.302	-577
653.359	-513
653.415	-109
653.472	-272
653.529	-259
653.586	71
653.642	-713
653.699	235
653.756	-959
653.813	-518
653.869	-521
653.926	-272
653.983	-880
654.039	-255
654.096	-523
654.152	-196
654.209	-1040
654.266	650
654.322	-117
654.379	-100
654.435	-801
654.492	420
654.548	-1026
654.605	1220
654.661	1879
654.717	892
654.774	-193
654.830	-192
654.887	-194
654.943	187
655.000	-567
655.056	734
655.112	237
655.168	316
655.225	-521
655.281	327
655.337	-626
655.394	807
655.450	1038
655.506	1108
655.562	526
655.618	1777
655.675	896
655.731	600
655.787	143
655.843	680
655.899	232
655.955	639
656.011	588
656.067	-161
656.123	983
656.179	1893
656.235	2009
656.291	1895
656.347	1343
656.403	1934
656.459	1180
656.515	1495
656.571	535
656.627	885
656.683	32
656.739	203
656.795	200
656.850	640
656.906	-181
656.962	307
657.018	-421
657.074	-83
657.129	103
657.185	375
657.241	-809
657.297	84
657.352	105
657.408	-226
657.464	-379
657.519	583
657.575	-77
657.630	-178
657.686	-256
657.742	-449
657.797	-338
657.853	344
657.908	-322
657.964	389
658.019	-448
658.075	193
658.130	41
658.186	-444
658.241	-582
658.297	-381
658.352	-971
658.407	367
658.463	-219
658.518	588
658.573	-1029
658.629	-122
658.684	-908
658.739	355
658.795	-1210
658.850	370
658.905	-1248
658.960	445
659.016	-775
659.071	-103
659.126	-412
659.181	-96
659.236	-221
659.291	942
659.346	847
659.401	481
659.457	412
659.512	999
659.567	2032
659.622	1238
659.677	-607
659.732	-532
659.787	-251
659.842	-30
659.897	-209
659.952	593
660.007	-187
660.061	-559
660.116	-808
660.171	268
660.226	-148
660.281	-36
660.336	-826
660.391	422
660.445	-533
660.500	-405
660.555	150
660.610	-433
660.664	-705
660.719	-355
660.774	-546
660.828	-121
660.883	-429
660.938	-5
660.992	-1188
661.047	126
661.101	-624
661.156	-549
661.211	-1110
661.265	141
661.320	-846
661.374	122
661.429	-862
661.483	-111
661.538	-853
661.592	229
661.647	-542
661.701	-258
661.755	-373
661.810	89
661.864	-679
661.919	-538
661.973	-858
662.027	-141
662.081	-57
662.136	-234
662.190	-694
662.244	86
662.299	-1258
662.353	-358
662.407	-731
662.461	-134
662.515	20
662.569	419
662.624	-402
662.678	186
662.732	326
662.786	-78
662.840	-796
662.894	-196
662.948	-249
663.002	22
663.056	258
663.110	-140
663.164	-506
663.218	-93
663.272	-968
663.326	-411
663.380	-1164
663.434	-348
663.488	-1021
663.542	245
663.595	196
663.649	-1081
663.703	39
663.757	423
663.811	-1853
663.864	-493
663.918	-396
663.972	-253
664.026	-165
664.079	-467
664.133	-720
664.187	67
664.240	-929
664.294	-404
664.348	-1127
664.401	406
664.455	-151
664.508	-470
664.562	-424
664.615	483
664.669	-719
664.722	286
664.776	-267
664.829	407
664.883	-45
664.936	8
664.990	-615
665.043	555
665.097	-1006
665.150	523
665.203	-621
665.257	-554
665.310	-50
665.363	-69
665.417	-67
665.470	205
665.523	-165
665.576	-54
665.630	-492
665.683	286
665.736	-207
665.789	367
665.842	-658
665.895	-143
665.949	-135
666.002	17
666.055	-148
666.108	292
666.161	461
666.214	-585
666.267	-1011
666.320	417
666.373	-419
666.426	431
666.479	-950
666.532	197
666.585	276
666.638	490
666.691	289
666.744	266
666.796	-308
666.849	344
666.902	-336
666.955	-490
667.008	-913
667.060	-505
667.113	-839
667.166	-28
667.219	-100
667.271	-578
667.324	-483
667.377	-84
667.430	34
667.482	-259
667.535	-297
667.587	1009
667.640	-108
667.693	-65
667.745	340
667.798	927
667.850	95
667.903	117
667.955	-707
668.008	614
668.060	-295
668.113	19
668.165	38
668.218	324
668.270	144
668.322	244
668.375	-362
668.427	52
668.479	-620
668.532	211
668.584	-823
668.636	1
668.689	-598
668.741	-464
668.793	358
668.845	-539
668.898	296
668.950	-224
669.002	-767
669.054	-64
669.106	-547
669.158	766
669.211	-487
669.263	137
669.315	-231
669.367	344
669.419	1042
669.471	1387
669.523	717
669.575	1059
669.627	1453
669.679	1388
669.731	-108
669.783	236
669.835	914
669.886	978
669.938	972
669.990	744
670.042	-145
670.094	869
670.146	455
670.197	1299
670.249	960
670.301	2008
670.353	3466
670.404	4671
670.456	6286
670.508	12516
670.560	19666
670.611	32167
670.663	55506
670.715	96860
670.766	210627
670.818	408290
670.869	183182
670.921	31966
670.972	11949
671.024	7933
671.075	5229
671.127	3883
671.178	2134
671.230	2366
671.281	1646
671.333	1199
671.384	452
671.436	740
671.487	1212
671.538	944
671.590	703
671.641	961
671.692	756
671.744	1170
671.795	1109
671.846	719
671.897	435
671.949	957
672.000	11
672.051	986
672.102	312
672.153	270
672.204	618
672.256	781
672.307	-618
672.358	678
672.409	556
672.460	590
672.511	-133
672.562	9
672.613	346
672.664	807
672.715	-644
672.766	994
672.817	-265
672.868	68
672.919	-143
672.970	386
673.021	396
673.071	-17
673.122	61
673.173	-126
673.224	290
673.275	860
673.326	109
673.376	176
673.427	-137
673.478	-121
673.528	310
673.579	57
673.630	192
673.680	424
673.731	-549
673.782	557
673.832	-88
673.883	347
673.934	77
673.984	185
674.035	-726
674.085	138
674.136	149
674.186	251
674.237	-270
674.287	395
674.338	262
674.388	942
674.438	-324
674.489	759
674.539	-4
674.589	33
674.640	-147
674.690	987
674.740	-404
674.791	209
674.841	-317
674.891	266
674.942	-445
674.992	227
675.042	199
675.092	362
675.142	-458
675.193	182
675.243	465
675.293	-4
675.343	-221
675.393	245
675.443	-332
675.493	211
675.543	-656
675.593	108
675.643	11
675.693	368
675.743	387
675.793	522
675.843	-612
675.893	19
675.943	557
675.993	-643
676.043	-407
676.093	511
676.142	-442
676.192	-130
676.242	-172
676.292	118
676.341	-102
676.391	303
676.441	-806
676.491	15
676.540	-1197
676.590	-233
676.640	-672
676.689	-161
676.739	-589
676.789	-69
676.838	-784
676.888	260
676.937	-687
676.987	-227
677.037	-1010
677.086	-470
677.136	-469
677.185	99
677.235	-982
677.284	-480
677.333	-412
677.383	131
677.432	-485
677.482	-444
677.531	-377
677.580	-742
677.630	137
677.679	-410
677.728	-540
677.778	313
677.827	-747
677.876	-292
677.925	-970
677.975	-328
678.024	-357
678.073	-160
678.122	-377
678.171	-358
678.220	-811
678.269	926
678.319	-343
678.368	-232
678.417	-1104
678.466	-44
678.515	-210
678.564	131
678.613	-555
678.662	-748
678.711	-1368
678.760	570
678.809	-249
678.857	-69
678.906	-786
678.955	141
679.004	-400
679.053	180
679.102	-1210
679.151	-541
679.199	-612
679.248	82
679.297	-354
679.346	-428
679.394	-644
679.443	94
679.492	-1023
679.540	50
679.589	-341
679.638	170
679.686	-656
679.735	-805
679.784	-218
679.832	20
679.881	-734
679.929	110
679.978	-471
680.026	-365
680.075	-924
680.123	-837
680.172	-986
680.220	-728
680.268	-701
680.317	-511
680.365	-948
680.414	-653
680.462	-1071
680.510	-481
680.559	-668
680.607	-583
680.655	-1006
680.703	-576
680.752	-711
680.800	-443
680.848	-761
680.896	-237
680.945	-1178
680.993	-391
681.041	-414
681.089	-206
681.137	-851
681.185	-593
681.233	-1178
681.258	-1004
681.281	-848
681.329	-570
681.377	-56
681.380	-69
681.425	-476
681.473	-287
681.502	-457
681.521	-595
681.569	304
681.617	-678
681.624	-529
681.665	372
681.713	-427
681.745	45
681.761	250
681.809	-447
681.857	880
681.867	553
681.904	-616
681.952	139
681.989	-331
682.000	-487
682.048	-106
682.096	156
682.111	297
682.143	573
682.191	25
682.233	-29
682.239	-43
682.286	-789
682.334	247
682.354	204
682.382	106
682.430	346
682.476	-462
682.477	-487
682.525	491
682.572	-846
682.598	-556
682.620	-338
682.667	-192
682.715	2
682.720	-0
682.763	-81
682.810	350
682.841	98
682.857	-41
682.905	755
682.952	105
682.963	149
683.000	227
683.047	36
683.085	982
683.095	1233
683.142	-483
683.190	365
683.206	163
683.237	-219
683.284	530
683.328	-282
683.332	-358
683.379	984
683.426	275
683.449	176
683.473	33
683.521	470
683.568	663
683.571	593
683.615	-291
683.662	552
683.693	-40
683.709	-391
683.757	624
683.804	703
683.814	629
683.851	319
683.898	543
683.936	822
683.945	883
683.992	168
684.039	540
684.057	615
684.086	745
684.133	815
684.179	418
684.180	400
684.227	696
684.274	740
684.300	1324
684.321	1718
684.368	632
684.415	1622
684.422	1508
684.462	798
684.509	1194
684.543	888
684.556	774
684.603	868
684.649	112
684.665	316
684.696	775
684.743	619
684.786	1238
684.790	1275
684.837	494
684.883	664
684.908	755
684.930	897
684.977	842
685.023	546
685.029	607
685.070	951
685.117	717
685.150	986
685.164	1093
685.210	1572
685.257	1695
685.272	1508
685.303	1139
685.350	1657
685.393	998
685.396	937
685.443	1870
685.490	1264
685.514	1390
685.536	1532
685.583	1318
685.629	2277
685.636	2181
685.675	1491
685.722	1892
685.757	1792
685.768	1747
685.815	1715
685.861	1060
685.878	1219
685.908	1538
685.954	1382
686.000	1855
686.000	1859
686.047	1217
686.093	1976
686.121	1697
686.139	1588
686.185	2313
686.232	1708
686.242	1949
686.278	2596
686.324	1938
686.363	1875
686.370	1841
686.416	1595
686.463	1500
686.484	1291
686.509	1116
686.555	1745
686.601	1464
686.606	1484
686.647	1954
686.693	1361
686.727	1866
686.739	1938
686.785	1585
686.831	2129
686.848	1908
686.877	1645
686.923	1656
686.969	1312
686.969	1310
687.015	1976
687.061	1665
687.090	2041
687.107	2263
687.153	1963
687.199	2223
687.211	2081
687.245	1620
687.291	1653
687.332	1304
687.336	1282
687.382	1857
687.428	1748
687.453	2205
687.474	2591
687.520	1554
687.565	2511
687.574	2440
687.611	1961
687.657	2287
687.695	1739
687.702	1664
687.748	1735
687.794	1743
687.816	2014
687.839	2378
687.885	2133
687.931	2413
687.937	2413
687.976	2222
688.022	2295
688.058	1880
688.067	1799
688.113	2350
688.158	2087
688.179	2577
688.204	3096
688.249	2293
688.295	2683
688.300	2623
688.340	2290
688.386	2298
688.421	2395
688.431	2438
688.477	2138
688.522	2551
688.542	2485
688.567	2329
688.613	2433
688.658	2211
688.663	2177
688.703	2118
688.749	2850
688.784	2843
688.794	2786
688.839	2704
688.884	2632
688.905	2518
688.930	2416
688.975	2358
689.020	2464
689.026	2476
689.065	2667
689.110	2400
689.146	2424
689.155	2441
689.201	3040
689.246	2515
689.267	2609
689.291	2624
689.336	2491
689.381	2734
689.388	2632
689.426	2243
689.471	2553
689.509	2526
689.516	2538
689.561	2726
689.606	2799
689.630	2706
689.651	2493
689.696	2577
689.741	2841
689.750	2681
689.785	2380
689.830	2890
689.871	2646
689.875	2600
689.920	2742
689.965	2371
689.992	2274
690.010	2351
690.054	2710
690.099	2884
690.112	2845
690.144	2638
690.189	2978
690.233	2454
690.233	2458
690.278	2745
690.323	2938
690.354	3191
690.367	3306
690.412	3019
690.457	3319
690.474	3214
690.501	3031
690.546	3399
690.590	3334
690.595	3328
690.635	3413
690.680	3424
690.716	3478
690.724	3539
690.769	3651
690.813	4398
690.836	4496
690.857	4740
690.902	5540
690.946	6090
690.957	6347
690.991	8160
691.035	10063
691.077	13294
691.080	13717
691.124	21672
691.168	27337
691.198	30164
691.213	29735
691.257	29559
691.301	29791
691.318	30072
691.346	25995
691.390	18345
691.434	11561
691.439	10715
691.478	8674
691.522	7226
691.559	5438
691.567	5366
691.611	5126
691.655	4472
691.680	4451
691.699	4572
691.743	4030
691.787	4562
691.800	4375
691.831	3890
691.875	3948
691.919	3492
691.921	3487
691.964	3735
692.008	3285
692.041	3665
692.052	3803
692.096	3220
692.139	3826
692.162	3616
692.183	3436
692.227	3738
692.271	3399
692.282	3437
692.315	3628
692.359	3714
692.402	3735
692.403	3746
692.447	3838
692.490	4191
692.523	4434
692.534	4373
692.578	4093
692.622	4067
692.643	3746
692.666	3596
692.709	3508
692.753	3830
692.763	3776
692.797	3605
692.840	3598
692.884	3707
692.884	3720
692.928	4109
692.971	4260
693.004	4538
693.015	4529
693.059	4047
693.102	4022
693.124	3829
693.146	3901
693.189	4378
693.233	4800
693.245	4888
693.276	4946
693.320	4920
693.363	4912
693.365	4895
693.407	5129
693.450	5590
693.485	6020
693.493	6181
693.537	6615
693.580	7127
693.605	7640
693.624	8390
693.667	9769
693.710	11573
693.725	12007
693.753	14849
693.797	20196
693.840	25557
693.845	26385
693.883	41754
693.926	56827
693.966	68293
693.970	68241
694.013	67520
694.056	67717
694.086	67863
694.099	62768
694.142	46124
694.185	29322
694.206	21332
694.229	19274
694.272	15082
694.315	11129
694.326	10061
694.358	9494
694.401	8982
694.444	7933
694.446	7874
694.487	7503
694.530	6898
694.566	6722
694.573	6726
694.616	6222
694.659	5877
694.686	5654
694.702	5521
694.745	5328
694.787	4535
694.806	4419
694.830	4545
694.873	4394
694.916	4607
694.926	4554
694.959	4143
695.002	4051
695.044	3556
695.046	3533
695.087	4005
695.130	4186
695.166	4643
695.172	4652
695.215	4370
695.258	4292
695.286	3979
695.301	3968
695.343	4366
695.386	4313
695.406	4477
695.428	4587
695.471	4589
695.514	4653
695.526	4592
695.556	4328
695.599	4250
695.641	3910
695.646	3878
695.684	4145
695.726	4340
695.766	4485
695.769	4500
695.811	4557
695.854	4711
695.886	4621
695.896	4561
695.938	4527
695.981	4364
696.005	4248
696.023	4249
696.065	4082
696.108	4316
696.125	4243
696.150	4182
696.192	4289
696.235	4241
696.245	4250
696.277	4341
696.319	4291
696.361	4319
696.365	4295
696.404	4348
696.446	4661
696.485	4842
696.488	4883
696.530	5181
696.572	5398
696.604	5693
696.614	5640
696.656	5057
696.698	4759
696.724	4433
696.740	4429
696.783	4620
696.825	4627
696.844	4628
696.867	4604
696.909	4542
696.951	4489
696.964	4440
696.992	4497
697.034	4652
697.076	4679
697.083	4691
697.118	4738
697.160	4641
697.202	4686
697.203	4669
697.244	4702
697.286	4823
697.323	4861
697.327	4855
697.369	4642
697.411	4419
697.442	4255
697.453	4322
697.494	4479
697.536	4776
697.562	4807
697.578	4739
697.620	4806
697.661	4576
697.682	4559
697.703	4704
697.744	4800
697.786	5058
697.801	5078
697.828	5070
697.869	5068
697.911	5131
697.921	5123
697.952	5324
697.994	5522
698.035	5812
698.040	5819
698.077	5297
698.118	4718
698.160	4140
698.160	4123
698.201	4348
698.243	4589
698.279	4779
698.284	4798
698.325	4832
698.367	4860
698.399	4872
698.408	4841
698.449	4625
698.491	4380
698.518	4229
698.532	4274
698.573	4330
698.614	4429
698.638	4450
698.656	4442
698.697	4427
698.738	4378
698.757	4349
698.779	4533
698.820	4832
698.862	5160
698.877	5261
698.903	5315
698.944	5379
698.985	5439
698.996	5440
699.026	5323
699.067	5136
699.116	4899
699.235	5161
699.354	3831
699.474	4315
699.593	4826
699.713	5686
699.832	5318
699.951	5667
700.070	5076
700.190	4817
700.309	4487
700.428	4832
700.547	5332
700.667	4709
700.786	4889
700.905	5090
701.024	4236
701.143	4517
701.262	4837
701.381	4177
701.500	4014
701.619	4798
701.738	5476
701.857	4509
701.976	4292
702.095	4335
702.214	3645
702.333	5384
702.452	4637
702.571	4556
702.690	4054
702.809	4176
702.928	4016
703.047	4095
703.165	4119
703.284	3865
703.403	4249
703.522	4437
703.640	5453
703.759	5249
703.878	4663
703.997	5508
704.115	4793
704.234	3852
704.353	3639
704.471	3944
704.590	3838
704.708	3740
704.827	5052
704.946	4025
705.064	3190
705.183	5292
705.301	4164
705.420	4910
705.538	5220
705.656	5562
705.775	4959
705.893	5736
706.012	10228
706.130	17063
706.249	5874
706.367	5177
706.485	4522
706.604	4920
706.722	5590
706.840	5288
706.958	5457
707.077	6658
707.195	4830
707.313	5290
707.431	5210
707.549	4672
707.668	4648
707.786	3773
707.904	4665
708.022	4557
708.140	4358
708.258	5001
708.376	4639
708.494	4411
708.612	3754
708.730	4131
708.848	5380
708.966	5702
709.084	5375
709.202	5051
709.320	5337
709.438	5141
709.556	4877
709.674	5165
709.791	4902
709.909	4816
710.027	4606
710.145	5857
710.263	4360
710.380	4758
710.498	4035
710.616	5190
710.733	4667
710.851	5367
710.969	4718
711.086	5194
711.204	3787
711.322	4237
711.439	4563
711.557	3931
711.674	4948
711.792	4832
711.909	4817
712.027	5293
712.144	6394
712.262	4611
712.379	3931
712.497	4964
712.614	6195
712.732	7048
712.849	6152
712.966	5171
713.084	6172
713.201	6399
713.318	6193
713.436	5157
713.553	4464
713.670	6172
713.787	4910
713.905	5242
714.022	6151
714.139	5101
714.256	5777
714.373	5474
714.490	4656
714.608	5540
714.725	5588
714.842	9873
714.959	12894
715.076	5587
715.193	4232
715.310	4132
715.427	4604
715.544	4451
715.661	4868
715.778	4910
715.895	4492
716.011	4456
716.128	4703
716.245	4646
716.362	4749
716.479	5541
716.596	6521
716.713	5588
716.829	4895
716.946	4720
717.063	5039
717.180	4220
717.296	4756
717.413	5006
717.530	5128
717.646	3870
717.763	4479
717.880	4301
717.996	3413
718.113	3934
718.229	4406
718.346	4223
718.462	3945
718.579	4615
718.695	5661
718.812	8375
718.928	6559
719.045	5961
719.161	5157
719.277	4382
719.394	3932
719.510	4106
719.626	3995
719.743	3456
719.859	4034
719.975	3932
720.092	3600
720.208	4951
720.324	7215
720.440	3710
720.557	3737
720.673	4566
720.789	5945
720.905	8547
721.021	13293
721.137	8304
721.253	4122
721.369	3489
721.486	3892
721.602	4233
721.718	4970
721.834	4114
721.950	3409
722.066	3850
722.181	3533
722.297	3731
722.413	4204
722.529	3906
722.645	3308
722.761	3828
722.877	3123
722.993	3441
723.108	3320
723.224	3896
723.340	2703
723.456	3801
723.571	3781
723.687	3242
723.803	3153
723.918	3291
724.034	3246
724.150	2714
724.265	3575
724.381	3587
724.497	4214
724.612	8179
724.728	2743
724.843	2871
724.959	3306
725.074	3016
725.190	5269
725.305	7773
725.421	3625
725.536	3580
725.651	3330
725.767	3434
725.882	2570
725.997	3350
726.113	3103
726.228	3092
726.343	2868
726.459	3037
726.574	2634
726.689	2954
726.804	2756
726.920	4098
727.035	3048
727.150	2609
727.265	2516
727.380	3006
727.495	2819
727.610	2946
727.725	2546
727.841	3176
727.956	3555
728.071	6954
728.186	7491
728.301	2804
728.416	2566
728.531	3403
728.645	2217
728.760	3359
728.875	2632
728.990	3741
729.105	3718
729.220	3181
729.335	2681
729.449	3551
729.564	1816
729.679	2668
729.794	2220
729.908	2201
730.023	3358
730.138	2637
730.253	1694
730.367	2808
730.482	2149
730.596	2281
730.711	2681
730.826	2434
730.940	2028
731.055	2705
731.169	2227
731.284	2804
731.398	2203
731.513	2313
731.627	2323
731.742	1742
731.856	1738
731.970	3616
732.085	2607
732.199	2684
732.313	1785
732.428	2476
732.542	2208
732.656	3724
732.771	3083
732.885	1565
732.999	2340
733.113	2388
733.227	1983
733.342	2424
733.456	1627
733.570	2025
733.684	1861
733.798	1471
733.912	1664
734.026	2059
734.140	1549
734.254	1820
734.368	2331
734.482	2892
734.596	4695
734.710	2375
734.824	2117
734.938	1968
735.052	1666
735.166	2762
735.280	2595
735.393	1956
735.507	2238
735.621	2830
735.735	2524
735.849	3865
735.962	2083
736.076	1823
736.190	1585
736.303	2675
736.417	3069
736.531	4035
736.644	2110
736.758	2339
736.872	1870
736.985	1708
737.099	2381
737.212	1769
737.326	1497
737.439	1998
737.553	2053
737.666	1914
737.780	1511
737.893	1939
738.007	1228
738.120	1642
738.233	2012
738.347	2030
738.460	1893
738.573	2236
738.687	2534
738.800	2519
738.913	1468
739.026	2327
739.140	2161
739.253	2281
739.366	2375
739.479	2351
739.592	1844
739.705	1772
739.818	1617
739.932	1774
740.045	1808
740.158	2144
740.271	1695
740.384	1839
740.497	2090
740.610	1970
740.723	3169
740.836	1145
740.949	2717
741.062	2693
741.174	2852
741.287	2479
741.400	1878
741.513	2084
741.626	1446
741.739	3018
741.851	1878
741.964	2285
742.077	2199
742.189	1884
742.302	2310
742.415	2627
742.527	2798
742.640	2472
742.753	1733
742.865	1768
742.978	1974
743.090	1460
743.203	1478
743.316	1480
743.428	1543
743.541	1537
743.653	1243
743.766	2277
743.878	1473
743.990	1591
744.103	2403
744.215	3391
744.327	4088
744.440	2878
744.552	2237
744.664	3379
744.777	1905
744.889	1959
745.001	1568
745.113	1479
745.226	1334
745.338	1725
745.450	1522
745.562	1264
745.674	788
745.786	557
745.898	1431
746.010	2202
746.122	1843
746.234	2347
746.347	1322
746.459	1647
746.570	1520
746.682	1715
746.794	2005
746.906	5496
747.018	2284
747.130	1996
747.242	1841
747.354	1509
747.466	1319
747.577	1335
747.689	2261
747.801	1678
747.913	1517
748.024	1855
748.136	1831
748.248	1158
748.359	1277
748.471	2139
748.583	1364
748.694	1365
748.806	1098
748.918	1759
749.029	2495
749.141	1176
749.252	1866
749.364	1959
749.475	1601
749.587	3862
749.698	2743
749.809	1420
749.921	919
750.032	1927
750.144	1134
750.255	1212
750.366	1308
750.478	1847
750.589	1513
750.700	1260
750.811	2406
750.923	1577
751.034	2078
751.145	4339
751.256	5251
751.367	1918
751.479	1408
751.590	1725
751.701	901
751.812	2133
751.923	1667
752.034	1345
752.145	810
752.256	1392
752.367	1671
752.478	2117
752.589	1454
752.700	1304
752.811	765
752.922	1606
753.032	1307
753.143	1373
753.254	2059
753.365	2511
753.476	1232
753.586	1796
753.697	1376
753.808	921
753.919	1007
754.029	773
754.140	1337
754.251	1174
754.361	1436
754.472	1777
754.582	2093
754.693	1884
754.804	1634
754.914	1456
755.025	1436
755.135	954
755.246	2330
755.356	1395
755.466	1727
755.577	2115
755.687	2127
755.798	1707
755.908	1645
756.018	1288
756.129	1829
756.239	802
756.349	1061
756.460	1198
756.570	2310
756.680	1524
756.790	1419
756.900	1955
757.011	2449
757.121	2725
757.231	2137
757.341	2714
757.451	1486
757.561	1863
757.671	1860
757.781	1600
757.891	1897
758.001	1958
758.111	1862
758.221	2129
758.331	1044
758.441	2458
758.551	2400
758.661	2754
758.771	2849
758.880	2440
758.990	1862
759.100	2028
759.210	2455
759.320	1932
759.429	2881
759.539	2323
759.649	2120
759.758	2494
759.868	1935
759.978	2127
760.087	2610
760.197	2409
760.307	3182
760.416	2693
760.526	3026
760.635	3257
760.745	2246
760.854	2867
760.964	2819
761.073	3667
761.182	3295
761.292	3247
761.401	3590
761.511	3292
761.620	3477
761.729	3611
761.839	3323
761.948	3857
762.057	3626
762.166	3194
762.276	4054
762.385	3688
762.494	4178
762.603	4391
762.712	4479
762.822	5078
762.931	4967
763.040	4906
763.149	4581
763.258	5228
763.367	5794
763.476	5954
763.585	5766
763.694	6581
763.803	6309
763.912	7050
764.021	7380
764.130	7844
764.238	8179
764.347	8583
764.456	9253
764.565	10146
764.674	10609
764.783	11951
764.891	12514
765.000	13988
765.109	15649
765.217	18217
765.326	21690
765.435	24848
765.543	30257
765.652	36984
765.761	46084
765.869	60010
765.978	82002
766.086	120568
766.195	188021
766.303	312271
766.412	527443
766.520	625780
766.629	538989
766.737	559388
766.846	330119
766.954	193218
767.062	126402
767.171	88619
767.279	66458
767.387	50924
767.496	39602
767.604	33872
767.712	27918
767.820	24424
767.928	22526
768.037	19893
768.145	18334
768.253	18218
768.361	16168
768.469	16071
768.577	15659
768.685	15816
768.793	17335
768.901	17732
769.009	18980
769.117	22392
769.225	27215
769.333	34552
769.441	47840
769.549	74169
769.657	124488
769.765	241947
769.873	463739
769.981	536795
770.088	479788
770.196	266759
770.304	131890
770.412	81424
770.519	54760
770.627	41179
770.735	30469
770.842	24648
770.950	21431
771.058	19285
771.165	15856
771.273	13330
771.380	13022
771.488	10990
771.595	9801
771.703	8515
771.810	8646
771.918	7927
772.025	7100
772.133	6670
772.240	6130
772.348	6322
772.455	5105
772.562	5039
772.670	5719
772.777	5229
772.884	4627
772.991	3556
773.099	4157
773.206	4309
773.313	3948
773.420	4359
773.528	3660
773.635	3526
773.742	4351
773.849	3393
773.956	3073
774.063	2946
774.170	3334
774.277	3533
774.384	2873
774.491	2009
774.598	3315
774.705	3161
774.812	2161
774.919	3320
775.026	2903
775.133	2469
775.239	2618
775.346	2766
775.453	2316
775.560	2917
775.667	2324
775.773	2183
775.880	2593
775.987	2621
776.093	2064
776.200	1982
776.307	1681
776.413	2016
776.520	1497
776.627	1901
776.733	2243
776.840	2460
776.946	2516
777.053	2331
777.159	4166
777.266	7760
777.372	5248
777.478	7305
777.585	5568
777.691	3232
777.798	2149
777.904	2476
778.010	2276
778.117	2636
778.223	3614
778.329	2156
778.435	889
778.542	1694
778.648	1328
778.754	1719
778.860	1299
778.966	1423
779.072	1823
779.178	2162
779.284	1833
779.391	1837
779.497	1294
779.603	2039
779.708	2321
779.815	4916
779.920	10240
780.026	36141
780.132	94682
780.238	21501
780.344	2826
780.450	1608
780.556	1918
780.661	977
780.767	1155
780.873	1365
780.979	1284
781.085	893
781.190	605
781.296	538
781.402	940
781.507	1792
781.613	1134
781.719	-181
781.824	902
781.930	1251
782.035	1082
782.141	1507
782.246	-121
782.352	899
782.457	562
782.563	430
782.668	335
782.773	997
782.879	1095
782.984	1230
783.090	1127
783.195	1274
783.300	1763
783.405	1345
783.511	784
783.616	1217
783.721	1035
783.826	1674
783.932	1452
784.037	562
784.142	1024
784.247	810
784.352	553
784.457	680
784.562	1038
784.667	496
784.772	685
784.877	1018
784.982	1264
785.087	534
785.192	785
785.297	1130
785.402	462
785.507	364
785.611	233
785.716	745
785.821	-84
785.926	453
786.031	570
786.135	945
786.240	107
786.345	422
786.450	488
786.554	651
786.659	739
786.763	481
786.868	-360
786.973	488
787.077	-79
787.182	65
787.286	316
787.391	432
787.495	625
787.600	813
787.704	28
787.809	148
787.913	295
788.017	594
788.122	502
788.226	547
788.330	397
788.435	1244
788.539	-130
788.643	-11
788.747	399
788.852	131
788.956	-579
789.060	-60
789.164	183
789.268	454
789.372	730
789.476	228
789.580	-246
789.684	726
789.788	428
789.892	708
789.996	-642
790.100	158
790.204	626
790.308	-75
790.412	500
790.516	505
790.620	955
790.724	409
790.828	349
790.931	-237
791.035	201
791.139	-8
791.242	286
791.346	776
791.450	722
791.554	452
791.657	502
791.761	-250
791.864	980
791.968	599
792.072	422
792.175	393
792.279	282
792.382	245
792.486	-214
792.589	552
792.693	554
792.796	264
792.899	502
793.003	388
793.106	486
793.209	119
793.313	380
793.416	-274
793.519	413
793.623	164
793.726	288
793.829	1671
793.932	182
794.035	397
794.138	72
794.242	764
794.345	1070
794.448	684
794.551	2355
794.654	5278
794.757	18513
794.860	48817
794.963	13951
795.066	1149
795.169	106
795.272	763
795.375	-470
795.477	626
795.580	-444
795.683	365
795.786	-140
795.889	117
795.991	220
796.094	155
796.197	502
796.300	460
796.402	-643
796.505	-325
796.608	927
796.710	-523
796.813	-253
796.915	283
797.018	49
797.120	103
797.223	-105
797.326	-45
797.428	-195
797.530	419
797.633	-581
797.735	421
797.838	-203
797.940	998
798.042	262
798.145	-142
798.247	-301
798.349	-500
798.452	-391
798.554	-351
798.656	214
798.758	128
798.860	279
798.962	-845
799.065	218
799.167	215
799.269	-220
799.371	-149
799.473	-168
799.575	307
799.677	-468
799.779	693
799.881	452
799.983	597
800.085	148
800.187	464
800.289	-285
800.390	-48
800.492	-313
800.594	621
800.696	-781
800.798	-331
800.899	-662
801.001	-228
801.103	-434
801.205	-572
801.306	-170
801.408	-201
801.509	-177
801.611	-364
801.713	-701
801.814	-734
801.916	9
802.017	94
802.119	-307
802.220	-142
802.322	141
802.423	813
802.525	-204
802.626	729
802.727	-565
802.829	-161
802.930	-147
803.031	157
803.133	159
803.234	158
803.335	-847
803.436	-909
803.538	-202
803.639	-526
803.740	-385
803.841	-555
803.942	-428
804.043	-852
804.144	-971
804.245	-62
804.346	-625
804.447	-574
804.548	-469
804.649	61
804.750	438
804.851	-159
804.952	-588
805.053	-136
805.154	-420
805.255	-599
805.355	-842
805.456	116
805.557	238
805.658	-31
805.758	-428
805.859	-482
805.960	612
806.061	-80
806.161	218
806.262	436
806.362	-434
806.463	-897
806.564	-889
806.664	-632
806.765	31
806.865	-401
806.966	140
807.066	-311
807.166	365
807.267	-209
807.367	-371
807.468	-90
807.568	-480
807.668	-585
807.769	-101
807.869	56
807.969	-298
808.069	1
808.170	-179
808.270	-311
808.370	-298
808.470	-85
808.570	-302
808.670	298
808.770	-19
808.870	75
808.970	-12
809.070	-459
809.170	64
809.271	-143
809.370	-1086
809.470	-298
809.570	-930
809.670	-376
809.770	-269
809.870	-265
809.970	373
810.070	-685
810.169	-609
810.269	-411
810.369	-273
810.469	-410
810.568	-809
810.668	-643
810.768	-369
810.867	-557
810.967	-1212
811.066	-572
811.166	-278
811.265	-613
811.365	-521
811.464	78
811.564	-443
811.663	673
811.763	-219
811.862	-477
811.962	-947
812.061	-1172
812.160	-183
812.260	-511
812.359	-616
812.458	-587
812.557	76
812.657	990
812.756	3432
812.855	669
812.954	159
813.053	-63
813.153	-211
813.252	-422
813.351	-247
813.450	-58
813.549	-477
813.648	-43
813.747	-168
813.846	371
813.945	-747
814.044	73
814.143	-152
814.242	-286
814.341	-816
814.439	-163
814.538	-112
814.637	-417
814.736	-33
814.835	-445
814.933	-837
815.032	-482
815.131	-749
815.229	-304
815.328	-786
815.427	-228
815.525	-440
815.624	6
815.722	-805
815.821	285
815.919	-126
816.018	-1027
816.116	-1140
816.215	174
816.313	-401
816.412	-248
816.510	91
816.609	-694
816.707	-288
816.805	-502
816.904	-832
817.002	104
817.100	-262
817.198	460
817.296	206
817.395	-72
817.493	-366
817.591	590
817.689	326
817.787	1315
817.885	1823
817.983	3230
818.081	5232
818.179	13451
818.277	33551
818.375	89447
818.473	121870
818.571	33875
818.669	9877
818.767	5028
818.865	4948
818.963	4400
819.061	4436
819.158	7145
819.256	12708
819.354	27329
819.452	69470
819.549	177323
819.647	175620
819.745	44459
819.842	13076
819.940	6634
820.038	4447
820.135	2829
820.233	2339
820.330	1749
820.428	857
820.525	1036
820.623	-161
820.720	267
820.818	278
820.915	1061
821.012	497
821.110	642
821.207	-390
821.304	-564
821.402	320
821.499	438
821.596	961
821.693	2124
821.791	1241
821.888	676
821.985	185
822.082	991
822.179	1750
822.276	360
822.373	81
822.470	203
822.567	-662
822.664	-484
822.761	-460
822.858	-195
822.955	-36
823.052	-97
823.149	-840
823.246	-205
823.343	123
823.440	210
823.536	-482
823.633	-665
823.730	-493
823.827	133
823.923	-563
824.020	142
824.117	-799
824.213	-529
824.310	-126
824.407	-90
824.503	-476
824.600	-160
824.696	-398
824.793	-520
824.889	-937
824.986	-724
825.082	-38
825.179	-414
825.275	-329
825.371	-212
825.468	-418
825.564	-751
825.660	-91
825.757	-557
825.853	-179
825.949	-590
826.045	-228
826.142	-482
826.238	-362
826.334	-445
826.430	-406
826.526	-926
826.622	-351
826.718	-587
826.814	-622
826.910	-71
827.006	-529
827.102	-323
827.198	-324
827.294	-206
827.390	-625
827.486	-533
827.582	-1130
827.678	-323
827.774	-397
827.869	-1096
827.965	-1316
828.061	-992
828.157	-221
828.252	-1030
828.348	-1112
828.444	-1178
828.539	-1052
828.635	-541
828.731	-1104
828.826	-82
828.922	-404
829.017	-857
829.113	-960
829.208	-502
829.304	-295
829.399	-8
829.495	-728
829.590	-168
829.685	-472
829.781	-155
829.876	-680
829.971	-657
830.066	-1025
830.162	-458
830.257	-1195
830.352	-309
830.447	86
830.543	-524
830.638	-1070
830.733	584
830.828	-512
830.923	-219
831.018	-285
831.113	-734
831.208	-752
831.303	-877
831.398	-610
831.493	-163
831.588	-276
831.683	-294
831.778	-302
831.873	-190
831.967	-802
832.062	-554
832.157	-1412
832.252	-367
832.346	-548
832.441	67
832.536	-504
832.631	734
832.725	297
832.820	1383
832.914	-582
833.009	-532
833.104	-83
833.198	-139
833.293	-633
833.387	-549
833.482	-1012
833.576	-374
833.670	-1417
833.765	-101
833.859	-575
833.954	-923
834.048	-156
834.142	-317
834.237	-366
834.331	-498
834.425	-988
834.519	-538
834.613	-927
834.708	-907
834.802	-1072
834.896	14
834.990	-936
835.084	-1390
835.178	-904
835.272	-608
835.366	-583
835.460	-797
835.554	-701
835.648	-692
835.742	-1324
835.836	-472
835.930	-775
836.024	-1055
836.117	369
836.211	93
836.305	-527
836.399	-861
836.493	-225
836.586	-811
836.680	-215
836.774	-602
836.867	-1460
836.961	-1146
837.055	-1409
837.148	-895
837.242	-902
837.335	-635
837.429	-1261
837.522	-892
837.616	-1023
837.709	-888
837.803	-469
837.896	22
837.989	-1069
838.083	-628
838.176	-795
838.269	141
838.363	-20
838.456	-119
838.549	-364
838.642	-227
838.735	80
838.829	1364
838.922	-7
839.015	-980
839.108	-653
839.201	-466
839.294	-950
839.387	-913
839.480	-652
839.573	-419
839.666	-776
839.759	-168
839.852	-371
839.945	-936
840.038	-255
840.131	-460
840.223	145
840.316	175
840.409	-1182
840.502	-827
840.594	-5
840.687	-804
840.780	-655
840.873	-565
840.965	-578
841.058	-435
841.150	-1015
841.243	-590
841.336	270
841.428	-885
841.521	-818
841.613	-1198
841.706	-953
841.798	-771
841.890	-264
841.983	-1181
842.075	-551
842.167	-1380
842.260	-995
842.352	-287
842.444	-1284
842.537	-713
842.629	24
842.721	995
842.813	-1008
842.905	-1275
842.997	-572
843.090	-529
843.182	-966
843.274	253
843.366	467
843.458	1265
843.550	3020
843.642	3169
843.734	-126
843.826	-64
843.918	-58
844.009	-29
844.101	-250
844.193	-763
844.285	-474
844.377	-1165
844.469	-200
844.560	413
844.652	637
844.744	1158
844.835	-299
844.927	-1238
845.019	-683
845.110	-840
845.202	-677
845.293	-26
845.385	-1340
845.476	-564
845.568	-675
845.659	-1243
845.751	-807
845.842	-677
845.934	-1081
846.025	-376
846.116	-358
846.208	-838
846.299	-1039
846.390	-854
846.482	471
846.573	-1028
846.664	-444
846.755	165
846.846	-642
846.937	-644
847.029	-911
847.120	-1296
847.211	-1543
847.302	634
847.393	-1252
847.484	-142
847.575	-1081
847.666	-1096
847.757	-1291
847.847	-1107
847.938	-1036
848.029	-638
848.120	-465
848.211	-974
848.302	-483
848.392	-1047
848.483	-861
848.574	-1236
848.664	-1296
848.755	-661
848.846	-980
848.936	-435
849.027	-1284
849.118	-989
849.208	-983
849.299	-784
849.389	-372
849.480	-392
849.570	-935
849.661	-111
849.751	-759
849.841	-609
849.932	-352
850.022	-680
850.112	-1004
850.203	-433
850.293	-621
850.383	-887
850.474	-785
850.564	-1350
850.654	-743
850.744	-309
850.834	-746
850.924	-852
851.014	-833
851.104	-434
851.194	-920
851.284	11
851.374	-425
851.464	-498
851.554	-469
851.644	-726
851.734	-239
851.824	-363
851.914	-649
852.004	128
852.094	-485
852.183	176
852.273	-405
852.363	-972
852.452	-52
852.542	-722
852.632	-1624
852.721	-229
852.811	-1600
852.901	-740
852.990	-1346
853.080	-501
853.169	-962
853.259	-359
853.348	-779
853.438	-777
853.527	-748
853.617	-640
853.706	-713
853.795	-1145
853.885	-701
853.974	180
854.063	730
854.152	666
854.242	2415
854.331	1952
854.420	-458
854.509	-910
854.598	-842
854.687	-746
854.777	-480
854.866	-719
854.955	-679
855.044	-840
855.133	-632
855.222	-1416
855.311	-520
855.400	-1282
855.488	-1009
855.577	-1634
855.666	-502
855.755	-1162
855.844	-171
855.933	-374
856.021	-427
856.110	-368
856.199	-879
856.288	-561
856.376	-1504
856.465	-1234
856.554	-170
856.642	-1029
856.731	-780
856.819	-594
856.908	-1295
856.996	41
857.085	-533
857.173	-642
857.262	-1194
857.350	-981
857.438	-1049
857.527	-1189
857.615	-1112
857.703	-176
857.792	-1073
857.880	-647
857.968	-1197
858.056	-1206
858.145	-1031
858.233	-835
858.321	-656
858.409	-1136
858.497	-1137
858.585	-998
858.673	-1394
858.761	-913
858.849	-1594
858.937	-878
859.025	-461
859.113	-810
859.201	-799
859.289	-555
859.377	-1257
859.465	-248
859.552	-539
859.640	-928
859.728	-1430
859.816	-354
859.903	-421
859.991	-1068
860.079	-734
860.166	-683
860.254	-470
860.342	-574
860.429	-1238
860.517	-1321
860.604	-1176
860.692	-411
860.779	-1172
860.867	-1167
860.954	-1306
861.042	-633
861.129	-541
861.216	-707
861.304	-253
861.391	-1080
861.478	-1028
861.565	-1096
861.653	-954
861.740	-750
861.827	-1495
861.914	-1553
862.001	-1094
862.089	-525
862.176	-716
862.263	-1155
862.350	-1247
862.437	-1288
862.524	-1088
862.611	-790
862.698	-871
862.785	-930
862.871	-599
862.958	-776
863.045	-390
863.132	-264
863.219	-1444
863.306	-1562
863.392	-113
863.479	-342
863.566	-564
863.652	-781
863.739	-1245
863.826	-934
863.912	-1296
863.999	-827
864.086	-691
864.172	-506
864.259	-944
864.345	-909
864.432	-1321
864.518	-1282
864.604	-757
864.691	-1477
864.777	-1281
864.863	-514
864.950	-434
865.036	-764
865.122	-1054
865.209	-387
865.295	-1737
865.381	-947
865.467	-1220
865.553	-1193
865.639	-591
865.726	-985
865.812	-955
865.898	-521
865.984	425
866.070	61
866.156	1695
866.242	1909
866.328	-347
866.414	-391
866.499	-1130
866.585	-533
866.671	-951
866.757	-778
866.843	-655
866.928	-766
867.014	-1630
867.100	-730
867.186	-1217
867.271	-412
867.357	-753
867.442	-905
867.528	232
867.614	258
867.699	-610
867.785	-535
867.870	-448
867.956	-239
868.041	442
868.127	431
868.212	-276
868.297	1
868.383	-147
868.468	-379
868.553	-296
868.639	641
868.724	34
868.809	1322
868.894	2532
868.979	-102
869.065	-813
869.150	-547
869.235	-539
869.320	-803
869.405	-1052
869.490	-962
869.575	-1041
869.660	-838
869.745	-678
869.830	-1170
869.915	-1207
870.000	-498
870.085	-1485
870.169	-1132
870.254	-422
870.339	-896
870.424	-1345
870.509	-767
870.593	-649
870.678	-1155
870.763	-891
870.847	-563
870.932	-1679
871.016	-864
871.101	-149
871.186	-727
871.270	-543
871.355	-936
871.439	-604
871.523	-1055
871.608	-714
871.692	-514
871.777	-803
871.861	-625
871.945	-1285
872.030	-874
872.114	-750
872.198	-1620
872.282	-1055
872.367	-1288
872.451	-871
872.535	-727
872.619	-834
872.703	-931
872.787	-1238
872.871	-730
872.955	-1250
873.039	-1215
873.123	-1245
873.207	-1024
873.291	-1023
873.375	-1419
873.459	-544
873.543	-1023
873.627	-1074
873.711	-802
873.794	-567
873.878	-1204
873.962	-1005
874.045	-800
874.129	-1975
874.137	-1807
874.213	-126
874.245	-499
874.296	-1107
874.352	-1265
874.380	-1345
874.460	-1165
874.464	-1159
874.547	-1286
874.568	-1217
874.631	-1029
874.676	-962
874.714	-886
874.784	-546
874.798	-481
874.881	-565
874.892	-591
874.965	-831
874.999	-802
875.048	-717
875.107	-772
875.131	-808
875.215	-212
875.215	-212
875.298	-612
875.323	-599
875.381	-576
875.430	-599
875.465	-620
875.538	-657
875.548	-667
875.631	-1190
875.646	-1127
875.714	-857
875.753	-1075
875.798	-1274
875.861	-903
875.881	-776
875.964	-1310
875.968	-1263
876.047	-445
876.076	-553
876.130	-822
876.183	-525
876.213	-320
876.291	-31
876.296	-15
876.379	-576
876.398	-609
876.462	-752
876.506	-703
876.545	-652
876.613	-733
876.628	-759
876.711	-912
876.721	-903
876.794	-672
876.828	-594
876.877	-488
876.935	-537
876.960	-596
877.043	-565
877.043	-563
877.125	98
877.150	-18
877.208	-274
877.258	206
877.291	499
877.365	35
877.374	-30
877.456	76
877.472	55
877.539	160
877.579	141
877.622	65
877.687	317
877.704	393
877.787	-30
877.794	-28
877.869	-87
877.901	-217
877.952	-375
878.008	-198
878.034	-127
878.115	-284
878.117	-289
878.199	-170
878.222	-210
878.282	-9
878.329	19
878.364	-29
878.437	54
878.447	47
878.529	-377
878.544	-279
878.611	191
878.651	75
878.694	-2
878.758	-274
878.776	-357
878.858	393
878.865	335
878.941	-210
878.972	-219
879.023	-349
879.078	-411
879.105	-309
879.185	350
879.187	354
879.269	-21
879.292	-232
879.351	-454
879.399	-331
879.433	-322
879.506	-207
879.516	-195
879.598	-621
879.613	-580
879.680	-87
879.720	-14
879.762	-96
879.827	-28
879.844	10
879.926	-378
879.933	-394
880.007	-586
880.040	-439
880.089	-82
880.147	21
880.171	26
880.253	199
880.254	197
880.335	547
880.360	643
880.417	631
880.467	875
880.499	1450
880.574	2618
880.580	2652
880.662	3182
880.680	3046
880.744	1677
880.787	771
880.825	328
880.893	-87
880.907	-81
880.989	41
881.000	-13
881.070	-336
881.106	178
881.152	779
881.213	376
881.233	255
881.315	112
881.319	134
881.396	307
881.426	172
881.478	-21
881.532	-255
881.559	-173
881.639	479
881.641	484
881.722	92
881.745	114
881.803	551
881.852	548
881.885	320
881.958	40
881.966	61
882.047	246
882.064	375
882.129	897
882.171	872
882.210	795
882.277	714
882.291	864
882.372	2138
882.383	2250
882.454	1461
882.489	1005
882.535	689
882.596	260
882.616	223
882.697	238
882.702	243
882.778	336
882.808	158
882.859	110
882.914	310
882.940	219
883.020	31
883.021	40
883.102	547
883.127	555
883.183	403
883.233	405
883.264	305
883.339	169
883.345	186
883.426	174
883.445	205
883.507	526
883.551	778
883.587	832
883.657	415
883.668	368
883.749	811
883.763	767
883.830	390
883.869	235
883.910	123
883.975	19
883.991	129
884.072	931
884.081	970
884.152	562
884.187	487
884.233	676
884.292	481
884.314	368
884.394	622
884.398	608
884.475	790
884.504	874
884.555	711
884.610	580
884.636	573
884.716	571
884.716	578
884.797	673
884.821	741
884.877	672
884.927	613
884.958	700
885.033	887
885.038	880
885.118	608
885.139	458
885.199	369
885.244	617
885.279	656
885.350	377
885.359	425
885.439	879
885.456	970
885.520	655
885.561	412
885.600	529
885.667	951
885.680	956
885.760	618
885.773	568
885.840	693
885.878	822
885.920	995
885.984	1085
886.000	1038
886.080	923
886.089	895
886.160	682
886.195	540
886.240	868
886.300	1470
886.320	1367
886.400	747
886.406	694
886.480	1023
886.511	1254
886.560	1356
886.616	1263
886.640	1362
886.720	1693
886.722	1695
886.800	1224
886.827	994
886.879	1013
886.932	1074
886.959	1196
887.038	1502
887.039	1510
887.119	1389
887.143	1316
887.198	1067
887.248	991
887.278	1072
887.354	1080
887.358	1099
887.437	1333
887.459	1362
887.517	1394
887.564	1601
887.596	1465
887.669	762
887.676	783
887.755	1195
887.774	1267
887.835	1745
887.880	2056
887.914	1945
887.985	1779
887.994	1786
888.073	1800
888.090	1749
888.153	1419
888.195	1252
888.232	1407
888.300	1638
888.311	1596
888.391	1317
888.405	1246
888.470	1753
888.510	2038
888.549	1713
888.615	1146
888.628	1172
888.708	1308
888.720	1319
888.787	1595
888.825	1750
888.866	1880
888.930	2046
888.945	2059
889.024	2104
889.035	2091
889.103	2110
889.140	2142
889.182	2174
889.245	2175
889.261	2062
889.340	1459
889.349	1386
889.419	1725
889.454	1874
889.498	1750
889.559	1571
889.577	1617
889.656	1795
889.664	1807
889.735	1983
889.768	2060
889.814	2250
889.873	2483
889.978	2525
890.083	2619
890.187	2700
890.292	2266
890.397	2424
890.501	1776
890.606	2169
890.710	2259
890.815	1694
890.919	1124
891.024	1646
891.128	1543
891.233	1521
891.337	1935
891.442	2253
891.546	2375
891.650	2037
891.755	2357
891.859	2983
891.963	2229
892.068	1568
892.172	2243
892.276	1538
892.380	2190
892.484	1578
892.589	1763
892.693	1780
892.797	1784
892.901	1386
893.005	2415
893.109	1355
893.213	1655
893.317	1356
893.421	2115
893.525	2246
893.629	1271
893.733	1733
893.837	1562
893.941	291
894.045	2046
894.148	2099
894.252	2576
894.356	2608
894.460	2334
894.564	2362
894.667	2320
894.771	1322
894.875	2107
894.978	1707
895.082	1558
895.186	1366
895.289	1983
895.393	1356
895.496	2227
895.600	1236
895.703	1688
895.807	1402
895.910	1465
896.014	1035
896.117	1942
896.221	2407
896.324	2007
896.427	1506
896.531	1777
896.634	1125
896.737	2623
896.840	1347
896.944	1654
897.047	1533
897.150	1969
897.253	1362
897.356	1858
897.460	1568
897.563	1652
897.666	1165
897.769	1649
897.872	1114
897.975	1694
898.078	894
898.181	1297
898.284	1296
898.387	1930
898.490	1291
898.593	1734
898.695	1201
898.798	1614
898.901	1309
899.004	1003
899.107	1279
899.209	2469
899.312	1351
899.415	1702
899.518	1609
899.620	1173
899.723	2144
899.826	1398
899.928	2786
900.031	3221
900.133	1245
900.236	805
900.338	482
900.441	1235
900.543	1155
900.646	1024
900.748	1237
900.851	2042
900.953	994
901.055	1517
901.158	1452
901.260	1528
901.362	1282
901.465	1280
901.567	1051
901.669	2233
901.771	1981
901.873	1244
901.976	1065
902.078	1769
902.180	828
902.282	1023
902.384	1724
902.486	1623
902.588	1342
902.690	1744
902.792	2115
902.894	2152
902.996	1971
903.098	1479
903.200	1009
903.302	1934
903.404	1307
903.505	890
903.607	1602
903.709	1476
903.811	318
903.913	1835
904.014	728
904.116	2017
904.218	1753
904.319	1396
904.421	1619
904.523	2198
904.624	2284
904.726	1351
904.827	1708
904.929	2234
905.030	1855
905.132	1868
905.233	1476
905.335	2282
905.436	2128
905.537	1107
905.639	1937
905.740	1617
905.841	2047
905.943	2359
906.044	1463
906.145	2183
906.247	927
906.348	1451
906.449	975
906.550	1248
906.651	1237
906.752	895
906.854	895
906.955	1712
907.056	1237
907.157	1922
907.258	1695
907.359	1312
907.460	2141
907.561	1693
907.662	1195
907.762	1739
907.863	1400
907.964	1695
908.065	1603
908.166	1004
908.267	1213
908.367	1472
908.468	1889
908.569	2140
908.670	1531
908.770	1455
908.871	1995
908.971	2090
909.072	1552
909.173	1811
909.273	533
909.374	715
909.474	1568
909.575	1285
909.675	790
909.776	1590
909.876	1028
909.977	2224
910.077	1210
910.177	1224
910.278	1921
910.378	1518
910.478	1457
910.579	717
910.679	896
910.779	1981
910.879	1400
910.980	1896
911.080	1712
911.180	1141
911.280	1450
911.380	1058
911.480	728
911.580	1431
911.680	1788
911.780	1566
911.880	1106
911.980	1728
912.080	842
912.180	956
912.280	1299
912.380	1356
912.480	1670
912.580	1764
912.679	1586
912.779	2080
912.879	1211
912.979	1114
913.078	1058
913.178	1338
913.278	1780
913.377	473
913.477	1263
913.577	1626
913.676	1936
913.776	1775
913.875	1969
913.975	1720
914.074	1288
914.174	2232
914.273	801
914.373	2376
914.472	386
914.572	1414
914.671	1119
914.770	1393
914.870	1345
914.969	1190
915.068	1524
915.167	1506
915.267	887
915.366	875
915.465	1169
915.564	1065
915.663	1576
915.763	1418
915.862	1698
915.961	734
916.060	954
916.159	1492
916.258	1126
916.357	1571
916.456	1212
916.555	1214
916.654	859
916.752	1885
916.851	1070
916.950	1479
917.049	1238
917.148	1201
917.247	1580
917.345	1653
917.444	738
917.543	1435
917.642	1354
917.740	1206
917.839	1228
917.937	1955
918.036	1304
918.135	1436
918.233	1103
918.332	1182
918.430	943
918.529	1791
918.627	1193
918.726	1132
918.824	825
918.923	1889
919.021	877
919.119	1226
919.218	472
919.316	781
919.414	962
919.512	1423
919.611	1390
919.709	1489
919.807	1238
919.905	846
920.003	1498
920.102	1519
920.200	1273
920.298	1496
920.396	889
920.494	1746
920.592	1492
920.690	1480
920.788	820
920.886	1381
920.984	1271
921.082	1218
921.180	1496
921.277	1837
921.375	826
921.473	2218
921.571	555
921.669	1593
921.766	1092
921.864	885
921.962	1900
922.060	984
922.157	1116
922.255	995
922.352	1458
922.450	880
922.548	1763
922.645	1351
922.743	639
922.840	1527
922.938	1241
923.035	1099
923.133	1430
923.230	1444
923.327	892
923.425	1362
923.522	1169
923.619	1176
923.717	1021
923.814	1751
923.911	715
924.008	2032
924.106	994
924.203	1008
924.300	948
924.397	1493
924.494	509
924.591	840
924.688	1093
924.786	1463
924.883	1802
924.979	1294
925.077	1069
925.173	794
925.270	724
925.367	1195
925.464	1630
925.561	1332
925.658	804
925.755	1198
925.852	1402
925.948	1914
926.045	1652
926.142	1935
926.239	2266
926.335	2755
926.432	1671
926.529	1723
926.625	2712
926.722	1984
926.818	1903
926.915	1262
927.011	1465
927.108	697
927.204	1473
927.301	1770
927.397	1501
927.494	1222
927.590	1351
927.687	1388
927.783	1564
927.879	1154
927.976	293
928.072	1162
928.168	811
928.264	853
928.361	1299
928.457	1415
928.553	857
928.649	1249
928.745	1220
928.841	1261
928.937	965
929.033	688
929.129	936
929.225	1000
929.321	1172
929.417	1465
929.513	1017
929.609	1211
929.705	902
929.801	1389
929.897	835
929.993	763
930.089	1066
930.184	1538
930.280	1658
930.376	436
930.471	442
930.567	516
930.663	979
930.758	1524
930.854	1024
930.950	1598
931.045	793
931.141	1018
931.236	922
931.332	909
931.427	569
931.523	1181
931.618	1568
931.714	985
931.809	1930
931.905	930
932.000	969
932.095	1233
932.191	834
932.286	597
932.381	1956
932.476	1450
932.572	-251
932.667	1500
932.762	1896
932.857	1264
932.952	1071
933.047	1231
933.142	308
933.237	446
933.332	1159
933.427	1534
933.522	762
933.617	1011
933.712	438
933.807	1144
933.902	1248
933.997	692
934.092	531
934.187	1791
934.282	669
934.376	1644
934.471	928
934.566	1178
934.661	471
934.755	1386
934.850	1701
934.945	1795
935.039	2148
935.134	1715
935.228	1397
935.323	909
935.417	-141
935.512	922
935.606	959
935.701	1222
935.795	1643
935.890	460
935.984	1112
936.079	972
936.173	650
936.267	1101
936.362	1002
936.456	785
936.550	678
936.644	1055
936.738	78
936.833	1012
936.927	684
937.021	1048
937.115	1511
937.209	1064
937.303	1265
937.397	911
937.491	659
937.585	813
937.679	1467
937.773	849
937.867	360
937.961	973
938.055	293
938.149	1433
938.243	847
938.337	1381
938.430	801
938.524	1981
938.618	1576
938.712	3041
938.805	2056
938.899	1390
938.993	864
939.086	1714
939.180	1938
939.274	4180
939.367	2700
939.461	1704
939.554	888
939.648	454
939.741	1077
939.835	1248
939.928	722
940.022	1358
940.115	1245
940.208	957
940.302	685
940.395	1068
940.488	1289
940.582	1384
940.675	940
940.768	10
940.861	998
940.954	756
941.048	534
941.141	1146
941.234	1237
941.327	1130
941.420	2203
941.513	1962
941.606	1065
941.699	362
941.792	606
941.885	1022
941.978	933
942.071	627
942.164	432
942.257	1127
942.349	-94
942.442	1053
942.535	1167
942.628	1045
942.721	797
942.813	-11
942.906	953
942.999	516
943.091	613
943.184	956
943.277	1076
943.369	880
943.462	726
943.554	863
943.647	856
943.739	221
943.832	369
943.924	133
944.017	1260
944.109	1031
944.201	823
944.294	770
944.386	1624
944.478	109
944.571	337
944.663	763
944.755	643
944.847	490
944.940	179
945.032	459
945.124	409
945.216	759
945.308	527
945.400	735
945.492	249
945.584	-59
945.676	649
945.768	799
945.860	1811
945.952	551
946.044	1138
946.136	1062
946.228	1403
946.320	586
946.412	904
946.503	894
946.595	1268
946.687	147
946.779	675
946.870	295
946.962	587
947.054	800
947.145	374
947.237	1470
947.329	173
947.420	662
947.512	219
947.603	428
947.695	603
947.786	214
947.878	173
947.969	1020
948.061	186
948.152	1251
948.243	659
948.335	1006
948.426	679
948.517	571
948.609	405
948.700	321
948.791	1018
948.882	549
948.973	221
949.065	553
949.156	974
949.247	341
949.338	-128
949.429	1136
949.520	436
949.611	1099
949.702	400
949.793	725
949.884	-20
949.975	95
950.066	1079
950.157	194
950.247	-32
950.338	-364
950.429	791
950.520	450
950.611	544
950.701	1486
950.792	1236
950.883	910
950.973	705
951.064	785
951.155	824
951.245	894
951.336	-172
951.427	506
951.517	446
951.608	401
951.698	313
951.788	745
951.879	816
951.969	433
952.060	461
952.150	-222
952.240	450
952.331	265
952.421	1046
952.511	1038
952.602	345
952.692	2089
952.782	1251
952.872	888
952.962	406
953.052	269
953.143	695
953.233	853
953.323	690
953.413	720
953.503	827
953.593	-331
953.683	712
953.773	529
953.863	-98
953.953	-74
954.042	967
954.132	1038
954.222	-64
954.312	234
954.402	29
954.492	1064
954.581	461
954.671	1751
954.761	1194
954.850	1229
954.940	1008
955.030	186
955.119	1000
955.209	657
955.298	886
955.388	947
955.477	1285
955.567	19
955.656	685
955.746	1456
955.835	674
955.925	616
956.014	1563
956.103	1314
956.193	839
956.282	407
956.371	1770
956.461	-120
956.550	706
956.639	826
956.728	547
956.817	1046
956.906	498
956.995	1180
957.085	856
957.174	1017
957.263	369
957.352	1339
957.441	1295
957.530	1129
957.619	1151
957.708	1495
957.796	532
957.885	851
957.974	2022
958.063	1522
958.152	754
958.241	1344
958.329	1567
958.418	889
958.507	1462
958.596	1742
958.684	940
958.773	2182
958.861	1577
958.950	2103
959.039	2303
959.127	2279
959.216	1768
959.304	2217
959.393	2131
959.481	3162
959.570	1945
959.658	1830
959.746	2370
959.835	2238
959.923	3216
960.011	3622
960.100	2786
960.188	2106
960.276	1934
960.365	1431
960.453	1939
960.541	1137
960.629	990
960.717	1544
960.805	1338
960.893	1471
960.981	1100
961.069	600
961.158	1430
961.245	1138
961.333	1033
961.421	744
961.509	435
961.597	1339
961.685	1095
961.773	359
961.861	1639
961.949	1252
962.036	955
962.124	302
962.212	1271
962.299	-11
962.387	694
962.475	511
962.562	494
962.650	827
962.738	832
962.825	823
962.913	991
963.000	726
963.088	302
963.175	624
963.263	322
963.350	-6
963.438	908
963.525	1658
963.612	668
963.700	2196
963.787	4081
963.874	8995
963.962	4293
964.049	1095
964.136	-156
964.223	636
964.310	-5
964.398	132
964.485	816
964.572	427
964.659	340
964.746	1375
964.833	1499
964.920	576
965.007	210
965.094	517
965.181	-399
965.268	830
965.355	83
965.441	-262
965.528	-211
965.615	386
965.702	28
965.789	167
965.875	-144
965.962	-152
966.049	-146
966.136	687
966.222	447
966.309	210
966.395	61
966.482	116
966.569	-249
966.655	13
966.742	75
966.828	422
966.915	-222
967.001	236
967.087	436
967.174	82
967.260	611
967.347	941
967.433	1022
967.519	2847
967.605	5089
967.692	1886
967.778	395
967.864	-140
967.950	-108
968.036	-81
968.123	92
968.209	1126
968.295	407
968.381	53
968.467	1070
968.553	-118
968.639	-614
968.725	133
968.811	370
968.897	757
968.983	947
969.069	378
969.154	580
969.240	803
969.326	11
969.412	26
969.497	-205
969.583	36
969.669	511
969.755	-217
969.840	-647
969.926	192
970.012	-719
970.097	-558
970.183	-487
970.268	137
970.354	487
970.439	771
970.525	1384
970.610	3001
970.696	1049
970.781	957
970.866	83
970.952	-228
971.037	-296
971.122	52
971.208	-88
971.293	-114
971.378	-207
971.463	-131
971.549	518
971.634	-332
971.719	-856
971.804	-129
971.889	345
971.974	327
972.059	-762
972.144	172
972.229	-320
972.314	480
972.399	-484
972.484	0
972.569	-143
972.654	297
972.739	-83
972.824	1417
972.908	1828
972.993	403
973.078	-827
973.163	-112
973.247	156
973.332	-1117
973.417	329
973.501	-175
973.586	-888
973.671	-177
973.755	-196
973.840	1007
973.924	380
974.009	87
974.093	-54
974.178	132
974.262	67
974.346	1136
974.431	1202
974.515	29
974.600	26
974.684	146
974.768	-534
974.852	868
974.937	-177
975.021	16
975.105	-118
975.189	190
975.273	82
975.358	535
975.442	280
975.526	-394
975.610	-592
975.694	-249
975.778	158
975.862	-429
975.946	-1096
976.030	330
976.114	-169
976.198	-176
976.281	-221
976.365	-22
976.449	-371
976.533	-230
976.617	-658
976.700	398
976.784	2
976.868	-210
976.951	-753
977.035	931
977.119	535
977.202	273
977.286	-275
977.369	-296
977.453	-284
977.536	205
977.620	-1509
977.703	1057
977.787	-232
977.870	-648
977.953	-97
978.037	-468
978.120	-482
978.203	567
978.287	1036
978.370	1359
978.453	285
978.536	-407
978.620	-1
978.703	-308
978.786	858
978.869	161
978.952	-524
979.035	244
979.118	-81
979.201	-69
979.284	-1122
979.367	-404
979.450	-990
979.533	-289
979.616	-764
979.699	-505
979.782	-673
979.865	-14
979.948	-317
980.030	-414
980.113	-213
980.196	-199
980.279	-233
980.361	-555
980.444	-513
980.526	-353
980.609	170
980.692	-306
980.774	-27
980.857	-1316
980.939	-709
981.022	-633
981.104	-419
981.187	-33
981.269	-634
981.352	-161
981.434	-987
981.516	-7
981.599	-95
981.681	-930
981.763	-829
981.846	-825
981.928	-908
982.010	-462
982.092	-310
982.174	-574
982.256	-967
982.339	-182
982.421	-898
982.503	-219
982.585	-211
982.667	-576
982.749	-620
982.831	-638
982.913	-762
982.995	-456
983.077	-978
983.158	-494
983.240	-169
983.322	111
983.404	-759
983.486	-385
983.568	-1175
983.649	-1020
983.731	-293
983.813	3
983.894	-754
983.976	-706
984.058	188
984.139	-572
984.221	-319
984.302	-498
984.384	-482
984.465	-870
984.547	-308
984.628	381
984.710	-807
984.791	-828
984.872	-361
984.954	-668
985.035	-394
985.116	-367
985.198	-546
985.279	-174
985.360	-1395
985.441	-1101
985.522	-49
985.604	-842
985.685	-941
985.766	-217
985.847	-344
985.928	-544
986.009	-1770
986.090	-830
986.171	-527
986.252	-879
986.333	-731
986.414	-563
986.495	-452
986.576	208
986.656	-455
986.737	-637
986.818	-1019
986.899	-790
986.980	23
987.060	-792
987.141	-767
987.222	209
987.302	-1250
987.383	-259
987.464	-833
987.544	-756
987.625	-1071
987.705	-883
987.786	-484
987.866	-624
987.947	-1184
988.027	-843
988.108	-574
988.188	-640
988.268	-1168
988.349	-297
988.429	-1213
988.509	-907
988.589	-728
988.670	-435
988.750	-583
988.830	-795
988.910	-524
988.990	-34
989.070	-1379
989.151	-386
989.231	-263
989.311	-520
989.391	-435
989.471	238
989.551	-913
989.631	-755
989.711	-228
989.791	-737
989.870	-417
989.950	-562
990.030	-220
990.110	-435
990.190	-206
990.269	165
990.349	-1058
990.429	-492
990.509	-535
990.588	-433
990.668	-94
990.747	-729
990.827	-243
990.907	-812
990.986	-534
991.066	-755
991.145	-1054
991.225	-975
991.304	-298
991.383	-960
991.463	-1575
991.542	-226
991.622	-1039
991.701	-344
991.780	-550
991.859	-398
991.939	-469
992.018	-443
992.097	-326
992.176	-680
992.256	-65
992.335	-1047
992.414	-1143
992.493	-696
992.572	-1045
992.651	62
992.730	-1230
992.809	-350
992.888	-1041
992.967	-689
993.046	46
993.125	-938
993.203	-1111
993.282	-870
993.361	-816
993.440	-747
993.519	-1197
993.597	-217
993.676	-854
993.755	-519
993.834	-281
993.912	-575
993.991	-1021
994.069	-939
994.148	-586
994.226	-1277
994.305	-421
994.384	-1615
994.462	-1107
994.540	-601
994.619	-646
994.697	-437
994.776	-991
994.854	43
994.932	-385
995.011	-606
995.089	75
995.167	-1204
995.245	-782
995.324	-863
995.402	-220
995.480	-1022
995.558	-595
995.636	-1461
995.714	-857
995.792	-412
995.870	-978
995.948	-882
996.026	-1131
996.104	-1399
996.182	-397
996.260	-1854
996.338	-56
996.416	-462
996.494	-915
996.572	-1495
996.649	-109
996.727	-937
996.805	-651
996.883	-737
996.960	-855
997.038	-1258
997.116	-1049
997.193	-1260
997.271	23
997.348	-897
997.426	-840
997.504	-457
997.581	-1284
997.658	-173
997.736	-436
997.813	-1687
997.891	-998
997.968	-337
998.046	-1000
998.123	-865
998.200	-844
998.277	-1047
998.355	-1136
998.432	-950
998.509	409
998.586	-508
998.663	-965
998.741	-895
998.818	-1453
998.895	-999
998.972	-426
999.049	-1220
999.126	-1211
999.203	-164
999.280	-872
999.357	-339
999.434	-152
999.511	-361
999.587	-292
999.664	-1083
999.741	-894
999.818	-1345
999.895	-220
999.971	-733
1000.048	-798
1000.125	-314
1000.202	-1227
1000.278	-500
1000.355	-956
1000.431	-832
1000.508	-1220
1000.584	-660
1000.661	-1372
1000.738	-1515
1000.814	-401
1000.890	-376
1000.967	-937
1001.043	-770
1001.120	-1351
1001.196	-1049
1001.272	-1028
1001.349	-457
1001.425	266
1001.501	-1167
1001.577	-1288
1001.654	-369
1001.730	-1184
1001.806	-542
1001.882	-1407
1001.958	-714
1002.034	-565
1002.110	-533
1002.186	-1537
1002.262	-1080
1002.338	-1383
1002.414	-1085
1002.490	-1006
1002.566	-614
1002.642	-1635
1002.718	-671
1002.794	-1122
1002.870	-704
1002.945	-441
1003.021	-660
1003.097	-608
1003.173	7
1003.248	-664
1003.324	-1731
1003.400	-2036
1003.475	-1320
1003.551	-797
1003.626	-742
1003.702	-726
1003.777	-996
1003.853	-800
1003.928	-1007
1004.004	-1207
1004.079	282
1004.155	-1367
1004.230	-1665
1004.305	-749
1004.381	-1211
1004.456	-1325
1004.531	-101
1004.607	-985
1004.682	-564
1004.757	-743
1004.832	-590
1004.907	-2005
1004.982	-1261
1005.057	-1238
1005.133	-1288
1005.208	-1219
1005.283	-490
1005.358	-851
1005.433	-1427
1005.508	-1265
1005.583	-2035
1005.657	-1010
1005.732	-1144
1005.807	-881
1005.882	-794
1005.957	-970
1006.032	-744
1006.106	-815
1006.181	-966
1006.256	-1789
1006.331	-1113
1006.405	-1943
1006.480	-1079
1006.554	-916
1006.629	-830
1006.704	-1815
1006.778	-715
1006.853	-525
1006.927	-1240
1007.002	-1302
1007.076	-888
1007.150	-776
1007.225	-466
1007.299	-362
1007.373	-1851
1007.448	-1877
1007.522	-716
1007.596	-1075
1007.671	-1267
1007.745	-1660
1007.819	-1416
1007.893	-1110
1007.967	-814
1008.041	-1000
1008.115	-1032
1008.190	-1334
1008.264	-899
1008.338	-1011
1008.412	-695
1008.486	-1960
1008.560	-707
1008.633	-1444
1008.707	-817
1008.781	-661
1008.855	-596
1008.929	-877
1009.003	-1637
1009.076	-1402
1009.150	-976
1009.224	-1295
1009.298	-1350
1009.371	-1397
1009.445	-809
1009.519	-1156
1009.592	-1274
1009.666	-1493
1009.739	-606
1009.813	-1411
1009.886	-867
1009.960	-1156
1010.033	-1597
1010.107	-892
1010.180	-1256
1010.253	-1140
1010.327	-903
1010.400	-1081
1010.473	-900
1010.547	-1023
1010.620	-1102
1010.693	-1447
1010.766	-1311
1010.840	-1533
1010.913	-1042
1010.986	-1426
1011.059	-966
1011.132	-1455
1011.205	-1279
1011.278	-1883
1011.351	-566
1011.424	-666
1011.497	-1572
1011.570	-901
1011.643	-1684
1011.716	-1534
1011.789	-1810
1011.862	-698
1011.934	-1043
1012.007	-1482
1012.080	-1888
1012.153	-1679
1012.225	-1211
1012.298	-1818
1012.371	-1838
1012.443	-1570
1012.516	-813
1012.588	-1846
1012.661	-1391
1012.733	-1824
1012.806	-1221
1012.879	-578
1012.951	-1021
1013.023	-1414
1013.096	-1345
1013.168	-1076
1013.241	-2144
1013.313	-1499
1013.385	-1389
1013.458	-1691
1013.530	-1151
1013.602	-2059
1013.674	-644
1013.746	-1661
1013.819	-1755
1013.891	-2133
1013.963	-1357
1014.035	-1642
1014.107	-179
1014.179	-823
1014.251	-1563
1014.323	-806
1014.395	-1327
1014.467	-700
1014.539	-1179
1014.611	-738
1014.683	-931
1014.754	-768
1014.826	-1574
1014.898	-1553
1014.970	-1265
1015.042	-1468
1015.113	-1012
1015.185	-1241
1015.257	-1391
1015.328	-1521
1015.400	-1232
1015.471	-1236
1015.543	-2020
1015.615	-1060
1015.686	-1080
1015.757	-585
1015.829	-2027
1015.901	-1748
1015.972	-1318
1016.043	-1492
1016.115	-2139
1016.186	-1370
1016.257	-1007
1016.328	-1766
1016.400	-1382
1016.471	-1045
1016.542	-1699
1016.613	-1743
1016.685	-1409
1016.756	-1449
1016.827	-1183
1016.898	-2164
1016.969	-1603
1017.040	-1666
1017.111	-1631
1017.182	-1759
1017.253	-1434
1017.324	-1968
1017.395	-1553
1017.466	-867
1017.537	-2333
1017.608	-1248
1017.678	-1665
1017.749	-2171
1017.820	-1197
1017.891	-2074
1017.961	-768
1018.032	-1069
1018.103	-1339
1018.173	-916
1018.244	-1568
1018.315	-1451
1018.385	-1094
1018.456	-2060
1018.526	-1106
1018.597	-1788
1018.667	-1267
1018.738	-1373
1018.808	-1220
1018.878	-1592
1018.949	-1324
1019.019	-850
1019.089	-1463
1019.160	-772
1019.230	-1636
1019.300	-1761
1019.371	-2143
1019.441	-1186
1019.511	-905
1019.581	-1657
1019.651	-1269
1019.721	-869
1019.791	-2079
1019.861	-1297
1019.931	-1656
1020.001	-1113
1020.071	-1319
1020.141	-2297
1020.211	-1417
1020.281	-1570
1020.351	-1070
1020.421	-1072
1020.491	-557
1020.560	-1431
1020.630	-1387
1020.700	-1773
1020.770	-1222
1020.839	-1093
1020.909	-1333
1020.979	-1669
1021.048	-1390
1021.118	-1941
1021.187	-833
1021.257	-1897
1021.326	-580
1021.396	-1871
1021.465	-2063
1021.535	-1461
1021.604	-1356
1021.674	-1608
1021.743	-1236
1021.812	-1628
1021.882	-1585
1021.951	-1228
1022.020	-1595
1022.089	-1526
1022.159	-1993
1022.228	-1179
1022.297	-1341
1022.366	-1057
1022.435	-1716
1022.504	-1748
1022.573	-1647
1022.642	-455
1022.711	-1128
1022.781	-1766
1022.849	-1749
1022.918	-1865
1022.987	-1212
1023.056	-948
1023.125	-1401
1023.194	-1368
1023.263	-1791
1023.331	-2013
1023.400	-1373
1023.469	-675
1023.538	-1235
1023.606	-1764
1023.675	-1191
1023.744	-1077
1023.812	-1557
1023.881	-1565
1023.949	-1053
1024.018	-1960
1024.086	-1550
1024.155	-1832
1024.223	-1754
1024.292	-1446
1024.360	-998
1024.429	-1348
1024.497	-1032
1024.565	-1468
1024.634	-2226
1024.702	-1383
1024.770	-1681
1024.838	-607
1024.907	-1231
1024.975	-1395
1025.043	-2040
1025.111	-2336
1025.179	-1072
1025.247	-1949
1025.315	-1159
1025.383	-1725
1025.451	-1052
1025.519	-1952
1025.587	-1027
1025.655	-1022
1025.723	-1300
1025.791	-1311
1025.859	-794
1025.927	-1309
1025.995	-1344
1026.062	-961
1026.130	-1940
1026.198	-1452
1026.266	-1503
1026.333	-1558
1026.401	-1358
1026.469	-1225
1026.536	-1379
1026.604	-1218
1026.671	-1261
1026.739	-1202
1026.806	-1509
1026.874	-648
1026.941	-989
1027.009	-2130
1027.076	-1708
1027.144	-1411
1027.211	-2234
1027.278	-1543
1027.345	-1120
1027.413	-800
1027.480	-2287
1027.547	-1396
1027.614	-1453
1027.682	-1173
1027.749	-1366
1027.816	-1587
1027.883	-822
1027.950	-1071
1028.017	-1071
1028.084	-1749
1028.151	-2072
1028.218	-2476
1028.285	-1177
1028.352	-1138
1028.419	-1689
1028.486	-1450
1028.553	-1444
1028.619	-1651
1028.686	-1824
1028.753	-1430
1028.820	-1737
1028.886	-1053
1028.953	-1954
1029.020	-1165
1029.086	-1373
1029.153	-2027
1029.220	-1100
1029.286	-1579
1029.353	-1455
1029.419	-1716
1029.486	-1770
1029.552	-1612
1029.619	-1409
1029.685	-2114
1029.751	-1560
1029.818	-1023
1029.884	-1857
1029.951	-1552
1030.017	-1670
1030.083	-941
1030.149	-1802
1030.216	-1753
1030.282	-1490
1030.348	-1598
1030.414	-2370
1030.480	-2013
1030.546	-1682
1030.612	-936
1030.678	-1935
1030.744	-2103
1030.810	-1432
1030.876	-1329
1030.942	-1923
1031.008	-1784
1031.074	-1121
1031.140	-2081
1031.206	-1444
1031.272	-1663
1031.337	-2143
1031.403	-1517
1031.469	-1389
1031.534	-1865
1031.600	-1640
1031.666	-2250
1031.731	-1263
1031.797	-1065
1031.863	-1841
1031.928	-1968
1031.994	-2066
1032.059	-1591
1032.125	-1184
1032.190	-1398
1032.256	-1318
1032.321	-1927
1032.386	-1510
1032.452	-1913
1032.517	-1258
1032.582	-1509
1032.647	-1756
1032.713	-1449
1032.778	-906
1032.843	-2414
1032.908	-1652
1032.974	-1527
1033.039	-1991
1033.104	-1156
1033.169	-1442
1033.234	-1758
1033.299	-1875
1033.364	-1144
1033.429	-1319
1033.494	-1737
1033.559	-1820
1033.624	-1619
1033.688	-1997
1033.753	-2258
1033.818	-1132
1033.883	-1884
1033.948	-589
1034.013	-1346
1034.077	-2157
1034.142	-1774
1034.207	-1999
1034.271	-2219
1034.336	-1869
1034.400	-1792
1034.465	-1565
1034.530	-707
1034.594	-337
1034.658	-1184
1034.723	-1325
1034.787	-1233
1034.852	-2247
1034.916	-2455
1034.981	-1836
1035.045	-1549
1035.109	-1050
1035.173	-2161
1035.238	-1223
1035.302	-2152
1035.366	-1953
1035.430	-1835
1035.495	-1871
1035.559	-1476
1035.623	-1641
1035.687	-1841
1035.751	-1761
1035.815	-1546
1035.879	-1798
1035.943	-1929
1036.007	-1835
1036.071	-2038
1036.135	-1596
1036.198	-1815
1036.262	-2193
1036.326	-1853
1036.390	-2515
1036.454	-1865
1036.517	-2045
1036.581	-1892
1036.645	-1890
1036.709	-1733
1036.772	-1548
1036.836	-1429
1036.900	-1349
1036.963	-2274
1037.026	-1544
1037.090	-2213
1037.154	-2067
1037.217	-1814
1037.280	-1143
1037.344	-1843
1037.407	-2039
1037.471	-1325
1037.534	-2531
1037.597	-2167
1037.661	-2067
1037.724	-1916
1037.787	-3112
1037.850	-1951
1037.913	-1718
1037.977	-1816
1038.040	-2285
1038.103	-1813
1038.166	-1842
1038.229	-2072
1038.292	-2206
1038.355	-1663
1038.418	-2125
1038.481	-975
1038.544	-1593
1038.607	-1897
1038.670	-1554
1038.732	-2333
1038.795	-2321
1038.858	-1697
1038.921	-1538
1038.984	-997
1039.046	-1838
1039.109	-3004
1039.172	-1105
1039.234	-2217
1039.297	-2172
1039.360	-2841
1039.422	-2018
1039.485	-1884
1039.547	-2672
1039.610	-1542
1039.672	-2577
1039.734	-2376
1039.797	-2759
1039.859	-1780
1039.922	-2490
1039.984	-1889
1040.046	-1925
1040.109	-1981
1040.171	-1840
1040.233	-2490
1040.295	-1777
1040.358	-2341
1040.420	-1329
1040.482	-1861
1040.544	-1390
1040.606	-1976
1040.668	-1994
1040.730	-2035
1040.792	-2115
1040.854	-1955
1040.916	-1951
1040.978	-3259
1041.040	-785
1041.102	-2113
1041.164	-2079
1041.225	-2670
1041.287	-2712
1041.349	-2093
1041.411	-1953
1041.472	-1908
1041.534	-1643
1041.596	-2558
1041.657	-2732
1041.719	-1484
1041.781	-1963
1041.842	-1743
1041.904	-2843
1041.965	-2172
1042.027	-1999
1042.088	-2282
1042.150	-1995
1042.211	-972
1042.272	-1248
1042.334	-2287
1042.395	-1710
1042.456	-2083
1042.518	-2248
1042.579	-2052
1042.640	-2527
1042.701	-1575
1042.763	-2357
1042.824	-2539
1042.885	-2114
1042.946	-2266
1043.007	-2000
1043.068	-2542
1043.129	-1627
1043.190	-2018
1043.251	-1999
1043.312	-1670
1043.373	-1508
1043.434	-1988
1043.495	-2101
1043.556	-2254
1043.616	-1870
1043.677	-2079
1043.738	-2018
1043.799	-2588
1043.859	-2777
1043.920	-2083
1043.981	-2106
1044.041	-2156
1044.102	-1969
1044.162	-2701
1044.223	-2577
1044.284	-2672
1044.344	-2121
1044.405	-2289
1044.465	-1859
1044.525	-2567
1044.586	-1993
1044.646	-1786
1044.707	-1890
1044.767	-2098
1044.827	-2457
1044.887	-2721
1044.948	-1358
1045.008	-1647
1045.068	-2044
1045.128	-2141
1045.188	-2406
1045.249	-2082
1045.309	-2706
1045.369	-2476
1045.429	-1238
1045.489	-1644
1045.549	-1551
1045.609	-1932
1045.669	-2610
1045.729	-1957
1045.789	-2119
1045.848	-1733
1045.908	-1500
1045.968	-1840
1046.028	-2143
1046.088	-1258
1046.147	-2007
1046.207	-2168
1046.267	-2272
1046.326	-1419
1046.386	-1297
1046.446	-2438
1046.505	-1261
1046.565	-1181
1046.624	-821
1046.684	-369
1046.743	-710
1046.803	-1295
1046.862	-403
1046.922	0
