'Start Wavelength	183.907
'End Wavelength	1046.922
'Gate Delay	5.000
'Gate Width (ms)	1.050
'Laser Output Level	0.000
'X Position	0.000
'Y Position	0.000
'Z Position	0.000
'Grid Point Number	1.000
'Shot Number	100.000
183.907	343.000
183.977	-575.000
184.047	527
184.116	-103
184.186	54
184.256	-308
184.325	124
184.395	378
184.465	107
184.534	132
184.604	719
184.674	-419
184.743	10
184.813	-123
184.883	-401
184.952	184
185.022	157
185.092	149
185.161	-598
185.231	-329
185.301	516
185.370	676
185.440	-265
185.509	414
185.579	-513
185.649	-36
185.718	94
185.788	269
185.857	-314
185.927	-506
185.996	342
186.066	340
186.136	-182
186.205	10
186.275	11
186.344	294
186.414	-53
186.483	258
186.553	49
186.622	236
186.692	281
186.761	-326
186.831	822
186.900	174
186.970	131
187.039	214
187.109	118
187.178	-105
187.248	297
187.317	1056
187.387	261
187.456	-328
187.526	-178
187.595	662
187.664	369
187.734	96
187.803	294
187.873	224
187.942	248
188.012	515
188.081	20
188.150	83
188.220	144
188.289	-239
188.358	149
188.428	-397
188.497	964
188.567	-132
188.636	-99
188.705	330
188.775	304
188.844	-358
188.913	273
188.983	-119
189.052	533
189.121	-23
189.191	124
189.260	1092
189.329	39
189.399	61
189.468	449
189.537	-171
189.606	309
189.676	819
189.745	386
189.814	331
189.883	295
189.953	655
190.022	842
190.091	359
190.161	1021
190.230	214
190.299	-455
190.368	-463
190.437	430
190.507	221
190.576	28
190.645	8
190.714	148
190.783	443
190.853	711
190.922	97
190.991	168
191.060	-124
191.129	555
191.198	-14
191.268	-218
191.337	144
191.406	741
191.475	519
191.544	94
191.613	6
191.682	-23
191.752	62
191.821	-1
191.890	-284
191.959	323
192.028	560
192.097	272
192.166	-300
192.235	-444
192.304	-71
192.373	600
192.442	-519
192.511	62
192.580	-139
192.650	407
192.719	600
192.788	-151
192.857	-315
192.926	150
192.995	-19
193.064	649
193.133	713
193.202	863
193.271	316
193.340	236
193.409	271
193.478	658
193.547	969
193.615	893
193.684	791
193.753	587
193.822	341
193.891	-423
193.960	581
194.029	-120
194.098	-81
194.167	427
194.236	282
194.305	219
194.374	210
194.443	233
194.512	-280
194.580	-139
194.649	-71
194.718	-169
194.787	235
194.856	-472
194.925	116
194.994	-433
195.062	771
195.131	-241
195.200	-783
195.269	-301
195.338	288
195.407	233
195.475	480
195.544	354
195.613	486
195.682	849
195.751	180
195.819	323
195.888	193
195.957	144
196.026	165
196.094	624
196.163	394
196.232	274
196.301	8
196.369	102
196.438	-287
196.507	93
196.576	-33
196.644	314
196.713	528
196.782	-781
196.850	-193
196.919	-135
196.988	-101
197.056	-127
197.125	275
197.194	682
197.262	442
197.331	302
197.400	450
197.468	191
197.537	-128
197.606	-152
197.674	708
197.743	474
197.812	166
197.880	527
197.949	117
198.017	1338
198.086	-53
198.155	472
198.223	419
198.292	1345
198.360	531
198.429	210
198.497	-536
198.566	1319
198.635	718
198.703	620
198.772	659
198.840	1622
198.909	1016
198.977	-432
199.046	-106
199.114	-413
199.183	235
199.251	181
199.320	112
199.388	-410
199.457	161
199.525	259
199.594	358
199.662	594
199.731	377
199.799	-361
199.867	-333
199.936	262
200.004	-115
200.073	101
200.141	478
200.210	-147
200.278	-140
200.346	-377
200.415	-356
200.483	216
200.552	384
200.620	108
200.688	581
200.757	440
200.825	365
200.893	38
200.962	-110
201.030	-140
201.098	132
201.167	-290
201.235	168
201.303	-160
201.372	379
201.440	-36
201.508	168
201.577	379
201.645	518
201.713	-197
201.781	333
201.850	270
201.918	749
201.986	67
202.055	803
202.123	-261
202.191	137
202.259	533
202.327	697
202.396	258
202.464	90
202.532	682
202.600	506
202.669	3
202.737	-68
202.805	-303
202.873	483
202.941	175
203.009	488
203.078	89
203.146	154
203.214	182
203.282	280
203.350	513
203.418	228
203.487	353
203.555	183
203.623	527
203.691	934
203.759	629
203.827	-142
203.895	-440
203.963	-71
204.031	-6
204.099	380
204.168	864
204.236	398
204.304	422
204.372	316
204.440	458
204.508	209
204.576	-389
204.644	129
204.712	-187
204.780	199
204.848	564
204.916	-88
204.984	798
205.052	994
205.120	400
205.188	455
205.256	111
205.324	165
205.392	223
205.460	580
205.528	189
205.596	-38
205.664	816
205.732	302
205.799	2245
205.867	1638
205.935	317
206.003	613
206.071	-204
206.139	-1
206.207	147
206.275	158
206.343	98
206.411	233
206.478	626
206.546	578
206.614	115
206.682	287
206.750	418
206.818	201
206.885	133
206.953	815
207.021	-519
207.089	-291
207.157	727
207.225	603
207.292	-290
207.360	-12
207.428	674
207.496	594
207.563	409
207.631	506
207.699	411
207.767	-92
207.834	256
207.902	494
207.970	541
208.038	162
208.105	259
208.173	119
208.241	391
208.309	632
208.376	1093
208.444	555
208.512	87
208.579	492
208.647	937
208.715	-34
208.782	666
208.850	-59
208.918	-68
208.985	36
209.053	188
209.120	16
209.188	678
209.256	717
209.323	217
209.391	791
209.459	974
209.526	806
209.594	246
209.661	762
209.729	422
209.796	939
209.864	521
209.932	-260
209.999	1014
210.067	-189
210.134	613
210.202	719
210.269	489
210.337	428
210.404	867
210.472	200
210.539	1018
210.607	1194
210.674	519
210.742	-93
210.809	162
210.877	831
210.944	346
211.012	827
211.079	678
211.146	902
211.214	1093
211.281	539
211.349	456
211.416	518
211.484	606
211.551	420
211.618	724
211.686	-229
211.753	849
211.821	291
211.888	-1
211.955	33
212.023	593
212.090	681
212.157	660
212.225	1101
212.292	1311
212.359	3608
212.427	5712
212.494	1449
212.561	972
212.629	834
212.696	547
212.763	1125
212.831	547
212.898	643
212.965	-30
213.032	680
213.100	221
213.167	865
213.234	1268
213.301	637
213.369	911
213.436	928
213.503	787
213.570	1086
213.638	824
213.705	954
213.772	739
213.839	762
213.906	428
213.973	970
214.041	233
214.108	696
214.175	171
214.242	1001
214.309	580
214.376	1156
214.444	666
214.511	911
214.578	719
214.645	1217
214.712	687
214.779	798
214.846	571
214.913	574
214.980	961
215.048	1415
215.115	1101
215.182	1081
215.249	1008
215.316	564
215.383	555
215.450	517
215.517	286
215.584	696
215.651	-88
215.718	126
215.785	337
215.852	573
215.919	834
215.986	347
216.053	414
216.120	1269
216.187	737
216.254	759
216.321	871
216.388	121
216.455	640
216.522	1100
216.589	732
216.656	1278
216.722	1228
216.789	1563
216.856	2411
216.923	1215
216.990	1229
217.057	1409
217.124	1412
217.191	1646
217.258	2118
217.324	2787
217.391	3039
217.458	2144
217.525	1536
217.592	1071
217.659	379
217.725	855
217.792	1021
217.859	946
217.926	392
217.993	731
218.059	594
218.126	698
218.193	531
218.260	1049
218.327	356
218.393	513
218.460	963
218.527	104
218.594	704
218.660	963
218.727	1552
218.794	785
218.860	554
218.927	52
218.994	228
219.061	126
219.127	858
219.194	213
219.261	-153
219.327	1063
219.394	-132
219.461	-42
219.527	593
219.594	794
219.661	1451
219.727	-389
219.794	221
219.860	350
219.927	1095
219.994	1130
220.060	1310
220.127	1086
220.193	1059
220.260	1117
220.326	1354
220.393	3536
220.460	4442
220.526	2418
220.593	979
220.659	2077
220.726	1992
220.792	3321
220.859	3218
220.925	5523
220.992	7547
221.058	6254
221.125	4390
221.191	2968
221.258	288
221.324	1507
221.391	773
221.457	283
221.524	1097
221.590	1767
221.657	4054
221.723	1465
221.789	2607
221.856	2473
221.922	1310
221.989	500
222.055	184
222.121	787
222.188	1487
222.254	802
222.321	554
222.387	569
222.453	475
222.520	-396
222.586	-90
222.652	741
222.719	455
222.785	323
222.851	424
222.918	469
222.984	275
223.050	652
223.116	-150
223.183	264
223.249	299
223.315	-469
223.382	-140
223.448	-149
223.514	20
223.580	229
223.647	232
223.713	336
223.779	210
223.845	446
223.911	-114
223.978	-92
224.044	746
224.110	-46
224.176	344
224.242	321
224.309	314
224.375	346
224.441	475
224.507	-332
224.573	48
224.639	5
224.705	-458
224.772	607
224.838	791
224.904	212
224.970	-712
225.036	467
225.102	396
225.168	150
225.234	354
225.300	-136
225.366	647
225.432	-200
225.499	241
225.565	452
225.631	1041
225.697	461
225.763	631
225.829	608
225.895	1097
225.961	1118
226.027	823
226.093	674
226.159	769
226.225	2343
226.291	7389
226.357	8220
226.423	3918
226.489	884
226.554	921
226.620	1034
226.686	1494
226.752	2776
226.818	5420
226.884	12440
226.950	6612
227.016	2879
227.082	1486
227.148	1872
227.214	594
227.279	1337
227.345	695
227.411	823
227.477	-32
227.543	311
227.609	692
227.674	486
227.740	392
227.806	1755
227.872	212
227.938	835
228.003	374
228.069	146
228.135	999
228.201	341
228.267	237
228.332	726
228.398	427
228.464	207
228.530	-73
228.595	482
228.661	-146
228.727	781
228.792	310
228.858	449
228.924	472
228.990	770
229.055	316
229.121	198
229.187	364
229.252	91
229.318	-309
229.384	47
229.449	422
229.515	574
229.581	-909
229.646	1025
229.712	232
229.777	1213
229.843	1017
229.909	1074
229.974	1168
230.040	901
230.105	760
230.171	1036
230.236	1589
230.302	2915
230.368	1248
230.433	1402
230.499	280
230.564	1556
230.630	463
230.695	557
230.761	948
230.826	675
230.892	598
230.957	103
231.023	495
231.088	403
231.154	829
231.219	18
231.284	719
231.350	760
231.415	138
231.481	-98
231.546	9
231.612	0
231.677	431
231.742	453
231.808	383
231.873	481
231.939	-470
232.004	402
232.069	654
232.135	491
232.200	105
232.265	1056
232.331	762
232.396	223
232.461	-359
232.527	-101
232.592	393
232.657	409
232.723	749
232.788	63
232.853	541
232.918	337
232.984	-130
233.049	-628
233.114	226
233.179	112
233.245	986
233.310	134
233.375	-8
233.440	525
233.506	590
233.571	173
233.636	636
233.701	186
233.766	90
233.832	814
233.897	-10
233.962	29
234.027	381
234.092	-502
234.157	223
234.222	6
234.288	1203
234.353	2438
234.418	1314
234.483	1683
234.548	454
234.613	600
234.678	927
234.743	1116
234.808	1987
234.873	1509
234.938	175
235.004	789
235.069	1166
235.134	508
235.199	406
235.264	1128
235.329	613
235.394	281
235.459	334
235.524	-160
235.589	373
235.654	397
235.719	362
235.784	225
235.849	897
235.913	1208
235.978	791
236.043	914
236.108	755
236.173	590
236.238	304
236.303	-6
236.368	394
236.433	1478
236.498	1408
236.563	2061
236.627	5728
236.692	15308
236.757	6600
236.822	3075
236.887	2145
236.952	1783
237.017	1695
237.081	1903
237.146	3101
237.211	6694
237.276	17827
237.341	16456
237.405	5595
237.470	2555
237.535	1822
237.600	1315
237.664	1109
237.729	1375
237.794	2961
237.859	3638
237.923	1007
237.988	451
238.053	1503
238.118	1890
238.182	4362
238.247	2793
238.312	728
238.376	871
238.441	367
238.506	682
238.570	431
238.635	1245
238.700	475
238.764	9
238.829	1992
238.893	1216
238.958	1067
239.023	830
239.087	89
239.152	361
239.216	91
239.281	121
239.346	-717
239.410	490
239.475	554
239.539	4041
239.604	656
239.668	596
239.733	-163
239.797	749
239.862	1723
239.926	1450
239.991	925
240.055	216
240.120	470
240.184	538
240.249	370
240.313	35
240.378	457
240.442	2152
240.507	2246
240.571	612
240.635	1722
240.700	132
240.764	103
240.829	59
240.893	96
240.957	276
241.022	2019
241.086	1992
241.151	281
241.215	-187
241.279	1162
241.344	981
241.408	361
241.472	675
241.537	865
241.601	673
241.665	97
241.730	731
241.794	68
241.858	690
241.922	360
241.987	781
242.051	743
242.115	184
242.179	960
242.244	-91
242.308	1235
242.372	411
242.436	-367
242.501	1012
242.565	86
242.629	84
242.693	873
242.757	354
242.822	735
242.886	795
242.950	511
243.014	436
243.078	791
243.142	342
243.206	282
243.271	249
243.335	178
243.399	1865
243.463	11900
243.527	15122
243.591	3088
243.655	1422
243.719	1252
243.783	1973
243.847	3393
243.911	2135
243.975	2094
244.040	867
244.104	820
244.168	770
244.232	1198
244.296	2036
244.360	1334
244.424	1301
244.488	21
244.552	239
244.615	-111
244.679	228
244.743	339
244.807	363
244.871	-774
244.935	674
244.999	-842
245.063	458
245.127	939
245.191	1797
245.255	400
245.319	1117
245.383	-194
245.446	188
245.510	-86
245.574	396
245.638	-42
245.702	126
245.766	1345
245.829	595
245.893	316
245.957	-39
246.021	133
246.085	-251
246.149	631
246.212	2418
246.276	2803
246.340	401
246.404	62
246.467	518
246.531	186
246.595	1425
246.659	507
246.722	1126
246.786	652
246.850	1578
246.913	802
246.977	-312
247.041	-17
247.104	210
247.168	1624
247.232	2357
247.295	4687
247.359	1538
247.423	1199
247.486	1037
247.550	807
247.614	285
247.677	165
247.741	702
247.804	633
247.868	321
247.932	3466
247.995	2689
248.059	266
248.122	-162
248.186	970
248.249	2263
248.313	8341
248.376	5916
248.440	2866
248.503	348
248.567	2335
248.630	1928
248.694	1850
248.757	4756
248.821	6745
248.884	3402
248.948	5078
249.011	7026
249.075	9653
249.138	6147
249.202	1977
249.265	2044
249.328	2353
249.392	2198
249.455	1402
249.519	1450
249.582	1388
249.645	2799
249.709	1546
249.772	2072
249.835	1128
249.899	1887
249.962	1608
250.025	664
250.089	4797
250.152	3399
250.215	1436
250.279	1690
250.342	1581
250.405	1433
250.468	1348
250.532	2881
250.595	5760
250.658	26931
250.721	20099
250.785	5931
250.848	4075
250.911	3005
250.974	1933
251.038	4323
251.101	4285
251.164	3180
251.227	3130
251.290	3237
251.354	9481
251.417	32154
251.480	16633
251.543	24669
251.606	51919
251.669	21401
251.732	8921
251.795	9569
251.859	14929
251.922	29482
251.985	9252
252.048	4729
252.111	3339
252.174	3149
252.237	7001
252.300	11246
252.363	24011
252.426	30516
252.489	8229
252.552	4807
252.615	2702
252.678	4658
252.741	8832
252.804	24078
252.867	32521
252.930	12976
252.993	6286
253.056	4306
253.119	3839
253.182	3798
253.245	5979
253.308	2655
253.371	1290
253.434	2702
253.497	2614
253.559	5259
253.622	3095
253.685	3033
253.748	1949
253.811	579
253.874	2054
253.937	1160
254.000	1057
254.062	3689
254.125	3046
254.188	4508
254.251	1268
254.314	1240
254.376	2345
254.439	2001
254.502	1914
254.565	3750
254.628	3268
254.690	1706
254.753	593
254.816	577
254.878	1062
254.941	4747
255.004	1992
255.067	1027
255.129	-335
255.192	998
255.255	-132
255.317	-17
255.380	-551
255.443	69
255.505	127
255.568	331
255.631	388
255.693	936
255.756	-510
255.819	953
255.881	-29
255.944	309
256.006	-292
256.069	170
256.132	100
256.194	507
256.257	1201
256.319	726
256.382	320
256.444	811
256.507	573
256.569	134
256.632	580
256.694	2054
256.757	13584
256.819	16765
256.882	3923
256.944	1268
257.007	1070
257.069	569
257.132	1614
257.194	673
257.257	502
257.319	643
257.381	364
257.444	9391
257.506	31504
257.569	15405
257.631	5156
257.693	2834
257.756	1920
257.818	1266
257.880	616
257.943	338
258.005	108
258.067	351
258.130	-43
258.192	1275
258.254	708
258.317	56
258.379	624
258.441	2376
258.503	1255
258.566	4143
258.628	1884
258.690	427
258.753	1352
258.815	1339
258.877	538
258.939	99
259.001	376
259.064	294
259.126	424
259.188	518
259.250	383
259.312	1208
259.375	1751
259.437	663
259.499	248
259.561	417
259.623	714
259.685	617
259.747	760
259.809	4540
259.872	5332
259.934	12449
259.996	5975
260.058	764
260.120	162
260.182	-425
260.244	566
260.306	201
260.368	-2
260.430	352
260.492	3276
260.554	2446
260.616	774
260.678	5292
260.740	2130
260.802	440
260.864	1003
260.926	-438
260.988	458
261.050	599
261.112	5606
261.174	8016
261.236	2624
261.298	527
261.359	2696
261.421	1766
261.483	0
261.545	94
261.607	69
261.669	-169
261.731	1462
261.793	2504
261.854	-140
261.916	1004
261.978	915
262.040	470
262.102	847
262.164	1080
262.225	356
262.287	176
262.349	911
262.411	212
262.472	407
262.534	1856
262.596	1608
262.658	-167
262.719	177
262.781	1626
262.843	1510
262.904	382
262.966	540
263.028	1241
263.090	18655
263.151	20935
263.213	4150
263.275	1688
263.336	672
263.398	654
263.459	-8
263.521	145
263.583	1503
263.644	447
263.706	64
263.767	-764
263.829	14
263.891	-459
263.952	71
264.014	-254
264.075	3010
264.137	3422
264.198	326
264.260	-123
264.321	125
264.383	3133
264.444	5680
264.506	679
264.567	-512
264.629	4403
264.690	4392
264.752	342
264.813	805
264.875	-21
264.936	754
264.998	-81
265.059	-314
265.120	271
265.182	1824
265.243	15857
265.305	4722
265.366	462
265.427	684
265.489	833
265.550	-571
265.611	-105
265.673	258
265.734	37
265.795	-98
265.857	590
265.918	224
265.979	5259
266.040	21830
266.102	6020
266.163	2237
266.224	1629
266.286	593
266.347	-236
266.408	54
266.469	-205
266.530	-362
266.592	-591
266.653	558
266.714	100
266.775	-184
266.836	-845
266.898	-690
266.959	703
267.020	-610
267.081	-10
267.142	-416
267.203	-224
267.264	-1084
267.326	121
267.387	-905
267.448	-550
267.509	-47
267.570	-61
267.631	-746
267.692	-527
267.753	82
267.814	-324
267.875	1067
267.936	1511
267.997	1210
268.058	-414
268.119	-116
268.180	-731
268.241	-959
268.302	-223
268.363	-342
268.424	-300
268.485	-444
268.546	-622
268.607	-461
268.668	-869
268.729	-324
268.790	114
268.851	-53
268.912	1432
268.972	-209
269.033	-444
269.094	-1526
269.155	-100
269.216	-641
269.277	-1079
269.338	235
269.398	-315
269.459	-850
269.520	15
269.581	-328
269.642	503
269.702	-140
269.763	-269
269.824	-932
269.885	-164
269.945	-90
270.006	-159
270.067	-795
270.128	-1169
270.188	-873
270.249	-532
270.310	-624
270.370	183
270.431	-271
270.492	-567
270.553	42
270.613	837
270.674	1906
270.734	-250
270.795	-336
270.856	368
270.916	-552
270.977	59
271.038	58
271.098	21
271.159	94
271.219	-1102
271.280	-134
271.340	-623
271.401	-626
271.462	261
271.522	311
271.583	549
271.643	-770
271.704	-62
271.764	-114
271.825	803
271.885	8876
271.946	5006
272.006	558
272.066	6016
272.127	5302
272.187	1030
272.248	-257
272.308	1693
272.369	5067
272.429	1889
272.489	1510
272.550	332
272.610	1060
272.671	317
272.731	713
272.791	851
272.852	-99
272.912	813
272.972	-490
273.033	239
273.093	-208
273.153	751
273.214	-375
273.274	742
273.334	6416
273.394	4712
273.455	221
273.515	3818
273.575	3448
273.635	1043
273.696	4300
273.756	5560
273.816	834
273.876	-343
273.936	4182
273.997	2855
274.057	844
274.117	267
274.177	2127
274.237	11674
274.297	4504
274.358	2660
274.418	5548
274.478	1699
274.538	-55
274.598	1160
274.658	4450
274.718	3831
274.778	-452
274.838	82
274.898	3399
274.958	6006
275.018	7547
275.078	1916
275.138	192
275.198	45
275.258	93
275.318	381
275.378	398
275.438	743
275.498	643
275.558	4540
275.618	6110
275.678	2573
275.738	2461
275.798	1005
275.858	188
275.918	72
275.978	54
276.038	20
276.098	-25
276.157	1168
276.217	2083
276.277	646
276.337	-382
276.397	-593
276.457	489
276.517	36
276.576	-334
276.636	-259
276.696	-130
276.756	2746
276.815	203
276.875	-616
276.935	-374
276.995	-402
277.055	-744
277.114	-487
277.174	364
277.234	2595
277.293	150
277.353	-510
277.413	-198
277.472	-644
277.532	-582
277.592	133
277.651	2851
277.711	2080
277.771	1384
277.830	4652
277.890	1878
277.950	5394
278.009	7687
278.069	1426
278.128	3821
278.188	2132
278.248	2051
278.307	3019
278.367	821
278.426	143
278.486	223
278.545	-277
278.605	-436
278.664	-396
278.724	10
278.783	5624
278.843	5457
278.902	203
278.962	52
279.021	-182
279.081	-626
279.140	911
279.199	-411
279.259	604
279.318	264
279.378	998
279.437	3778
279.496	16457
279.556	43236
279.615	13368
279.675	2870
279.734	2596
279.793	5625
279.853	6816
279.912	1596
279.971	1213
280.031	340
280.090	4622
280.149	4530
280.208	7257
280.268	36775
280.327	13575
280.386	2840
280.445	2361
280.505	1388
280.564	1356
280.623	858
280.682	2177
280.742	1491
280.801	-379
280.860	-827
280.919	140
280.978	-700
281.037	-320
281.097	-426
281.156	-580
281.215	111
281.274	1578
281.333	5561
281.392	592
281.451	-376
281.510	-305
281.569	-698
281.628	-801
281.688	-382
281.747	412
281.806	-242
281.865	-976
281.924	-338
281.983	-269
282.042	-1272
282.101	-533
282.160	-243
282.219	-547
282.278	114
282.337	917
282.396	-23
282.454	-628
282.513	-30
282.572	2504
282.631	-170
282.690	-783
282.749	-409
282.808	520
282.867	43
282.926	37
282.985	302
283.043	-582
283.102	556
283.161	104
283.220	2525
283.279	3031
283.338	-423
283.396	-927
283.455	-51
283.514	-691
283.573	46
283.631	-340
283.690	-1053
283.749	-192
283.808	536
283.866	771
283.925	-713
283.984	479
284.043	114
284.101	-236
284.160	-111
284.219	1036
284.277	-97
284.336	1057
284.395	4924
284.453	1238
284.512	162
284.570	617
284.629	784
284.688	10
284.746	-669
284.805	-358
284.863	850
284.922	169
284.981	835
285.039	1372
285.098	5159
285.156	21350
285.215	56758
285.273	30343
285.332	10004
285.390	5031
285.449	3293
285.507	1540
285.566	1756
285.624	878
285.683	961
285.741	-195
285.799	4
285.858	-329
285.916	-221
285.975	-60
286.033	-557
286.091	-182
286.150	-831
286.208	458
286.267	674
286.325	4
286.383	813
286.442	-681
286.500	-299
286.558	-340
286.616	-259
286.675	223
286.733	-457
286.791	-348
286.850	554
286.908	289
286.966	232
287.024	-695
287.083	65
287.141	-596
287.199	143
287.257	318
287.315	-51
287.374	159
287.432	1086
287.490	55
287.548	-157
287.606	383
287.664	192
287.723	165
287.781	540
287.839	-205
287.897	173
287.955	1544
288.013	3222
288.071	12699
288.129	67358
288.187	90760
288.245	26499
288.303	8959
288.361	5941
288.419	4828
288.477	2519
288.535	1875
288.593	1002
288.651	744
288.709	181
288.767	460
288.825	-419
288.883	-291
288.941	200
288.999	-614
289.057	-500
289.115	91
289.173	-429
289.231	872
289.289	-548
289.346	-392
289.404	75
289.462	-28
289.520	179
289.578	-285
289.636	-876
289.694	-719
289.751	-107
289.809	316
289.867	-537
289.925	537
289.983	-953
290.040	-666
290.098	-658
290.156	-874
290.214	339
290.271	-155
290.329	-934
290.387	-1037
290.444	-682
290.502	-426
290.560	32
290.617	-75
290.675	-362
290.733	76
290.790	412
290.848	-310
290.906	269
290.963	-840
291.021	-237
291.078	-288
291.136	371
291.194	4372
291.251	3926
291.309	-245
291.366	-292
291.424	351
291.481	-632
291.539	-333
291.596	-449
291.654	-572
291.711	-600
291.769	-128
291.826	-128
291.884	-561
291.941	-493
291.999	-436
292.056	56
292.114	-508
292.171	-950
292.228	-96
292.286	244
292.343	493
292.401	-218
292.458	-339
292.515	-209
292.573	132
292.630	-621
292.687	133
292.745	336
292.802	1721
292.859	4649
292.917	3730
292.974	1038
293.031	-257
293.089	-387
293.146	-573
293.203	-332
293.260	-32
293.318	194
293.375	1187
293.432	257
293.489	156
293.546	-359
293.604	501
293.661	5285
293.718	9195
293.775	2469
293.832	1350
293.889	579
293.947	304
294.004	-155
294.061	-310
294.118	2625
294.175	8106
294.232	8746
294.289	1626
294.346	260
294.403	1257
294.460	140
294.517	253
294.574	-92
294.631	631
294.688	950
294.745	5406
294.802	17129
294.859	12584
294.916	3076
294.973	1018
295.030	661
295.087	727
295.144	825
295.201	395
295.258	228
295.315	553
295.372	6326
295.429	6933
295.486	1925
295.542	2877
295.599	12619
295.656	10963
295.713	7459
295.770	5699
295.827	2182
295.883	1205
295.940	950
295.997	1438
296.054	687
296.111	94
296.167	579
296.224	-491
296.281	-466
296.338	81
296.394	-110
296.451	754
296.508	3774
296.564	5324
296.621	4012
296.678	12001
296.734	9575
296.791	2927
296.848	1231
296.904	1804
296.961	4295
297.018	8872
297.074	4024
297.131	1936
297.187	840
297.244	3534
297.301	14733
297.357	13872
297.414	3992
297.470	684
297.527	1003
297.583	1202
297.640	276
297.696	660
297.753	770
297.809	200
297.866	-215
297.922	83
297.979	6
298.035	323
298.092	815
298.148	4371
298.204	2725
298.261	1919
298.317	7293
298.374	11875
298.430	4273
298.486	1920
298.543	444
298.599	2278
298.656	1919
298.712	5919
298.768	13128
298.824	6124
298.881	1663
298.937	569
298.993	1023
299.050	700
299.106	556
299.162	731
299.218	233
299.275	-46
299.331	813
299.387	4003
299.443	11617
299.500	6136
299.556	2309
299.612	1008
299.668	475
299.724	329
299.780	346
299.837	-93
299.893	1606
299.949	7259
300.005	6207
300.061	9921
300.117	12951
300.173	4451
300.229	2234
300.285	2069
300.341	2096
300.397	288
300.453	418
300.510	426
300.566	-111
300.622	-184
300.678	918
300.734	4637
300.790	7757
300.845	7447
300.901	3590
300.957	4844
301.013	1859
301.069	622
301.125	422
301.181	109
301.237	481
301.293	165
301.349	207
301.405	-180
301.461	654
301.516	-4
301.572	80
301.628	286
301.684	1058
301.740	3038
301.796	3550
301.851	2544
301.907	3807
301.963	4466
302.019	14928
302.074	31557
302.130	22812
302.186	9315
302.242	3543
302.297	2490
302.353	2861
302.409	4848
302.464	3290
302.520	4265
302.576	9869
302.631	8865
302.687	2730
302.743	1711
302.798	797
302.854	1202
302.910	479
302.965	1426
303.021	2011
303.076	2226
303.132	2004
303.187	2014
303.243	777
303.299	1058
303.354	147
303.410	439
303.465	523
303.521	640
303.576	871
303.632	239
303.687	5091
303.743	10278
303.798	6430
303.853	2431
303.909	1392
303.964	1270
304.020	2001
304.075	1870
304.130	1807
304.186	3105
304.241	2734
304.297	2553
304.352	1157
304.358	1083
304.407	476
304.449	247
304.463	169
304.518	1186
304.539	1165
304.573	1128
304.629	1973
304.630	2010
304.684	3733
304.720	7746
304.739	9862
304.794	10735
304.811	9180
304.850	4855
304.902	1532
304.905	1341
304.960	1749
304.992	1468
305.015	1296
305.071	1652
305.083	1571
305.126	1216
305.173	1140
305.181	1135
305.236	614
305.264	433
305.292	297
305.347	1508
305.354	1514
305.402	1485
305.445	1642
305.457	1698
305.512	2040
305.535	2221
305.567	2429
305.622	2274
305.626	2445
305.678	6062
305.716	10811
305.733	12819
305.788	12624
305.807	12173
305.843	10262
305.897	13016
305.898	13067
305.953	10650
305.988	7886
306.008	5919
306.063	3783
306.078	3073
306.118	1941
306.168	1127
306.173	1067
306.228	1371
306.259	1328
306.283	1390
306.338	1754
306.349	1822
306.393	2213
306.440	3112
306.448	3229
306.503	2803
306.530	3337
306.558	5358
306.613	12280
306.620	12697
306.668	13730
306.711	14852
306.723	14503
306.778	9201
306.801	7395
306.833	5329
306.888	3060
306.892	2871
306.943	2037
306.982	2163
306.997	2239
307.052	2351
307.072	2365
307.107	3038
307.162	5449
307.163	5476
307.217	10094
307.253	12588
307.272	13259
307.327	13998
307.343	13387
307.381	9396
307.434	6088
307.436	6320
307.491	15234
307.524	19887
307.546	20503
307.600	16786
307.614	15649
307.655	9787
307.704	5199
307.710	5269
307.765	6969
307.795	9075
307.819	13686
307.874	24190
307.885	25027
307.929	17446
307.975	10771
307.984	10697
308.038	12196
308.065	14643
308.093	23949
308.148	51019
308.156	56557
308.202	110922
308.246	141314
308.257	132392
308.312	70530
308.336	46743
308.366	35456
308.421	18779
308.426	17315
308.475	12393
308.517	9214
308.530	8717
308.585	6565
308.607	6102
308.639	6613
308.694	7506
308.697	7667
308.748	18082
308.787	27127
308.803	28097
308.857	24410
308.877	23266
308.912	17810
308.967	10728
308.967	10606
309.021	12590
309.058	14589
309.076	17660
309.130	29384
309.148	34829
309.185	71378
309.238	135421
309.239	136822
309.293	182186
309.328	194980
309.348	162903
309.402	74064
309.418	50465
309.457	34629
309.508	16760
309.511	16502
309.566	12777
309.598	11074
309.620	11516
309.674	13123
309.688	13478
309.729	13169
309.778	12200
309.783	11934
309.837	8535
309.868	6886
309.892	7801
309.946	10699
309.959	11480
310.001	18550
310.049	25606
310.055	24885
310.109	17112
310.139	12818
310.163	10696
310.218	6428
310.229	5568
310.272	5204
310.319	5200
310.326	5280
310.381	5332
310.409	5428
310.435	5298
310.489	5053
310.499	5012
310.543	5549
310.589	6105
310.598	6288
310.652	7054
310.679	7402
310.706	6655
310.760	5024
310.769	4795
310.814	4104
310.859	3324
310.868	3295
310.923	2983
310.948	2845
310.977	3430
311.031	4654
311.038	4801
311.085	4782
311.128	4677
311.139	4717
311.193	4860
311.218	4876
311.247	4787
311.301	4656
311.308	4620
311.356	4777
311.398	4917
311.410	4903
311.464	4648
311.488	4547
311.518	4285
311.572	3733
311.578	3659
311.626	4096
311.668	4456
311.680	4909
311.734	6888
311.758	7731
311.788	8081
311.842	8654
311.847	8679
311.896	8988
311.937	9255
311.950	9805
312.004	12046
312.027	12960
312.058	10436
312.112	5861
312.117	5382
312.165	5090
312.207	4804
312.297	8477
312.386	8836
312.476	5407
312.566	6906
312.656	4518
312.745	3660
312.835	5832
312.925	6259
313.015	5199
313.104	8472
313.194	4637
313.284	4209
313.374	4575
313.463	5159
313.553	3836
313.643	3693
313.732	3972
313.822	3766
313.912	4614
314.001	5603
314.091	5695
314.180	10481
314.270	6737
314.360	8432
314.449	6760
314.539	4873
314.628	4755
314.718	5499
314.808	8691
314.897	5167
314.987	4062
315.076	4076
315.166	5091
315.255	8962
315.345	6760
315.434	8332
315.524	6468
315.613	7732
315.703	5710
315.792	5880
315.881	6134
315.971	5155
316.060	9320
316.150	24511
316.239	30133
316.328	17649
316.418	5268
316.507	3662
316.597	5002
316.686	4527
316.775	7691
316.865	31350
316.954	10608
317.043	3953
317.133	4353
317.222	3420
317.311	3793
317.400	2963
317.490	3275
317.579	4494
317.668	3789
317.757	3336
317.847	4563
317.936	5859
318.025	7059
318.114	5417
318.203	5483
318.293	7067
318.382	15714
318.471	13421
318.560	19120
318.649	59213
318.738	25548
318.828	6178
318.917	7320
319.006	9088
319.095	27250
319.184	60786
319.273	50377
319.362	12848
319.451	5282
319.540	5147
319.629	5641
319.718	11927
319.807	9210
319.896	16228
319.985	72188
320.074	48490
320.163	9561
320.252	15804
320.341	13908
320.430	14692
320.519	8466
320.608	6871
320.697	5926
320.786	5192
320.875	5248
320.964	5356
321.053	6379
321.142	8780
321.230	11308
321.319	10240
321.408	22167
321.497	19404
321.586	9810
321.675	19309
321.764	27748
321.852	14669
321.941	12772
322.030	10758
322.119	10984
322.207	21846
322.296	39819
322.385	21405
322.474	12673
322.562	17623
322.651	23897
322.740	11006
322.829	17944
322.917	33852
323.006	21938
323.095	9734
323.183	11277
323.272	14805
323.361	21476
323.449	83606
323.538	51627
323.626	52458
323.715	68107
323.804	16379
323.892	54024
323.981	49142
324.069	12320
324.158	27334
324.246	52904
324.335	9201
324.424	9494
324.512	5192
324.601	5677
324.689	5551
324.778	8248
324.866	22785
324.954	11395
325.043	6132
325.131	10396
325.220	32053
325.308	39497
325.397	23801
325.485	20969
325.574	4248
325.662	3566
325.750	3430
325.839	4415
325.927	3695
326.015	5078
326.104	8624
326.192	21457
326.280	5771
326.369	4219
326.457	4240
326.545	6027
326.634	4561
326.722	3529
326.810	3420
326.898	2707
326.987	3190
327.075	6204
327.163	10984
327.251	9444
327.340	4253
327.428	4557
327.516	3509
327.604	3412
327.692	5443
327.781	5644
327.869	12617
327.957	10491
328.045	5039
328.133	3399
328.221	5915
328.309	4828
328.397	3337
328.485	3799
328.574	4060
328.662	8934
328.750	13439
328.838	9123
328.926	5251
329.014	3495
329.102	4417
329.190	12747
329.278	13905
329.366	3462
329.454	2693
329.542	3622
329.630	2990
329.718	3172
329.806	3111
329.893	4297
329.981	5403
330.069	3583
330.157	6458
330.245	25022
330.333	20132
330.421	4881
330.509	3472
330.597	10354
330.684	14004
330.772	8074
330.860	13905
330.948	20253
331.036	11242
331.123	3887
331.211	2888
331.299	5656
331.387	9674
331.475	30878
331.562	11270
331.650	3244
331.738	4335
331.825	9956
331.913	4471
332.001	3653
332.089	4381
332.176	14446
332.264	29509
332.352	43002
332.439	9018
332.527	6051
332.614	4415
332.702	8809
332.790	5329
332.877	10374
332.965	39638
333.052	11939
333.140	4735
333.228	11619
333.315	5473
333.403	4457
333.490	17008
333.578	25241
333.665	6573
333.753	5293
333.840	3521
333.928	5933
334.015	18071
334.103	29920
334.190	89556
334.278	47280
334.365	9904
334.452	7359
334.540	4569
334.627	6244
334.715	11898
334.802	14890
334.889	81305
334.977	155183
335.064	19507
335.151	5438
335.239	6394
335.326	8975
335.413	27737
335.501	83301
335.588	12074
335.675	5088
335.762	6740
335.850	16857
335.937	9282
336.024	15242
336.111	99421
336.199	79274
336.286	10158
336.373	4248
336.460	3389
336.547	2907
336.635	4511
336.722	4282
336.809	4581
336.896	6242
336.983	16235
337.070	63850
337.157	102907
337.245	74251
337.332	87667
337.419	10846
337.506	5851
337.593	5662
337.680	14221
337.767	77092
337.854	30938
337.941	23221
338.028	30362
338.115	17627
338.202	9004
338.289	17832
338.376	70685
338.463	44400
338.550	28955
338.637	65826
338.724	15350
338.811	35150
338.898	8861
338.984	4122
339.071	6005
339.158	5335
339.245	8637
339.332	9510
339.419	12604
339.506	26698
339.593	3687
339.679	2184
339.766	1302
339.853	3369
339.940	4824
340.027	3516
340.113	1867
340.200	3577
340.287	4160
340.374	3149
340.460	4943
340.547	3136
340.634	2574
340.720	9398
340.807	11593
340.894	1937
340.980	2627
341.067	2709
341.154	2157
341.240	2710
341.327	5169
341.414	2558
341.500	2403
341.587	2507
341.674	2138
341.760	3013
341.847	4850
341.933	2895
342.020	824
342.106	1076
342.193	1524
342.279	3205
342.366	2712
342.452	3915
342.539	2533
342.625	3524
342.712	11371
342.798	7136
342.885	3179
342.971	1747
343.058	1638
343.144	2032
343.230	1138
343.317	1606
343.403	1251
343.490	1485
343.576	1332
343.662	1651
343.749	2215
343.835	3640
343.921	4907
344.008	19579
344.094	89761
344.180	35104
344.267	5618
344.353	14066
344.439	38406
344.525	12123
344.612	5014
344.698	5030
344.784	3177
344.870	1693
344.957	1454
345.043	2716
345.129	1587
345.215	3105
345.301	3121
345.387	1168
345.474	1374
345.560	2085
345.646	3134
345.732	3581
345.818	2264
345.904	2663
345.990	1911
346.076	2662
346.162	12249
346.249	5368
346.335	1624
346.421	1558
346.507	4424
346.593	29451
346.679	14698
346.765	3604
346.851	2030
346.937	1816
347.023	1838
347.108	1264
347.194	1141
347.280	1632
347.366	2309
347.452	4365
347.538	30514
347.624	31222
347.710	28597
347.796	9848
347.882	3002
347.967	1897
348.053	5768
348.139	4966
348.225	1960
348.311	1560
348.397	1138
348.482	2070
348.568	2486
348.654	2173
348.740	1013
348.825	1357
348.911	2614
348.997	9553
349.083	41841
349.168	14745
349.254	2383
349.340	2447
349.425	1520
349.511	1606
349.597	2936
349.682	3665
349.768	13522
349.854	13283
349.939	4206
350.025	1649
350.110	1157
350.196	1215
350.282	1158
350.367	1095
350.453	4122
350.538	9590
350.624	2777
350.709	3336
350.795	1609
350.880	1809
350.966	1838
351.051	4036
351.137	6880
351.222	1471
351.308	2101
351.393	12512
351.479	6133
351.564	1620
351.649	838
351.735	1790
351.820	1143
351.906	1294
351.991	2708
352.076	5086
352.162	15609
352.247	4239
352.332	1911
352.418	2223
352.503	3550
352.588	12077
352.673	19471
352.759	4111
352.844	1740
352.929	726
353.014	2703
353.100	2216
353.185	1865
353.270	3385
353.355	5044
353.441	1882
353.526	2042
353.611	3916
353.696	5011
353.781	2669
353.866	808
353.952	1856
354.037	2241
354.122	7304
354.207	6799
354.292	4143
354.377	967
354.462	665
354.547	1198
354.632	2096
354.717	3877
354.802	3986
354.887	1666
354.972	1865
355.057	391
355.142	819
355.227	460
355.312	1872
355.397	3835
355.482	9991
355.567	10107
355.652	4338
355.737	4214
355.822	12518
355.907	23518
355.991	4299
356.076	1441
356.161	1797
356.246	911
356.331	2013
356.416	3041
356.501	22766
356.585	58444
356.670	9277
356.755	2826
356.840	2489
356.924	11989
357.009	80762
357.094	61449
357.179	7644
357.263	5194
357.348	3434
357.433	5869
357.517	4036
357.602	3069
357.687	2302
357.771	3566
357.856	19782
357.941	22107
358.025	10516
358.110	74860
358.195	72137
358.279	7138
358.364	2074
358.448	7047
358.533	27425
358.617	27360
358.702	23390
358.787	14130
358.871	4135
358.956	4034
359.040	2370
359.125	914
359.209	1424
359.294	5991
359.378	23673
359.462	7693
359.547	3632
359.631	4662
359.716	1388
359.800	2093
359.885	5851
359.969	2642
360.053	1887
360.138	1564
360.222	2063
360.306	3000
360.391	5176
360.475	6306
360.559	23922
360.644	14289
360.728	12368
360.812	9970
360.896	58531
360.981	35699
361.065	20781
361.149	4279
361.233	3140
361.318	2189
361.402	3486
361.486	2697
361.570	1220
361.654	1021
361.739	3778
361.823	19406
361.907	72029
361.991	18915
362.075	3168
362.159	6109
362.243	6687
362.327	3649
362.411	3945
362.495	3689
362.580	3349
362.664	1506
362.748	851
362.832	787
362.916	1706
363.000	3234
363.084	15130
363.168	75318
363.252	27830
363.336	4699
363.420	6624
363.503	33825
363.587	100828
363.671	18464
363.755	4151
363.839	5161
363.923	2499
364.007	3854
364.091	8131
364.175	12243
364.258	76013
364.342	76230
364.426	10371
364.510	6913
364.594	5967
364.677	8980
364.761	34857
364.845	58289
364.929	9294
365.013	6920
365.096	4173
365.180	7417
365.264	10873
365.347	86971
365.431	75134
365.515	16204
365.598	3345
365.682	1401
365.766	6750
365.849	19275
365.933	5293
366.017	5512
366.100	9912
366.184	2865
366.267	2637
366.351	1782
366.435	468
366.518	1001
366.602	467
366.685	746
366.769	935
366.852	3833
366.936	13733
367.019	5349
367.103	3014
367.186	17896
367.270	7124
367.353	477
367.436	805
367.520	1125
367.603	1133
367.687	1902
367.770	4213
367.853	3312
367.937	6312
368.020	26972
368.104	8576
368.187	2516
368.270	4756
368.353	5160
368.437	7578
368.520	49198
368.603	41429
368.687	10894
368.770	31012
368.853	11544
368.936	5372
369.020	15421
369.103	5046
369.186	1841
369.269	2044
369.352	2109
369.436	6477
369.519	4449
369.602	1843
369.685	1201
369.768	2025
369.851	2691
369.934	1041
370.018	1872
370.101	3357
370.184	4930
370.267	4941
370.350	4366
370.433	9106
370.516	17116
370.599	38403
370.682	9967
370.765	10993
370.848	13871
370.931	34183
371.014	28067
371.097	5572
371.180	2285
371.263	1239
371.346	969
371.429	867
371.511	748
371.594	3029
371.677	5710
371.760	15919
371.843	8451
371.926	12119
372.009	76207
372.091	39664
372.174	11145
372.257	39185
372.340	29457
372.423	11240
372.505	26801
372.588	13370
372.671	5836
372.754	26199
372.836	27872
372.919	14320
373.002	69210
373.085	28245
373.167	4269
373.250	7893
373.332	30089
373.415	34957
373.498	104117
373.580	62084
373.663	24102
373.746	77032
373.828	23418
373.911	6808
373.993	6804
374.076	36359
374.159	81891
374.241	18264
374.324	21470
374.406	26780
374.489	13240
374.571	80567
374.654	60120
374.736	11261
374.819	43361
374.901	66960
374.983	102625
375.066	27124
375.148	5442
375.231	20511
375.313	101202
375.395	53120
375.478	9763
375.560	2532
375.643	2806
375.725	7781
375.807	52082
375.890	86828
375.972	64335
376.054	19237
376.136	43399
376.219	30376
376.301	8574
376.383	51208
376.465	37274
376.548	7326
376.630	8616
376.712	34851
376.794	34792
376.877	3522
376.959	1246
377.041	1809
377.123	7850
377.205	21869
377.287	4706
377.369	1697
377.452	224
377.534	1013
377.616	762
377.698	1209
377.780	158
377.862	554
377.944	217
378.026	956
378.108	497
378.190	372
378.272	918
378.354	683
378.436	572
378.518	2068
378.600	18030
378.682	19579
378.764	12363
378.846	18696
378.928	5442
379.010	5074
379.091	3373
379.173	956
379.255	553
379.337	1224
379.419	3209
379.501	23220
379.583	19571
379.664	3189
379.746	3144
379.828	11417
379.910	21403
379.991	27074
380.073	6954
380.155	2329
380.237	1212
380.318	1207
380.400	527
380.482	720
380.564	5263
380.645	4415
380.727	3793
380.809	3354
380.890	1215
380.972	1335
381.053	941
381.135	1144
381.217	2711
381.298	14278
381.380	13821
381.461	6165
381.543	22990
381.624	68413
381.706	17818
381.787	5629
381.869	5379
381.951	7805
382.032	61744
382.113	79446
382.195	13820
382.276	5939
382.358	5892
382.439	31993
382.521	40939
382.602	78560
382.684	45570
382.765	35525
382.846	54949
382.928	34544
383.009	28142
383.090	8542
383.172	25311
383.253	89253
383.334	45514
383.416	51787
383.497	48477
383.578	8224
383.659	9058
383.741	22092
383.822	108425
383.903	106288
383.984	23921
384.066	55968
384.147	54962
384.228	12206
384.309	4640
384.390	3667
384.471	1917
384.553	2657
384.634	4217
384.715	5359
384.796	2721
384.877	2376
384.958	8957
385.039	23362
385.120	8068
385.201	2747
385.282	4104
385.363	7661
385.444	5985
385.525	3780
385.606	20953
385.687	42853
385.768	9941
385.849	9044
385.930	15654
386.011	71146
386.092	34112
386.173	5266
386.254	3461
386.335	4802
386.416	2862
386.496	5767
386.577	18966
386.658	14692
386.739	6696
386.820	7988
386.901	8286
386.981	6861
387.062	3452
387.143	2522
387.224	9722
387.304	22863
387.385	9074
387.466	4777
387.547	10081
387.627	5888
387.708	3687
387.789	18822
387.869	50528
387.950	23151
388.031	2333
388.111	1955
388.192	10866
388.273	26567
388.353	20002
388.434	5087
388.514	3629
388.595	21993
388.676	58034
388.756	27204
388.837	13518
388.917	13977
388.998	2807
389.078	2124
389.159	1366
389.239	1340
389.320	1900
389.400	3423
389.480	4022
389.561	20244
389.641	17668
389.722	2671
389.802	4307
389.883	6428
389.963	21589
390.043	31263
390.124	16703
390.204	6494
390.284	14318
390.365	17964
390.445	22305
390.525	88448
390.605	117269
390.686	29248
390.766	6237
390.846	2295
390.927	1617
391.007	1660
391.087	2198
391.167	4248
391.247	2510
391.328	5891
391.408	13455
391.488	14694
391.568	2659
391.648	2311
391.728	2604
391.808	3043
391.888	2479
391.969	4812
392.049	17943
392.129	14964
392.209	9731
392.289	19955
392.369	20757
392.449	22586
392.529	21867
392.609	5827
392.689	4945
392.769	14996
392.849	28057
392.929	11026
393.009	37894
393.089	40108
393.169	9405
393.248	8917
393.328	69450
393.408	204331
393.488	57880
393.568	6849
393.648	4746
393.728	3273
393.807	2406
393.887	3172
393.967	2939
394.047	3983
394.127	6747
394.206	10088
394.286	25972
394.366	161905
394.446	390453
394.525	134106
394.605	23408
394.685	11622
394.764	23944
394.844	57068
394.924	66245
395.003	14760
395.083	4962
395.163	4013
395.242	3923
395.322	4518
395.402	3295
395.481	5938
395.561	9111
395.640	57047
395.720	51932
395.799	51614
395.879	90723
395.958	28818
396.038	42487
396.117	225019
396.197	505969
396.276	209063
396.356	56185
396.435	32566
396.515	21522
396.594	7963
396.673	7843
396.753	13083
396.832	88060
396.912	148109
396.991	39485
397.070	7371
397.150	3372
397.229	2706
397.308	1707
397.388	2847
397.467	2390
397.546	1030
397.625	796
397.705	1791
397.784	2583
397.863	1527
397.942	933
398.022	1339
398.101	6366
398.180	59612
398.259	63407
398.338	13895
398.417	3205
398.497	2988
398.576	1993
398.655	1567
398.734	700
398.813	1344
398.892	5997
398.971	57338
399.050	68518
399.129	8266
399.208	1570
399.287	1924
399.366	417
399.445	928
399.524	873
399.603	574
399.682	1882
399.761	6533
399.840	44449
399.919	94386
399.998	19092
400.077	1962
400.156	-403
400.235	1330
400.313	1398
400.392	2171
400.471	4058
400.550	13540
400.629	7220
400.708	1659
400.786	1736
400.865	10482
400.944	23764
401.023	9859
401.102	455
401.180	415
401.259	841
401.338	2748
401.416	2634
401.495	2639
401.574	2693
401.652	2495
401.731	2095
401.810	2916
401.888	1589
401.967	615
402.046	304
402.124	507
402.203	4476
402.281	2693
402.360	1511
402.438	12406
402.517	24608
402.596	6125
402.674	3965
402.753	2944
402.831	985
402.910	1166
402.988	1672
403.066	17054
403.145	21319
403.223	5167
403.302	11643
403.380	14858
403.459	10362
403.537	7906
403.615	2990
403.694	49
403.772	368
403.850	335
403.929	55
404.007	-104
404.085	1576
404.164	1899
404.242	1141
404.320	1791
404.398	13763
404.477	27249
404.555	33080
404.633	72244
404.711	24550
404.789	14654
404.868	2245
404.946	1168
405.024	-329
405.102	282
405.180	-619
405.258	-268
405.336	362
405.415	310
405.493	3496
405.571	5090
405.649	344
405.727	273
405.805	1553
405.883	1673
405.961	1709
406.039	5784
406.117	2610
406.195	813
406.273	2381
406.351	28114
406.429	45085
406.507	11259
406.585	4695
406.663	619
406.740	145
406.818	1108
406.896	417
406.974	150
407.052	-858
407.130	9284
407.208	39240
407.285	15687
407.363	-208
407.441	558
407.519	-621
407.596	-116
407.674	1320
407.752	6742
407.830	17639
407.907	16363
407.985	3135
408.063	1731
408.141	-380
408.218	1993
408.296	5549
408.373	1225
408.451	452
408.529	786
408.606	-700
408.684	-174
408.762	-366
408.839	-1016
408.917	-630
408.994	-142
409.072	-616
409.149	-409
409.227	-64
409.304	335
409.382	-534
409.459	-846
409.537	175
409.614	100
409.692	-825
409.769	-533
409.846	-303
409.924	631
410.001	1046
410.079	690
410.156	637
410.233	280
410.311	607
410.388	49
410.465	-240
410.543	537
410.620	14
410.697	443
410.775	618
410.852	-1046
410.929	-662
411.006	534
411.083	-27
411.161	1605
411.238	5168
411.315	5621
411.392	903
411.469	83
411.547	991
411.624	263
411.701	193
411.778	-526
411.855	524
411.932	767
412.009	-449
412.086	11
412.163	-212
412.240	1845
412.317	1701
412.394	3554
412.471	1237
412.548	-923
412.625	97
412.702	117
412.779	3259
412.856	3720
412.933	614
413.010	129
413.087	196
413.164	2028
413.241	12352
413.318	4319
413.395	222
413.471	942
413.548	889
413.625	-65
413.702	257
413.779	2672
413.855	-27
413.932	-515
414.009	-840
414.086	-191
414.162	-256
414.239	553
414.316	2841
414.393	14515
414.469	11760
414.546	1268
414.623	-493
414.699	-707
414.776	78
414.853	47
414.929	121
415.006	188
415.082	1234
415.159	2477
415.236	520
415.312	316
415.389	433
415.465	1640
415.542	1412
415.618	-697
415.695	356
415.771	205
415.848	-205
415.924	968
416.000	1742
416.077	642
416.153	-655
416.230	-1368
416.306	-1268
416.383	698
416.459	272
416.535	-477
416.612	-898
416.688	471
416.764	-1467
416.841	-811
416.917	218
416.993	175
417.069	176
417.146	777
417.222	2510
417.298	2003
417.374	390
417.451	-106
417.527	-538
417.603	11
417.679	331
417.755	418
417.831	-255
417.908	-791
417.984	-616
418.060	-626
418.136	-226
418.212	1064
418.288	186
418.364	18
418.440	-554
418.516	310
418.592	2321
418.668	6845
418.744	4253
418.820	4028
418.896	877
418.972	-358
419.048	-245
419.124	653
419.200	1581
419.276	450
419.352	-509
419.428	-213
419.504	-792
419.579	85
419.655	-100
419.731	-346
419.807	39
419.883	3361
419.959	4310
420.034	779
420.110	-278
420.186	4547
420.262	11233
420.337	2698
420.413	907
420.489	-276
420.565	100
420.640	-854
420.716	-79
420.792	-493
420.867	-433
420.943	-722
421.019	654
421.094	675
421.170	-238
421.245	-553
421.321	-289
421.397	-967
421.472	706
421.548	1036
421.623	4688
421.699	993
421.774	-45
421.850	-114
421.925	6
422.001	535
422.076	-26
422.152	-296
422.227	18
422.302	616
422.378	-129
422.453	1426
422.529	3379
422.604	11722
422.679	83479
422.755	101967
422.830	19276
422.905	2472
422.981	210
423.056	-154
423.131	881
423.207	-746
423.282	-919
423.357	1418
423.432	1221
423.508	397
423.583	1383
423.658	4527
423.733	416
423.808	1499
423.883	703
423.959	901
424.034	-1111
424.109	75
424.184	-409
424.259	-1050
424.334	-39
424.409	-999
424.484	-1026
424.559	-534
424.634	-369
424.709	-31
424.784	89
424.859	389
424.934	533
425.009	2892
425.084	8411
425.159	7837
425.234	1443
425.309	-241
425.384	865
425.459	10563
425.534	7742
425.609	1188
425.683	1260
425.758	-149
425.833	-210
425.908	578
425.983	668
426.058	6999
426.132	9136
426.207	2736
426.282	2088
426.357	6408
426.431	2515
426.506	413
426.581	88
426.655	1022
426.730	-90
426.805	-587
426.879	-525
426.954	31
427.029	828
427.103	3509
427.178	24001
427.253	32138
427.327	4857
427.402	1648
427.476	11514
427.551	14337
427.625	2339
427.700	2086
427.774	328
427.849	1453
427.923	747
427.998	39
428.072	-71
428.147	1780
428.221	3320
428.296	9492
428.370	8923
428.444	1376
428.519	3561
428.593	11396
428.667	19299
428.742	12635
428.816	17400
428.890	11953
428.965	29764
429.039	19178
429.113	17838
429.188	14937
429.262	1715
429.336	861
429.410	3295
429.485	6249
429.559	6723
429.633	16318
429.707	4614
429.781	2330
429.855	13373
429.930	39868
430.004	29361
430.078	54657
430.152	81437
430.226	27892
430.300	16091
430.374	5999
430.448	1788
430.522	5541
430.596	44863
430.670	67343
430.744	15561
430.818	37012
430.892	24821
430.966	2066
431.040	1016
431.114	-37
431.188	-392
431.262	272
431.336	597
431.410	1640
431.484	11215
431.557	20299
431.631	2865
431.705	-365
431.779	-377
431.853	3284
431.927	9392
432.000	2525
432.074	-380
432.148	-205
432.222	3106
432.295	966
432.369	116
432.443	-226
432.516	5264
432.590	29108
432.664	34174
432.737	5191
432.811	-534
432.885	-409
432.958	-1024
433.032	-471
433.106	-515
433.179	-1021
433.253	-1041
433.326	-903
433.400	-1116
433.473	-478
433.547	-527
433.620	-395
433.694	-580
433.767	1248
433.841	1337
433.914	593
433.988	-357
434.061	31
434.134	-748
434.208	-581
434.281	-680
434.355	-864
434.428	230
434.501	-624
434.575	-663
434.648	-120
434.721	608
434.795	-510
434.868	-842
434.941	-1055
435.014	-1127
435.088	-682
435.161	-412
435.234	426
435.307	628
435.381	598
435.454	-512
435.527	-422
435.600	-903
435.673	-403
435.746	-1105
435.819	-695
435.892	-1255
435.966	-683
436.039	-527
436.112	195
436.185	-397
436.258	-451
436.331	-1924
436.404	-998
436.477	-1014
436.550	-1234
436.623	-995
436.696	-1325
436.769	-921
436.842	-136
436.915	-800
436.987	749
437.060	496
437.133	-957
437.206	-527
437.279	570
437.352	-257
437.425	-969
437.498	-220
437.570	933
437.643	944
437.716	-141
437.789	-524
437.861	-567
437.934	2805
438.007	5280
438.080	671
438.152	-517
438.225	-59
438.298	3290
438.370	40191
438.443	54914
438.516	11447
438.588	2671
438.661	-434
438.734	318
438.806	-198
438.879	179
438.951	138
439.024	1183
439.096	1570
439.169	253
439.241	-1039
439.314	-834
439.386	241
439.459	3094
439.531	5182
439.604	4923
439.676	448
439.749	-609
439.821	-947
439.893	34
439.966	268
440.038	150
440.110	245
440.183	-7
440.255	-508
440.327	202
440.400	1685
440.472	17570
440.544	38910
440.617	10626
440.689	1523
440.761	1424
440.833	2708
440.905	3905
440.978	1148
441.050	-738
441.122	-370
441.194	-641
441.266	-474
441.338	60
441.411	-864
441.483	2189
441.555	11563
441.627	7682
441.699	2081
441.771	4198
441.843	3140
441.915	418
441.987	-250
442.059	-567
442.131	-366
442.203	1734
442.275	1713
442.347	3445
442.419	838
442.491	179
442.563	2504
442.635	6009
442.706	8559
442.778	19720
442.850	6130
442.922	-43
442.994	-681
443.066	1342
443.137	2145
443.209	1007
443.281	-740
443.353	596
443.425	3784
443.496	6096
443.568	9508
443.640	4552
443.711	1914
443.783	323
443.855	-298
443.926	-282
443.998	-588
444.070	1197
444.141	1487
444.213	1470
444.285	1204
444.356	2009
444.428	3871
444.499	2587
444.571	47
444.642	-277
444.714	-530
444.785	217
444.857	1460
444.928	8030
445.000	14103
445.071	5235
445.143	12184
445.214	6547
445.285	1644
445.357	11116
445.428	20764
445.500	15935
445.571	27995
445.642	17952
445.714	5401
445.785	21281
445.856	16353
445.928	2673
445.999	1261
446.070	1650
446.141	1168
446.213	1075
446.284	645
446.355	1199
446.426	1757
446.497	427
446.569	1046
446.640	5456
446.711	3220
446.782	223
446.853	1109
446.924	3113
446.995	79
447.066	124
447.138	2455
447.209	5345
447.280	338
447.351	-529
447.422	-639
447.493	45
447.564	1840
447.635	592
447.706	355
447.777	-319
447.847	-289
447.918	-494
447.989	634
448.060	2203
448.131	5341
448.202	11210
448.273	4711
448.344	2366
448.414	133
448.485	86
448.556	-666
448.627	-406
448.698	-62
448.768	-709
448.839	-636
448.910	1605
448.981	5026
449.051	1972
449.122	-807
449.193	-388
449.263	-698
449.334	-80
449.405	237
449.475	794
449.546	2131
449.616	2719
449.687	6595
449.758	3319
449.828	590
449.899	364
449.969	-813
450.040	-144
450.110	212
450.181	2002
450.251	1462
450.322	260
450.392	-516
450.463	1150
450.533	65
450.604	243
450.674	114
450.744	479
450.815	122
450.885	-34
450.955	-175
451.026	87
451.096	165
451.166	767
451.237	1475
451.307	12121
451.377	15687
451.447	3054
451.518	-104
451.588	431
451.658	120
451.728	282
451.799	5622
451.869	25953
451.939	14606
452.009	2607
452.079	-275
452.149	892
452.219	172
452.289	8503
452.360	25319
452.430	8925
452.500	910
452.570	278
452.640	1373
452.710	2923
452.780	15510
452.850	14723
452.920	4894
452.990	3480
453.060	875
453.129	1985
453.199	1778
453.269	5907
453.339	55509
453.409	105162
453.479	60556
453.549	93092
453.619	121918
453.688	107357
453.758	26463
453.828	4269
453.898	1869
453.968	1514
454.037	1327
454.087	583
454.107	271
454.168	708
454.177	764
454.247	504
454.249	491
454.316	-86
454.330	194
454.386	1298
454.411	1868
454.456	2624
454.492	9537
454.525	15685
454.574	13308
454.595	12332
454.655	3597
454.665	2180
454.734	1571
454.736	1589
454.804	1780
454.817	2761
454.873	6350
454.898	12917
454.943	24781
454.979	20905
455.013	17510
455.060	9450
455.082	5891
455.141	2977
455.152	2460
455.221	4747
455.222	4958
455.291	18995
455.303	19760
455.360	23545
455.384	22670
455.430	19032
455.465	23084
455.499	27334
455.546	20245
455.569	16818
455.627	17761
455.638	18073
455.707	6827
455.708	6795
455.777	1045
455.789	1076
455.846	1112
455.869	1141
455.916	1144
455.950	1102
455.985	1135
456.031	1423
456.054	1487
456.112	858
456.124	759
456.193	739
456.193	731
456.262	717
456.274	1015
456.332	2269
456.355	2332
456.401	2225
456.436	2347
456.470	2592
456.516	1373
456.540	753
456.597	487
456.609	422
456.678	-67
456.678	-74
456.747	117
456.759	154
456.817	-42
456.840	-45
456.886	169
456.920	315
456.955	494
457.001	529
457.024	545
457.082	440
457.093	415
457.162	1730
457.163	1745
457.232	3041
457.243	3269
457.301	3714
457.324	2606
457.370	1038
457.405	965
457.439	738
457.485	407
457.508	295
457.566	1425
457.577	1636
457.646	981
457.647	989
457.715	914
457.727	840
457.784	421
457.808	617
457.853	1078
457.889	1150
457.922	1062
457.969	963
457.991	993
458.050	1072
458.060	1083
458.129	1599
458.130	1613
458.198	1525
458.211	1424
458.267	951
458.292	703
458.336	470
458.372	545
458.405	640
458.453	440
458.474	387
458.533	1098
458.543	1197
458.611	2226
458.614	2278
458.680	2680
458.694	2316
458.749	1410
458.775	1276
458.818	991
458.855	874
458.887	976
458.936	1403
458.955	1403
459.016	1335
459.024	1358
459.093	1355
459.097	1345
459.162	1088
459.177	1220
459.230	1525
459.257	1401
459.299	1503
459.338	1884
459.368	1999
459.418	2081
459.437	1978
459.499	2026
459.505	2085
459.574	1835
459.579	1826
459.643	1257
459.659	1177
459.711	1395
459.740	1597
459.780	1369
459.820	1192
459.849	1481
459.900	2108
459.917	2154
459.981	1980
459.986	1992
460.054	2347
460.061	2363
460.123	1833
460.141	1653
460.191	1478
460.222	1490
460.260	1716
460.302	1846
460.328	1663
460.382	1899
460.397	1994
460.462	1917
460.465	1943
460.534	1894
460.543	1986
460.602	5143
460.623	6384
460.671	11139
460.703	14653
460.739	13132
460.783	14058
460.808	13645
460.864	6588
460.876	6275
460.944	2598
460.945	2548
461.013	1952
461.024	1893
461.081	1877
461.104	2061
461.150	2100
461.184	1821
461.218	1638
461.264	1502
461.286	1555
461.345	1552
461.355	1554
461.423	1958
461.425	1966
461.491	2006
461.505	2011
461.559	3178
461.585	3632
461.628	6590
461.665	9654
461.696	11138
461.745	15747
461.764	14311
461.825	10472
461.832	10964
461.901	4945
461.905	4775
461.969	2424
461.985	2463
462.037	2600
462.065	2556
462.105	2424
462.145	2310
462.173	3382
462.225	5330
462.241	5962
462.305	9379
462.310	9202
462.378	8500
462.385	8090
462.446	5529
462.465	3891
462.514	2233
462.545	2207
462.582	1780
462.625	1851
462.650	1959
462.705	1905
462.718	1978
462.785	2557
462.786	2575
462.854	3359
462.865	3534
462.922	4639
462.945	5381
462.990	4650
463.025	3760
463.058	3715
463.104	2607
463.126	2243
463.184	1826
463.194	1819
463.262	1943
463.264	1964
463.330	2863
463.344	2974
463.398	2812
463.424	2810
463.466	2897
463.504	2975
463.533	3049
463.583	3092
463.601	3087
463.663	2961
463.669	3005
463.737	3679
463.743	3713
463.805	5508
463.823	6204
463.873	10032
463.903	12216
463.940	13440
463.982	16025
464.008	13702
464.062	8537
464.076	8629
464.142	4882
464.144	4799
464.211	2657
464.221	2582
464.279	2812
464.301	2883
464.347	2618
464.381	2525
464.414	3049
464.461	3817
464.482	4158
464.540	5132
464.550	4899
464.617	3354
464.620	3286
464.685	3963
464.699	4037
464.753	5138
464.779	5827
464.820	6989
464.859	8197
464.888	7770
464.938	6973
464.956	7020
465.018	6929
465.023	6837
465.091	5830
465.098	5668
465.158	5457
465.177	5505
465.226	5125
465.257	4761
465.293	4763
465.336	4687
465.361	4817
465.416	5411
465.428	5749
465.495	7376
465.496	7423
465.563	13317
465.575	14319
465.631	18002
465.654	19934
465.698	13811
465.734	8531
465.765	7889
465.813	5276
465.833	4912
465.893	4739
465.900	4663
465.968	4432
465.972	4412
466.035	4561
466.052	4586
466.102	4512
466.131	4483
466.170	4626
466.210	4761
466.237	4659
466.290	4418
466.304	4460
466.369	4577
466.372	4587
466.439	4662
466.449	4669
466.506	5306
466.528	5548
466.573	6571
466.607	7305
466.641	11638
466.687	17700
466.708	20517
466.766	28208
466.775	26041
466.842	10105
466.845	9327
466.909	6626
466.925	5917
466.977	5628
467.004	5697
467.044	5755
467.083	5847
467.111	6607
467.163	8003
467.178	8493
467.242	10486
467.245	10432
467.312	8945
467.321	8736
467.379	7942
467.400	7630
467.446	8169
467.480	8539
467.559	8360
467.638	6563
467.717	5861
467.796	6796
467.875	6831
467.955	7748
468.034	10030
468.113	23049
468.192	36829
468.271	12481
468.350	5554
468.429	6382
468.508	6139
468.588	6204
468.667	6998
468.746	6493
468.825	6137
468.904	6239
468.983	6839
469.062	9530
469.141	12179
469.220	7157
469.299	5502
469.378	7251
469.456	8735
469.535	9509
469.614	8651
469.693	7708
469.772	9319
469.851	11939
469.930	10316
470.009	7858
470.088	7318
470.166	6752
470.245	6941
470.324	7543
470.403	6873
470.482	6673
470.560	5966
470.639	6458
470.718	6413
470.797	6156
470.875	7037
470.954	9701
471.033	10045
471.111	5807
471.190	5945
471.269	5216
471.347	5765
471.426	5278
471.505	6875
471.583	8093
471.662	8429
471.740	7526
471.819	6760
471.898	6061
471.976	5288
472.055	6300
472.133	6362
472.212	8149
472.290	9144
472.369	6294
472.447	5427
472.526	5799
472.604	4866
472.683	5123
472.761	6352
472.839	5685
472.918	5367
472.996	5330
473.075	6491
473.153	6084
473.231	5624
473.310	5861
473.388	5764
473.466	5702
473.545	6234
473.623	6709
473.701	6159
473.780	5759
473.858	5802
473.936	6468
474.014	5113
474.093	6211
474.171	7625
474.249	11910
474.327	8061
474.405	4653
474.484	5320
474.562	4812
474.640	4729
474.718	4881
474.796	4427
474.874	4448
474.952	5099
475.030	3291
475.108	4395
475.187	4435
475.265	4056
475.343	5242
475.421	6570
475.499	4614
475.577	5492
475.655	7460
475.733	10613
475.811	21122
475.889	20234
475.966	15028
476.044	5583
476.122	5995
476.200	6023
476.278	6378
476.356	5395
476.434	5092
476.512	4848
476.590	6304
476.667	6665
476.745	5085
476.823	4458
476.901	4537
476.979	5116
477.056	5350
477.134	5532
477.212	4879
477.290	4581
477.367	5369
477.445	3674
477.523	4313
477.601	4287
477.678	3838
477.756	5720
477.834	5816
477.911	4304
477.989	4298
478.066	4069
478.144	4266
478.222	4429
478.299	4216
478.377	5116
478.454	3860
478.532	4183
478.609	3863
478.687	4274
478.764	4323
478.842	3918
478.919	4618
478.997	3718
479.074	4482
479.152	5074
479.229	6711
479.307	4849
479.384	3297
479.461	3668
479.539	4094
479.616	5519
479.694	4141
479.771	4718
479.848	4353
479.926	4472
480.003	6804
480.080	4377
480.157	4090
480.235	2960
480.312	2832
480.389	3609
480.467	6645
480.544	10268
480.621	5731
480.698	3908
480.775	4913
480.853	4625
480.930	4546
481.007	4162
481.084	5320
481.161	5112
481.238	4872
481.315	3637
481.392	3346
481.470	4277
481.547	4127
481.624	3968
481.701	4335
481.778	4249
481.855	4759
481.932	5407
482.009	11456
482.086	9216
482.163	3956
482.240	4303
482.317	4509
482.393	4980
482.470	3870
482.547	3555
482.624	3421
482.701	3494
482.778	3740
482.855	3313
482.932	3155
483.009	3102
483.085	3207
483.162	3950
483.239	3123
483.316	2567
483.393	2631
483.469	3293
483.546	4128
483.623	4741
483.699	2768
483.776	3390
483.853	3720
483.930	5598
484.006	14290
484.083	33071
484.160	20106
484.236	31995
484.313	25734
484.389	18325
484.466	14780
484.543	14491
484.619	14670
484.696	14025
484.772	15089
484.849	16290
484.925	14470
485.002	14115
485.078	14006
485.155	14817
485.231	12960
485.308	12637
485.384	13230
485.461	14871
485.537	19764
485.614	27117
485.690	14033
485.766	11752
485.843	12505
485.919	13040
485.995	12400
486.072	12062
486.148	11310
486.224	11060
486.301	11180
486.377	12310
486.453	13159
486.530	12617
486.606	17108
486.682	19921
486.758	20089
486.835	24078
486.911	17730
486.987	25568
487.063	22842
487.139	17942
487.215	16144
487.292	12398
487.368	11573
487.444	11877
487.520	13707
487.596	12414
487.672	11947
487.748	13388
487.824	14415
487.900	12743
487.976	11861
488.052	11497
488.128	13378
488.204	10948
488.280	10847
488.356	12521
488.432	19447
488.508	36015
488.584	15502
488.660	9132
488.736	9729
488.812	9475
488.888	11815
488.964	13601
489.039	14674
489.115	20022
489.191	16682
489.267	10368
489.343	10177
489.418	9346
489.494	8348
489.570	7589
489.646	8782
489.722	8277
489.797	8742
489.873	11526
489.949	24231
490.024	25428
490.100	9972
490.176	7897
490.251	8554
490.327	9426
490.403	8027
490.478	8044
490.554	6688
490.629	7755
490.705	7136
490.781	7282
490.856	7228
490.932	7969
491.007	6934
491.083	7665
491.158	7645
491.234	7945
491.309	17511
491.385	21994
491.460	8046
491.536	7465
491.611	6503
491.686	5541
491.762	7059
491.837	8797
491.913	15589
491.988	18123
492.063	21763
492.139	11787
492.214	10267
492.289	6145
492.365	4819
492.440	6205
492.515	6516
492.590	6282
492.666	5559
492.741	6584
492.816	10655
492.891	6652
492.967	6219
493.042	5118
493.117	5068
493.192	5819
493.267	9498
493.342	32122
493.418	62915
493.493	11885
493.568	4879
493.643	4825
493.718	5681
493.793	7307
493.868	7941
493.943	4525
494.018	4681
494.093	4929
494.168	4668
494.243	4146
494.318	3247
494.393	3331
494.468	3692
494.543	3736
494.618	4390
494.693	4940
494.768	3335
494.842	4671
494.917	3373
494.992	3841
495.067	3179
495.142	2732
495.217	3428
495.292	3087
495.366	5201
495.441	4987
495.516	6401
495.591	6895
495.665	12361
495.740	29195
495.815	17398
495.890	7120
495.964	4787
496.039	5906
496.114	5201
496.188	5010
496.263	5498
496.338	4109
496.412	6208
496.487	6758
496.561	5874
496.636	6245
496.710	5573
496.785	4810
496.860	7350
496.934	5309
497.009	4840
497.083	4756
497.158	4959
497.232	5265
497.307	7277
497.381	5131
497.455	6054
497.530	9544
497.604	6855
497.679	5981
497.753	10420
497.827	14348
497.902	11067
497.976	13829
498.050	28309
498.125	136249
498.199	206874
498.273	24106
498.348	9282
498.422	7341
498.496	6674
498.570	6613
498.645	6569
498.719	6481
498.793	8259
498.867	14050
498.941	19628
499.016	44011
499.090	180836
499.164	90038
499.238	7125
499.312	5260
499.386	5877
499.460	5376
499.534	6321
499.609	6218
499.683	11736
499.757	13325
499.831	19734
499.905	97360
499.979	140394
500.053	20352
500.127	14475
500.201	7014
500.275	5349
500.349	5848
500.422	6457
500.496	8360
500.570	13838
500.644	41391
500.718	128839
500.792	38561
500.866	6713
500.940	8405
501.013	8508
501.087	6214
501.161	8942
501.235	13276
501.309	28739
501.382	88785
501.456	113747
501.530	18893
501.603	33160
501.677	17079
501.751	5286
501.825	5687
501.898	10068
501.972	36946
502.046	33302
502.119	6512
502.193	12267
502.266	41445
502.340	28230
502.413	14236
502.487	39651
502.561	25165
502.634	6452
502.708	5098
502.781	4020
502.855	2929
502.928	3308
503.002	3104
503.075	3006
503.149	4115
503.222	4142
503.295	3985
503.369	5220
503.442	7064
503.516	18868
503.589	72365
503.662	60162
503.736	14595
503.809	30732
503.882	30820
503.956	34053
504.029	44280
504.102	8387
504.175	6646
504.249	3209
504.322	3964
504.395	5368
504.468	2432
504.542	3873
504.615	3683
504.688	2514
504.761	1450
504.834	3173
504.907	2752
504.980	4244
505.053	2611
505.127	2668
505.200	5066
505.273	5287
505.346	3976
505.419	3300
505.492	2481
505.565	1781
505.638	1963
505.711	2026
505.784	1916
505.857	1254
505.930	3342
506.003	1975
506.076	3350
506.149	4004
506.221	6218
506.294	4303
506.367	10212
506.440	49111
506.513	39501
506.586	6613
506.659	3823
506.731	2135
506.804	2285
506.877	3153
506.950	3955
507.022	2259
507.095	2493
507.168	5294
507.241	1772
507.313	1926
507.386	1670
507.459	2892
507.531	1325
507.604	2396
507.677	2253
507.749	1441
507.822	2436
507.894	6196
507.967	10829
508.040	6108
508.112	5121
508.185	4986
508.257	4503
508.330	4651
508.402	4711
508.475	5015
508.547	4699
508.620	4227
508.692	6665
508.765	5210
508.837	3198
508.909	3280
508.982	3387
509.054	3841
509.127	2946
509.199	2975
509.271	3192
509.344	2497
509.416	2925
509.488	2462
509.560	3041
509.633	3925
509.705	3042
509.777	3794
509.849	4024
509.922	4555
509.994	3762
510.066	4497
510.138	3735
510.210	9361
510.283	10585
510.355	8596
510.427	6018
510.499	5382
510.571	4982
510.643	4946
510.715	6347
510.787	4821
510.859	5528
510.931	5256
511.003	6023
511.076	5357
511.148	4775
511.219	5169
511.291	7203
511.363	10224
511.435	4626
511.507	3578
511.579	4923
511.651	3824
511.723	4433
511.795	3394
511.867	4229
511.939	4770
512.010	8884
512.082	9220
512.154	4475
512.226	4611
512.298	5746
512.369	11790
512.441	9599
512.513	6984
512.585	6129
512.656	5298
512.728	6304
512.800	5125
512.871	5495
512.943	5210
513.015	3990
513.086	5714
513.158	4814
513.230	4213
513.301	5786
513.373	6118
513.444	5016
513.516	3934
513.588	4985
513.659	3944
513.731	4902
513.802	4472
513.874	6281
513.945	8332
514.016	4657
514.088	3365
514.159	4168
514.231	4548
514.302	8875
514.374	7501
514.445	7602
514.516	12175
514.588	10440
514.659	6222
514.730	10809
514.802	8508
514.873	5099
514.944	5653
515.016	4526
515.087	4315
515.158	6494
515.229	11823
515.301	5135
515.372	4724
515.443	3668
515.514	3817
515.585	3046
515.656	3671
515.728	3159
515.799	3560
515.870	3391
515.941	4470
516.012	3609
516.083	6329
516.154	5772
516.225	6439
516.296	5799
516.367	5329
516.438	4248
516.509	5693
516.580	6607
516.651	10843
516.722	35788
516.793	29140
516.864	8719
516.935	8111
517.006	8912
517.077	10267
517.148	15117
517.219	33368
517.289	78553
517.360	55577
517.431	33959
517.502	6736
517.573	6284
517.643	6063
517.714	7053
517.785	7665
517.856	6595
517.926	6804
517.997	7410
518.068	7617
518.138	8869
518.209	11390
518.280	22400
518.350	96470
518.421	59051
518.492	8630
518.562	6583
518.633	7131
518.703	5079
518.774	5735
518.845	6839
518.915	8265
518.986	5822
519.056	7142
519.127	8928
519.197	14963
519.268	45182
519.338	53108
519.408	10301
519.479	6884
519.549	6384
519.620	4517
519.690	4130
519.760	4187
519.831	3782
519.901	4582
519.971	3030
520.042	4121
520.112	5268
520.182	4759
520.253	4402
520.323	4333
520.393	5137
520.463	8941
520.534	4822
520.604	12698
520.674	7542
520.744	6240
520.814	11873
520.885	13883
520.955	14775
521.025	63825
521.095	44851
521.165	6363
521.235	4527
521.305	4278
521.375	4278
521.445	3887
521.515	4058
521.585	4500
521.655	3207
521.725	4064
521.795	3538
521.865	3108
521.935	5913
522.005	6278
522.075	3322
522.145	3566
522.215	4042
522.285	6255
522.355	7470
522.424	15568
522.494	16660
522.564	5507
522.634	5799
522.704	14183
522.774	8653
522.843	3428
522.913	2700
522.983	3925
523.053	3313
523.122	2735
523.192	2931
523.262	5615
523.331	9047
523.401	2750
523.471	1812
523.540	2397
523.610	2181
523.680	2950
523.749	1957
523.819	3182
523.888	3929
523.958	2347
524.027	2444
524.097	3242
524.166	2230
524.236	1818
524.305	2353
524.375	2794
524.444	2150
524.514	2875
524.583	2612
524.653	4036
524.722	4191
524.791	3507
524.861	2625
524.930	2682
524.999	2122
525.069	2753
525.138	3116
525.207	4615
525.277	3383
525.346	1908
525.415	2540
525.484	2431
525.554	3459
525.623	3440
525.692	2400
525.761	2473
525.830	1720
525.900	2329
525.969	2371
526.038	3081
526.107	2443
526.176	6297
526.245	5213
526.314	3990
526.383	5758
526.452	3714
526.522	6766
526.591	12541
526.660	9099
526.729	4808
526.797	4639
526.867	6993
526.935	30340
527.004	36243
527.073	15618
527.142	3417
527.211	1950
527.280	1845
527.349	2285
527.418	1060
527.487	1569
527.555	1550
527.624	1759
527.693	887
527.762	1331
527.831	388
527.899	1162
527.968	2308
528.037	1399
528.106	1760
528.174	2462
528.243	3697
528.312	3783
528.380	6521
528.449	1981
528.518	1279
528.586	764
528.655	1486
528.723	1842
528.792	248
528.861	1997
528.929	1387
528.998	1943
529.066	694
529.135	708
529.203	827
529.272	610
529.340	1398
529.409	1154
529.477	1282
529.545	890
529.614	3763
529.682	2191
529.751	3541
529.819	3084
529.887	2286
529.956	1467
530.024	1231
530.092	174
530.161	1838
530.229	696
530.297	1927
530.365	1926
530.434	654
530.502	1024
530.570	1394
530.638	78
530.707	1035
530.775	1569
530.843	1103
530.911	1132
530.979	1039
531.047	809
531.115	1398
531.183	1082
531.252	1144
531.320	854
531.388	1020
531.456	1199
531.524	96
531.592	1881
531.660	1230
531.728	476
531.796	728
531.864	-125
531.932	1107
532.000	1414
532.067	715
532.135	1381
532.203	664
532.271	1494
532.339	2248
532.407	4550
532.475	3753
532.542	1619
532.610	1953
532.678	1682
532.746	7362
532.814	26443
532.881	11155
532.949	1270
533.017	1383
533.084	1658
533.152	924
533.220	867
533.287	1010
533.355	464
533.423	402
533.490	1025
533.558	471
533.625	1279
533.693	1717
533.761	1482
533.828	1856
533.896	1175
533.963	3016
534.031	4038
534.098	3884
534.166	2682
534.233	1450
534.300	1655
534.368	1468
534.435	1755
534.503	1453
534.570	1112
534.637	379
534.705	791
534.772	1307
534.840	751
534.907	1560
534.974	2930
535.041	1152
535.109	2476
535.176	737
535.243	1290
535.310	864
535.378	687
535.445	851
535.512	573
535.579	686
535.646	1145
535.714	1693
535.781	1916
535.848	3147
535.915	2596
535.982	2535
536.049	2703
536.116	3005
536.183	2877
536.250	1302
536.317	1433
536.384	1684
536.451	3002
536.518	2010
536.585	777
536.652	2466
536.719	2381
536.786	1819
536.853	2049
536.920	2454
536.987	4040
537.053	3328
537.120	9961
537.187	14889
537.254	2071
537.321	1687
537.388	1604
537.454	958
537.521	1425
537.588	804
537.654	2169
537.721	3416
537.788	2701
537.855	1376
537.921	1913
537.988	666
538.055	2330
538.121	1577
538.188	1992
538.254	1609
538.321	3988
538.388	3180
538.454	1908
538.521	1336
538.587	1482
538.654	1230
538.720	1728
538.787	1499
538.853	1708
538.920	2270
538.986	2433
539.053	2329
539.119	2226
539.185	1336
539.252	2256
539.318	3218
539.385	2806
539.451	2290
539.517	3169
539.583	3111
539.650	2939
539.716	11076
539.782	5882
539.849	851
539.915	1966
539.981	1937
540.047	1525
540.114	1495
540.180	2085
540.246	1488
540.312	1923
540.378	2765
540.444	5109
540.510	3426
540.576	9971
540.643	5724
540.709	1442
540.775	1665
540.841	1671
540.907	2583
540.973	6402
541.039	4590
541.105	3362
541.171	2894
541.237	1794
541.303	2623
541.369	2981
541.435	1878
541.500	3975
541.566	3070
541.632	831
541.698	1114
541.764	1779
541.830	1557
541.896	1110
541.961	1824
542.027	1493
542.093	1324
542.159	2087
542.224	2643
542.290	3732
542.356	3150
542.421	4488
542.487	2880
542.553	1926
542.618	3705
542.684	2529
542.750	1770
542.815	2226
542.881	3027
542.947	8181
543.012	9276
543.078	2144
543.143	1332
543.209	2194
543.274	1569
543.340	2495
543.405	2656
543.471	5887
543.536	3271
543.602	2122
543.667	1247
543.732	2267
543.798	1074
543.863	2444
543.928	1123
543.994	1819
544.059	610
544.124	1642
544.190	1619
544.255	2092
544.320	1207
544.386	1288
544.451	1369
544.516	2102
544.581	2204
544.646	4765
544.712	11568
544.777	3750
544.842	2957
544.907	3603
544.972	2071
545.037	3367
545.102	2759
545.168	3791
545.233	3667
545.298	4020
545.363	3893
545.428	3888
545.493	3929
545.558	8098
545.623	6489
545.688	3803
545.753	3664
545.818	3388
545.883	3990
545.947	3076
546.012	3561
546.077	3069
546.142	3843
546.207	2163
546.272	2911
546.337	3428
546.401	3594
546.466	2737
546.531	3271
546.596	3171
546.661	2287
546.725	3558
546.790	3243
546.855	3196
546.919	2472
546.984	3272
547.049	2796
547.113	3255
547.178	2945
547.243	3466
547.307	4016
547.372	3963
547.436	4724
547.501	3008
547.565	3648
547.630	3549
547.695	3441
547.759	4874
547.823	4398
547.888	2903
547.952	3764
548.017	3422
548.081	3335
548.146	5056
548.210	5617
548.274	2936
548.339	2647
548.403	2558
548.468	2001
548.532	1970
548.596	2694
548.660	3435
548.725	3588
548.789	3073
548.853	5807
548.917	3199
548.982	4028
549.046	6884
549.110	3458
549.174	2421
549.238	2122
549.303	2139
549.367	3323
549.431	3051
549.495	2801
549.559	3059
549.623	2832
549.687	2166
549.751	4022
549.815	3190
549.879	3358
549.943	2700
550.007	3835
550.071	3023
550.135	3829
550.199	3024
550.263	3307
550.327	3108
550.391	5718
550.455	3648
550.519	3212
550.582	3070
550.646	2673
550.710	3494
550.774	3287
550.838	2636
550.901	3175
550.965	4077
551.029	4024
551.093	5008
551.156	5038
551.220	11473
551.284	18443
551.347	8007
551.411	12334
551.475	25632
551.538	7508
551.602	3000
551.666	2601
551.729	1452
551.793	2575
551.856	3318
551.920	2587
551.983	2741
552.047	2516
552.110	2333
552.174	2346
552.237	2110
552.301	2750
552.364	2905
552.428	3181
552.491	2116
552.554	3022
552.618	2580
552.681	2984
552.745	2404
552.808	3704
552.871	4288
552.934	3348
552.998	2951
553.061	3126
553.124	3499
553.187	3588
553.251	3458
553.314	4510
553.377	3659
553.440	6511
553.503	13535
553.567	41050
553.630	13263
553.693	2816
553.756	1962
553.819	2338
553.882	2065
553.945	1648
554.008	1638
554.071	1763
554.134	1465
554.197	1503
554.260	2121
554.323	2367
554.386	2450
554.449	2271
554.512	2188
554.575	1716
554.638	2097
554.701	2830
554.764	2052
554.827	2530
554.889	1402
554.952	1964
555.015	1085
555.078	1690
555.141	2415
555.203	1828
555.266	1640
555.329	2859
555.391	2289
555.454	1377
555.517	1680
555.580	2010
555.642	1107
555.705	1777
555.768	2120
555.830	2483
555.893	1552
555.955	1689
556.018	2041
556.080	2269
556.143	2151
556.206	962
556.268	2213
556.330	2525
556.393	1766
556.455	1865
556.518	3492
556.580	5278
556.643	2045
556.705	2659
556.767	916
556.830	3046
556.892	2182
556.955	2122
557.017	2409
557.079	2358
557.142	1839
557.204	987
557.266	3154
557.328	3426
557.391	2255
557.453	972
557.515	2373
557.577	1594
557.639	2069
557.701	1991
557.764	1337
557.826	1077
557.888	2900
557.950	1609
558.012	1473
558.074	918
558.136	2605
558.198	4166
558.260	3268
558.322	2353
558.384	1950
558.446	2613
558.508	2946
558.570	3187
558.632	3685
558.694	6138
558.756	4179
558.818	5547
558.880	17776
558.942	10070
559.003	4768
559.065	2945
559.127	1716
559.189	1579
559.251	2342
559.312	2299
559.374	3023
559.436	8309
559.498	9519
559.559	1944
559.621	1573
559.683	1847
559.744	3891
559.806	7690
559.868	11612
559.929	6094
559.991	4155
560.052	3565
560.114	4493
560.176	5095
560.237	3543
560.299	5048
560.360	4086
560.422	3350
560.483	3803
560.545	3684
560.606	2230
560.667	3798
560.729	2525
560.790	3364
560.852	2841
560.913	3356
560.974	3063
561.036	2287
561.097	2948
561.158	3570
561.220	3538
561.281	2690
561.342	2342
561.403	3092
561.465	3296
561.526	6175
561.587	8223
561.648	4178
561.709	3604
561.771	2358
561.832	3342
561.893	2507
561.954	2529
562.015	2176
562.076	3354
562.137	3249
562.198	2694
562.259	2266
562.320	2916
562.381	2945
562.442	3705
562.503	3492
562.564	3580
562.625	2445
562.686	2645
562.747	2773
562.808	3417
562.869	3300
562.930	4604
562.991	5063
563.051	4172
563.112	3754
563.173	3235
563.234	2514
563.294	3020
563.355	2363
563.416	3554
563.477	3153
563.537	3269
563.598	5027
563.659	3270
563.720	3612
563.780	3430
563.841	4109
563.901	4536
563.962	3571
564.023	3532
564.083	4300
564.144	3697
564.204	3296
564.265	4370
564.325	4451
564.386	7465
564.446	11411
564.507	4687
564.567	3673
564.628	3417
564.688	3345
564.749	3153
564.809	4186
564.869	5233
564.930	4524
564.990	3424
565.050	3318
565.111	3014
565.171	2892
565.231	3471
565.292	3382
565.352	2356
565.412	3229
565.472	2773
565.532	3245
565.593	3015
565.653	2805
565.713	2730
565.773	3046
565.833	3445
565.893	4265
565.953	3231
566.013	2741
566.074	4209
566.134	5008
566.194	9151
566.254	10980
566.314	6385
566.374	4426
566.434	3409
566.494	3197
566.554	4552
566.614	3593
566.673	3541
566.733	3519
566.793	3974
566.853	4162
566.913	4159
566.973	4275
567.033	4276
567.092	5102
567.152	3727
567.212	4658
567.272	3374
567.331	5091
567.391	4115
567.451	4470
567.511	7325
567.570	7896
567.630	5160
567.690	4200
567.749	4130
567.809	4203
567.868	4183
567.928	4437
567.988	4999
568.047	5784
568.107	5500
568.166	5796
568.226	7493
568.285	9978
568.345	10187
568.404	7728
568.464	6267
568.523	6111
568.582	6213
568.642	6441
568.701	7964
568.761	10185
568.820	14573
568.879	17732
568.939	13359
568.998	11558
569.057	7739
569.116	5950
569.176	4972
569.235	4050
569.294	4223
569.353	3802
569.413	5252
569.472	3912
569.531	4188
569.590	3205
569.649	3686
569.708	3784
569.767	4388
569.827	3895
569.886	4378
569.945	2789
570.004	2742
570.063	3685
570.122	3499
570.181	4123
570.240	4431
570.299	5246
570.358	4536
570.417	3808
570.475	3247
570.534	4200
570.593	4194
570.652	3077
570.711	3475
570.770	3478
570.829	3985
570.887	3886
570.946	3717
571.005	3103
571.064	3892
571.122	3010
571.181	4251
571.240	4424
571.299	3366
571.357	3832
571.416	4327
571.475	4320
571.533	6445
571.592	4328
571.650	4152
571.709	3542
571.768	3334
571.826	3049
571.885	2863
571.943	2953
572.002	2502
572.060	3757
572.119	2753
572.177	2746
572.236	2768
572.294	2583
572.352	2625
572.411	2546
572.469	2423
572.528	3161
572.586	2603
572.644	2976
572.703	3780
572.761	3609
572.819	3030
572.877	3910
572.936	2485
572.994	2638
573.052	2573
573.110	2764
573.169	2848
573.227	2662
573.285	3062
573.343	3013
573.401	1901
573.459	2631
573.517	1796
573.576	2621
573.634	3186
573.692	2425
573.750	3215
573.808	2503
573.866	3758
573.924	4872
573.982	5054
574.040	3325
574.098	2411
574.155	2635
574.213	2487
574.271	1897
574.329	3070
574.387	2364
574.445	2143
574.503	2364
574.560	2127
574.618	2118
574.676	2218
574.734	2130
574.792	2112
574.849	2351
574.907	2136
574.965	2050
575.022	2073
575.080	1788
575.138	1878
575.195	2104
575.253	2060
575.311	2908
575.368	2184
575.426	2332
575.483	2397
575.541	2589
575.598	2750
575.656	2406
575.713	2843
575.771	2855
575.828	2366
575.886	2658
575.943	3669
576.001	2918
576.058	2915
576.115	3202
576.173	3875
576.230	4561
576.287	4361
576.345	4115
576.402	4463
576.459	3764
576.517	3039
576.574	4255
576.631	4935
576.688	4913
576.746	3852
576.803	4022
576.860	3105
576.917	3294
576.974	4211
577.031	3832
577.089	3453
577.146	3278
577.203	3549
577.260	3663
577.317	4214
577.374	5324
577.431	5212
577.488	4051
577.545	3062
577.602	3227
577.659	4415
577.716	3034
577.773	4945
577.830	3743
577.886	3242
577.943	3611
578.000	3836
578.057	3938
578.114	4151
578.171	4609
578.227	4638
578.284	5886
578.341	5344
578.398	4570
578.454	3652
578.511	4277
578.568	6617
578.625	4574
578.681	3694
578.738	2706
578.794	3617
578.851	2650
578.908	2445
578.964	3195
579.021	3421
579.077	2453
579.134	2835
579.190	3101
579.247	2670
579.303	3023
579.360	2635
579.416	2466
579.473	2525
579.529	2424
579.586	2998
579.642	2605
579.698	3469
579.755	3200
579.811	3896
579.867	4361
579.924	2742
579.980	3504
580.036	3816
580.093	4609
580.149	6052
580.205	8825
580.261	6964
580.317	5683
580.374	4773
580.430	5539
580.486	5918
580.542	4109
580.598	3269
580.619	3281
580.654	3297
580.692	2930
580.710	2738
580.765	3155
580.767	3160
580.823	3340
580.838	3354
580.879	3351
580.911	2860
580.935	2508
580.984	3494
580.991	3621
581.047	2930
581.057	3051
581.103	3590
581.130	3847
581.159	4112
581.203	4472
581.215	4546
581.270	5739
581.276	5651
581.326	4719
581.349	4579
581.382	4345
581.422	4121
581.438	4020
581.494	3719
581.494	3738
581.550	4909
581.567	4647
581.606	4017
581.640	4445
581.661	4712
581.713	3975
581.717	3907
581.773	4136
581.786	4287
581.829	4764
581.859	4876
581.885	4930
581.932	4470
581.940	4392
581.996	5427
582.004	5422
582.052	5292
582.077	4971
582.107	4620
582.150	4782
582.163	4820
582.219	4697
582.223	4761
582.274	5482
582.296	5275
582.330	4993
582.368	5453
582.386	5564
582.441	5436
582.441	5430
582.497	5340
582.514	5364
582.552	5516
582.587	5608
582.608	5680
582.659	5816
582.663	5807
582.719	5770
582.732	5688
582.774	5534
582.805	5923
582.830	6233
582.877	5995
582.885	5914
582.941	5252
582.950	5251
582.996	5492
583.023	5976
583.052	6541
583.095	7296
583.107	7544
583.162	8309
583.168	8439
583.218	9768
583.240	9743
583.273	9178
583.313	9040
583.328	8892
583.384	7377
583.385	7355
583.439	7364
583.458	7476
583.494	7490
583.531	7227
583.549	7206
583.603	7457
583.605	7463
583.660	6904
583.676	6876
583.715	6839
583.748	7314
583.770	7757
583.820	7812
583.825	7813
583.881	8539
583.893	8510
583.936	8200
583.965	8170
583.991	8179
584.038	7930
584.046	7924
584.101	8063
584.110	8112
584.156	8414
584.183	8612
584.211	8588
584.255	8255
584.266	8256
584.321	8640
584.328	8594
584.376	8269
584.400	8418
584.431	8643
584.472	8069
584.486	7842
584.541	8406
584.545	8355
584.596	8060
584.617	8290
584.651	8796
584.689	9742
584.706	10183
584.761	9946
584.762	9935
584.816	10058
584.834	10015
584.871	10020
584.906	10247
584.926	10409
584.978	10789
584.980	10819
585.035	10180
585.051	10348
585.090	11291
585.123	11603
585.145	11635
585.195	11508
585.200	11550
585.254	12617
585.267	12723
585.309	13190
585.340	13607
585.364	14261
585.412	15611
585.419	15542
585.473	14084
585.484	13630
585.528	12835
585.556	13016
585.583	13613
585.628	14098
585.637	14260
585.692	15927
585.700	16221
585.747	20137
585.772	21610
585.801	20318
585.845	16928
585.856	16170
585.910	14611
585.917	14222
585.965	13552
585.989	13735
586.019	14174
586.061	14491
586.074	14596
586.128	14597
586.133	14598
586.183	15680
586.205	16032
586.237	16794
586.277	17974
586.292	18416
586.346	19187
586.349	19188
586.401	18650
586.421	18587
586.455	19696
586.493	20505
586.509	22043
586.564	28165
586.565	28259
586.618	48956
586.637	56830
586.672	64384
586.709	64177
586.727	52628
586.781	22106
586.781	22153
586.835	19702
586.853	18986
586.889	18877
586.925	18198
586.944	18131
586.996	18315
586.998	18408
587.052	19927
587.068	20307
587.106	20270
587.140	19763
587.161	19838
587.212	20640
587.215	20753
587.269	20911
587.284	21135
587.323	22312
587.356	22775
587.377	22633
587.427	22246
587.431	22356
587.485	23138
587.499	23248
587.539	24019
587.571	24347
587.593	24585
587.643	25472
587.648	25703
587.702	26471
587.715	26745
587.755	28500
587.786	29562
587.810	29805
587.858	30078
587.864	30252
587.917	30747
587.930	30891
587.971	33811
588.001	35687
588.025	37711
588.073	41399
588.079	41508
588.133	41061
588.145	40824
588.187	43707
588.217	46005
588.241	48606
588.288	52980
588.295	54097
588.348	62889
588.360	64610
588.402	72118
588.431	77316
588.456	83218
588.503	94123
588.510	96324
588.564	114020
588.575	117328
588.617	135035
588.646	147842
588.671	163877
588.718	195455
588.725	204087
588.778	271857
588.789	286508
588.832	422819
588.861	522593
588.886	718992
588.932	1103955
588.939	1175162
588.993	1703613
589.004	1788073
589.047	1613560
589.075	1462829
589.100	1170145
589.147	633595
589.154	601529
589.207	356970
589.218	306803
589.261	260883
589.290	229929
589.314	229930
589.361	231571
589.368	238735
589.421	296686
589.433	310090
589.475	484285
589.504	611726
589.528	851455
589.576	1333698
589.582	1359703
589.635	1485477
589.647	1495590
589.689	969691
589.718	605808
589.742	472151
589.790	213844
589.795	207783
589.849	148034
589.861	134042
589.902	129907
589.932	126576
589.955	119411
590.004	101297
590.009	99037
590.062	70963
590.075	64017
590.115	59398
590.146	55350
590.168	54133
590.218	50719
590.222	50731
590.275	48704
590.289	47937
590.328	48350
590.360	48255
590.381	47270
590.431	44252
590.435	44322
590.488	42581
590.503	41945
590.541	41865
590.574	41377
590.594	41392
590.645	40867
590.647	40978
590.700	39197
590.716	38569
590.753	38151
590.787	37294
590.806	37014
590.859	35868
590.859	36027
590.912	36403
590.930	36334
590.965	35676
591.001	34704
591.018	34792
591.071	34619
591.072	34464
591.124	34557
591.143	34412
591.177	34638
591.214	34466
591.230	34843
591.283	35669
591.285	35544
591.336	36200
591.356	36285
591.389	36959
591.427	37263
591.442	36924
591.495	35141
591.498	34852
591.547	35117
591.569	35027
591.600	35194
591.640	35029
591.653	35167
591.706	35060
591.711	34899
591.759	36568
591.782	37181
591.811	41011
591.853	46222
591.864	46223
591.917	45015
591.924	44648
591.969	38604
591.995	34780
592.022	35714
592.066	36947
592.075	37585
592.127	40496
592.137	40850
592.180	51050
592.208	57415
592.233	57489
592.279	56681
592.285	55273
592.338	41222
592.350	37847
592.390	36698
592.421	35538
592.443	35707
592.491	35547
592.495	35708
592.548	35666
592.562	35491
592.600	36517
592.633	37093
592.653	36725
592.704	35126
592.705	35346
592.775	36173
592.846	35757
592.916	35570
592.987	36311
593.058	38120
593.128	36427
593.199	35696
593.270	34300
593.341	33817
593.411	32985
593.482	33796
593.553	33011
593.623	32548
593.694	32658
593.764	36257
593.835	40474
593.906	33561
593.976	32583
594.047	34701
594.117	40000
594.188	54695
594.258	40916
594.329	31304
594.399	30556
594.470	32508
594.540	30718
594.611	30099
594.681	30019
594.751	32125
594.822	34006
594.892	35720
594.963	37063
595.033	37134
595.103	35424
595.174	37565
595.244	49742
595.314	87968
595.384	75892
595.455	34961
595.525	35602
595.595	35405
595.665	35629
595.736	35544
595.806	34421
595.876	34258
595.946	32951
596.016	33420
596.087	31102
596.157	34193
596.227	32987
596.297	33651
596.367	35845
596.437	36223
596.507	47574
596.577	77442
596.647	72638
596.717	36350
596.787	33612
596.857	33402
596.927	31969
596.997	33479
597.067	32008
597.137	33697
597.207	35626
597.277	33430
597.347	33770
597.417	34895
597.487	31441
597.557	33223
597.626	34714
597.696	35286
597.766	43185
597.836	65277
597.906	73256
597.975	36320
598.045	33185
598.115	32169
598.185	32073
598.254	31712
598.324	33026
598.394	32630
598.464	32521
598.533	32535
598.603	31868
598.672	29512
598.742	31433
598.812	31054
598.881	31501
598.951	30523
599.020	29397
599.090	29323
599.159	27831
599.229	29271
599.299	27124
599.368	28433
599.437	29108
599.507	27107
599.576	31002
599.646	32493
599.715	32225
599.785	30887
599.854	32149
599.924	37897
599.993	43949
600.062	33933
600.132	30836
600.201	30949
600.270	32244
600.340	30886
600.409	29177
600.478	29060
600.547	28751
600.617	30372
600.686	31180
600.755	30628
600.824	30437
600.894	29966
600.963	30131
601.032	28233
601.101	28757
601.170	28533
601.239	29172
601.308	30233
601.378	30506
601.447	29774
601.516	28488
601.585	27062
601.654	28103
601.723	30738
601.792	28833
601.861	30102
601.930	30062
601.999	31252
602.068	28055
602.137	26483
602.206	28776
602.275	26959
602.343	27693
602.412	30222
602.481	28153
602.550	26210
602.619	26077
602.688	25558
602.756	27197
602.825	27028
602.894	25551
602.963	25652
603.032	27359
603.100	26942
603.169	25047
603.238	25892
603.307	26477
603.375	25161
603.444	24178
603.513	25947
603.581	24113
603.650	25081
603.719	24578
603.787	25074
603.856	25162
603.924	26242
603.993	26318
604.061	25605
604.130	24177
604.198	24539
604.267	23845
604.335	24059
604.404	23789
604.472	23939
604.541	21997
604.609	23977
604.678	22569
604.746	23089
604.815	23317
604.883	23042
604.951	24768
605.020	23280
605.088	22062
605.156	24973
605.225	24753
605.293	23717
605.361	23153
605.429	24556
605.498	22882
605.566	23335
605.634	23305
605.702	24355
605.771	24524
605.839	25726
605.907	24054
605.975	23692
606.043	23898
606.111	23968
606.180	23544
606.248	25816
606.316	28838
606.384	28861
606.452	31015
606.520	35231
606.588	29874
606.656	23053
606.724	21735
606.792	23457
606.860	22234
606.928	21805
606.996	22007
607.064	21168
607.132	19981
607.200	20285
607.267	21679
607.335	22969
607.403	20157
607.471	22338
607.539	21426
607.607	20708
607.674	19904
607.742	21484
607.810	22866
607.878	21787
607.946	20345
608.013	20261
608.081	20691
608.149	22574
608.216	19982
608.284	21621
608.352	20699
608.419	22796
608.487	31400
608.555	48114
608.622	23144
608.690	20668
608.757	19471
608.825	20050
608.893	21198
608.960	22715
609.028	27803
609.095	40165
609.163	46788
609.230	23106
609.298	24694
609.365	21627
609.432	18617
609.500	19217
609.567	20652
609.635	20635
609.702	21287
609.769	21336
609.837	24143
609.904	30966
609.971	21269
610.039	20357
610.106	20962
610.173	26592
610.241	42611
610.308	76600
610.375	98738
610.442	49450
610.509	23869
610.577	21129
610.644	18773
610.711	19941
610.778	20147
610.845	19851
610.912	19027
610.980	20583
611.047	23899
611.114	28882
611.181	22004
611.248	19328
611.315	18620
611.382	19373
611.449	17895
611.516	18644
611.583	19708
611.650	19393
611.717	19372
611.784	20014
611.851	19684
611.918	19945
611.984	22621
612.051	22239
612.118	31589
612.185	47090
612.252	77642
612.319	32938
612.386	20122
612.452	20614
612.519	23006
612.586	33937
612.653	54075
612.719	23335
612.786	18690
612.853	18841
612.919	18347
612.986	17960
613.053	17377
613.120	17064
613.186	16422
613.253	17778
613.319	18043
613.386	17331
613.453	17435
613.519	18497
613.586	19522
613.652	24177
613.719	24427
613.785	24117
613.852	20918
613.918	18656
613.985	18742
614.051	21265
614.118	32429
614.184	66469
614.250	36381
614.317	17610
614.383	16850
614.449	16896
614.516	16498
614.582	17921
614.648	20156
614.715	17211
614.781	16863
614.847	18003
614.914	21001
614.980	22272
615.046	19779
615.112	16870
615.179	17350
615.245	17689
615.311	18419
615.377	21531
615.443	25603
615.509	25561
615.575	21013
615.642	19607
615.708	19504
615.774	22105
615.840	23723
615.906	29423
615.972	31498
616.038	36475
616.104	54788
616.170	72091
616.236	124122
616.302	64671
616.368	31658
616.434	29301
616.500	27306
616.565	29133
616.631	29160
616.697	28568
616.763	26287
616.829	27451
616.895	32088
616.961	37536
617.026	33916
617.092	27034
617.158	25991
617.224	25136
617.289	24792
617.355	25653
617.421	27829
617.487	31624
617.552	28151
617.618	26851
617.684	26389
617.749	26593
617.815	25017
617.880	24509
617.946	23153
618.012	24757
618.077	24665
618.143	24660
618.208	24502
618.274	24571
618.339	26010
618.405	27005
618.470	27145
618.536	27892
618.601	31279
618.667	38762
618.732	32424
618.798	29660
618.863	28467
618.928	28262
618.994	29332
619.059	31426
619.124	33983
619.190	37894
619.255	31264
619.320	30712
619.386	31072
619.451	29048
619.516	28372
619.581	29403
619.647	29605
619.712	30340
619.777	29262
619.842	28365
619.907	29118
619.972	28816
620.038	29112
620.103	29873
620.168	28686
620.233	27581
620.298	28063
620.363	27806
620.428	27354
620.493	26999
620.558	28667
620.623	26118
620.688	27402
620.753	27621
620.818	25648
620.883	26772
620.948	27026
621.013	27121
621.078	27303
621.143	29162
621.207	31875
621.272	31426
621.337	31540
621.402	35440
621.467	42337
621.532	64287
621.596	53236
621.661	41479
621.726	36082
621.791	35188
621.855	34759
621.920	36376
621.985	39905
622.049	48984
622.114	51457
622.179	47338
622.243	40666
622.308	44310
622.373	40475
622.437	41927
622.502	39699
622.566	38208
622.631	40166
622.695	40777
622.760	39318
622.824	39527
622.889	36023
622.953	38835
623.018	39638
623.082	46600
623.147	41183
623.211	37486
623.276	35868
623.340	38050
623.404	34713
623.469	34371
623.533	34439
623.597	35221
623.662	33666
623.726	35101
623.790	34285
623.854	34759
623.919	36793
623.983	34503
624.047	35027
624.111	34490
624.176	34446
624.240	34295
624.304	38738
624.368	38053
624.432	35147
624.496	34611
624.560	34360
624.625	34874
624.689	36566
624.753	32569
624.817	32005
624.881	32159
624.945	32393
625.009	31784
625.073	32495
625.137	31086
625.201	35518
625.265	35279
625.329	33496
625.393	32224
625.456	33864
625.520	33323
625.584	36389
625.648	43128
625.712	59162
625.776	125037
625.839	280262
625.903	249199
625.967	63903
626.031	55979
626.095	114443
626.158	129387
626.222	37085
626.286	30601
626.349	27936
626.413	30455
626.477	29128
626.540	30173
626.604	27644
626.668	28352
626.731	27294
626.795	28104
626.858	33011
626.922	31211
626.986	29425
627.049	27118
627.113	27021
627.176	26718
627.240	25278
627.303	27305
627.366	27908
627.430	27417
627.493	26030
627.557	29804
627.620	31026
627.684	26854
627.747	28473
627.810	27746
627.874	27763
627.937	27529
628.000	27325
628.064	28202
628.127	27501
628.190	25756
628.253	26161
628.317	27013
628.380	25759
628.443	24397
628.506	26516
628.569	25903
628.632	24250
628.696	25286
628.759	23964
628.822	24567
628.885	23717
628.948	23738
629.011	23319
629.074	23770
629.137	24519
629.200	22522
629.263	24453
629.326	25214
629.389	22451
629.452	22391
629.515	24308
629.578	25637
629.641	24251
629.704	25388
629.767	25321
629.830	24492
629.892	21503
629.955	22116
630.018	22895
630.081	23576
630.144	23583
630.207	24293
630.269	24627
630.332	26570
630.395	32414
630.458	23305
630.520	20521
630.583	22821
630.646	19901
630.708	19639
630.771	20013
630.834	21538
630.896	20136
630.959	20764
631.021	19624
631.084	20700
631.146	21968
631.209	27089
631.272	27661
631.334	20307
631.397	18511
631.459	19685
631.522	18837
631.584	19336
631.646	19851
631.709	19789
631.771	20567
631.834	25158
631.896	19117
631.958	18095
632.021	18006
632.083	18756
632.145	19586
632.208	20131
632.270	18519
632.332	17863
632.395	17942
632.457	19076
632.519	19716
632.581	19499
632.643	16567
632.706	17481
632.768	17954
632.830	17696
632.892	17530
632.954	17143
633.016	19118
633.078	19062
633.141	16609
633.203	16601
633.265	18312
633.327	17874
633.389	16750
633.451	16949
633.513	18641
633.575	21449
633.637	24317
633.698	20293
633.760	17203
633.822	17167
633.884	15751
633.946	15879
634.008	16155
634.070	15941
634.132	15839
634.193	18145
634.255	16611
634.317	15835
634.379	15418
634.441	15354
634.502	16032
634.564	15849
634.626	14996
634.687	14665
634.749	15605
634.811	16377
634.873	14837
634.934	14021
634.996	14500
635.057	15514
635.119	14430
635.181	15344
635.242	16048
635.304	14800
635.365	15466
635.427	14884
635.488	15082
635.550	14650
635.611	14818
635.673	14480
635.734	16633
635.796	15867
635.857	15779
635.918	15295
635.980	14998
636.041	15875
636.102	15698
636.164	15649
636.225	14338
636.286	14092
636.348	15333
636.409	14585
636.470	14443
636.531	14236
636.593	15468
636.654	21416
636.715	15982
636.776	13026
636.838	13122
636.899	13838
636.960	15234
637.021	13354
637.082	13163
637.143	13741
637.204	13001
637.265	12276
637.326	12923
637.387	13286
637.448	12689
637.509	11841
637.570	12395
637.631	13546
637.692	11762
637.753	12647
637.814	12351
637.875	12351
637.936	12159
637.997	12101
638.058	11548
638.119	13630
638.179	13530
638.240	12716
638.301	13392
638.362	13004
638.423	13175
638.483	13949
638.544	11999
638.605	12697
638.666	11812
638.726	12149
638.787	12919
638.848	12096
638.908	11655
638.969	12187
639.030	11967
639.090	12276
639.151	11579
639.211	11929
639.272	12032
639.332	13806
639.393	17469
639.453	12089
639.514	12573
639.574	11610
639.635	11198
639.695	10778
639.756	11367
639.816	11767
639.877	10467
639.937	12944
639.997	16261
640.058	16800
640.118	11558
640.178	11004
640.239	10224
640.299	9808
640.359	10467
640.420	10783
640.480	10338
640.540	10334
640.600	9802
640.661	10043
640.721	10198
640.781	11949
640.841	11217
640.901	10835
640.961	10255
641.021	10537
641.082	10667
641.142	10539
641.202	13555
641.262	9685
641.322	10670
641.382	10029
641.442	9836
641.502	12021
641.562	11112
641.622	10134
641.682	9931
641.742	10391
641.802	10284
641.861	10571
641.921	11025
641.981	10837
642.041	11460
642.101	12405
642.161	12446
642.221	10081
642.280	10008
642.340	9674
642.400	9500
642.460	10564
642.519	10034
642.579	10632
642.639	9801
642.698	9586
642.758	10171
642.818	9537
642.877	9603
642.937	9892
642.997	9742
643.056	11325
643.116	12954
643.175	10086
643.235	10182
643.294	9535
643.354	9487
643.414	9526
643.473	9931
643.532	9989
643.592	9505
643.651	10198
643.711	11149
643.770	14434
643.830	20270
643.889	42504
643.948	59421
644.008	14172
644.067	9045
644.126	9234
644.186	9007
644.245	10379
644.304	8049
644.363	8394
644.423	8564
644.482	8550
644.541	8831
644.600	8579
644.659	8687
644.719	9010
644.778	9780
644.837	10396
644.896	10883
644.955	13621
645.014	16598
645.073	11729
645.132	10054
645.191	10089
645.250	8263
645.309	8686
645.368	7969
645.427	9601
645.486	8569
645.545	9512
645.604	9069
645.663	8141
645.722	8623
645.781	9033
645.840	7501
645.898	9215
645.957	7993
646.016	9779
646.075	9529
646.134	12653
646.192	16429
646.251	34897
646.310	35322
646.369	10410
646.427	8029
646.486	7793
646.545	7186
646.603	8764
646.662	7586
646.721	8054
646.779	7857
646.838	6723
646.896	7028
646.955	7078
647.014	8229
647.072	8316
647.131	9016
647.189	12370
647.248	7962
647.306	7764
647.365	7440
647.423	6944
647.481	6954
647.540	7282
647.598	7901
647.657	7119
647.715	6750
647.773	8181
647.832	7568
647.890	8007
647.948	8295
648.007	8056
648.065	8059
648.123	7467
648.181	8192
648.240	7927
648.298	9718
648.356	9148
648.414	8660
648.472	8765
648.531	8008
648.589	8360
648.647	7940
648.705	7700
648.763	7848
648.821	8256
648.879	7873
648.937	7587
648.995	8240
649.053	8246
649.111	8427
649.169	9187
649.227	9344
649.285	11192
649.343	14960
649.401	27280
649.459	16072
649.516	18384
649.574	12171
649.632	14514
649.690	26717
649.748	24719
649.806	12644
649.863	15240
649.921	15947
649.979	11520
650.037	8448
650.094	6814
650.152	7111
650.210	7537
650.268	6916
650.325	7767
650.383	6692
650.440	6291
650.498	7112
650.556	8359
650.613	7417
650.671	6754
650.728	6568
650.786	7990
650.843	8781
650.901	6780
650.958	7037
651.016	7272
651.073	6188
651.131	6823
651.188	6742
651.246	8010
651.303	6590
651.360	7135
651.418	6499
651.475	7549
651.532	6640
651.590	6468
651.647	6055
651.704	7013
651.762	6901
651.819	6201
651.876	6428
651.933	7526
651.990	6523
652.048	6911
652.105	6711
652.162	7396
652.219	6365
652.276	6211
652.333	5882
652.390	5780
652.448	5644
652.505	6760
652.562	7165
652.619	6433
652.676	6709
652.733	9901
652.790	8897
652.847	5099
652.904	6114
652.961	5497
653.017	5395
653.074	5886
653.131	5153
653.188	5353
653.245	6148
653.302	6089
653.359	5973
653.415	6493
653.472	5302
653.529	6002
653.586	5728
653.642	6085
653.699	5881
653.756	5012
653.813	5895
653.869	6241
653.926	4743
653.983	5316
654.039	6018
654.096	5212
654.152	5113
654.209	5298
654.266	5874
654.322	6600
654.379	7202
654.435	7962
654.492	8286
654.548	8608
654.605	13600
654.661	19811
654.717	7611
654.774	7169
654.830	7510
654.887	7889
654.943	6253
655.000	7138
655.056	6750
655.112	6766
655.168	6741
655.225	7369
655.281	7083
655.337	9763
655.394	14327
655.450	24756
655.506	14538
655.562	13791
655.618	26206
655.675	14950
655.731	6756
655.787	6400
655.843	6662
655.899	6155
655.955	7157
656.011	6611
656.067	5526
656.123	6338
656.179	6466
656.235	7717
656.291	6095
656.347	6893
656.403	7553
656.459	7121
656.515	7295
656.571	9784
656.627	8962
656.683	6315
656.739	7437
656.795	6440
656.850	6432
656.906	6522
656.962	7339
657.018	6300
657.074	5774
657.129	6407
657.185	6417
657.241	6905
657.297	6157
657.352	7171
657.408	5693
657.464	6327
657.519	7255
657.575	6127
657.630	5784
657.686	5888
657.742	5680
657.797	6613
657.853	6015
657.908	7552
657.964	7045
658.019	5894
658.075	6473
658.130	6273
658.186	6059
658.241	5218
658.297	5920
658.352	6128
658.407	6325
658.463	6125
658.518	5676
658.573	6438
658.629	5258
658.684	5198
658.739	4682
658.795	4920
658.850	5791
658.905	5187
658.960	6303
659.016	4477
659.071	4953
659.126	5570
659.181	5554
659.236	6245
659.291	7335
659.346	7892
659.401	6537
659.457	7731
659.512	6903
659.567	8769
659.622	6147
659.677	6171
659.732	5640
659.787	6773
659.842	6271
659.897	8908
659.952	11602
660.007	6118
660.061	5909
660.116	5797
660.171	6329
660.226	5362
660.281	5484
660.336	5143
660.391	4741
660.445	5200
660.500	6239
660.555	6224
660.610	5880
660.664	6188
660.719	5587
660.774	6106
660.828	5888
660.883	6108
660.938	5579
660.992	5618
661.047	6886
661.101	5986
661.156	5059
661.211	5447
661.265	5327
661.320	5503
661.374	5293
661.429	5693
661.483	5143
661.538	5900
661.592	5423
661.647	6266
661.701	5730
661.755	6407
661.810	6520
661.864	6835
661.919	5861
661.973	6342
662.027	5208
662.081	5413
662.136	5349
662.190	6146
662.244	7426
662.299	7813
662.353	6125
662.407	6211
662.461	5157
662.515	6710
662.569	5682
662.624	6616
662.678	7028
662.732	6471
662.786	5932
662.840	6463
662.894	6540
662.948	6986
663.002	6848
663.056	5283
663.110	6184
663.164	5870
663.218	6045
663.272	5794
663.326	5625
663.380	6334
663.434	5863
663.488	6456
663.542	6769
663.595	6789
663.649	6072
663.703	7205
663.757	6341
663.811	6577
663.864	6176
663.918	6889
663.972	5758
664.026	6245
664.079	5415
664.133	6448
664.187	5599
664.240	5831
664.294	4944
664.348	5762
664.401	5690
664.455	6212
664.508	5045
664.562	6269
664.615	6669
664.669	5993
664.722	5713
664.776	5250
664.829	5002
664.883	5678
664.936	6456
664.990	7111
665.043	6193
665.097	7420
665.150	8309
665.203	7947
665.257	7338
665.310	7356
665.363	7352
665.417	6966
665.470	7596
665.523	7795
665.576	7119
665.630	7436
665.683	7091
665.736	7283
665.789	6857
665.842	6986
665.895	7236
665.949	7719
666.002	6929
666.055	7037
666.108	7178
666.161	7593
666.214	7063
666.267	7634
666.320	6074
666.373	7572
666.426	7188
666.479	6677
666.532	7781
666.585	8826
666.638	9950
666.691	11285
666.744	9959
666.796	10448
666.849	10804
666.902	9960
666.955	6369
667.008	7123
667.060	6441
667.113	6440
667.166	6515
667.219	6301
667.271	6143
667.324	6276
667.377	5738
667.430	6938
667.482	6625
667.535	8131
667.587	7796
667.640	7423
667.693	6133
667.745	8192
667.798	9573
667.850	9572
667.903	7837
667.955	7280
668.008	7223
668.060	7511
668.113	7833
668.165	9335
668.218	9013
668.270	8581
668.322	7112
668.375	8266
668.427	7465
668.479	7773
668.532	7589
668.584	7255
668.636	8715
668.689	7355
668.741	7222
668.793	8182
668.845	7158
668.898	8412
668.950	7560
669.002	7157
669.054	7557
669.106	8275
669.158	7589
669.211	8036
669.263	7313
669.315	7814
669.367	8088
669.419	8976
669.471	9397
669.523	8413
669.575	8600
669.627	10697
669.679	8823
669.731	8642
669.783	8070
669.835	8362
669.886	8791
669.938	8411
669.990	7755
670.042	7142
670.094	7104
670.146	8123
670.197	8119
670.249	8627
670.301	9604
670.353	10039
670.404	12098
670.456	15469
670.508	22298
670.560	32981
670.611	57681
670.663	101761
670.715	180456
670.766	428160
670.818	651588
670.869	159674
670.921	30583
670.972	19639
671.024	14527
671.075	12007
671.127	10849
671.178	9127
671.230	9155
671.281	9142
671.333	8703
671.384	8223
671.436	8733
671.487	9572
671.538	8701
671.590	9505
671.641	9721
671.692	10697
671.744	9056
671.795	11919
671.846	10113
671.897	8331
671.949	8911
672.000	8510
672.051	8351
672.102	8779
672.153	8119
672.204	7974
672.256	7654
672.307	8672
672.358	8484
672.409	8763
672.460	8074
672.511	7316
672.562	6849
672.613	7691
672.664	7434
672.715	7708
672.766	6659
672.817	7830
672.868	7243
672.919	7310
672.970	7024
673.021	7689
673.071	6944
673.122	7373
673.173	6092
673.224	7460
673.275	6363
673.326	7519
673.376	7155
673.427	6749
673.478	6788
673.528	7357
673.579	6362
673.630	6066
673.680	7218
673.731	7643
673.782	6658
673.832	6453
673.883	6426
673.934	7372
673.984	6627
674.035	6693
674.085	6754
674.136	7390
674.186	7376
674.237	8851
674.287	9691
674.338	16740
674.388	8370
674.438	6765
674.489	5981
674.539	6426
674.589	7883
674.640	7194
674.690	7003
674.740	7050
674.791	8691
674.841	8885
674.891	8186
674.942	7509
674.992	6141
675.042	6358
675.092	5812
675.142	5959
675.193	6876
675.243	6841
675.293	5849
675.343	7523
675.393	7061
675.443	7454
675.493	6601
675.543	5478
675.593	6611
675.643	7022
675.693	6686
675.743	6395
675.793	7005
675.843	6139
675.893	5861
675.943	5972
675.993	5854
676.043	6334
676.093	6858
676.142	6488
676.192	5517
676.242	5666
676.292	6390
676.341	6217
676.391	7098
676.441	7233
676.491	5962
676.540	6207
676.590	6156
676.640	6007
676.689	6321
676.739	5477
676.789	5450
676.838	5052
676.888	5255
676.937	5455
676.987	6672
677.037	5287
677.086	5097
677.136	4337
677.185	5036
677.235	5600
677.284	4093
677.333	5270
677.383	5342
677.432	5258
677.482	5332
677.531	5747
677.580	4833
677.630	5699
677.679	5009
677.728	5121
677.778	5552
677.827	5759
677.876	5057
677.925	4737
677.975	4450
678.024	5627
678.073	5372
678.122	5212
678.171	5784
678.220	6035
678.269	5781
678.319	6573
678.368	6226
678.417	6710
678.466	6678
678.515	6485
678.564	6154
678.613	7079
678.662	5587
678.711	5505
678.760	6768
678.809	6376
678.857	5405
678.906	6028
678.955	5674
679.004	6245
679.053	6195
679.102	5196
679.151	6191
679.199	6302
679.248	5489
679.297	5321
679.346	6439
679.394	5943
679.443	6189
679.492	5629
679.540	4343
679.589	5495
679.638	6444
679.686	5479
679.735	5138
679.784	5375
679.832	4805
679.881	5905
679.929	4910
679.978	4400
680.026	5298
680.075	5308
680.123	5503
680.172	4646
680.220	5310
680.268	4199
680.317	5677
680.365	4612
680.414	3959
680.462	4830
680.510	5402
680.559	5306
680.607	4580
680.655	4230
680.703	4585
680.752	4702
680.800	5215
680.848	3491
680.896	4840
680.945	3577
680.993	4195
681.041	5161
681.089	4321
681.137	4132
681.185	3033
681.233	4570
681.258	4602
681.281	4590
681.329	4540
681.377	4264
681.380	4354
681.425	5207
681.473	4741
681.502	5433
681.521	5843
681.569	5507
681.617	5151
681.624	5282
681.665	5773
681.713	6078
681.745	5710
681.761	5464
681.809	5046
681.857	6122
681.867	5981
681.904	5314
681.952	5136
681.989	5231
682.000	5209
682.048	6505
682.096	5915
682.111	6007
682.143	6053
682.191	6170
682.233	5739
682.239	5631
682.286	6256
682.334	6506
682.354	6707
682.382	6888
682.430	5733
682.476	6908
682.477	6894
682.525	6796
682.572	6431
682.598	6457
682.620	6383
682.667	6576
682.715	6401
682.720	6489
682.763	7027
682.810	7505
682.841	7118
682.857	6857
682.905	6495
682.952	7194
682.963	7205
683.000	7041
683.047	7437
683.085	7171
683.095	7073
683.142	6983
683.190	7186
683.206	7291
683.237	7329
683.284	7946
683.328	7518
683.332	7454
683.379	7093
683.426	7618
683.449	7707
683.473	7760
683.521	8002
683.568	7926
683.571	7921
683.615	7374
683.662	6766
683.693	6989
683.709	7070
683.757	8510
683.804	8385
683.814	8289
683.851	7820
683.898	8559
683.936	8195
683.945	8076
683.992	8123
684.039	8168
684.057	8322
684.086	8475
684.133	8339
684.179	8645
684.180	8633
684.227	8961
684.274	9279
684.300	9111
684.321	8876
684.368	9034
684.415	8428
684.422	8541
684.462	9112
684.509	8925
684.543	9363
684.556	9476
684.603	8827
684.649	9100
684.665	9008
684.696	8847
684.743	8694
684.786	9366
684.790	9406
684.837	9581
684.883	10067
684.908	10487
684.930	10957
684.977	11185
685.023	12375
685.029	12363
685.070	11801
685.117	11742
685.150	11413
685.164	11170
685.210	11794
685.257	12365
685.272	12240
685.303	12330
685.350	11513
685.393	12177
685.396	12170
685.443	12777
685.490	12323
685.514	12023
685.536	11909
685.583	12841
685.629	12229
685.636	12300
685.675	12429
685.722	12506
685.757	11735
685.768	11452
685.815	12502
685.861	12590
685.878	12447
685.908	12450
685.954	12602
686.000	13070
686.000	13065
686.047	13817
686.093	14240
686.121	15126
686.139	16047
686.185	16374
686.232	16840
686.242	17016
686.278	15853
686.324	15425
686.363	14423
686.370	14312
686.416	13737
686.463	12943
686.484	12999
686.509	13383
686.555	12863
686.601	13396
686.606	13403
686.647	13385
686.693	13832
686.727	13219
686.739	12936
686.785	12956
686.831	13203
686.848	13019
686.877	12786
686.923	12946
686.969	13223
686.969	13222
687.015	12705
687.061	12493
687.090	12919
687.107	13285
687.153	13372
687.199	13595
687.211	13760
687.245	13987
687.291	13535
687.332	13531
687.336	13558
687.382	14283
687.428	15044
687.453	14901
687.474	14734
687.520	14329
687.565	14651
687.574	14759
687.611	14745
687.657	13900
687.695	13658
687.702	13681
687.748	13953
687.794	13941
687.816	14116
687.839	14444
687.885	14086
687.931	14037
687.937	14114
687.976	14020
688.022	13649
688.058	13358
688.067	13422
688.113	14032
688.158	14266
688.179	14237
688.204	14162
688.249	14454
688.295	14162
688.300	14246
688.340	14764
688.386	15147
688.421	15053
688.431	15133
688.477	14958
688.522	16108
688.542	15986
688.567	15455
688.613	15243
688.658	14853
688.663	14786
688.703	14698
688.749	14555
688.784	15325
688.794	15569
688.839	15562
688.884	15731
688.905	15779
688.930	15729
688.975	15492
689.020	15313
689.026	15378
689.065	15964
689.110	15160
689.146	15406
689.155	15536
689.201	15651
689.246	15625
689.267	15624
689.291	15317
689.336	15398
689.381	14687
689.388	14625
689.426	15085
689.471	15399
689.509	15468
689.516	15424
689.561	15257
689.606	15324
689.630	15225
689.651	15080
689.696	14893
689.741	14770
689.750	14733
689.785	15181
689.830	15521
689.871	15572
689.875	15539
689.920	15221
689.965	14798
689.992	14579
690.010	14652
690.054	15096
690.099	15313
690.112	15370
690.144	15473
690.189	15409
690.233	15173
690.233	15192
690.278	15696
690.323	15592
690.354	15601
690.367	15597
690.412	16025
690.457	15335
690.474	15534
690.501	16169
690.546	16498
690.590	16645
690.595	16650
690.635	16648
690.680	17097
690.716	16742
690.724	16806
690.769	18052
690.813	18863
690.836	19252
690.857	19930
690.902	21202
690.946	23040
690.957	23413
690.991	26421
691.035	30611
691.077	35277
691.080	36027
691.124	50573
691.168	60854
691.198	67644
691.213	67143
691.257	66305
691.301	66346
691.318	66143
691.346	59163
691.390	47954
691.434	36138
691.439	34809
691.478	30612
691.522	26050
691.559	22153
691.567	22081
691.611	21357
691.655	20757
691.680	20106
691.699	19837
691.743	19536
691.787	19140
691.800	18911
691.831	18778
691.875	18805
691.919	19399
691.921	19362
691.964	19356
692.008	19473
692.041	19648
692.052	19818
692.096	20236
692.139	20784
692.162	20885
692.183	20624
692.227	19975
692.271	19936
692.282	19799
692.315	19594
692.359	19417
692.402	18935
692.403	18969
692.447	19070
692.490	19388
692.523	19192
692.534	19157
692.578	19576
692.622	19626
692.643	19453
692.666	19421
692.709	19676
692.753	19664
692.763	19709
692.797	19704
692.840	19621
692.884	19103
692.884	19137
692.928	19110
692.971	18893
693.004	18759
693.015	18885
693.059	19024
693.102	19272
693.124	19262
693.146	19317
693.189	19421
693.233	19789
693.245	19794
693.276	20190
693.320	21049
693.363	21555
693.365	21523
693.407	22247
693.450	23448
693.485	24090
693.493	24416
693.537	26104
693.580	27770
693.605	28683
693.624	30067
693.667	33083
693.710	36358
693.725	37537
693.753	43585
693.797	52841
693.840	63607
693.845	64883
693.883	91634
693.926	119005
693.966	141916
693.970	141742
694.013	138814
694.056	136470
694.086	134647
694.099	125929
694.142	97392
694.185	68872
694.206	55068
694.229	51011
694.272	43203
694.315	35500
694.326	33352
694.358	31822
694.401	29951
694.444	27842
694.446	27669
694.487	26219
694.530	25088
694.566	23806
694.573	23708
694.616	22984
694.659	21983
694.686	21549
694.702	21447
694.745	20423
694.787	19872
694.806	19594
694.830	19355
694.873	18665
694.916	17965
694.926	17807
694.959	18404
695.002	18930
695.044	19442
695.046	19426
695.087	18965
695.130	18096
695.166	17546
695.172	17700
695.215	18538
695.258	19214
695.286	19500
695.301	19532
695.343	19734
695.386	20046
695.406	19980
695.428	19714
695.471	19452
695.514	18964
695.526	18769
695.556	18465
695.599	18209
695.641	17819
695.646	17721
695.684	17831
695.726	18147
695.766	18116
695.769	18134
695.811	18059
695.854	17804
695.886	17683
695.896	17892
695.938	18231
695.981	18780
696.005	19097
696.023	19031
696.065	18656
696.108	18275
696.125	18089
696.150	18017
696.192	17947
696.235	17691
696.245	17603
696.277	18135
696.319	18712
696.361	19330
696.365	19340
696.404	19213
696.446	18924
696.485	18603
696.488	18660
696.530	18816
696.572	18974
696.604	19048
696.614	19116
696.656	19217
696.698	19192
696.724	19279
696.740	19161
696.783	18536
696.825	17962
696.844	17664
696.867	17678
696.909	17651
696.951	17403
696.964	17361
696.992	17616
697.034	17788
697.076	18000
697.083	17974
697.118	17824
697.160	17754
697.202	17583
697.203	17532
697.244	17439
697.286	17274
697.323	17143
697.327	17199
697.369	17196
697.411	17278
697.442	17273
697.453	17237
697.494	17000
697.536	16615
697.562	16361
697.578	16716
697.620	17528
697.661	18377
697.682	18762
697.703	18631
697.744	18156
697.786	17796
697.801	17599
697.828	17686
697.869	17778
697.911	17843
697.921	17793
697.952	17796
697.994	17833
698.035	17865
698.040	17820
698.077	17936
698.118	17948
698.160	18056
698.160	18007
698.201	17625
698.243	17182
698.279	16767
698.284	16835
698.325	17035
698.367	17242
698.399	17340
698.408	17437
698.449	17671
698.491	17906
698.518	18004
698.532	17937
698.573	17619
698.614	17276
698.638	17028
698.656	17142
698.697	17315
698.738	17475
698.757	17510
698.779	17585
698.820	17636
698.862	17661
698.877	17629
698.903	17981
698.944	18469
698.985	18949
698.996	19033
699.026	19165
699.067	19276
699.116	19358
699.235	18740
699.354	17430
699.474	16722
699.593	18085
699.713	21944
699.832	19568
699.951	17805
700.070	18294
700.190	16091
700.309	18293
700.428	17983
700.547	20523
700.667	17593
700.786	18442
700.905	20375
701.024	17717
701.143	19021
701.262	17775
701.381	13765
701.500	15752
701.619	16653
701.738	15611
701.857	15397
701.976	14217
702.095	14120
702.214	14551
702.333	15388
702.452	15282
702.571	15024
702.690	14260
702.809	15175
702.928	14670
703.047	13611
703.165	14990
703.284	13610
703.403	14429
703.522	14504
703.640	17366
703.759	16989
703.878	20052
703.997	29684
704.115	17195
704.234	14614
704.353	13716
704.471	13505
704.590	12560
704.708	12667
704.827	13390
704.946	12615
705.064	14296
705.183	15803
705.301	13730
705.420	18897
705.538	30208
705.656	26523
705.775	21509
705.893	20746
706.012	31522
706.130	39674
706.249	22858
706.367	22304
706.485	21766
706.604	23372
706.722	22620
706.840	21072
706.958	24958
707.077	24402
707.195	20680
707.313	19535
707.431	19227
707.549	19591
707.668	19387
707.786	18871
707.904	19231
708.022	19135
708.140	18313
708.258	18129
708.376	18068
708.494	17840
708.612	18531
708.730	20789
708.848	32336
708.966	30032
709.084	26774
709.202	23994
709.320	24266
709.438	24798
709.556	25372
709.674	25660
709.791	25018
709.909	25561
710.027	24395
710.145	24485
710.263	23302
710.380	24480
710.498	24866
710.616	23822
710.733	23906
710.851	24210
710.969	25921
711.086	25215
711.204	23486
711.322	22597
711.439	24084
711.557	22955
711.674	25371
711.792	22436
711.909	23384
712.027	22424
712.144	23766
712.262	21522
712.379	21518
712.497	25237
712.614	37617
712.732	37461
712.849	29275
712.966	28303
713.084	29687
713.201	33826
713.318	30746
713.436	28940
713.553	28783
713.670	30075
713.787	29418
713.905	32068
714.022	34687
714.139	27831
714.256	28436
714.373	27294
714.490	27513
714.608	27353
714.725	27754
714.842	40972
714.959	43046
715.076	26407
715.193	24535
715.310	24507
715.427	24458
715.544	24192
715.661	22584
715.778	23227
715.895	23859
716.011	27231
716.128	26643
716.245	24299
716.362	24280
716.479	23919
716.596	25114
716.713	22391
716.829	24118
716.946	22211
717.063	23616
717.180	21843
717.296	21980
717.413	21233
717.530	21887
717.646	20529
717.763	20617
717.880	21117
717.996	20181
718.113	20525
718.229	20511
718.346	19619
718.462	19395
718.579	20205
718.695	20170
718.812	23650
718.928	28175
719.045	29908
719.161	23489
719.277	18071
719.394	17753
719.510	17403
719.626	19927
719.743	19535
719.859	23845
719.975	19321
720.092	19112
720.208	21525
720.324	26422
720.440	20274
720.557	18180
720.673	21582
720.789	25260
720.905	41614
721.021	108236
721.137	38506
721.253	19585
721.369	19113
721.486	19612
721.602	22842
721.718	34987
721.834	18266
721.950	15189
722.066	16736
722.181	16714
722.297	15746
722.413	16382
722.529	15514
722.645	15771
722.761	15536
722.877	15417
722.993	15666
723.108	15461
723.224	15466
723.340	14666
723.456	16158
723.571	15274
723.687	15734
723.803	14983
723.918	14297
724.034	13782
724.150	14505
724.265	15220
724.381	17406
724.497	37415
724.612	53933
724.728	15304
724.843	14013
724.959	14736
725.074	17240
725.190	36039
725.305	46852
725.421	16101
725.536	14437
725.651	12643
725.767	12387
725.882	13006
725.997	11815
726.113	12426
726.228	11626
726.343	11023
726.459	12381
726.574	10996
726.689	12782
726.804	12401
726.920	11174
727.035	12574
727.150	12243
727.265	12858
727.380	11584
727.495	12337
727.610	11508
727.725	9822
727.841	11440
727.956	12311
728.071	18862
728.186	18285
728.301	10312
728.416	9855
728.531	10854
728.645	10337
728.760	10540
728.875	10720
728.990	11835
729.105	11856
729.220	11163
729.335	10194
729.449	9666
729.564	10156
729.679	9442
729.794	8788
729.908	9602
730.023	11664
730.138	9290
730.253	9484
730.367	9345
730.482	9253
730.596	8226
730.711	9207
730.826	9213
730.940	8537
731.055	9077
731.169	8897
731.284	8045
731.398	8236
731.513	8602
731.627	10248
731.742	10123
731.856	11459
731.970	13466
732.085	7973
732.199	8738
732.313	7768
732.428	7744
732.542	7700
732.656	11464
732.771	10182
732.885	6793
732.999	8275
733.113	7908
733.227	9004
733.342	9094
733.456	6791
733.570	7068
733.684	7476
733.798	6872
733.912	8481
734.026	6667
734.140	6841
734.254	7081
734.368	9203
734.482	17288
734.596	27264
734.710	8163
734.824	6620
734.938	6697
735.052	6880
735.166	6860
735.280	9020
735.393	8083
735.507	6643
735.621	7558
735.735	11395
735.849	25407
735.962	10907
736.076	5972
736.190	7232
736.303	8715
736.417	12019
736.531	19147
736.644	8207
736.758	7776
736.872	5604
736.985	6199
737.099	6563
737.212	5834
737.326	5712
737.439	6165
737.553	6005
737.666	4984
737.780	5359
737.893	5727
738.007	5487
738.120	4932
738.233	5572
738.347	5622
738.460	5095
738.573	5443
738.687	6383
738.800	6218
738.913	6095
739.026	5727
739.140	6174
739.253	6185
739.366	5551
739.479	5950
739.592	5315
739.705	4984
739.818	4843
739.932	5916
740.045	5571
740.158	5870
740.271	4598
740.384	5058
740.497	5323
740.610	5311
740.723	6379
740.836	6189
740.949	6383
741.062	5567
741.174	6709
741.287	6453
741.400	5300
741.513	5432
741.626	5084
741.739	6908
741.851	5698
741.964	5706
742.077	5794
742.189	5251
742.302	5437
742.415	6455
742.527	6239
742.640	5335
742.753	5528
742.865	4561
742.978	4569
743.090	4433
743.203	4683
743.316	4956
743.428	4438
743.541	4312
743.653	4604
743.766	3710
743.878	4353
743.990	5007
744.103	8155
744.215	7138
744.327	4514
744.440	5174
744.552	4806
744.664	6085
744.777	3611
744.889	4035
745.001	4340
745.113	4156
745.226	4579
745.338	5112
745.450	3996
745.562	3569
745.674	3698
745.786	4043
745.898	3659
746.010	3741
746.122	4836
746.234	4304
746.347	4495
746.459	3663
746.570	4663
746.682	4081
746.794	4439
746.906	4185
747.018	4172
747.130	4775
747.242	3971
747.354	4005
747.466	4669
747.577	4317
747.689	4166
747.801	4456
747.913	3174
748.024	3712
748.136	3448
748.248	2953
748.359	3990
748.471	4073
748.583	3461
748.694	3883
748.806	5072
748.918	5417
749.029	7921
749.141	5276
749.252	4142
749.364	4136
749.475	4333
749.587	6204
749.698	7638
749.809	4427
749.921	3596
750.032	3986
750.144	3387
750.255	3685
750.366	3967
750.478	3706
750.589	3996
750.700	3125
750.811	3968
750.923	3911
751.034	3878
751.145	5779
751.256	6305
751.367	3254
751.479	3770
751.590	3602
751.701	3785
751.812	3735
751.923	3973
752.034	3642
752.145	3486
752.256	3568
752.367	3204
752.478	3322
752.589	3228
752.700	3931
752.811	3331
752.922	3893
753.032	3269
753.143	3268
753.254	4328
753.365	4393
753.476	4021
753.586	3345
753.697	4072
753.808	3930
753.919	4185
754.029	4111
754.140	4027
754.251	2875
754.361	3101
754.472	4069
754.582	3089
754.693	3849
754.804	3778
754.914	3462
755.025	3258
755.135	3141
755.246	4215
755.356	3765
755.466	3446
755.577	3213
755.687	3993
755.798	3968
755.908	3727
756.018	3713
756.129	4095
756.239	3809
756.349	4118
756.460	2715
756.570	4163
756.680	3284
756.790	4014
756.900	4040
757.011	4020
757.121	3668
757.231	3699
757.341	4163
757.451	3387
757.561	3501
757.671	3515
757.781	4061
757.891	4541
758.001	4282
758.111	5910
758.221	4244
758.331	3506
758.441	4428
758.551	4597
758.661	4750
758.771	5501
758.880	4760
758.990	4922
759.100	6112
759.210	6249
759.320	5419
759.429	5804
759.539	4344
759.649	4189
759.758	5607
759.868	6193
759.978	5304
760.087	5622
760.197	5606
760.307	5262
760.416	5145
760.526	5547
760.635	5647
760.745	6424
760.854	6310
760.964	6717
761.073	6016
761.182	6577
761.292	6639
761.401	6176
761.511	8225
761.620	7515
761.729	5947
761.839	7722
761.948	7989
762.057	8264
762.166	7493
762.276	6879
762.385	8627
762.494	7127
762.603	7613
762.712	8228
762.822	9607
762.931	9189
763.040	9779
763.149	9233
763.258	10543
763.367	11568
763.476	10720
763.585	11023
763.694	12812
763.803	11978
763.912	13456
764.021	14628
764.130	14237
764.238	14085
764.347	16498
764.456	17583
764.565	18629
764.674	20384
764.783	20405
764.891	22226
765.000	25866
765.109	28699
765.217	32178
765.326	36580
765.435	42321
765.543	53300
765.652	61528
765.761	76433
765.869	98923
765.978	134882
766.086	194862
766.195	298568
766.303	489023
766.412	791336
766.520	813601
766.629	711941
766.737	720086
766.846	451844
766.954	281560
767.062	188238
767.171	132358
767.279	101327
767.387	76940
767.496	61576
767.604	51218
767.712	44254
767.820	38618
767.928	34990
768.037	31736
768.145	29914
768.253	28529
768.361	27552
768.469	26015
768.577	25907
768.685	26597
768.793	27576
768.901	29741
769.009	32168
769.117	37214
769.225	45117
769.333	57853
769.441	79672
769.549	119566
769.657	200591
769.765	384032
769.873	705216
769.981	688091
770.088	618734
770.196	356572
770.304	190084
770.412	121056
770.519	84510
770.627	62021
770.735	49766
770.842	39843
770.950	32838
771.058	28683
771.165	25701
771.273	22912
771.380	21659
771.488	18476
771.595	16994
771.703	15971
771.810	15112
771.918	14631
772.025	13024
772.133	11784
772.240	12474
772.348	11576
772.455	10510
772.562	10100
772.670	10487
772.777	10046
772.884	9592
772.991	9057
773.099	8928
773.206	8801
773.313	8199
773.420	7905
773.528	7660
773.635	7658
773.742	7478
773.849	7361
773.956	7342
774.063	7254
774.170	6784
774.277	6427
774.384	6599
774.491	7130
774.598	7001
774.705	6888
774.812	6414
774.919	6906
775.026	6477
775.133	7314
775.239	6388
775.346	5728
775.453	6270
775.560	6219
775.667	5248
775.773	6537
775.880	6475
775.987	5669
776.093	6141
776.200	4839
776.307	4714
776.413	5952
776.520	4641
776.627	5455
776.733	5209
776.840	5036
776.946	4674
777.053	4247
777.159	4978
777.266	6369
777.372	5051
777.478	6032
777.585	5648
777.691	5151
777.798	4098
777.904	4677
778.010	5340
778.117	6025
778.223	5840
778.329	4981
778.435	5010
778.542	5590
778.648	3299
778.754	3911
778.860	4660
778.966	3637
779.072	4791
779.178	5393
779.284	4327
779.391	4054
779.497	4578
779.603	5915
779.708	5832
779.815	9364
779.920	18121
780.026	60572
780.132	131508
780.238	24965
780.344	6411
780.450	5443
780.556	4781
780.661	4717
780.767	4221
780.873	3606
780.979	3786
781.085	4661
781.190	3612
781.296	3916
781.402	3918
781.507	3297
781.613	3170
781.719	3713
781.824	3799
781.930	3726
782.035	4212
782.141	3990
782.246	3736
782.352	4412
782.457	3230
782.563	2922
782.668	3737
782.773	3141
782.879	2552
782.984	3736
783.090	3686
783.195	3717
783.300	4111
783.405	4686
783.511	3830
783.616	4228
783.721	3271
783.826	3717
783.932	3580
784.037	3595
784.142	3420
784.247	3868
784.352	4059
784.457	2811
784.562	3390
784.667	3778
784.772	3630
784.877	3284
784.982	3009
785.087	2967
785.192	3368
785.297	3307
785.402	3347
785.507	2073
785.611	3379
785.716	3052
785.821	2739
785.926	3173
786.031	3343
786.135	2873
786.240	3452
786.345	2476
786.450	2465
786.554	1802
786.659	1716
786.763	2457
786.868	3110
786.973	1995
787.077	3071
787.182	2356
787.286	2769
787.391	2793
787.495	2776
787.600	2864
787.704	2252
787.809	2117
787.913	2190
788.017	2691
788.122	2522
788.226	2402
788.330	2187
788.435	2548
788.539	2849
788.643	2709
788.747	1688
788.852	1842
788.956	1616
789.060	2348
789.164	2226
789.268	2157
789.372	1896
789.476	1680
789.580	3028
789.684	2158
789.788	2446
789.892	2067
789.996	2529
790.100	2373
790.204	1814
790.308	1601
790.412	2305
790.516	2306
790.620	2510
790.724	2968
790.828	2533
790.931	1754
791.035	2220
791.139	2353
791.242	2295
791.346	2084
791.450	2326
791.554	1833
791.657	2034
791.761	2458
791.864	3133
791.968	2826
792.072	2346
792.175	2121
792.279	1769
792.382	1667
792.486	2607
792.589	2354
792.693	2294
792.796	2462
792.899	1659
793.003	2105
793.106	1263
793.209	1848
793.313	1980
793.416	2290
793.519	1497
793.623	1612
793.726	1843
793.829	3486
793.932	2038
794.035	1884
794.138	2270
794.242	2176
794.345	2302
794.448	4206
794.551	5381
794.654	10861
794.757	30066
794.860	69599
794.963	18055
795.066	4269
795.169	2249
795.272	2437
795.375	2061
795.477	1265
795.580	2167
795.683	1555
795.786	1599
795.889	1450
795.991	2015
796.094	2057
796.197	2520
796.300	2915
796.402	898
796.505	1662
796.608	1824
796.710	1460
796.813	2033
796.915	1307
797.018	1840
797.120	1142
797.223	1856
797.326	1297
797.428	968
797.530	1672
797.633	1522
797.735	1932
797.838	2084
797.940	6690
798.042	6106
798.145	1819
798.247	1468
798.349	1230
798.452	620
798.554	1194
798.656	615
798.758	866
798.860	1625
798.962	1314
799.065	1243
799.167	771
799.269	1360
799.371	1851
799.473	921
799.575	917
799.677	2278
799.779	3510
799.881	2845
799.983	1824
800.085	1394
800.187	826
800.289	1162
800.390	1421
800.492	1920
800.594	1038
800.696	1331
800.798	1470
800.899	767
801.001	628
801.103	635
801.205	1133
801.306	785
801.408	1276
801.509	726
801.611	684
801.713	902
801.814	711
801.916	851
802.017	-13
802.119	1022
802.220	1200
802.322	510
802.423	1505
802.525	2688
802.626	3301
802.727	796
802.829	926
802.930	402
803.031	1268
803.133	519
803.234	649
803.335	493
803.436	406
803.538	855
803.639	1317
803.740	83
803.841	15
803.942	72
804.043	597
804.144	1149
804.245	531
804.346	915
804.447	601
804.548	699
804.649	459
804.750	1168
804.851	529
804.952	1067
805.053	552
805.154	1129
805.255	552
805.355	-9
805.456	697
805.557	329
805.658	493
805.758	1044
805.859	836
805.960	591
806.061	606
806.161	603
806.262	312
806.362	248
806.463	1101
806.564	976
806.664	548
806.765	1192
806.865	2464
806.966	2539
807.066	1082
807.166	512
807.267	556
807.367	370
807.468	939
807.568	473
807.668	784
807.769	1133
807.869	842
807.969	739
808.069	-149
808.170	902
808.270	616
808.370	-333
808.470	625
808.570	1444
808.670	134
808.770	690
808.870	324
808.970	103
809.070	912
809.170	709
809.271	280
809.370	-10
809.470	455
809.570	652
809.670	141
809.770	59
809.870	652
809.970	1344
810.070	27
810.169	439
810.269	-224
810.369	786
810.469	-75
810.568	-504
810.668	-81
810.768	-282
810.867	171
810.967	585
811.066	-244
811.166	281
811.265	164
811.365	187
811.464	319
811.564	416
811.663	-116
811.763	-8
811.862	667
811.962	320
812.061	-148
812.160	441
812.260	-200
812.359	77
812.458	24
812.557	781
812.657	1614
812.756	4104
812.855	1345
812.954	677
813.053	213
813.153	594
813.252	322
813.351	524
813.450	325
813.549	-53
813.648	-232
813.747	108
813.846	423
813.945	343
814.044	161
814.143	726
814.242	-422
814.341	-350
814.439	60
814.538	-47
814.637	-25
814.736	271
814.835	-181
814.933	622
815.032	340
815.131	799
815.229	243
815.328	945
815.427	-27
815.525	909
815.624	447
815.722	497
815.821	964
815.919	-305
816.018	-44
816.116	135
816.215	495
816.313	395
816.412	357
816.510	385
816.609	-124
816.707	285
816.805	231
816.904	-239
817.002	360
817.100	1099
817.198	325
817.296	790
817.395	295
817.493	979
817.591	1088
817.689	1216
817.787	1172
817.885	2362
817.983	4247
818.081	7994
818.179	16227
818.277	41345
818.375	110916
818.473	126803
818.571	34752
818.669	10850
818.767	6329
818.865	5260
818.963	5286
819.061	4991
819.158	8301
819.256	16642
819.354	35560
819.452	86960
819.549	216708
819.647	181144
819.745	46498
819.842	14651
819.940	8245
820.038	5776
820.135	3897
820.233	3002
820.330	1771
820.428	1412
820.525	1640
820.623	814
820.720	363
820.818	1352
820.915	728
821.012	1212
821.110	564
821.207	530
821.304	657
821.402	618
821.499	-47
821.596	655
821.693	712
821.791	1106
821.888	884
821.985	1163
822.082	1493
822.179	1640
822.276	222
822.373	307
822.470	435
822.567	621
822.664	378
822.761	401
822.858	-17
822.955	278
823.052	306
823.149	39
823.246	-60
823.343	108
823.440	-187
823.536	-126
823.633	-13
823.730	-652
823.827	534
823.923	-357
824.020	377
824.117	139
824.213	99
824.310	412
824.407	-155
824.503	552
824.600	-205
824.696	-157
824.793	-599
824.889	-310
824.986	-372
825.082	-2
825.179	491
825.275	218
825.371	-68
825.468	428
825.564	-426
825.660	-84
825.757	265
825.853	-843
825.949	212
826.045	-44
826.142	-279
826.238	179
826.334	376
826.430	179
826.526	416
826.622	-257
826.718	-323
826.814	0
826.910	219
827.006	-819
827.102	-129
827.198	-33
827.294	-309
827.390	570
827.486	-460
827.582	-233
827.678	-604
827.774	42
827.869	-679
827.965	667
828.061	-226
828.157	-7
828.252	376
828.348	-739
828.444	-700
828.539	142
828.635	-185
828.731	-561
828.826	-724
828.922	-78
829.017	-522
829.113	-28
829.208	-375
829.304	-330
829.399	270
829.495	-275
829.590	-841
829.685	-324
829.781	148
829.876	82
829.971	-802
830.066	-987
830.162	92
830.257	74
830.352	-607
830.447	367
830.543	-285
830.638	-168
830.733	550
830.828	435
830.923	388
831.018	-135
831.113	-131
831.208	-354
831.303	441
831.398	354
831.493	-100
831.588	-384
831.683	-623
831.778	-822
831.873	-235
831.967	83
832.062	-592
832.157	-695
832.252	-150
832.346	60
832.441	-186
832.536	-79
832.631	349
832.725	915
832.820	1015
832.914	-238
833.009	-468
833.104	-539
833.198	-328
833.293	344
833.387	-28
833.482	189
833.576	410
833.670	-13
833.765	155
833.859	-434
833.954	-279
834.048	-200
834.142	26
834.237	-864
834.331	-867
834.425	-462
834.519	-333
834.613	-259
834.708	-839
834.802	57
834.896	-516
834.990	-19
835.084	-391
835.178	-204
835.272	-220
835.366	58
835.460	347
835.554	-65
835.648	-344
835.742	-139
835.836	-546
835.930	-864
836.024	-536
836.117	-147
836.211	106
836.305	1133
836.399	2159
836.493	3302
836.586	1237
836.680	-72
836.774	-733
836.867	234
836.961	-495
837.055	-362
837.148	-942
837.242	-562
837.335	175
837.429	199
837.522	535
837.616	885
837.709	912
837.803	2968
837.896	3739
837.989	554
838.083	443
838.176	2053
838.269	4792
838.363	7099
838.456	-38
838.549	-634
838.642	886
838.735	-91
838.829	1671
838.922	893
839.015	339
839.108	-15
839.201	-16
839.294	-219
839.387	41
839.480	409
839.573	37
839.666	1072
839.759	2645
839.852	-57
839.945	-572
840.038	-768
840.131	69
840.223	-182
840.316	246
840.409	-724
840.502	-233
840.594	-62
840.687	-991
840.780	-473
840.873	-635
840.965	105
841.058	1026
841.150	1380
841.243	4239
841.336	4052
841.428	956
841.521	183
841.613	-72
841.706	-541
841.798	272
841.890	124
841.983	-182
842.075	41
842.167	-142
842.260	-524
842.352	130
842.444	709
842.537	2621
842.629	5388
842.721	10635
842.813	2576
842.905	-19
842.997	84
843.090	297
843.182	1033
843.274	1050
843.366	5754
843.458	12538
843.550	31506
843.642	24408
843.734	3671
843.826	887
843.918	1796
844.009	1583
844.101	155
844.193	-618
844.285	-336
844.377	311
844.469	-189
844.560	-15
844.652	-842
844.744	550
844.835	617
844.927	267
845.019	313
845.110	1117
845.202	1726
845.293	-540
845.385	-141
845.476	-397
845.568	224
845.659	-588
845.751	171
845.842	75
845.934	-104
846.025	-434
846.116	206
846.208	-100
846.299	-67
846.390	-392
846.482	19
846.573	51
846.664	687
846.755	573
846.846	2540
846.937	1861
847.029	-15
847.120	128
847.211	-85
847.302	157
847.393	130
847.484	-351
847.575	18
847.666	-815
847.757	-678
847.847	-333
847.938	198
848.029	-239
848.120	-573
848.211	42
848.302	-167
848.392	-478
848.483	225
848.574	-38
848.664	399
848.755	-602
848.846	39
848.936	-422
849.027	-638
849.118	-594
849.208	-152
849.299	-594
849.389	-384
849.480	-28
849.570	133
849.661	933
849.751	355
849.841	33
849.932	137
850.022	-397
850.112	664
850.203	312
850.293	-422
850.383	95
850.474	-703
850.564	-513
850.654	-45
850.744	105
850.834	-81
850.924	-1281
851.014	-618
851.104	-501
851.194	-272
851.284	-332
851.374	470
851.464	-62
851.554	121
851.644	-17
851.734	999
851.824	902
851.914	1850
852.004	254
852.094	957
852.183	1379
852.273	271
852.363	-11
852.452	-239
852.542	-133
852.632	-166
852.721	-608
852.811	-538
852.901	-152
852.990	-23
853.080	-752
853.169	-621
853.259	-474
853.348	-519
853.438	-630
853.527	-735
853.617	-967
853.706	-645
853.795	-667
853.885	-9
853.974	911
854.063	1737
854.152	2725
854.242	6017
854.331	2578
854.420	48
854.509	-664
854.598	-351
854.687	-73
854.777	599
854.866	950
854.955	471
855.044	-150
855.133	-777
855.222	-47
855.311	-607
855.400	-899
855.488	-567
855.577	-348
855.666	-123
855.755	-68
855.844	-872
855.933	-200
856.021	-244
856.110	-528
856.199	-1600
856.288	-973
856.376	299
856.465	33
856.554	91
856.642	-729
856.731	-187
856.819	-69
856.908	-590
856.996	-215
857.085	-431
857.173	-244
857.262	-551
857.350	-208
857.438	-822
857.527	-643
857.615	-450
857.703	-51
857.792	-586
857.880	-199
857.968	-312
858.056	-188
858.145	-416
858.233	-461
858.321	-1251
858.409	-133
858.497	-1462
858.585	-1108
858.673	-536
858.761	-796
858.849	-901
858.937	-878
859.025	-852
859.113	-488
859.201	-854
859.289	361
859.377	-404
859.465	-874
859.552	-546
859.640	-761
859.728	-1219
859.816	-369
859.903	-727
859.991	-830
860.079	-525
860.166	-3
860.254	-377
860.342	663
860.429	-1003
860.517	-1045
860.604	-1231
860.692	-1134
860.779	-837
860.867	-884
860.954	-678
861.042	-247
861.129	-406
861.216	-137
861.304	-920
861.391	-382
861.478	-375
861.565	-623
861.653	-669
861.740	-1061
861.827	200
861.914	-459
862.001	-1464
862.089	-816
862.176	-889
862.263	-856
862.350	-1316
862.437	-1098
862.524	-516
862.611	-613
862.698	-484
862.785	-483
862.871	-990
862.958	-1432
863.045	-760
863.132	-919
863.219	-1189
863.306	-762
863.392	-486
863.479	-621
863.566	-549
863.652	-480
863.739	-607
863.826	-1472
863.912	-865
863.999	-1486
864.086	-512
864.172	-874
864.259	-756
864.345	-485
864.432	-664
864.518	-625
864.604	-1014
864.691	-1137
864.777	-317
864.863	-248
864.950	-373
865.036	-1073
865.122	235
865.209	-1568
865.295	-691
865.381	-714
865.467	-687
865.553	-620
865.639	-1018
865.726	-115
865.812	399
865.898	-823
865.984	334
866.070	929
866.156	2168
866.242	3041
866.328	162
866.414	-497
866.499	-675
866.585	-805
866.671	-1178
866.757	-542
866.843	-714
866.928	-1076
867.014	-1219
867.100	-111
867.186	-1036
867.271	75
867.357	81
867.442	95
867.528	1992
867.614	364
867.699	-657
867.785	-437
867.870	-453
867.956	-1024
868.041	-367
868.127	-235
868.212	-79
868.297	511
868.383	618
868.468	-393
868.553	-475
868.639	-467
868.724	487
868.809	1022
868.894	1449
868.979	-333
869.065	-936
869.150	-1160
869.235	-602
869.320	-575
869.405	-1353
869.490	-901
869.575	-720
869.660	-1195
869.745	-601
869.830	-1279
869.915	-792
870.000	-102
870.085	-229
870.169	-824
870.254	-1049
870.339	-1696
870.424	-902
870.509	-629
870.593	-86
870.678	-633
870.763	-1098
870.847	-126
870.932	-1174
871.016	-651
871.101	-1627
871.186	-1045
871.270	-883
871.355	-1883
871.439	-645
871.523	-940
871.608	-934
871.692	-835
871.777	-173
871.861	-1153
871.945	-594
872.030	-742
872.114	-917
872.198	-1383
872.282	-1238
872.367	-586
872.451	-628
872.535	-1369
872.619	-897
872.703	-790
872.787	-1193
872.871	-759
872.955	-935
873.039	-935
873.123	-1008
873.207	-364
873.291	-870
873.375	-863
873.459	-571
873.543	-1178
873.627	-1355
873.711	-1085
873.794	-471
873.878	-1307
873.962	-988
874.045	-193
874.129	-1064
874.137	-1063
874.213	-1049
874.245	-801
874.296	-404
874.352	-792
874.380	-980
874.460	-1778
874.464	-1811
874.547	-1328
874.568	-1265
874.631	-1084
874.676	-881
874.714	-695
874.784	-1112
874.798	-1195
874.881	123
874.892	-8
874.965	-977
874.999	-1063
875.048	-1171
875.107	-1027
875.131	-971
875.215	-769
875.215	-769
875.298	-469
875.323	-656
875.381	-1111
875.430	-863
875.465	-687
875.538	-1110
875.548	-1168
875.631	-880
875.646	-843
875.714	-712
875.753	-947
875.798	-1214
875.861	-769
875.881	-587
875.964	-504
875.968	-519
876.047	-953
876.076	-812
876.130	-482
876.183	-944
876.213	-1264
876.291	-727
876.296	-681
876.379	-671
876.398	-648
876.462	-650
876.506	-806
876.545	-874
876.613	85
876.628	261
876.711	-652
876.721	-622
876.794	-238
876.828	-416
876.877	-742
876.935	-313
876.960	-117
877.043	-615
877.043	-613
877.125	-225
877.150	-324
877.208	-465
877.258	-403
877.291	-412
877.365	339
877.374	451
877.456	123
877.472	180
877.539	218
877.579	215
877.622	246
877.687	129
877.704	114
877.787	88
877.794	48
877.869	-489
877.901	-340
877.952	-123
878.008	-36
878.034	61
878.115	-316
878.117	-323
878.199	-549
878.222	-535
878.282	-505
878.329	-308
878.364	-179
878.437	-581
878.447	-668
878.529	-670
878.544	-659
878.611	-449
878.651	-682
878.694	-928
878.758	-942
878.776	-958
878.858	-653
878.865	-663
878.941	-428
878.972	-437
879.023	-824
879.078	-729
879.105	-505
879.185	-610
879.187	-617
879.269	45
879.292	-154
879.351	-592
879.399	-556
879.433	-480
879.506	-220
879.516	-191
879.598	-475
879.613	-416
879.680	-376
879.720	-500
879.762	-381
879.827	-291
879.844	-375
879.926	-799
879.933	-815
880.007	-501
880.040	-268
880.089	-122
880.147	-541
880.171	-643
880.253	226
880.254	224
880.335	-619
880.360	-644
880.417	-194
880.467	68
880.499	203
880.574	781
880.580	821
880.662	1194
880.680	997
880.744	-159
880.787	-556
880.825	-418
880.893	-176
880.907	-266
880.989	-592
881.000	-607
881.070	-207
881.106	-312
881.152	-679
881.213	-734
881.233	-620
881.315	-270
881.319	-273
881.396	-485
881.426	-574
881.478	-718
881.532	-61
881.559	240
881.639	-425
881.641	-436
881.722	6
881.745	6
881.803	-92
881.852	-173
881.885	-214
881.958	-574
881.966	-620
882.047	-455
882.064	-612
882.129	-549
882.171	132
882.210	255
882.277	-519
882.291	-530
882.372	126
882.383	214
882.454	-35
882.489	-260
882.535	-214
882.596	-488
882.616	-519
882.697	-435
882.702	-421
882.778	-343
882.808	-221
882.859	39
882.914	-113
882.940	-352
883.020	-374
883.021	-368
883.102	-207
883.127	-134
883.183	-107
883.233	-84
883.264	-160
883.339	-321
883.345	-295
883.426	-15
883.445	6
883.507	-249
883.551	-301
883.587	-214
883.657	-242
883.668	-288
883.749	-209
883.763	-265
883.830	-278
883.869	-370
883.910	-480
883.975	-134
883.991	-71
884.072	-537
884.081	-530
884.152	-433
884.187	-518
884.233	-373
884.292	155
884.314	205
884.394	-175
884.398	-183
884.475	395
884.504	513
884.555	402
884.610	434
884.636	314
884.716	114
884.716	117
884.797	-144
884.821	-152
884.877	284
884.927	683
884.958	404
885.033	-451
885.038	-429
885.118	72
885.139	142
885.199	-83
885.244	-47
885.279	100
885.350	156
885.359	160
885.439	184
885.456	168
885.520	-112
885.561	-205
885.600	-33
885.667	186
885.680	228
885.760	471
885.773	480
885.840	-185
885.878	-517
885.920	-68
885.984	755
886.000	643
886.080	4
886.089	-88
886.160	-169
886.195	-197
886.240	-366
886.300	-484
886.320	-347
886.400	2
886.406	30
886.480	-171
886.511	-172
886.560	-31
886.616	-71
886.640	16
886.720	249
886.722	250
886.800	359
886.827	495
886.879	136
886.932	-320
886.959	7
887.038	864
887.039	869
887.119	724
887.143	682
887.198	837
887.248	949
887.278	573
887.354	-352
887.358	-324
887.437	79
887.459	195
887.517	71
887.564	-10
887.596	137
887.669	454
887.676	420
887.755	-163
887.774	-280
887.835	-81
887.880	42
887.914	175
887.985	428
887.994	386
888.073	67
888.090	-42
888.153	446
888.195	875
888.232	753
888.300	339
888.311	256
888.391	-273
888.405	-371
888.470	-92
888.510	92
888.549	232
888.615	447
888.628	468
888.708	508
888.720	525
888.787	274
888.825	79
888.866	84
888.930	120
888.945	133
889.024	188
889.035	194
889.103	221
889.140	202
889.182	264
889.245	426
889.261	529
889.340	932
889.349	977
889.419	167
889.454	-245
889.498	195
889.559	818
889.577	620
889.656	-276
889.664	-362
889.735	192
889.768	455
889.814	393
889.873	309
889.978	560
890.083	514
890.187	258
890.292	730
890.397	758
890.501	260
890.606	523
890.710	573
890.815	325
890.919	589
891.024	120
891.128	251
891.233	169
891.337	694
891.442	-320
891.546	-551
891.650	83
891.755	405
891.859	571
891.963	125
892.068	938
892.172	-312
892.276	472
892.380	-541
892.484	705
892.589	272
892.693	916
892.797	470
892.901	117
893.005	359
893.109	445
893.213	-196
893.317	415
893.421	330
893.525	488
893.629	-334
893.733	177
893.837	-348
893.941	907
894.045	-347
894.148	510
894.252	-72
894.356	-331
894.460	-17
894.564	163
894.667	-121
894.771	659
894.875	-648
894.978	277
895.082	73
895.186	-109
895.289	361
895.393	527
895.496	-603
895.600	390
895.703	291
895.807	480
895.910	-297
896.014	25
896.117	-318
896.221	523
896.324	136
896.427	-136
896.531	-609
896.634	-188
896.737	225
896.840	257
896.944	54
897.047	288
897.150	-579
897.253	36
897.356	-376
897.460	-289
897.563	-290
897.666	616
897.769	-146
897.872	-199
897.975	-300
898.078	-13
898.181	-675
898.284	16
898.387	352
898.490	530
898.593	-91
898.695	-70
898.798	-196
898.901	566
899.004	-547
899.107	262
899.209	-234
899.312	23
899.415	-566
899.518	-244
899.620	-502
899.723	456
899.826	-346
899.928	324
900.031	-193
900.133	-199
900.236	-24
900.338	-217
900.441	176
900.543	262
900.646	-13
900.748	-843
900.851	103
900.953	120
901.055	40
901.158	-701
901.260	-281
901.362	98
901.465	-906
901.567	-16
901.669	-296
901.771	210
901.873	-625
901.976	-36
902.078	-238
902.180	-74
902.282	-1027
902.384	-45
902.486	-986
902.588	-254
902.690	-355
902.792	-430
902.894	-992
902.996	-347
903.098	251
903.200	-105
903.302	-261
903.404	250
903.505	-779
903.607	468
903.709	-171
903.811	307
903.913	-878
904.014	-404
904.116	-189
904.218	158
904.319	-320
904.421	379
904.523	-847
904.624	-307
904.726	-454
904.827	-353
904.929	316
905.030	-22
905.132	118
905.233	278
905.335	-1225
905.436	-179
905.537	-1026
905.639	347
905.740	-292
905.841	-73
905.943	-185
906.044	-448
906.145	-432
906.247	7
906.348	-98
906.449	446
906.550	-808
906.651	224
906.752	-619
906.854	333
906.955	139
907.056	-508
907.157	-719
907.258	-1170
907.359	163
907.460	-1090
907.561	-677
907.662	441
907.762	-808
907.863	-22
907.964	-659
908.065	-745
908.166	-1176
908.267	96
908.367	-683
908.468	-712
908.569	60
908.670	-548
908.770	-531
908.871	202
908.971	-863
909.072	-167
909.173	-597
909.273	-237
909.374	-1464
909.474	-353
909.575	-137
909.675	-233
909.776	-641
909.876	-84
909.977	-602
910.077	87
910.177	-1220
910.278	-389
910.378	-440
910.478	-411
910.579	-200
910.679	-312
910.779	-836
910.879	-733
910.980	-551
911.080	-410
911.180	-217
911.280	-124
911.380	-873
911.480	-274
911.580	-463
911.680	122
911.780	-482
911.880	-231
911.980	-136
912.080	-885
912.180	-603
912.280	-562
912.380	206
912.480	-489
912.580	-821
912.679	45
912.779	-111
912.879	498
912.979	-1087
913.078	-813
913.178	-557
913.278	334
913.377	-748
913.477	-485
913.577	-929
913.676	179
913.776	-1095
913.875	803
913.975	-154
914.074	-618
914.174	-526
914.273	-245
914.373	176
914.472	42
914.572	-157
914.671	-554
914.770	-91
914.870	-113
914.969	-958
915.068	-247
915.167	-278
915.267	-222
915.366	-747
915.465	447
915.564	-301
915.663	-866
915.763	-189
915.862	-13
915.961	2
916.060	-592
916.159	-929
916.258	-287
916.357	-977
916.456	-345
916.555	-388
916.654	80
916.752	-790
916.851	64
916.950	-219
917.049	-316
917.148	-824
917.247	-140
917.345	-617
917.444	374
917.543	-888
917.642	-699
917.740	-123
917.839	-31
917.937	-194
918.036	-420
918.135	-600
918.233	-749
918.332	-436
918.430	-85
918.529	-643
918.627	-564
918.726	51
918.824	623
918.923	-1215
919.021	478
919.119	-1479
919.218	-672
919.316	32
919.414	-649
919.512	-723
919.611	-1358
919.709	-112
919.807	-842
919.905	-841
920.003	-461
920.102	-1131
920.200	-265
920.298	-283
920.396	-447
920.494	-844
920.592	353
920.690	2
920.788	-868
920.886	-574
920.984	-574
921.082	-905
921.180	-619
921.277	-452
921.375	605
921.473	-804
921.571	-290
921.669	-107
921.766	-612
921.864	-1089
921.962	-531
922.060	-879
922.157	-553
922.255	-585
922.352	82
922.450	234
922.548	-464
922.645	-671
922.743	-570
922.840	-853
922.938	-316
923.035	183
923.133	98
923.230	-1171
923.327	-1083
923.425	-714
923.522	354
923.619	-977
923.717	-236
923.814	-1004
923.911	-432
924.008	-1
924.106	228
924.203	-1013
924.300	-112
924.397	-140
924.494	-601
924.591	-191
924.688	-797
924.786	-555
924.883	-828
924.979	-621
925.077	21
925.173	-287
925.270	-787
925.367	-487
925.464	192
925.561	-1380
925.658	-359
925.755	-878
925.852	-124
925.948	-540
926.045	-399
926.142	-245
926.239	50
926.335	-135
926.432	821
926.529	-20
926.625	56
926.722	735
926.818	-383
926.915	-696
927.011	109
927.108	-614
927.204	76
927.301	-249
927.397	4
927.494	-1210
927.590	-143
927.687	-963
927.783	368
927.879	-242
927.976	-850
928.072	-947
928.168	-141
928.264	-729
928.361	-1224
928.457	-936
928.553	168
928.649	-458
928.745	-329
928.841	-700
928.937	-451
929.033	-516
929.129	-228
929.225	-139
929.321	406
929.417	-150
929.513	-58
929.609	-750
929.705	-136
929.801	-45
929.897	-1038
929.993	523
930.089	-367
930.184	-869
930.280	797
930.376	-173
930.471	329
930.567	-473
930.663	-273
930.758	-814
930.854	-129
930.950	-386
931.045	133
931.141	-299
931.236	-592
931.332	-586
931.427	-490
931.523	-158
931.618	19
931.714	-874
931.809	100
931.905	-983
932.000	-650
932.095	-669
932.191	-548
932.286	-559
932.381	146
932.476	-274
932.572	-1020
932.667	-298
932.762	-1032
932.857	-749
932.952	-426
933.047	103
933.142	381
933.237	-928
933.332	-22
933.427	-497
933.522	-963
933.617	-140
933.712	-307
933.807	-994
933.902	-720
933.997	-740
934.092	-652
934.187	-575
934.282	-607
934.376	-1565
934.471	105
934.566	-1196
934.661	35
934.755	-328
934.850	-816
934.945	-1197
935.039	206
935.134	-431
935.228	-442
935.323	-642
935.417	-29
935.512	-596
935.606	-201
935.701	-1586
935.795	-876
935.890	-575
935.984	-758
936.079	-793
936.173	-568
936.267	-203
936.362	-267
936.456	-1199
936.550	-560
936.644	-517
936.738	-614
936.833	-959
936.927	-734
937.021	-620
937.115	674
937.209	-655
937.303	101
937.397	-1072
937.491	430
937.585	-178
937.679	87
937.773	-293
937.867	-98
937.961	-906
938.055	56
938.149	-713
938.243	-649
938.337	-901
938.430	304
938.524	-1491
938.618	125
938.712	-662
938.805	-257
938.899	-729
938.993	63
939.086	-758
939.180	89
939.274	-841
939.367	-29
939.461	-534
939.554	15
939.648	-1483
939.741	-383
939.835	-869
939.928	-98
940.022	-733
940.115	-401
940.208	-703
940.302	-339
940.395	-133
940.488	-729
940.582	-326
940.675	-1194
940.768	-240
940.861	-500
940.954	-526
941.048	61
941.141	-1409
941.234	-668
941.327	-258
941.420	-527
941.513	-1145
941.606	-14
941.699	-1156
941.792	-915
941.885	-730
941.978	-175
942.071	-590
942.164	-626
942.257	-501
942.349	-688
942.442	-826
942.535	-990
942.628	-1125
942.721	-509
942.813	-361
942.906	-344
942.999	-940
943.091	-589
943.184	-199
943.277	-768
943.369	-823
943.462	-120
943.554	-1117
943.647	-860
943.739	-259
943.832	-406
943.924	-1404
944.017	253
944.109	-1057
944.201	-96
944.294	-1036
944.386	-482
944.478	-900
944.571	-253
944.663	-743
944.755	-697
944.847	-1051
944.940	-213
945.032	-343
945.124	-644
945.216	-141
945.308	-1164
945.400	-700
945.492	-911
945.584	-43
945.676	-183
945.768	-471
945.860	-221
945.952	-648
946.044	-910
946.136	-745
946.228	-414
946.320	-1059
946.412	-951
946.503	-512
946.595	-273
946.687	-707
946.779	-537
946.870	-1000
946.962	-214
947.054	-580
947.145	-543
947.237	-1034
947.329	-177
947.420	-548
947.512	-698
947.603	-527
947.695	-75
947.786	-922
947.878	-650
947.969	-1671
948.061	-1157
948.152	-376
948.243	-790
948.335	-931
948.426	-634
948.517	-1384
948.609	-462
948.700	-480
948.791	-707
948.882	-1299
948.973	-687
949.065	-625
949.156	-247
949.247	-204
949.338	-1113
949.429	-13
949.520	-536
949.611	-296
949.702	-433
949.793	-830
949.884	-573
949.975	-1128
950.066	263
950.157	-1532
950.247	-131
950.338	-766
950.429	-522
950.520	-802
950.611	-973
950.701	-358
950.792	-141
950.883	-781
950.973	5
951.064	-1290
951.155	314
951.245	-1455
951.336	-284
951.427	-516
951.517	-124
951.608	-603
951.698	-686
951.788	-1008
951.879	-215
951.969	-671
952.060	-687
952.150	-207
952.240	-309
952.331	-897
952.421	-220
952.511	-1003
952.602	-521
952.692	-1026
952.782	-1049
952.872	-1152
952.962	-1043
953.052	-729
953.143	-1351
953.233	-102
953.323	738
953.413	-818
953.503	-1197
953.593	-1165
953.683	-432
953.773	-1044
953.863	-872
953.953	-1501
954.042	-607
954.132	-1324
954.222	-508
954.312	-466
954.402	-891
954.492	-690
954.581	-982
954.671	-1176
954.761	44
954.850	-579
954.940	-763
955.030	-1250
955.119	-601
955.209	-545
955.298	-499
955.388	-1567
955.477	-385
955.567	-1155
955.656	-482
955.746	-909
955.835	-801
955.925	-347
956.014	-1025
956.103	-1362
956.193	-417
956.282	-1279
956.371	-69
956.461	-822
956.550	-558
956.639	-881
956.728	-220
956.817	-1047
956.906	-795
956.995	-774
957.085	-192
957.174	-532
957.263	-1055
957.352	-278
957.441	-590
957.530	-1298
957.619	-773
957.708	-1210
957.796	-574
957.885	-211
957.974	192
958.063	-567
958.152	-750
958.241	-980
958.329	-769
958.418	-693
958.507	-729
958.596	-910
958.684	-1404
958.773	-245
958.861	-634
958.950	-710
959.039	-203
959.127	-911
959.216	-429
959.304	-402
959.393	-502
959.481	-519
959.570	-457
959.658	-622
959.746	-286
959.835	-722
959.923	-604
960.011	-915
960.100	-453
960.188	-658
960.276	-1024
960.365	-707
960.453	-865
960.541	-669
960.629	-469
960.717	-674
960.805	-1154
960.893	-1588
960.981	-472
961.069	-1151
961.158	99
961.245	-339
961.333	-1271
961.421	-526
961.509	-833
961.597	-648
961.685	-323
961.773	-1641
961.861	-512
961.949	-467
962.036	-979
962.124	-852
962.212	-583
962.299	-970
962.387	-989
962.475	-271
962.562	-692
962.650	-199
962.738	-719
962.825	-627
962.913	-560
963.000	-963
963.088	-1229
963.175	-913
963.263	-62
963.350	-987
963.438	-592
963.525	-1257
963.612	-873
963.700	-368
963.787	10
963.874	846
963.962	248
964.049	-550
964.136	-878
964.223	-889
964.310	-909
964.398	-574
964.485	-1042
964.572	-632
964.659	-274
964.746	-165
964.833	-811
964.920	-1910
965.007	28
965.094	-1087
965.181	-805
965.268	-502
965.355	-523
965.441	-971
965.528	-880
965.615	-1206
965.702	-1363
965.789	-839
965.875	-368
965.962	-822
966.049	-782
966.136	-417
966.222	-1375
966.309	-308
966.395	-607
966.482	25
966.569	168
966.655	-801
966.742	-883
966.828	-1372
966.915	-793
967.001	-392
967.087	-1457
967.174	-1680
967.260	-410
967.347	-914
967.433	-818
967.519	-503
967.605	356
967.692	-963
967.778	-826
967.864	-387
967.950	-121
968.036	-1153
968.123	-995
968.209	-1294
968.295	-996
968.381	-348
968.467	-1034
968.553	-1000
968.639	-654
968.725	-1138
968.811	-518
968.897	-965
968.983	-1333
969.069	-1087
969.154	-812
969.240	-1493
969.326	-722
969.412	-1451
969.497	-730
969.583	-887
969.669	-619
969.755	-771
969.840	-332
969.926	-453
970.012	-688
970.097	-1513
970.183	-1067
970.268	-413
970.354	-42
970.439	-764
970.525	-512
970.610	-162
970.696	-564
970.781	-1183
970.866	-653
970.952	-1133
971.037	-723
971.122	-1058
971.208	-835
971.293	-927
971.378	-1137
971.463	-1001
971.549	-374
971.634	-1297
971.719	-603
971.804	452
971.889	-833
971.974	-295
972.059	-184
972.144	-1135
972.229	-419
972.314	-1113
972.399	-173
972.484	-1144
972.569	-470
972.654	-1817
972.739	275
972.824	-989
972.908	-172
972.993	-1623
973.078	-1188
973.163	-1288
973.247	-1043
973.332	-1732
973.417	-1431
973.501	-268
973.586	-148
973.671	-1838
973.755	-1050
973.840	-1366
973.924	-772
974.009	-1438
974.093	-508
974.178	-2159
974.262	-764
974.346	-365
974.431	-941
974.515	-1214
974.600	-515
974.684	-527
974.768	-799
974.852	-476
974.937	-617
975.021	-1294
975.105	-458
975.189	-1684
975.273	-1063
975.358	-1041
975.442	-394
975.526	-1243
975.610	-1046
975.694	-1038
975.778	-182
975.862	-1534
975.946	-1158
976.030	-777
976.114	-1138
976.198	-1333
976.281	-1126
976.365	-1190
976.449	-888
976.533	-1402
976.617	-1005
976.700	-915
976.784	-544
976.868	-1217
976.951	-360
977.035	-719
977.119	-461
977.202	-1749
977.286	-366
977.369	-1432
977.453	-641
977.536	-716
977.620	-1693
977.703	-1030
977.787	-1128
977.870	-963
977.953	-598
978.037	-617
978.120	-797
978.203	-1266
978.287	-479
978.370	-888
978.453	-531
978.536	-1669
978.620	-732
978.703	-670
978.786	-929
978.869	-1679
978.952	-1412
979.035	-1103
979.118	-615
979.201	-1401
979.284	-1418
979.367	-802
979.450	-741
979.533	-1045
979.616	-520
979.699	-1082
979.782	-800
979.865	-1069
979.948	-932
980.030	-1666
980.113	-828
980.196	-893
980.279	-1167
980.361	-1170
980.444	-798
980.526	-123
980.609	-386
980.692	-1297
980.774	-1264
980.857	-1546
980.939	-904
981.022	-1031
981.104	-1187
981.187	-1443
981.269	-448
981.352	-1357
981.434	-840
981.516	-1023
981.599	-933
981.681	-1445
981.763	-1506
981.846	-1508
981.928	-637
982.010	-1983
982.092	-933
982.174	-1174
982.256	-599
982.339	-1278
982.421	-1416
982.503	-1019
982.585	-693
982.667	-1814
982.749	-1163
982.831	-1311
982.913	-1227
982.995	-877
983.077	-607
983.158	-674
983.240	-1363
983.322	-1095
983.404	-1336
983.486	-1971
983.568	-331
983.649	-1557
983.731	-1158
983.813	-1539
983.894	-1145
983.976	-1283
984.058	-1048
984.139	-809
984.221	-1264
984.302	-940
984.384	-657
984.465	-1524
984.547	-1306
984.628	-1548
984.710	-229
984.791	-2010
984.872	-1090
984.954	-1013
985.035	-1158
985.116	-1848
985.198	-1348
985.279	-752
985.360	-1402
985.441	-1735
985.522	-1013
985.604	-916
985.685	-1332
985.766	-1547
985.847	-1149
985.928	-916
986.009	-709
986.090	-1588
986.171	-1094
986.252	-1118
986.333	-1252
986.414	-1403
986.495	-1311
986.576	-1258
986.656	-1054
986.737	-176
986.818	-982
986.899	-1726
986.980	-889
987.060	-526
987.141	-1006
987.222	-1055
987.302	-1245
987.383	-1134
987.464	-699
987.544	-940
987.625	-1095
987.705	-1194
987.786	-744
987.866	-1579
987.947	-1614
988.027	-957
988.108	-1200
988.188	-861
988.268	-699
988.349	-1136
988.429	-1487
988.509	-1459
988.589	-1972
988.670	-1230
988.750	-469
988.830	-1198
988.910	-866
988.990	-1800
989.070	-1625
989.151	-1364
989.231	-1100
989.311	-1851
989.391	-521
989.471	-1043
989.551	-876
989.631	-1372
989.711	-476
989.791	-913
989.870	-1357
989.950	-1229
990.030	-1658
990.110	-1602
990.190	-1254
990.269	-1456
990.349	-758
990.429	-1867
990.509	-314
990.588	-1028
990.668	-984
990.747	-1855
990.827	-913
990.907	-1412
990.986	-1218
991.066	-158
991.145	-841
991.225	-1039
991.304	-1011
991.383	-1023
991.463	-1749
991.542	-827
991.622	-611
991.701	-1053
991.780	-1239
991.859	-1101
991.939	-701
992.018	-1206
992.097	-360
992.176	-1669
992.256	-822
992.335	-1084
992.414	-891
992.493	-1505
992.572	-635
992.651	-848
992.730	-695
992.809	-1477
992.888	-1273
992.967	-1507
993.046	-675
993.125	-2010
993.203	-844
993.282	-1536
993.361	-958
993.440	-1382
993.519	-1636
993.597	-1324
993.676	-780
993.755	-981
993.834	-717
993.912	-1742
993.991	-610
994.069	-1916
994.148	-1404
994.226	-1231
994.305	-1045
994.384	-981
994.462	-664
994.540	-2018
994.619	-1553
994.697	-1216
994.776	-946
994.854	-747
994.932	-1021
995.011	-1105
995.089	-976
995.167	-1142
995.245	-1530
995.324	-1282
995.402	-390
995.480	-1475
995.558	-1353
995.636	-2014
995.714	-1275
995.792	-1135
995.870	-1508
995.948	-1673
996.026	-761
996.104	-2195
996.182	-611
996.260	-1751
996.338	-1722
996.416	-1246
996.494	-1132
996.572	-944
996.649	-1155
996.727	-1595
996.805	-1557
996.883	-1387
996.960	-1969
997.038	-686
997.116	-1446
997.193	-1273
997.271	-573
997.348	-658
997.426	-1896
997.504	-2200
997.581	-728
997.658	-1210
997.736	-1398
997.813	-1869
997.891	-1394
997.968	-986
998.046	-687
998.123	-1451
998.200	-1243
998.277	-834
998.355	-451
998.432	-991
998.509	-1441
998.586	-1282
998.663	-472
998.741	-1237
998.818	-1467
998.895	-1372
998.972	-1123
999.049	-1400
999.126	-883
999.203	-783
999.280	-1198
999.357	-2604
999.434	-1422
999.511	-1725
999.587	-1150
999.664	-1464
999.741	-1312
999.818	-1197
999.895	-1777
999.971	-1489
1000.048	-754
1000.125	-920
1000.202	-985
1000.278	-1479
1000.355	-1449
1000.431	-1182
1000.508	-1315
1000.584	-1606
1000.661	-304
1000.738	-1149
1000.814	-1849
1000.890	-1994
1000.967	-678
1001.043	-1387
1001.120	-1643
1001.196	-1387
1001.272	-1548
1001.349	-1346
1001.425	-819
1001.501	-1055
1001.577	-1269
1001.654	-1915
1001.730	-835
1001.806	-1135
1001.882	-1354
1001.958	-1659
1002.034	-1187
1002.110	-1113
1002.186	-750
1002.262	-1335
1002.338	-850
1002.414	-1478
1002.490	-1439
1002.566	-2462
1002.642	-1209
1002.718	-1312
1002.794	-921
1002.870	-1383
1002.945	-1251
1003.021	-1531
1003.097	-1478
1003.173	-891
1003.248	-2063
1003.324	-1562
1003.400	-1050
1003.475	-1300
1003.551	-1563
1003.626	-1818
1003.702	-1124
1003.777	-1511
1003.853	-1319
1003.928	-1702
1004.004	-1769
1004.079	-1040
1004.155	-1022
1004.230	-2474
1004.305	-1161
1004.381	-1447
1004.456	-1233
1004.531	-470
1004.607	-1603
1004.682	-2046
1004.757	-1723
1004.832	-1202
1004.907	-2066
1004.982	-1276
1005.057	-411
1005.133	-1523
1005.208	-1179
1005.283	-806
1005.358	-1418
1005.433	-1968
1005.508	-935
1005.583	-1128
1005.657	-1252
1005.732	-1641
1005.807	-1520
1005.882	-1221
1005.957	-1339
1006.032	-2087
1006.106	-1289
1006.181	-1317
1006.256	-1328
1006.331	-1545
1006.405	-1591
1006.480	-1141
1006.554	-1272
1006.629	-1427
1006.704	-1109
1006.778	-1489
1006.853	-991
1006.927	-1065
1007.002	-793
1007.076	-1619
1007.150	-919
1007.225	-984
1007.299	-732
1007.373	-1624
1007.448	-690
1007.522	-885
1007.596	-1236
1007.671	-1739
1007.745	-1160
1007.819	-1998
1007.893	-1483
1007.967	-688
1008.041	-1542
1008.115	-1275
1008.190	-1355
1008.264	-1378
1008.338	-2138
1008.412	-597
1008.486	-1252
1008.560	-1430
1008.633	-1050
1008.707	-532
1008.781	-1438
1008.855	-1715
1008.929	-1067
1009.003	-1905
1009.076	-1680
1009.150	-1641
1009.224	-1648
1009.298	-959
1009.371	-1499
1009.445	-1752
1009.519	-1366
1009.592	-1440
1009.666	-36
1009.739	-1274
1009.813	-1107
1009.886	-1028
1009.960	-1333
1010.033	-1426
1010.107	-820
1010.180	-1690
1010.253	-695
1010.327	-2546
1010.400	-898
1010.473	-1423
1010.547	-543
1010.620	-1573
1010.693	-1211
1010.766	-1460
1010.840	-1033
1010.913	-1011
1010.986	-688
1011.059	-1696
1011.132	-1115
1011.205	-985
1011.278	-382
1011.351	-1480
1011.424	-1297
1011.497	-2270
1011.570	-1069
1011.643	-1099
1011.716	-1166
1011.789	-1803
1011.862	-715
1011.934	-1188
1012.007	-1106
1012.080	-956
1012.153	-1363
1012.225	-1355
1012.298	-2234
1012.371	-1767
1012.443	-1192
1012.516	-1410
1012.588	-944
1012.661	-1007
1012.733	-1196
1012.806	-1585
1012.879	-1200
1012.951	-1497
1013.023	-1160
1013.096	-1352
1013.168	-1629
1013.241	-1284
1013.313	-1070
1013.385	-1332
1013.458	-1148
1013.530	-1332
1013.602	-1459
1013.674	-1717
1013.746	-1485
1013.819	-2127
1013.891	-1398
1013.963	-1636
1014.035	-699
1014.107	-1822
1014.179	-1007
1014.251	-1459
1014.323	-1030
1014.395	-1453
1014.467	-1217
1014.539	-1195
1014.611	-2389
1014.683	-944
1014.754	-1358
1014.826	-1464
1014.898	-1162
1014.970	-1661
1015.042	-528
1015.113	-1716
1015.185	-1029
1015.257	-1327
1015.328	-1319
1015.400	-1892
1015.471	-887
1015.543	-1651
1015.615	-1182
1015.686	-1728
1015.757	-1307
1015.829	-1070
1015.901	-1214
1015.972	-1194
1016.043	-1660
1016.115	-1455
1016.186	-748
1016.257	-1623
1016.328	-787
1016.400	-1181
1016.471	-1022
1016.542	-1457
1016.613	-1328
1016.685	-1826
1016.756	-2080
1016.827	-1889
1016.898	-1295
1016.969	-1633
1017.040	-1142
1017.111	-1716
1017.182	-918
1017.253	-1765
1017.324	-1652
1017.395	-2058
1017.466	-1236
1017.537	-1753
1017.608	-1520
1017.678	-2079
1017.749	-1232
1017.820	-1809
1017.891	-902
1017.961	-943
1018.032	-1237
1018.103	-810
1018.173	-991
1018.244	-1496
1018.315	-1765
1018.385	-1565
1018.456	-491
1018.526	-1263
1018.597	-993
1018.667	-2189
1018.738	-959
1018.808	-1607
1018.878	-1910
1018.949	-946
1019.019	-1435
1019.089	-2077
1019.160	-1412
1019.230	-2167
1019.300	-1499
1019.371	-2781
1019.441	-759
1019.511	-977
1019.581	-794
1019.651	-1664
1019.721	-1652
1019.791	-1449
1019.861	-1241
1019.931	-1672
1020.001	-1559
1020.071	-1224
1020.141	-1570
1020.211	-1274
1020.281	-1018
1020.351	-1196
1020.421	-1287
1020.491	-1619
1020.560	-662
1020.630	-1227
1020.700	-1394
1020.770	-1258
1020.839	-1274
1020.909	-1423
1020.979	-1462
1021.048	-1454
1021.118	-2255
1021.187	-2253
1021.257	-1699
1021.326	-1313
1021.396	-1789
1021.465	-1922
1021.535	-1076
1021.604	-949
1021.674	-884
1021.743	-1241
1021.812	-1792
1021.882	-960
1021.951	-1791
1022.020	-1523
1022.089	-1280
1022.159	-1444
1022.228	-973
1022.297	-1506
1022.366	-1861
1022.435	-1663
1022.504	-1632
1022.573	-1444
1022.642	-1606
1022.711	-1835
1022.781	-1903
1022.849	-1490
1022.918	-1800
1022.987	-1549
1023.056	-1939
1023.125	-2094
1023.194	-1526
1023.263	-1899
1023.331	-1839
1023.400	-1694
1023.469	-816
1023.538	-1875
1023.606	-2062
1023.675	-1935
1023.744	-1140
1023.812	-1362
1023.881	-1163
1023.949	-1790
1024.018	-1828
1024.086	-1425
1024.155	-1569
1024.223	-1783
1024.292	-1709
1024.360	-1388
1024.429	-1699
1024.497	-1724
1024.565	-329
1024.634	-1706
1024.702	-561
1024.770	-2332
1024.838	-2005
1024.907	-1724
1024.975	-1329
1025.043	-1424
1025.111	-1692
1025.179	-1881
1025.247	-1973
1025.315	-2266
1025.383	-1744
1025.451	-1496
1025.519	-662
1025.587	-1744
1025.655	-1615
1025.723	-1793
1025.791	-1182
1025.859	-1907
1025.927	-1768
1025.995	-2155
1026.062	-2009
1026.130	-1671
1026.198	-1863
1026.266	-1527
1026.333	-1503
1026.401	-1501
1026.469	-1009
1026.536	-2283
1026.604	-1266
1026.671	-1820
1026.739	-1655
1026.806	-1950
1026.874	-1841
1026.941	-989
1027.009	-1936
1027.076	-1824
1027.144	-1047
1027.211	-1475
1027.278	-1664
1027.345	-2050
1027.413	-2109
1027.480	-1385
1027.547	-2074
1027.614	-1453
1027.682	-1678
1027.749	-1570
1027.816	-2034
1027.883	-2044
1027.950	-1806
1028.017	-1966
1028.084	-1857
1028.151	-2379
1028.218	-2130
1028.285	-2414
1028.352	-2109
1028.419	-1690
1028.486	-1658
1028.553	-2125
1028.619	-1592
1028.686	-941
1028.753	-1230
1028.820	-2447
1028.886	-1710
1028.953	-2201
1029.020	-1780
1029.086	-2458
1029.153	-1559
1029.220	-1178
1029.286	-1807
1029.353	-1604
1029.419	-1504
1029.486	-1876
1029.552	-1633
1029.619	-1773
1029.685	-1604
1029.751	-1849
1029.818	-1268
1029.884	-1648
1029.951	-968
1030.017	-2072
1030.083	-1908
1030.149	-2297
1030.216	-1609
1030.282	-2165
1030.348	-1993
1030.414	-2363
1030.480	-1765
1030.546	-1992
1030.612	-1590
1030.678	-1932
1030.744	-1311
1030.810	-1695
1030.876	-2038
1030.942	-2027
1031.008	-1831
1031.074	-2473
1031.140	-1384
1031.206	-2064
1031.272	-2375
1031.337	-1688
1031.403	-2271
1031.469	-2504
1031.534	-1594
1031.600	-1609
1031.666	-1585
1031.731	-2675
1031.797	-2196
1031.863	-2164
1031.928	-1716
1031.994	-1851
1032.059	-2473
1032.125	-1903
1032.190	-1901
1032.256	-1907
1032.321	-1442
1032.386	-2438
1032.452	-1350
1032.517	-1685
1032.582	-2053
1032.647	-2177
1032.713	-2210
1032.778	-1952
1032.843	-1863
1032.908	-2057
1032.974	-1442
1033.039	-2666
1033.104	-2161
1033.169	-2537
1033.234	-1415
1033.299	-1955
1033.364	-1945
1033.429	-1719
1033.494	-2191
1033.559	-2055
1033.624	-1466
1033.688	-1482
1033.753	-2233
1033.818	-2153
1033.883	-2495
1033.948	-1571
1034.013	-1775
1034.077	-2271
1034.142	-1983
1034.207	-1841
1034.271	-2260
1034.336	-2101
1034.400	-1996
1034.465	-1903
1034.530	-1868
1034.594	-1747
1034.658	-1781
1034.723	-2128
1034.787	-2282
1034.852	-2000
1034.916	-2320
1034.981	-1156
1035.045	-1911
1035.109	-939
1035.173	-1362
1035.238	-2253
1035.302	-1965
1035.366	-1694
1035.430	-1864
1035.495	-1486
1035.559	-2534
1035.623	-2136
1035.687	-2371
1035.751	-2884
1035.815	-2043
1035.879	-2423
1035.943	-1481
1036.007	-2249
1036.071	-1942
1036.135	-1864
1036.198	-1773
1036.262	-2017
1036.326	-2484
1036.390	-2322
1036.454	-1849
1036.517	-2701
1036.581	-2108
1036.645	-2362
1036.709	-1764
1036.772	-3168
1036.836	-1965
1036.900	-2657
1036.963	-1908
1037.026	-3048
1037.090	-2031
1037.154	-2734
1037.217	-2543
1037.280	-2622
1037.344	-2515
1037.407	-2530
1037.471	-2153
1037.534	-2449
1037.597	-1986
1037.661	-2441
1037.724	-1950
1037.787	-2459
1037.850	-1952
1037.913	-3041
1037.977	-1544
1038.040	-2321
1038.103	-1349
1038.166	-1840
1038.229	-2383
1038.292	-1879
1038.355	-2170
1038.418	-2415
1038.481	-856
1038.544	-1806
1038.607	-2415
1038.670	-2501
1038.732	-1419
1038.795	-2139
1038.858	-1707
1038.921	-2166
1038.984	-2288
1039.046	-2668
1039.109	-2007
1039.172	-2361
1039.234	-2411
1039.297	-1493
1039.360	-2129
1039.422	-2475
1039.485	-1644
1039.547	-2256
1039.610	-1492
1039.672	-2382
1039.734	-1754
1039.797	-1462
1039.859	-2349
1039.922	-2386
1039.984	-2254
1040.046	-2131
1040.109	-2249
1040.171	-2456
1040.233	-1886
1040.295	-3083
1040.358	-2239
1040.420	-2425
1040.482	-1409
1040.544	-1967
1040.606	-1887
1040.668	-3082
1040.730	-1732
1040.792	-2714
1040.854	-2467
1040.916	-2369
1040.978	-2141
1041.040	-2264
1041.102	-1674
1041.164	-2602
1041.225	-2059
1041.287	-2688
1041.349	-1660
1041.411	-3070
1041.472	-1923
1041.534	-2058
1041.596	-1789
1041.657	-2384
1041.719	-1585
1041.781	-1953
1041.842	-1772
1041.904	-1784
1041.965	-1900
1042.027	-1879
1042.088	-1745
1042.150	-1707
1042.211	-2119
1042.272	-1493
1042.334	-2377
1042.395	-1905
1042.456	-2667
1042.518	-2143
1042.579	-2393
1042.640	-1998
1042.701	-1768
1042.763	-3113
1042.824	-2413
1042.885	-2608
1042.946	-2263
1043.007	-1359
1043.068	-1327
1043.129	-2218
1043.190	-2386
1043.251	-2229
1043.312	-1963
1043.373	-1889
1043.434	-1883
1043.495	-2373
1043.556	-1564
1043.616	-2702
1043.677	-2446
1043.738	-1710
1043.799	-2154
1043.859	-2242
1043.920	-1162
1043.981	-2481
1044.041	-1067
1044.102	-1872
1044.162	-1613
1044.223	-2206
1044.284	-1120
1044.344	-2048
1044.405	-1167
1044.465	-2113
1044.525	-1877
1044.586	-1474
1044.646	-1967
1044.707	-1699
1044.767	-1958
1044.827	-2338
1044.887	-2209
1044.948	-2305
1045.008	-1749
1045.068	-2006
1045.128	-2176
1045.188	-2096
1045.249	-1728
1045.309	-2653
1045.369	-1273
1045.429	-2014
1045.489	-1474
1045.549	-1151
1045.609	-2110
1045.669	-1707
1045.729	-2311
1045.789	-1427
1045.848	-2163
1045.908	-1667
1045.968	-1270
1046.028	-1426
1046.088	-1612
1046.147	-2277
1046.207	-1620
1046.267	-2173
1046.326	-1619
1046.386	-1741
1046.446	-1235
1046.505	-1399
1046.565	-1116
1046.624	-981
1046.684	-1479
1046.743	-1600
1046.803	-1103
1046.862	-366
1046.922	0
