'Start Wavelength	183.907
'End Wavelength	1046.922
'Gate Delay	5.000
'Gate Width (ms)	1.050
'Laser Output Level	0.000
'X Position	0.000
'Y Position	0.000
'Z Position	0.000
'Grid Point Number	1.000
'Shot Number	100.000
183.907	307.000
183.977	-239.000
184.047	568
184.116	-83
184.186	-72
184.256	992
184.325	-270
184.395	223
184.465	531
184.534	360
184.604	310
184.674	-338
184.743	850
184.813	587
184.883	19
184.952	643
185.022	-150
185.092	245
185.161	95
185.231	312
185.301	47
185.370	630
185.440	376
185.509	-238
185.579	51
185.649	709
185.718	-161
185.788	-101
185.857	91
185.927	50
185.996	-61
186.066	167
186.136	437
186.205	-2
186.275	-188
186.344	-350
186.414	717
186.483	152
186.553	585
186.622	287
186.692	-482
186.761	171
186.831	350
186.900	220
186.970	-86
187.039	440
187.109	619
187.178	326
187.248	159
187.317	53
187.387	320
187.456	20
187.526	-320
187.595	253
187.664	123
187.734	492
187.803	375
187.873	78
187.942	727
188.012	753
188.081	443
188.150	497
188.220	64
188.289	611
188.358	345
188.428	255
188.497	323
188.567	-39
188.636	815
188.705	-355
188.775	791
188.844	-83
188.913	626
188.983	280
189.052	-159
189.121	256
189.191	373
189.260	239
189.329	110
189.399	184
189.468	709
189.537	627
189.606	291
189.676	37
189.745	349
189.814	365
189.883	134
189.953	302
190.022	224
190.091	1231
190.161	618
190.230	579
190.299	540
190.368	-739
190.437	273
190.507	216
190.576	316
190.645	95
190.714	261
190.783	-281
190.853	480
190.922	64
190.991	316
191.060	610
191.129	269
191.198	109
191.268	32
191.337	-15
191.406	667
191.475	394
191.544	-419
191.613	492
191.682	498
191.752	-12
191.821	-283
191.890	-146
191.959	212
192.028	523
192.097	639
192.166	229
192.235	591
192.304	-76
192.373	337
192.442	-80
192.511	149
192.580	109
192.650	-501
192.719	484
192.788	56
192.857	407
192.926	342
192.995	-39
193.064	278
193.133	242
193.202	888
193.271	286
193.340	525
193.409	539
193.478	552
193.547	455
193.615	201
193.684	850
193.753	190
193.822	554
193.891	812
193.960	124
194.029	659
194.098	197
194.167	567
194.236	68
194.305	-177
194.374	671
194.443	-462
194.512	-384
194.580	-173
194.649	-331
194.718	55
194.787	215
194.856	509
194.925	-146
194.994	-28
195.062	223
195.131	-38
195.200	637
195.269	-95
195.338	-98
195.407	748
195.475	239
195.544	895
195.613	-118
195.682	411
195.751	124
195.819	-122
195.888	97
195.957	572
196.026	636
196.094	170
196.163	364
196.232	135
196.301	239
196.369	1048
196.438	456
196.507	213
196.576	461
196.644	432
196.713	-154
196.782	20
196.850	453
196.919	173
196.988	881
197.056	287
197.125	241
197.194	298
197.262	170
197.331	-38
197.400	-83
197.468	78
197.537	605
197.606	653
197.674	13
197.743	1115
197.812	144
197.880	1458
197.949	802
198.017	1570
198.086	352
198.155	660
198.223	640
198.292	1145
198.360	272
198.429	491
198.497	558
198.566	1382
198.635	771
198.703	331
198.772	548
198.840	1749
198.909	1082
198.977	44
199.046	588
199.114	224
199.183	624
199.251	384
199.320	780
199.388	1237
199.457	-18
199.525	260
199.594	79
199.662	310
199.731	431
199.799	475
199.867	77
199.936	381
200.004	356
200.073	526
200.141	881
200.210	69
200.278	827
200.346	202
200.415	-10
200.483	412
200.552	344
200.620	80
200.688	315
200.757	736
200.825	177
200.893	1125
200.962	447
201.030	676
201.098	-97
201.167	166
201.235	-382
201.303	224
201.372	32
201.440	880
201.508	484
201.577	197
201.645	703
201.713	259
201.781	104
201.850	139
201.918	110
201.986	457
202.055	883
202.123	-54
202.191	1094
202.259	70
202.327	216
202.396	446
202.464	40
202.532	565
202.600	1721
202.669	93
202.737	505
202.805	481
202.873	393
202.941	656
203.009	769
203.078	447
203.146	358
203.214	-187
203.282	136
203.350	-54
203.418	298
203.487	103
203.555	359
203.623	468
203.691	390
203.759	711
203.827	703
203.895	134
203.963	461
204.031	775
204.099	-2
204.168	685
204.236	197
204.304	708
204.372	667
204.440	921
204.508	537
204.576	-2
204.644	117
204.712	794
204.780	212
204.848	522
204.916	352
204.984	719
205.052	256
205.120	598
205.188	166
205.256	-84
205.324	320
205.392	344
205.460	393
205.528	684
205.596	579
205.664	268
205.732	641
205.799	2342
205.867	1123
205.935	-34
206.003	770
206.071	133
206.139	901
206.207	761
206.275	419
206.343	1267
206.411	787
206.478	421
206.546	-113
206.614	-36
206.682	-82
206.750	-98
206.818	493
206.885	250
206.953	312
207.021	766
207.089	314
207.157	379
207.225	444
207.292	485
207.360	1180
207.428	477
207.496	607
207.563	42
207.631	718
207.699	9
207.767	-85
207.834	298
207.902	409
207.970	286
208.038	503
208.105	661
208.173	878
208.241	-119
208.309	1074
208.376	948
208.444	1405
208.512	341
208.579	829
208.647	585
208.715	53
208.782	897
208.850	476
208.918	373
208.985	999
209.053	184
209.120	798
209.188	998
209.256	842
209.323	674
209.391	459
209.459	645
209.526	284
209.594	-404
209.661	-115
209.729	670
209.796	1028
209.864	1022
209.932	801
209.999	491
210.067	916
210.134	288
210.202	801
210.269	1286
210.337	304
210.404	1018
210.472	243
210.539	574
210.607	924
210.674	721
210.742	381
210.809	764
210.877	820
210.944	673
211.012	521
211.079	723
211.146	731
211.214	416
211.281	235
211.349	519
211.416	904
211.484	983
211.551	427
211.618	637
211.686	631
211.753	144
211.821	345
211.888	1289
211.955	12
212.023	538
212.090	553
212.157	452
212.225	1072
212.292	1374
212.359	3764
212.427	5646
212.494	1764
212.561	619
212.629	181
212.696	1407
212.763	1209
212.831	948
212.898	457
212.965	1044
213.032	1173
213.100	1087
213.167	1497
213.234	949
213.301	1133
213.369	1048
213.436	1067
213.503	717
213.570	1041
213.638	1036
213.705	1021
213.772	215
213.839	1061
213.906	834
213.973	555
214.041	265
214.108	916
214.175	1267
214.242	655
214.309	783
214.376	1119
214.444	913
214.511	642
214.578	434
214.645	1026
214.712	1044
214.779	1465
214.846	773
214.913	1149
214.980	1148
215.048	2108
215.115	775
215.182	1917
215.249	784
215.316	708
215.383	505
215.450	517
215.517	302
215.584	1451
215.651	396
215.718	779
215.785	1185
215.852	655
215.919	-32
215.986	888
216.053	435
216.120	916
216.187	456
216.254	428
216.321	965
216.388	466
216.455	719
216.522	500
216.589	620
216.656	1072
216.722	1296
216.789	1652
216.856	1682
216.923	944
216.990	944
217.057	843
217.124	1009
217.191	1280
217.258	1154
217.324	2602
217.391	3129
217.458	1726
217.525	1268
217.592	1131
217.659	686
217.725	1052
217.792	1689
217.859	1317
217.926	127
217.993	530
218.059	1266
218.126	698
218.193	188
218.260	123
218.327	1490
218.393	815
218.460	1154
218.527	262
218.594	1311
218.660	1119
218.727	845
218.794	432
218.860	685
218.927	103
218.994	348
219.061	-255
219.127	752
219.194	1041
219.261	634
219.327	402
219.394	685
219.461	166
219.527	619
219.594	1212
219.661	38
219.727	576
219.794	134
219.860	846
219.927	581
219.994	1269
220.060	1582
220.127	1302
220.193	443
220.260	762
220.326	1668
220.393	3451
220.460	3662
220.526	1735
220.593	1059
220.659	1844
220.726	2433
220.792	4065
220.859	2882
220.925	5763
220.992	7167
221.058	5594
221.125	4798
221.191	3150
221.258	1860
221.324	829
221.391	777
221.457	1020
221.524	676
221.590	2208
221.657	4288
221.723	2359
221.789	3482
221.856	1499
221.922	1364
221.989	550
222.055	898
222.121	601
222.188	326
222.254	-335
222.321	748
222.387	187
222.453	554
222.520	-11
222.586	339
222.652	648
222.719	488
222.785	596
222.851	335
222.918	361
222.984	541
223.050	132
223.116	256
223.183	742
223.249	454
223.315	464
223.382	287
223.448	481
223.514	519
223.580	340
223.647	974
223.713	496
223.779	239
223.845	262
223.911	837
223.978	542
224.044	350
224.110	529
224.176	391
224.242	270
224.309	-181
224.375	-86
224.441	559
224.507	-138
224.573	359
224.639	446
224.705	252
224.772	391
224.838	-541
224.904	738
224.970	699
225.036	-66
225.102	453
225.168	628
225.234	567
225.300	473
225.366	877
225.432	650
225.499	-20
225.565	377
225.631	701
225.697	1237
225.763	746
225.829	1052
225.895	1017
225.961	1472
226.027	953
226.093	1068
226.159	1590
226.225	2515
226.291	7899
226.357	8037
226.423	3046
226.489	1902
226.554	1473
226.620	2394
226.686	1999
226.752	2629
226.818	5909
226.884	12598
226.950	6973
227.016	2439
227.082	1215
227.148	1512
227.214	1621
227.279	162
227.345	-182
227.411	853
227.477	571
227.543	764
227.609	1796
227.674	717
227.740	731
227.806	666
227.872	237
227.938	1558
228.003	234
228.069	473
228.135	925
228.201	493
228.267	483
228.332	390
228.398	738
228.464	-213
228.530	-499
228.595	350
228.661	324
228.727	406
228.792	534
228.858	421
228.924	987
228.990	437
229.055	1453
229.121	211
229.187	177
229.252	977
229.318	596
229.384	84
229.449	578
229.515	-35
229.581	-109
229.646	924
229.712	964
229.777	1858
229.843	1419
229.909	1139
229.974	1451
230.040	1025
230.105	725
230.171	698
230.236	1532
230.302	2112
230.368	655
230.433	710
230.499	672
230.564	737
230.630	422
230.695	1011
230.761	1029
230.826	406
230.892	909
230.957	1004
231.023	969
231.088	41
231.154	75
231.219	782
231.284	829
231.350	338
231.415	887
231.481	527
231.546	456
231.612	560
231.677	-397
231.742	904
231.808	823
231.873	317
231.939	-124
232.004	1405
232.069	384
232.135	888
232.200	650
232.265	487
232.331	348
232.396	442
232.461	411
232.527	-183
232.592	469
232.657	448
232.723	540
232.788	220
232.853	231
232.918	297
232.984	-128
233.049	510
233.114	656
233.179	193
233.245	1081
233.310	933
233.375	34
233.440	-299
233.506	441
233.571	481
233.636	273
233.701	444
233.766	932
233.832	745
233.897	546
233.962	798
234.027	263
234.092	-20
234.157	-37
234.222	330
234.288	1545
234.353	2590
234.418	2852
234.483	1160
234.548	1099
234.613	960
234.678	1041
234.743	1606
234.808	3255
234.873	1759
234.938	1394
235.004	778
235.069	476
235.134	574
235.199	989
235.264	921
235.329	732
235.394	849
235.459	656
235.524	775
235.589	705
235.654	1126
235.719	203
235.784	256
235.849	650
235.913	1154
235.978	1717
236.043	1631
236.108	1403
236.173	542
236.238	899
236.303	703
236.368	906
236.433	2444
236.498	1869
236.563	1747
236.627	6103
236.692	15380
236.757	6272
236.822	3167
236.887	1917
236.952	1872
237.017	2212
237.081	2035
237.146	3258
237.211	6460
237.276	18692
237.341	17416
237.405	6127
237.470	3246
237.535	1633
237.600	1508
237.664	1804
237.729	1077
237.794	3186
237.859	3066
237.923	1670
237.988	1114
238.053	1917
238.118	1910
238.182	4941
238.247	2203
238.312	1073
238.376	1255
238.441	305
238.506	799
238.570	624
238.635	481
238.700	495
238.764	775
238.829	2249
238.893	1287
238.958	1203
239.023	1024
239.087	714
239.152	1073
239.216	502
239.281	865
239.346	611
239.410	553
239.475	2093
239.539	4425
239.604	1507
239.668	513
239.733	355
239.797	205
239.862	980
239.926	1823
239.991	637
240.055	749
240.120	968
240.184	370
240.249	700
240.313	783
240.378	354
240.442	3200
240.507	1809
240.571	997
240.635	1430
240.700	1480
240.764	764
240.829	524
240.893	-4
240.957	255
241.022	2226
241.086	2695
241.151	790
241.215	163
241.279	1331
241.344	1541
241.408	1192
241.472	760
241.537	953
241.601	1092
241.665	421
241.730	726
241.794	900
241.858	237
241.922	672
241.987	554
242.051	1032
242.115	538
242.179	691
242.244	213
242.308	534
242.372	1028
242.436	1184
242.501	1110
242.565	535
242.629	224
242.693	654
242.757	588
242.822	803
242.886	1046
242.950	1110
243.014	-247
243.078	925
243.142	922
243.206	600
243.271	1405
243.335	926
243.399	2337
243.463	12131
243.527	13931
243.591	2747
243.655	1598
243.719	932
243.783	1772
243.847	3555
243.911	2917
243.975	2611
244.040	1029
244.104	446
244.168	378
244.232	1391
244.296	2603
244.360	2040
244.424	1155
244.488	1125
244.552	347
244.615	-143
244.679	641
244.743	834
244.807	1116
244.871	104
244.935	452
244.999	-22
245.063	946
245.127	719
245.191	2690
245.255	1109
245.319	1124
245.383	147
245.446	1065
245.510	429
245.574	874
245.638	854
245.702	952
245.766	1472
245.829	501
245.893	500
245.957	222
246.021	948
246.085	543
246.149	1569
246.212	4028
246.276	3199
246.340	727
246.404	1330
246.467	1907
246.531	1489
246.595	817
246.659	641
246.722	1270
246.786	889
246.850	1613
246.913	897
246.977	440
247.041	893
247.104	496
247.168	950
247.232	4120
247.295	5842
247.359	1819
247.423	1581
247.486	2134
247.550	1253
247.614	991
247.677	964
247.741	473
247.804	462
247.868	1473
247.932	3868
247.995	4128
248.059	938
248.122	922
248.186	1854
248.249	3679
248.313	10981
248.376	6730
248.440	3680
248.503	1400
248.567	2374
248.630	2774
248.694	3772
248.757	6518
248.821	8965
248.884	4447
248.948	6590
249.011	8507
249.075	12020
249.138	6613
249.202	2705
249.265	2842
249.328	2683
249.392	1675
249.455	1693
249.519	2053
249.582	2910
249.645	2862
249.709	1921
249.772	1829
249.835	1761
249.899	1178
249.962	2270
250.025	1207
250.089	5944
250.152	4293
250.215	2295
250.279	1468
250.342	2238
250.405	1977
250.468	2211
250.532	3506
250.595	6196
250.658	28305
250.721	20850
250.785	6147
250.848	4483
250.911	2549
250.974	3165
251.038	5702
251.101	5766
251.164	2586
251.227	3473
251.290	3408
251.354	10305
251.417	33379
251.480	15658
251.543	23874
251.606	52606
251.669	19775
251.732	10235
251.795	10959
251.859	16989
251.922	29107
251.985	9229
252.048	4377
252.111	3672
252.174	3376
252.237	9408
252.300	11962
252.363	24586
252.426	30234
252.489	8125
252.552	5140
252.615	3853
252.678	5923
252.741	11839
252.804	24861
252.867	31734
252.930	12882
252.993	7311
253.056	5438
253.119	3039
253.182	3494
253.245	6382
253.308	3913
253.371	2456
253.434	2051
253.497	3985
253.559	6152
253.622	2657
253.685	3505
253.748	2602
253.811	2093
253.874	2853
253.937	1043
254.000	2457
254.062	5791
254.125	4537
254.188	4775
254.251	2205
254.314	1894
254.376	3716
254.439	2963
254.502	1971
254.565	5446
254.628	5288
254.690	2419
254.753	1224
254.816	1396
254.878	1440
254.941	5375
255.004	2414
255.067	907
255.129	1110
255.192	1045
255.255	-290
255.317	448
255.380	98
255.443	385
255.505	510
255.568	223
255.631	706
255.693	648
255.756	-677
255.819	1447
255.881	255
255.944	-149
256.006	487
256.069	187
256.132	-440
256.194	2007
256.257	2649
256.319	1674
256.382	866
256.444	534
256.507	981
256.569	978
256.632	1695
256.694	2003
256.757	13395
256.819	16734
256.882	3592
256.944	1470
257.007	2461
257.069	1793
257.132	1396
257.194	814
257.257	1279
257.319	1083
257.381	2020
257.444	8981
257.506	31879
257.569	15077
257.631	5778
257.693	4173
257.756	2339
257.818	1448
257.880	1337
257.943	805
258.005	409
258.067	383
258.130	535
258.192	1908
258.254	1197
258.317	372
258.379	1657
258.441	3502
258.503	2882
258.566	5918
258.628	3234
258.690	894
258.753	1146
258.815	2299
258.877	892
258.939	954
259.001	909
259.064	489
259.126	840
259.188	1379
259.250	1090
259.312	1711
259.375	2441
259.437	1165
259.499	530
259.561	482
259.623	-32
259.685	744
259.747	1121
259.809	5840
259.872	6772
259.934	13254
259.996	4838
260.058	817
260.120	892
260.182	334
260.244	888
260.306	441
260.368	662
260.430	416
260.492	2342
260.554	2805
260.616	1607
260.678	7008
260.740	4226
260.802	1108
260.864	959
260.926	574
260.988	1407
261.050	1443
261.112	2239
261.174	8119
261.236	3446
261.298	1868
261.359	4692
261.421	2952
261.483	372
261.545	861
261.607	463
261.669	656
261.731	2618
261.793	3299
261.854	645
261.916	1524
261.978	493
262.040	1409
262.102	503
262.164	658
262.225	1227
262.287	655
262.349	2343
262.411	1211
262.472	117
262.534	3119
262.596	1911
262.658	706
262.719	-97
262.781	1727
262.843	1898
262.904	756
262.966	413
263.028	1799
263.090	18845
263.151	19249
263.213	4447
263.275	1653
263.336	934
263.398	479
263.459	667
263.521	922
263.583	1616
263.644	827
263.706	-73
263.767	507
263.829	-44
263.891	-159
263.952	236
264.014	-22
264.075	668
264.137	1499
264.198	342
264.260	18
264.321	-340
264.383	2138
264.444	2595
264.506	197
264.567	52
264.629	1781
264.690	1277
264.752	227
264.813	582
264.875	317
264.936	975
264.998	245
265.059	191
265.120	774
265.182	3389
265.243	14599
265.305	4531
265.366	615
265.427	815
265.489	340
265.550	-438
265.611	161
265.673	-71
265.734	-129
265.795	257
265.857	-78
265.918	658
265.979	5855
266.040	21954
266.102	5970
266.163	2415
266.224	1275
266.286	1124
266.347	506
266.408	296
266.469	318
266.530	136
266.592	-131
266.653	1331
266.714	795
266.775	392
266.836	-124
266.898	457
266.959	399
267.020	393
267.081	620
267.142	86
267.203	-176
267.264	-1115
267.326	-89
267.387	-308
267.448	-115
267.509	290
267.570	-210
267.631	-190
267.692	-898
267.753	681
267.814	-89
267.875	2732
267.936	1356
267.997	741
268.058	396
268.119	73
268.180	308
268.241	-334
268.302	154
268.363	249
268.424	-166
268.485	695
268.546	-650
268.607	-635
268.668	-304
268.729	208
268.790	157
268.851	391
268.912	2465
268.972	1433
269.033	657
269.094	-27
269.155	260
269.216	152
269.277	-138
269.338	-96
269.398	591
269.459	-449
269.520	694
269.581	504
269.642	676
269.702	-143
269.763	405
269.824	-45
269.885	704
269.945	543
270.006	508
270.067	-418
270.128	-315
270.188	25
270.249	-310
270.310	-996
270.370	783
270.431	-700
270.492	-566
270.553	267
270.613	1734
270.674	1530
270.734	-364
270.795	869
270.856	515
270.916	-717
270.977	408
271.038	917
271.098	-58
271.159	847
271.219	166
271.280	440
271.340	142
271.401	18
271.462	1323
271.522	-221
271.583	-101
271.643	-51
271.704	363
271.764	526
271.825	2955
271.885	12148
271.946	6537
272.006	2004
272.066	7670
272.127	5589
272.187	822
272.248	1387
272.308	3332
272.369	7052
272.429	1342
272.489	1761
272.550	926
272.610	1984
272.671	66
272.731	1710
272.791	1630
272.852	357
272.912	268
272.972	606
273.033	-161
273.093	481
273.153	1095
273.214	625
273.274	1042
273.334	7367
273.394	6183
273.455	1824
273.515	4651
273.575	5299
273.635	1916
273.696	6190
273.756	7106
273.816	1591
273.876	1563
273.936	5560
273.997	3632
274.057	288
274.117	991
274.177	3705
274.237	12949
274.297	6668
274.358	4971
274.418	7759
274.478	2818
274.538	1336
274.598	1734
274.658	6536
274.718	4461
274.778	954
274.838	797
274.898	4570
274.958	7995
275.018	10455
275.078	3216
275.138	595
275.198	324
275.258	244
275.318	802
275.378	1843
275.438	1002
275.498	1241
275.558	6444
275.618	8593
275.678	3441
275.738	1960
275.798	485
275.858	-59
275.918	124
275.978	-152
276.038	564
276.098	180
276.157	2886
276.217	3581
276.277	842
276.337	770
276.397	15
276.457	848
276.517	222
276.576	-478
276.636	214
276.696	727
276.756	2763
276.815	331
276.875	222
276.935	-31
276.995	-125
277.055	-16
277.114	-345
277.174	2386
277.234	3391
277.293	693
277.353	230
277.413	360
277.472	193
277.532	157
277.592	815
277.651	3518
277.711	2545
277.771	1936
277.830	6465
277.890	2229
277.950	6699
278.009	9331
278.069	3148
278.128	3597
278.188	2736
278.248	2018
278.307	4717
278.367	998
278.426	357
278.486	223
278.545	-334
278.605	122
278.664	-35
278.724	605
278.783	7351
278.843	8199
278.902	1516
278.962	1049
279.021	831
279.081	631
279.140	416
279.199	956
279.259	1098
279.318	414
279.378	2160
279.437	5780
279.496	20048
279.556	51058
279.615	17633
279.675	4442
279.734	3332
279.793	7370
279.853	9515
279.912	1661
279.971	1707
280.031	1331
280.090	6032
280.149	6020
280.208	8402
280.268	40018
280.327	17081
280.386	3595
280.445	4490
280.505	2197
280.564	1336
280.623	1064
280.682	3419
280.742	2084
280.801	319
280.860	-64
280.919	406
280.978	-78
281.037	-5
281.097	-107
281.156	-8
281.215	129
281.274	1596
281.333	7556
281.392	1516
281.451	209
281.510	546
281.569	180
281.628	-138
281.688	177
281.747	739
281.806	-510
281.865	118
281.924	-644
281.983	-357
282.042	-880
282.101	20
282.160	279
282.219	127
282.278	1043
282.337	2480
282.396	773
282.454	175
282.513	1386
282.572	4368
282.631	332
282.690	-260
282.749	-469
282.808	275
282.867	126
282.926	-328
282.985	93
283.043	-206
283.102	-668
283.161	-44
283.220	3719
283.279	4124
283.338	648
283.396	227
283.455	-38
283.514	-18
283.573	643
283.631	-98
283.690	-148
283.749	359
283.808	1362
283.866	678
283.925	-447
283.984	267
284.043	253
284.101	1012
284.160	-420
284.219	364
284.277	284
284.336	2157
284.395	7446
284.453	3530
284.512	1121
284.570	1439
284.629	400
284.688	213
284.746	860
284.805	1133
284.863	1536
284.922	1179
284.981	1788
285.039	1837
285.098	7008
285.156	29015
285.215	68422
285.273	39074
285.332	13799
285.390	6880
285.449	4253
285.507	3166
285.566	2540
285.624	1506
285.683	1014
285.741	701
285.799	156
285.858	228
285.916	-240
285.975	-553
286.033	-171
286.091	136
286.150	-419
286.208	168
286.267	67
286.325	156
286.383	1135
286.442	530
286.500	315
286.558	-135
286.616	330
286.675	321
286.733	769
286.791	864
286.850	596
286.908	750
286.966	1664
287.024	466
287.083	-42
287.141	-199
287.199	55
287.257	648
287.315	605
287.374	821
287.432	2590
287.490	826
287.548	459
287.606	858
287.664	293
287.723	810
287.781	973
287.839	809
287.897	1348
287.955	2723
288.013	5156
288.071	16195
288.129	81077
288.187	111904
288.245	34476
288.303	12155
288.361	7580
288.419	5154
288.477	3619
288.535	3159
288.593	1706
288.651	729
288.709	1094
288.767	1094
288.825	182
288.883	203
288.941	647
288.999	294
289.057	345
289.115	-97
289.173	-228
289.231	165
289.289	71
289.346	122
289.404	116
289.462	923
289.520	1445
289.578	-321
289.636	-54
289.694	-441
289.751	-604
289.809	-490
289.867	36
289.925	385
289.983	-277
290.040	-301
290.098	-345
290.156	310
290.214	-175
290.271	-1067
290.329	-844
290.387	-1075
290.444	-294
290.502	-1027
290.560	-388
290.617	-455
290.675	-313
290.733	-747
290.790	33
290.848	-454
290.906	-775
290.963	-499
291.021	99
291.078	-177
291.136	199
291.194	4290
291.251	3321
291.309	594
291.366	-134
291.424	-28
291.481	-42
291.539	-403
291.596	-372
291.654	-93
291.711	-497
291.769	636
291.826	961
291.884	-590
291.941	-336
291.999	-26
292.056	264
292.114	-464
292.171	-300
292.228	-75
292.286	389
292.343	415
292.401	562
292.458	-326
292.515	-546
292.573	540
292.630	-8
292.687	-2
292.745	-652
292.802	1404
292.859	3946
292.917	6032
292.974	1442
293.031	401
293.089	-636
293.146	56
293.203	48
293.260	272
293.318	54
293.375	65
293.432	14
293.489	-356
293.546	75
293.604	946
293.661	7299
293.718	11338
293.775	2835
293.832	1211
293.889	732
293.947	171
294.004	-410
294.061	761
294.118	3590
294.175	5247
294.232	5024
294.289	1266
294.346	848
294.403	833
294.460	475
294.517	181
294.574	-278
294.631	22
294.688	958
294.745	6093
294.802	16168
294.859	9799
294.916	3067
294.973	1950
295.030	1387
295.087	85
295.144	840
295.201	677
295.258	403
295.315	2000
295.372	8537
295.429	9176
295.486	2391
295.542	2321
295.599	7041
295.656	6534
295.713	7859
295.770	7008
295.827	2597
295.883	920
295.940	1177
295.997	1854
296.054	1244
296.111	506
296.167	498
296.224	355
296.281	-92
296.338	-481
296.394	14
296.451	721
296.508	5112
296.564	6745
296.621	5982
296.678	16072
296.734	13005
296.791	3827
296.848	1339
296.904	3138
296.961	7792
297.018	12108
297.074	6591
297.131	2042
297.187	1761
297.244	4618
297.301	20200
297.357	19072
297.414	6080
297.470	1824
297.527	572
297.583	1046
297.640	939
297.696	1182
297.753	-279
297.809	-108
297.866	-879
297.922	365
297.979	246
298.035	-4
298.092	2179
298.148	7208
298.204	4429
298.261	2486
298.317	8729
298.374	15249
298.430	5651
298.486	2006
298.543	882
298.599	1626
298.656	2296
298.712	8431
298.768	17680
298.824	9357
298.881	2465
298.937	259
298.993	1255
299.050	1212
299.106	1023
299.162	389
299.218	348
299.275	408
299.331	1096
299.387	5785
299.443	15975
299.500	8842
299.556	3009
299.612	1883
299.668	1865
299.724	540
299.780	591
299.837	1142
299.893	4144
299.949	11430
300.005	9354
300.061	12226
300.117	15240
300.173	6660
300.229	2294
300.285	2406
300.341	2912
300.397	1701
300.453	684
300.510	402
300.566	629
300.622	320
300.678	2421
300.734	7069
300.790	11048
300.845	11741
300.901	6895
300.957	8550
301.013	4314
301.069	1640
301.125	1244
301.181	1220
301.237	312
301.293	-43
301.349	-484
301.405	-11
301.461	470
301.516	1071
301.572	1066
301.628	2134
301.684	1806
301.740	5015
301.796	4452
301.851	4503
301.907	7779
301.963	7871
302.019	22544
302.074	44607
302.130	31836
302.186	12255
302.242	4975
302.297	3356
302.353	4366
302.409	7843
302.464	6260
302.520	6876
302.576	15900
302.631	13734
302.687	5735
302.743	2420
302.798	1683
302.854	635
302.910	1325
302.965	1658
303.021	3368
303.076	3008
303.132	4324
303.187	3394
303.243	1385
303.299	599
303.354	919
303.410	448
303.465	414
303.521	629
303.576	1027
303.632	1931
303.687	5782
303.743	14543
303.798	8379
303.853	3507
303.909	1249
303.964	1477
304.020	2501
304.075	3141
304.130	3811
304.186	5620
304.241	6187
304.297	3466
304.352	1782
304.358	1751
304.407	1492
304.449	1679
304.463	1743
304.518	1326
304.539	1091
304.573	710
304.629	1483
304.630	1531
304.684	3720
304.720	9705
304.739	12801
304.794	12772
304.811	10886
304.850	6160
304.902	1968
304.905	1702
304.960	1854
304.992	1736
305.015	1673
305.071	881
305.083	1008
305.126	1428
305.173	1261
305.181	1238
305.236	163
305.264	676
305.292	1166
305.347	642
305.354	672
305.402	987
305.445	1584
305.457	1731
305.512	2292
305.535	2214
305.567	2074
305.622	2515
305.626	2717
305.678	6507
305.716	12679
305.733	15245
305.788	13253
305.807	12446
305.843	10438
305.897	14295
305.898	14356
305.953	11233
305.988	8302
306.008	6338
306.063	3163
306.078	2647
306.118	1731
306.168	1391
306.173	1365
306.228	1006
306.259	1123
306.283	1225
306.338	1077
306.349	1150
306.393	1551
306.440	1057
306.448	943
306.503	1761
306.530	1811
306.558	2136
306.613	5344
306.620	5667
306.668	8060
306.711	11300
306.723	11902
306.778	8616
306.801	6990
306.833	4635
306.888	2129
306.892	2040
306.943	1420
306.982	1173
306.997	1187
307.052	1254
307.072	1476
307.107	1846
307.162	1811
307.163	1818
307.217	2636
307.253	3366
307.272	3746
307.327	3827
307.343	3616
307.381	2909
307.434	2677
307.436	2711
307.491	5291
307.524	7843
307.546	9575
307.600	9859
307.614	9338
307.655	5594
307.704	3014
307.710	2962
307.765	3203
307.795	4265
307.819	5327
307.874	7513
307.885	7400
307.929	5959
307.975	5054
307.984	5104
308.038	7630
308.065	10566
308.093	16313
308.148	37654
308.156	42674
308.202	80466
308.246	91561
308.257	86962
308.312	47069
308.336	33758
308.366	25078
308.421	13706
308.426	12851
308.475	8326
308.517	5999
308.530	5637
308.585	4538
308.607	4258
308.639	4310
308.694	4492
308.697	4587
308.748	6521
308.787	8488
308.803	9134
308.857	7939
308.877	7662
308.912	6398
308.967	5167
308.967	5163
309.021	6990
309.058	8868
309.076	10808
309.130	20163
309.148	25184
309.185	46492
309.238	90229
309.239	90950
309.293	115744
309.328	113646
309.348	94588
309.402	44238
309.418	31931
309.457	20952
309.508	11421
309.511	11173
309.566	8695
309.598	7887
309.620	8086
309.674	9077
309.688	9228
309.729	8732
309.778	7572
309.783	7404
309.837	5803
309.868	4983
309.892	5450
309.946	8493
309.959	9365
310.001	14413
310.049	18459
310.055	17973
310.109	11782
310.139	8520
310.163	6572
310.218	3408
310.229	2796
310.272	2447
310.319	2422
310.326	2377
310.381	1872
310.409	1702
310.435	1626
310.489	1553
310.499	1515
310.543	1985
310.589	2559
310.598	2514
310.652	2027
310.679	1871
310.706	1775
310.760	1379
310.769	1343
310.814	1407
310.859	1464
310.868	1404
310.923	805
310.948	687
310.977	988
311.031	1379
311.038	1424
311.085	1486
311.128	1623
311.139	1607
311.193	1431
311.218	1310
311.247	1312
311.301	1450
311.308	1459
311.356	1422
311.398	1335
311.410	1407
311.464	1755
311.488	1922
311.518	1756
311.572	1407
311.578	1370
311.626	1822
311.668	2197
311.680	2212
311.734	2275
311.758	2283
311.788	2250
311.842	2202
311.847	2191
311.896	2274
311.937	2416
311.950	2485
312.004	2722
312.027	2821
312.058	2324
312.112	1443
312.117	1356
312.165	1501
312.207	1630
312.297	2480
312.386	2615
312.476	1107
312.566	3624
312.656	1651
312.745	1644
312.835	1375
312.925	1144
313.015	1516
313.104	2120
313.194	1869
313.284	1777
313.374	1890
313.463	2298
313.553	1607
313.643	1194
313.732	1224
313.822	774
313.912	1328
314.001	1709
314.091	2377
314.180	1926
314.270	1852
314.360	2328
314.449	1899
314.539	1771
314.628	1676
314.718	1136
314.808	1733
314.897	1256
314.987	1102
315.076	2032
315.166	2331
315.255	2272
315.345	2060
315.434	2094
315.524	2174
315.613	1715
315.703	2160
315.792	1894
315.881	1732
315.971	1684
316.060	3255
316.150	3707
316.239	4493
316.328	2508
316.418	1661
316.507	1448
316.597	1058
316.686	1622
316.775	2738
316.865	4835
316.954	2190
317.043	1610
317.133	1133
317.222	1383
317.311	964
317.400	892
317.490	1920
317.579	1986
317.668	1362
317.757	2573
317.847	2341
317.936	2429
318.025	3105
318.114	2694
318.203	2077
318.293	1818
318.382	4234
318.471	4224
318.560	5172
318.649	11774
318.738	5940
318.828	1758
318.917	2108
319.006	2589
319.095	4540
319.184	14512
319.273	13238
319.362	5684
319.451	1701
319.540	1947
319.629	2704
319.718	6292
319.807	3591
319.896	4034
319.985	17942
320.074	12894
320.163	2938
320.252	2718
320.341	2638
320.430	3000
320.519	2562
320.608	2139
320.697	1774
320.786	1595
320.875	1962
320.964	1952
321.053	3540
321.142	4431
321.230	5913
321.319	3103
321.408	8373
321.497	5796
321.586	3104
321.675	4238
321.764	4710
321.852	2829
321.941	4502
322.030	4460
322.119	3346
322.207	8527
322.296	7130
322.385	3545
322.474	2740
322.562	8192
322.651	7712
322.740	3432
322.829	6219
322.917	5167
323.006	4537
323.095	3230
323.183	2757
323.272	2230
323.361	4456
323.449	16006
323.538	8239
323.626	9058
323.715	10432
323.804	2390
323.892	8076
323.981	7291
324.069	3473
324.158	4476
324.246	6836
324.335	2136
324.424	3333
324.512	2527
324.601	1817
324.689	1603
324.778	2331
324.866	3346
324.954	1815
325.043	1820
325.131	2166
325.220	4068
325.308	5076
325.397	3446
325.485	2977
325.574	1307
325.662	1274
325.750	850
325.839	1414
325.927	474
326.015	1265
326.104	1641
326.192	2379
326.280	1338
326.369	669
326.457	1542
326.545	2097
326.634	2333
326.722	1158
326.810	1034
326.898	1438
326.987	1386
327.075	2018
327.163	2226
327.251	958
327.340	563
327.428	1485
327.516	1100
327.604	844
327.692	1120
327.781	1495
327.869	2063
327.957	877
328.045	2376
328.133	1151
328.221	1016
328.309	1262
328.397	1028
328.485	1669
328.574	2019
328.662	5114
328.750	4824
328.838	1649
328.926	713
329.014	1174
329.102	987
329.190	3316
329.278	3368
329.366	1623
329.454	801
329.542	939
329.630	710
329.718	1331
329.806	732
329.893	1755
329.981	1374
330.069	1790
330.157	6142
330.245	28752
330.333	25118
330.421	4347
330.509	2270
330.597	5726
330.684	5930
330.772	1828
330.860	1910
330.948	2494
331.036	2285
331.123	993
331.211	1517
331.299	522
331.387	2158
331.475	4219
331.562	1600
331.650	618
331.738	1166
331.825	917
331.913	1020
332.001	858
332.089	1130
332.176	1522
332.264	4023
332.352	5519
332.439	1687
332.527	1290
332.614	1254
332.702	1204
332.790	1207
332.877	1178
332.965	5286
333.052	1715
333.140	1060
333.228	2055
333.315	814
333.403	1390
333.490	2073
333.578	2446
333.665	3116
333.753	1767
333.840	637
333.928	1238
334.015	2458
334.103	5024
334.190	17368
334.278	9837
334.365	1364
334.452	1423
334.540	896
334.627	1417
334.715	1358
334.802	2228
334.889	12375
334.977	25018
335.064	3451
335.151	1169
335.239	1196
335.326	2122
335.413	5941
335.501	19062
335.588	3783
335.675	936
335.762	996
335.850	2840
335.937	2294
336.024	3447
336.111	15127
336.199	12289
336.286	2071
336.373	1145
336.460	868
336.547	743
336.635	988
336.722	1400
336.809	527
336.896	1324
336.983	4300
337.070	12346
337.157	23541
337.245	14439
337.332	13863
337.419	1868
337.506	1620
337.593	1235
337.680	2469
337.767	12873
337.854	5557
337.941	3733
338.028	4286
338.115	1771
338.202	2557
338.289	2778
338.376	10614
338.463	6912
338.550	4950
338.637	11222
338.724	3047
338.811	5134
338.898	1461
338.984	1145
339.071	906
339.158	1647
339.245	3680
339.332	2803
339.419	2014
339.506	3948
339.593	706
339.679	611
339.766	187
339.853	1216
339.940	3100
340.027	1152
340.113	1163
340.200	1390
340.287	1270
340.374	1133
340.460	2307
340.547	1716
340.634	1250
340.720	5504
340.807	6528
340.894	418
340.980	1061
341.067	724
341.154	432
341.240	719
341.327	3388
341.414	1006
341.500	1482
341.587	945
341.674	896
341.760	2142
341.847	3608
341.933	1889
342.020	352
342.106	730
342.193	593
342.279	2040
342.366	1250
342.452	2196
342.539	1572
342.625	1775
342.712	7411
342.798	4432
342.885	1580
342.971	556
343.058	999
343.144	536
343.230	581
343.317	370
343.403	1342
343.490	1031
343.576	729
343.662	1350
343.749	636
343.835	1017
343.921	1939
344.008	11776
344.094	49013
344.180	19524
344.267	3227
344.353	8237
344.439	15993
344.525	5201
344.612	2304
344.698	2116
344.784	2234
344.870	407
344.957	684
345.043	1238
345.129	972
345.215	2317
345.301	781
345.387	884
345.474	150
345.560	-4
345.646	588
345.732	336
345.818	970
345.904	660
345.990	1271
346.076	309
346.162	1794
346.249	1424
346.335	702
346.421	612
346.507	2728
346.593	17385
346.679	8108
346.765	1255
346.851	1259
346.937	556
347.023	804
347.108	505
347.194	916
347.280	356
347.366	1112
347.452	2407
347.538	18323
347.624	18130
347.710	14351
347.796	2838
347.882	754
347.967	915
348.053	299
348.139	635
348.225	440
348.311	450
348.397	1055
348.482	667
348.568	1451
348.654	435
348.740	321
348.825	336
348.911	982
348.997	5320
349.083	22961
349.168	6194
349.254	1348
349.340	1079
349.425	698
349.511	646
349.597	1059
349.682	1585
349.768	8727
349.854	8394
349.939	1360
350.025	769
350.110	1116
350.196	863
350.282	-347
350.367	403
350.453	616
350.538	1552
350.624	493
350.709	1317
350.795	452
350.880	311
350.966	474
351.051	838
351.137	1247
351.222	1048
351.308	2123
351.393	7856
351.479	3753
351.564	125
351.649	532
351.735	391
351.820	-540
351.906	246
351.991	1161
352.076	3529
352.162	10501
352.247	1511
352.332	926
352.418	1089
352.503	2715
352.588	8519
352.673	13975
352.759	3112
352.844	918
352.929	182
353.014	1541
353.100	896
353.185	1358
353.270	2309
353.355	2802
353.441	542
353.526	695
353.611	1550
353.696	3138
353.781	2050
353.866	735
353.952	247
354.037	1872
354.122	4990
354.207	4758
354.292	2372
354.377	261
354.462	857
354.547	719
354.632	873
354.717	920
354.802	1983
354.887	990
354.972	816
355.057	663
355.142	-16
355.227	387
355.312	1716
355.397	2609
355.482	7580
355.567	6589
355.652	2363
355.737	3460
355.822	8189
355.907	15329
355.991	2457
356.076	752
356.161	-10
356.246	848
356.331	379
356.416	2086
356.501	13320
356.585	32726
356.670	5678
356.755	1278
356.840	2282
356.924	6675
357.009	46092
357.094	34162
357.179	4493
357.263	2364
357.348	1637
357.433	2880
357.517	1072
357.602	1531
357.687	1322
357.771	1643
357.856	4865
357.941	5798
358.025	5967
358.110	42780
358.195	40913
358.279	4709
358.364	2268
358.448	5414
358.533	18320
358.617	19897
358.702	14996
358.787	8454
358.871	2522
358.956	3273
359.040	1356
359.125	941
359.209	409
359.294	1558
359.378	5496
359.462	2917
359.547	852
359.631	758
359.716	786
359.800	395
359.885	1038
359.969	1446
360.053	985
360.138	957
360.222	986
360.306	2612
360.391	2335
360.475	2210
360.559	7562
360.644	7271
360.728	7471
360.812	5532
360.896	34128
360.981	18930
361.065	7218
361.149	1715
361.233	1059
361.318	1559
361.402	692
361.486	1101
361.570	1003
361.654	874
361.739	2046
361.823	12219
361.907	41926
361.991	11452
362.075	2030
362.159	4218
362.243	4132
362.327	1769
362.411	1732
362.495	921
362.580	593
362.664	351
362.748	301
362.832	442
362.916	452
363.000	1626
363.084	8903
363.168	42252
363.252	16259
363.336	3015
363.420	2844
363.503	9373
363.587	23901
363.671	5231
363.755	1618
363.839	2005
363.923	1547
364.007	2171
364.091	4200
364.175	2500
364.258	19492
364.342	18720
364.426	2768
364.510	1486
364.594	2380
364.677	3270
364.761	20397
364.845	32896
364.929	6169
365.013	4709
365.096	2395
365.180	4511
365.264	2996
365.347	21551
365.431	18134
365.515	3114
365.598	1251
365.682	1067
365.766	1008
365.849	2864
365.933	1501
366.017	914
366.100	1701
366.184	543
366.267	240
366.351	-109
366.435	804
366.518	21
366.602	-119
366.685	-111
366.769	585
366.852	995
366.936	3217
367.019	2605
367.103	853
367.186	2205
367.270	1609
367.353	-199
367.436	200
367.520	408
367.603	348
367.687	1032
367.770	2140
367.853	1703
367.937	3785
368.020	17075
368.104	4890
368.187	1397
368.270	2393
368.353	3590
368.437	3220
368.520	6684
368.603	5510
368.687	4691
368.770	18948
368.853	7141
368.936	2158
369.020	3795
369.103	724
369.186	1067
369.269	369
369.352	696
369.436	2799
369.519	1593
369.602	840
369.685	584
369.768	427
369.851	782
369.934	29
370.018	-39
370.101	2144
370.184	2419
370.267	1157
370.350	1432
370.433	3124
370.516	8910
370.599	22774
370.682	5318
370.765	6631
370.848	9600
370.931	20663
371.014	13812
371.097	1870
371.180	561
371.263	60
371.346	349
371.429	-266
371.511	418
371.594	804
371.677	1813
371.760	3105
371.843	2507
371.926	9348
372.009	45939
372.091	24674
372.174	5933
372.257	20611
372.340	15698
372.423	4124
372.505	5413
372.588	2965
372.671	3335
372.754	17629
372.836	17766
372.919	4432
373.002	13125
373.085	6492
373.167	2942
373.250	6757
373.332	19243
373.415	22989
373.498	60866
373.580	36089
373.663	14692
373.746	44779
373.828	13639
373.911	2825
373.993	2374
374.076	8106
374.159	16191
374.241	4611
374.324	12869
374.406	16391
374.489	8948
374.571	47560
374.654	36740
374.736	7259
374.819	24821
374.901	39802
374.983	57615
375.066	16200
375.148	2408
375.231	5587
375.313	23062
375.395	11442
375.478	2182
375.560	915
375.643	939
375.725	4339
375.807	28630
375.890	40731
375.972	11339
376.054	4661
376.136	6312
376.219	4118
376.301	4428
376.383	30625
376.465	22260
376.548	5023
376.630	4964
376.712	22072
376.794	22321
376.877	1937
376.959	1357
377.041	444
377.123	1251
377.205	3002
377.287	1528
377.369	247
377.452	-150
377.534	583
377.616	652
377.698	260
377.780	-423
377.862	639
377.944	2
378.026	215
378.108	286
378.190	-295
378.272	-293
378.354	73
378.436	434
378.518	86
378.600	3389
378.682	4059
378.764	8128
378.846	13567
378.928	2699
379.010	2911
379.091	1853
379.173	908
379.255	993
379.337	723
379.419	2656
379.501	14834
379.583	12123
379.664	1319
379.746	2299
379.828	7756
379.910	15184
379.991	18419
380.073	4731
380.155	905
380.237	276
380.318	271
380.400	805
380.482	977
380.564	3447
380.645	2338
380.727	2683
380.809	1123
380.890	559
380.972	729
381.053	371
381.135	1076
381.217	1607
381.298	10137
381.380	9471
381.461	3199
381.543	13970
381.624	41547
381.706	10512
381.787	2200
381.869	1480
381.951	4583
382.032	36282
382.113	46280
382.195	8097
382.276	3657
382.358	3451
382.439	20817
382.521	26839
382.602	46750
382.684	26614
382.765	22516
382.846	30431
382.928	19075
383.009	15853
383.090	5342
383.172	15408
383.253	51518
383.334	24472
383.416	29438
383.497	28846
383.578	5332
383.659	4970
383.741	12791
383.822	61295
383.903	58966
383.984	14745
384.066	35917
384.147	35956
384.228	7660
384.309	2861
384.390	1743
384.471	1568
384.553	1609
384.634	1764
384.715	3239
384.796	960
384.877	1433
384.958	5602
385.039	16699
385.120	6711
385.201	1966
385.282	1557
385.363	2440
385.444	1441
385.525	1949
385.606	12528
385.687	25362
385.768	5851
385.849	2164
385.930	9979
386.011	42155
386.092	20425
386.173	2625
386.254	793
386.335	1118
386.416	1138
386.496	2707
386.577	13354
386.658	5563
386.739	1826
386.820	1317
386.901	1355
386.981	1204
387.062	-205
387.143	837
387.224	7028
387.304	13530
387.385	3631
387.466	1011
387.547	1105
387.627	1066
387.708	1372
387.789	12808
387.869	33350
387.950	15066
388.031	1695
388.111	-413
388.192	2408
388.273	3248
388.353	3129
388.434	1501
388.514	2222
388.595	13415
388.676	35621
388.756	18048
388.837	9227
388.917	8690
388.998	1563
389.078	895
389.159	835
389.239	407
389.320	556
389.400	713
389.480	2624
389.561	11651
389.641	12371
389.722	2132
389.802	2914
389.883	3031
389.963	13125
390.043	15999
390.124	3295
390.204	1561
390.284	8967
390.365	11450
390.445	4743
390.525	20942
390.605	33865
390.686	11515
390.766	2580
390.846	1490
390.927	366
391.007	-58
391.087	496
391.167	294
391.247	276
391.328	1169
391.408	2167
391.488	2232
391.568	396
391.648	424
391.728	1574
391.808	837
391.888	1769
391.969	2512
392.049	13367
392.129	8135
392.209	3035
392.289	12915
392.369	13182
392.449	5038
392.529	3677
392.609	1507
392.689	872
392.769	9672
392.849	17431
392.929	5120
393.009	13531
393.089	20905
393.169	3986
393.248	1116
393.328	14166
393.408	40025
393.488	12465
393.568	2071
393.648	788
393.728	1330
393.807	693
393.887	2074
393.967	1122
394.047	1134
394.127	2768
394.206	5145
394.286	13979
394.366	87733
394.446	198769
394.525	67847
394.605	11571
394.685	4676
394.764	6016
394.844	11440
394.924	13247
395.003	4301
395.083	2608
395.163	1663
395.242	2084
395.322	2339
395.402	1300
395.481	1967
395.561	2709
395.640	12718
395.720	12657
395.799	12143
395.879	20883
395.958	10715
396.038	22492
396.117	118941
396.197	258703
396.276	103118
396.356	22651
396.435	10161
396.515	6470
396.594	4403
396.673	3888
396.753	4325
396.832	16383
396.912	31202
396.991	16882
397.070	3331
397.150	1438
397.229	1051
397.308	993
397.388	614
397.467	701
397.546	-162
397.625	-480
397.705	1574
397.784	1252
397.863	902
397.942	383
398.022	478
398.101	1419
398.180	12034
398.259	11461
398.338	2240
398.417	760
398.497	49
398.576	255
398.655	44
398.734	142
398.813	246
398.892	1053
398.971	11935
399.050	14661
399.129	1666
399.208	341
399.287	531
399.366	-295
399.445	295
399.524	-21
399.603	-2
399.682	540
399.761	2050
399.840	11192
399.919	21395
399.998	4060
400.077	-137
400.156	-283
400.235	70
400.313	-390
400.392	-120
400.471	1588
400.550	9763
400.629	4368
400.708	835
400.786	4
400.865	787
400.944	3151
401.023	2426
401.102	-492
401.180	32
401.259	-927
401.338	-327
401.416	-128
401.495	-137
401.574	553
401.652	-321
401.731	413
401.810	159
401.888	-379
401.967	-826
402.046	-814
402.124	-187
402.203	581
402.281	-23
402.360	-15
402.438	1361
402.517	2808
402.596	851
402.674	-279
402.753	-660
402.831	-16
402.910	-39
402.988	20
403.066	10003
403.145	13923
403.223	2768
403.302	7957
403.380	11013
403.459	7139
403.537	5526
403.615	909
403.694	-813
403.772	-282
403.850	-208
403.929	-1038
404.007	-677
404.085	661
404.164	670
404.242	26
404.320	456
404.398	6953
404.477	14518
404.555	21394
404.633	44594
404.711	14565
404.789	7497
404.868	1441
404.946	-394
405.024	-329
405.102	-606
405.180	-208
405.258	-1175
405.336	71
405.415	-1180
405.493	303
405.571	1249
405.649	-464
405.727	-849
405.805	228
405.883	-124
405.961	-466
406.039	-111
406.117	30
406.195	558
406.273	1435
406.351	18143
406.429	27548
406.507	4401
406.585	494
406.663	-301
406.740	311
406.818	685
406.896	121
406.974	-506
407.052	432
407.130	6598
407.208	26675
407.285	10358
407.363	-205
407.441	-666
407.519	-644
407.596	-62
407.674	-56
407.752	1107
407.830	4651
407.907	2136
407.985	161
408.063	-653
408.141	-831
408.218	-364
408.296	324
408.373	-587
408.451	5
408.529	-15
408.606	-323
408.684	-761
408.762	-628
408.839	-1117
408.917	-1120
408.994	-288
409.072	-382
409.149	-1017
409.227	-429
409.304	-399
409.382	-469
409.459	-829
409.537	-856
409.614	-1090
409.692	-1035
409.769	-1064
409.846	-932
409.924	-507
410.001	-658
410.079	-448
410.156	-42
410.233	-655
410.311	-495
410.388	-850
410.465	-246
410.543	-1440
410.620	-1304
410.697	-1120
410.775	436
410.852	-1075
410.929	-884
411.006	-687
411.083	-1197
411.161	-398
411.238	326
411.315	-9
411.392	-349
411.469	-614
411.547	-585
411.624	-446
411.701	-1157
411.778	-514
411.855	86
411.932	-663
412.009	-790
412.086	-596
412.163	-998
412.240	-531
412.317	-643
412.394	-342
412.471	-323
412.548	-541
412.625	-431
412.702	-511
412.779	93
412.856	-222
412.933	-1012
413.010	-1124
413.087	-264
413.164	1356
413.241	8789
413.318	2673
413.395	386
413.471	-71
413.548	411
413.625	-722
413.702	-401
413.779	-596
413.855	-1016
413.932	-2293
414.009	-1200
414.086	-1492
414.162	-657
414.239	-1138
414.316	688
414.393	9674
414.469	9115
414.546	-25
414.623	-826
414.699	-1201
414.776	-959
414.853	-824
414.929	222
415.006	-979
415.082	-909
415.159	-778
415.236	-909
415.312	-1010
415.389	71
415.465	123
415.542	491
415.618	-558
415.695	337
415.771	-732
415.848	-811
415.924	-660
416.000	-323
416.077	-1211
416.153	-1558
416.230	-1815
416.306	-335
416.383	-774
416.459	-707
416.535	-1496
416.612	-1426
416.688	-1782
416.764	-932
416.841	-1514
416.917	-725
416.993	-1509
417.069	-286
417.146	-908
417.222	-60
417.298	753
417.374	-1047
417.451	-37
417.527	-750
417.603	-383
417.679	18
417.755	-932
417.831	-857
417.908	-876
417.984	-1227
418.060	-1640
418.136	-1053
418.212	617
418.288	763
418.364	-517
418.440	-675
418.516	-978
418.592	54
418.668	801
418.744	1999
418.820	2349
418.896	74
418.972	-1479
419.048	-1230
419.124	185
419.200	612
419.276	-638
419.352	-1394
419.428	-1152
419.504	-861
419.579	-630
419.655	-220
419.731	-331
419.807	-130
419.883	2320
419.959	3108
420.034	636
420.110	-19
420.186	2803
420.262	8982
420.337	2218
420.413	-116
420.489	-1193
420.565	-816
420.640	-1402
420.716	-1176
420.792	-1721
420.867	-346
420.943	-1534
421.019	-638
421.094	-642
421.170	-986
421.245	-1432
421.321	-735
421.397	-1834
421.472	-203
421.548	54
421.623	1310
421.699	-46
421.774	-838
421.850	-441
421.925	-1021
422.001	51
422.076	-1506
422.152	-1053
422.227	-203
422.302	-190
422.378	138
422.453	-429
422.529	-65
422.604	2852
422.679	26682
422.755	34974
422.830	6331
422.905	86
422.981	-428
423.056	-1770
423.131	-922
423.207	-1493
423.282	-1741
423.357	639
423.432	649
423.508	129
423.583	62
423.658	3015
423.733	514
423.808	-354
423.883	173
423.959	-32
424.034	-790
424.109	-316
424.184	-1644
424.259	-1330
424.334	-1168
424.409	-1451
424.484	-1042
424.559	-1254
424.634	-767
424.709	-1343
424.784	-309
424.859	-175
424.934	-984
425.009	2165
425.084	7003
425.159	7586
425.234	622
425.309	-1196
425.384	-168
425.459	1594
425.534	899
425.609	-312
425.683	-645
425.758	-1383
425.833	-295
425.908	-254
425.983	-261
426.058	5555
426.132	7745
426.207	666
426.282	273
426.357	-369
426.431	-142
426.506	-646
426.581	-818
426.655	-856
426.730	-411
426.805	-872
426.879	-286
426.954	-1253
427.029	-219
427.103	2452
427.178	18416
427.253	25576
427.327	4022
427.402	-492
427.476	1592
427.551	2347
427.625	231
427.700	-682
427.774	-838
427.849	-469
427.923	155
427.998	-1276
428.072	-1017
428.147	233
428.221	-456
428.296	3592
428.370	1582
428.444	-1228
428.519	-543
428.593	678
428.667	3142
428.742	1138
428.816	2508
428.890	1195
428.965	4857
429.039	3496
429.113	2705
429.188	2469
429.262	-614
429.336	-1034
429.410	1970
429.485	4190
429.559	1402
429.633	1616
429.707	-163
429.781	-388
429.855	1661
429.930	8685
430.004	7962
430.078	11492
430.152	17518
430.226	7122
430.300	2677
430.374	99
430.448	-479
430.522	629
430.596	9094
430.670	18160
430.744	7157
430.818	24382
430.892	21605
430.966	2513
431.040	-202
431.114	-954
431.188	-1161
431.262	-1396
431.336	-1024
431.410	-412
431.484	1358
431.557	4250
431.631	637
431.705	-1225
431.779	-986
431.853	310
431.927	326
432.000	-153
432.074	-972
432.148	-336
432.222	-1168
432.295	-841
432.369	-739
432.443	-546
432.516	1752
432.590	20444
432.664	28419
432.737	4709
432.811	-311
432.885	-1144
432.958	-1083
433.032	-1365
433.106	-1149
433.179	-1004
433.253	-796
433.326	-1287
433.400	-1287
433.473	-893
433.547	-1726
433.620	-1413
433.694	-1003
433.767	324
433.841	-98
433.914	-821
433.988	-1344
434.061	-1006
434.134	-1220
434.208	-1179
434.281	-1268
434.355	-2055
434.428	-820
434.501	-893
434.575	-759
434.648	-464
434.721	-858
434.795	-1211
434.868	-1112
434.941	-1404
435.014	-862
435.088	-867
435.161	-722
435.234	-472
435.307	-547
435.381	-44
435.454	-1504
435.527	-904
435.600	-1155
435.673	-718
435.746	-784
435.819	-1585
435.892	-1165
435.966	-1177
436.039	-1274
436.112	-849
436.185	-1421
436.258	-866
436.331	-1578
436.404	-1000
436.477	-1207
436.550	-1082
436.623	-828
436.696	-1421
436.769	-1159
436.842	-778
436.915	-731
436.987	-632
437.060	-191
437.133	-437
437.206	-1214
437.279	-540
437.352	-685
437.425	-984
437.498	-766
437.570	-91
437.643	1494
437.716	582
437.789	-793
437.861	-1540
437.934	-62
438.007	1555
438.080	152
438.152	-984
438.225	79
438.298	2528
438.370	31036
438.443	52824
438.516	13579
438.588	1981
438.661	-346
438.734	-744
438.806	-843
438.879	-377
438.951	-87
439.024	788
439.096	149
439.169	-20
439.241	27
439.314	-1688
439.386	-515
439.459	422
439.531	433
439.604	698
439.676	243
439.749	-1260
439.821	-1495
439.893	-650
439.966	-483
440.038	-657
440.110	-768
440.183	579
440.255	-1245
440.327	-869
440.400	567
440.472	12499
440.544	37592
440.617	16333
440.689	1349
440.761	209
440.833	1582
440.905	1679
440.978	640
441.050	-453
441.122	-206
441.194	-715
441.266	-652
441.338	-829
441.411	-410
441.483	1583
441.555	13160
441.627	13522
441.699	1569
441.771	958
441.843	281
441.915	-561
441.987	-607
442.059	-1296
442.131	-622
442.203	-142
442.275	323
442.347	783
442.419	672
442.491	-396
442.563	-546
442.635	791
442.706	2398
442.778	6745
442.850	3986
442.922	-493
442.994	-1108
443.066	-181
443.137	1156
443.209	-44
443.281	-465
443.353	-782
443.425	502
443.496	882
443.568	1604
443.640	641
443.711	152
443.783	-1481
443.855	-66
443.926	-627
443.998	-1095
444.070	-671
444.141	-390
444.213	211
444.285	653
444.356	1117
444.428	754
444.499	77
444.571	-280
444.642	-1053
444.714	-762
444.785	-564
444.857	1205
444.928	2248
445.000	4953
445.071	2655
445.143	2989
445.214	3197
445.285	-169
445.357	2603
445.428	6042
445.500	4113
445.571	7237
445.642	6411
445.714	1818
445.785	6624
445.856	7379
445.928	1845
445.999	1900
446.070	666
446.141	410
446.213	783
446.284	1728
446.355	218
446.426	-215
446.497	-394
446.569	256
446.640	1274
446.711	1842
446.782	1338
446.853	-47
446.924	-582
446.995	-300
447.066	146
447.138	675
447.209	1851
447.280	-190
447.351	-761
447.422	-1279
447.493	-693
447.564	-331
447.635	1085
447.706	1560
447.777	705
447.847	-641
447.918	-780
447.989	-137
448.060	574
448.131	763
448.202	4159
448.273	3257
448.344	1788
448.414	306
448.485	34
448.556	271
448.627	-443
448.698	-202
448.768	-735
448.839	-229
448.910	-308
448.981	1939
449.051	1237
449.122	-137
449.193	-344
449.263	-818
449.334	-688
449.405	-261
449.475	906
449.546	3271
449.616	1849
449.687	2684
449.758	1472
449.828	138
449.899	73
449.969	-448
450.040	-473
450.110	-164
450.181	459
450.251	-39
450.322	-314
450.392	-387
450.463	36
450.533	-137
450.604	66
450.674	-6
450.744	-717
450.815	-420
450.885	-481
450.955	-842
451.026	-1074
451.096	-364
451.166	24
451.237	609
451.307	4173
451.377	7482
451.447	2539
451.518	-1
451.588	-721
451.658	-674
451.728	145
451.799	2825
451.869	10690
451.939	9469
452.009	1081
452.079	62
452.149	333
452.219	233
452.289	3186
452.360	10929
452.430	8137
452.500	706
452.570	442
452.640	990
452.710	1576
452.780	6010
452.850	8697
452.920	7149
452.990	6490
453.060	599
453.129	-459
453.199	1426
453.269	3160
453.339	27819
453.409	52524
453.479	44541
453.549	44950
453.619	66519
453.688	61080
453.758	23791
453.828	2484
453.898	745
453.968	708
454.037	457
454.087	489
454.107	497
454.168	47
454.177	-28
454.247	596
454.249	569
454.316	-234
454.330	-120
454.386	287
454.411	518
454.456	818
454.492	3962
454.525	6726
454.574	7516
454.595	7918
454.655	3234
454.665	2471
454.734	886
454.736	888
454.804	602
454.817	1226
454.873	3545
454.898	6194
454.943	10933
454.979	10792
455.013	10783
455.060	5923
455.082	3728
455.141	1528
455.152	1147
455.221	2295
455.222	2409
455.291	10124
455.303	10953
455.360	14845
455.384	15492
455.430	15169
455.465	17451
455.499	19999
455.546	15083
455.569	12789
455.627	10064
455.638	9585
455.707	6326
455.708	6297
455.777	966
455.789	1001
455.846	1056
455.869	924
455.916	679
455.950	371
455.985	8
456.031	323
456.054	459
456.112	665
456.124	706
456.193	520
456.193	516
456.262	185
456.274	273
456.332	493
456.355	696
456.401	1015
456.436	1136
456.470	1265
456.516	850
456.540	668
456.597	654
456.609	606
456.678	-31
456.678	-38
456.747	770
456.759	656
456.817	-36
456.840	23
456.886	158
456.920	135
456.955	133
457.001	147
457.024	222
457.082	226
457.093	196
457.162	515
457.163	529
457.232	1890
457.243	1861
457.301	1433
457.324	1121
457.370	695
457.405	409
457.439	190
457.485	587
457.508	744
457.566	418
457.577	348
457.646	374
457.647	384
457.715	1104
457.727	1050
457.784	478
457.808	539
457.853	946
457.889	1001
457.922	904
457.969	647
457.991	492
458.050	490
458.060	459
458.129	455
458.130	464
458.198	948
458.211	878
458.267	437
458.292	440
458.336	563
458.372	317
458.405	72
458.453	318
458.474	395
458.533	1077
458.543	1205
458.611	1461
458.614	1481
458.680	1562
458.694	1517
458.749	1233
458.775	935
458.818	653
458.855	491
458.887	274
458.936	419
458.955	547
459.016	796
459.024	811
459.093	941
459.097	947
459.162	1084
459.177	1258
459.230	1608
459.257	1401
459.299	1421
459.338	2000
459.368	2141
459.418	1896
459.437	1823
459.499	1559
459.505	1544
459.574	1730
459.579	1706
459.643	1201
459.659	1116
459.711	935
459.740	1040
459.780	1226
459.820	1363
459.849	1405
459.900	1350
459.917	1409
459.981	1534
459.986	1515
460.054	1484
460.061	1492
460.123	1774
460.141	1730
460.191	1727
460.222	2025
460.260	2470
460.302	2808
460.328	2569
460.382	2487
460.397	2641
460.462	2610
460.465	2595
460.534	1565
460.543	1523
460.602	3319
460.623	4225
460.671	7453
460.703	9617
460.739	8718
460.783	9336
460.808	9058
460.864	5566
460.876	5587
460.944	2110
460.945	2062
461.013	1411
461.024	1407
461.081	1666
461.104	1619
461.150	1441
461.184	1463
461.218	1614
461.264	1684
461.286	1668
461.345	1597
461.355	1580
461.423	1763
461.425	1758
461.491	1207
461.505	1213
461.559	2029
461.585	2296
461.628	3911
461.665	5502
461.696	6347
461.745	9257
461.764	8648
461.825	6984
461.832	7287
461.901	4962
461.905	4764
461.969	1841
461.985	1878
462.037	2282
462.065	2319
462.105	1918
462.145	1479
462.173	2284
462.225	3883
462.241	4049
462.305	5276
462.310	5172
462.378	4815
462.385	4629
462.446	4497
462.465	3612
462.514	2224
462.545	2439
462.582	2005
462.625	1532
462.650	1601
462.705	1625
462.718	1640
462.785	2068
462.786	2084
462.854	2481
462.865	2595
462.922	2984
462.945	3332
462.990	2762
463.025	2268
463.058	2571
463.104	2235
463.126	1943
463.184	1517
463.194	1501
463.262	1490
463.264	1493
463.330	1478
463.344	1480
463.398	1981
463.424	2140
463.466	1941
463.504	1981
463.533	2068
463.583	2191
463.601	2206
463.663	2158
463.669	2204
463.737	2336
463.743	2396
463.805	3804
463.823	4174
463.873	5691
463.903	6668
463.940	7305
463.982	8496
464.008	7523
464.062	5948
464.076	6068
464.142	3863
464.144	3807
464.211	1589
464.221	1457
464.279	1461
464.301	1620
464.347	1770
464.381	1801
464.414	2274
464.461	2871
464.482	2744
464.540	2538
464.550	2573
464.617	2750
464.620	2757
464.685	3652
464.699	3778
464.753	4924
464.779	5539
464.820	5595
464.859	5737
464.888	5615
464.938	5312
464.956	5131
465.018	4353
465.023	4383
465.091	4834
465.098	4855
465.158	4349
465.177	4233
465.226	4360
465.257	4344
465.293	4210
465.336	4081
465.361	4505
465.416	5649
465.428	5767
465.495	6289
465.496	6313
465.563	8885
465.575	9319
465.631	10960
465.654	11922
465.698	8883
465.734	6184
465.765	6130
465.813	5228
465.833	5106
465.893	4901
465.900	4763
465.968	4031
465.972	3977
466.035	3848
466.052	3808
466.102	4166
466.131	4363
466.170	4531
466.210	4753
466.237	4598
466.290	4215
466.304	4307
466.369	4627
466.372	4651
466.439	5271
466.449	5345
466.506	5460
466.528	5496
466.573	6441
466.607	7128
466.641	9179
466.687	12056
466.708	13361
466.766	16947
466.775	15924
466.842	8451
466.845	8091
466.909	6846
466.925	6470
466.977	6415
467.004	6532
467.044	6206
467.083	5917
467.111	6561
467.163	7779
467.178	8196
467.242	9875
467.245	9823
467.312	8478
467.321	8289
467.379	7369
467.400	7018
467.446	7024
467.480	7016
467.559	6697
467.638	6549
467.717	5884
467.796	7331
467.875	6771
467.955	7035
468.034	6069
468.113	12746
468.192	20418
468.271	7865
468.350	5077
468.429	5466
468.508	5113
468.588	4893
468.667	5656
468.746	5639
468.825	5679
468.904	4832
468.983	5725
469.062	6199
469.141	9382
469.220	5054
469.299	4549
469.378	5418
469.456	7065
469.535	7938
469.614	5879
469.693	6779
469.772	6469
469.851	8785
469.930	7324
470.009	5916
470.088	5540
470.166	5440
470.245	6663
470.324	6774
470.403	6113
470.482	5894
470.560	5473
470.639	5708
470.718	6833
470.797	5378
470.875	5911
470.954	6359
471.033	7851
471.111	5424
471.190	4816
471.269	4697
471.347	4224
471.426	4500
471.505	5548
471.583	6376
471.662	6336
471.740	5843
471.819	5514
471.898	6762
471.976	4834
472.055	5376
472.133	5232
472.212	5373
472.290	6158
472.369	5401
472.447	4458
472.526	4363
472.604	5506
472.683	5802
472.761	5112
472.839	5345
472.918	4552
472.996	4770
473.075	5385
473.153	4536
473.231	4704
473.310	6012
473.388	4703
473.466	5345
473.545	5709
473.623	7606
473.701	5936
473.780	4972
473.858	4473
473.936	4739
474.014	4719
474.093	4767
474.171	5338
474.249	7917
474.327	5888
474.405	4790
474.484	3986
474.562	4749
474.640	4175
474.718	4280
474.796	5143
474.874	4834
474.952	3849
475.030	4499
475.108	3916
475.187	5183
475.265	4936
475.343	5793
475.421	6116
475.499	4803
475.577	4500
475.655	4221
475.733	7150
475.811	12594
475.889	10776
475.966	8892
476.044	3688
476.122	4062
476.200	5074
476.278	4701
476.356	4782
476.434	4858
476.512	4367
476.590	6039
476.667	4978
476.745	4000
476.823	3611
476.901	3750
476.979	3878
477.056	4007
477.134	3594
477.212	4719
477.290	3742
477.367	4531
477.445	2810
477.523	4064
477.601	2718
477.678	4114
477.756	3987
477.834	4148
477.911	3589
477.989	3317
478.066	2865
478.144	4398
478.222	4023
478.299	5635
478.377	6239
478.454	3959
478.532	4199
478.609	3820
478.687	4093
478.764	3096
478.842	3003
478.919	3799
478.997	3098
479.074	3353
479.152	3386
479.229	4168
479.307	3132
479.384	2884
479.461	2992
479.539	2750
479.616	3098
479.694	3378
479.771	3414
479.848	3561
479.926	3663
480.003	4176
480.080	3182
480.157	3050
480.235	2591
480.312	2655
480.389	3047
480.467	4253
480.544	5356
480.621	3360
480.698	2599
480.775	3154
480.853	3454
480.930	3490
481.007	2450
481.084	2750
481.161	2497
481.238	3632
481.315	2209
481.392	2354
481.470	2829
481.547	2799
481.624	3076
481.701	2548
481.778	2808
481.855	2703
481.932	3170
482.009	6109
482.086	5260
482.163	2684
482.240	3832
482.317	5605
482.393	5213
482.470	2824
482.547	2119
482.624	2535
482.701	2595
482.778	2264
482.855	2514
482.932	2160
483.009	1822
483.085	2135
483.162	2536
483.239	3150
483.316	1739
483.393	2711
483.469	1900
483.546	2693
483.623	3495
483.699	2467
483.776	2198
483.853	2860
483.930	4134
484.006	8583
484.083	17212
484.160	13592
484.236	27643
484.313	21434
484.389	14842
484.466	12741
484.543	11740
484.619	11409
484.696	11653
484.772	11687
484.849	13271
484.925	11646
485.002	10895
485.078	11053
485.155	10715
485.231	10828
485.308	10475
485.384	10703
485.461	10792
485.537	14173
485.614	17352
485.690	10363
485.766	10339
485.843	9760
485.919	11139
485.995	13286
486.072	9427
486.148	9518
486.224	9207
486.301	9409
486.377	9403
486.453	10441
486.530	10137
486.606	14285
486.682	16779
486.758	16460
486.835	16656
486.911	12965
486.987	17409
487.063	19210
487.139	22537
487.215	18586
487.292	11702
487.368	10791
487.444	9849
487.520	10642
487.596	9375
487.672	10537
487.748	9792
487.824	12351
487.900	9536
487.976	8834
488.052	9168
488.128	10062
488.204	9615
488.280	9044
488.356	9499
488.432	13411
488.508	20964
488.584	10204
488.660	8954
488.736	8726
488.812	8907
488.888	11253
488.964	11365
489.039	18686
489.115	29402
489.191	20996
489.267	8857
489.343	8646
489.418	7567
489.494	6512
489.570	6736
489.646	7506
489.722	6812
489.797	7796
489.873	8066
489.949	14626
490.024	15032
490.100	7392
490.176	6551
490.251	7579
490.327	10016
490.403	6620
490.478	6748
490.554	5511
490.629	6814
490.705	5879
490.781	6406
490.856	5107
490.932	8008
491.007	6464
491.083	7942
491.158	6361
491.234	5929
491.309	10739
491.385	13277
491.460	5898
491.536	5879
491.611	6182
491.686	6027
491.762	8032
491.837	11214
491.913	19995
491.988	23015
492.063	36743
492.139	11186
492.214	8321
492.289	4951
492.365	4353
492.440	5416
492.515	4727
492.590	6070
492.666	4542
492.741	5108
492.816	7717
492.891	4870
492.967	5301
493.042	3931
493.117	4753
493.192	5135
493.267	7965
493.342	23648
493.418	42097
493.493	8789
493.568	4988
493.643	4742
493.718	5051
493.793	4952
493.868	7898
493.943	5275
494.018	5293
494.093	4484
494.168	4160
494.243	3514
494.318	3924
494.393	3128
494.468	3577
494.543	3645
494.618	4609
494.693	3551
494.768	3023
494.842	4241
494.917	3252
494.992	3580
495.067	3318
495.142	2935
495.217	3342
495.292	3194
495.366	4014
495.441	4483
495.516	5082
495.591	7107
495.665	17623
495.740	55829
495.815	25703
495.890	5952
495.964	4188
496.039	4133
496.114	3583
496.188	3660
496.263	4347
496.338	3223
496.412	3382
496.487	4571
496.561	4779
496.636	5392
496.710	4377
496.785	4344
496.860	5682
496.934	4005
497.009	4445
497.083	5114
497.158	4272
497.232	4628
497.307	6598
497.381	5658
497.455	5524
497.530	7308
497.604	6425
497.679	6237
497.753	9091
497.827	13429
497.902	13224
497.976	14415
498.050	22070
498.125	83153
498.199	122612
498.273	23195
498.348	17042
498.422	12622
498.496	10030
498.570	8931
498.645	6885
498.719	6213
498.793	7539
498.867	9368
498.941	13676
499.016	25533
499.090	103646
499.164	44521
499.238	5791
499.312	4570
499.386	5767
499.460	4555
499.534	4475
499.609	4513
499.683	8217
499.757	7180
499.831	11975
499.905	53622
499.979	72295
500.053	9949
500.127	8591
500.201	6970
500.275	4553
500.349	3442
500.422	5368
500.496	6952
500.570	13497
500.644	26175
500.718	68520
500.792	17550
500.866	5064
500.940	6067
501.013	5712
501.087	4579
501.161	6799
501.235	10193
501.309	14858
501.382	45126
501.456	55458
501.530	9626
501.603	17613
501.677	7695
501.751	3385
501.825	4346
501.898	6442
501.972	18640
502.046	15618
502.119	4146
502.193	8125
502.266	22590
502.340	12638
502.413	7768
502.487	19675
502.561	12112
502.634	3744
502.708	4490
502.781	3712
502.855	2390
502.928	1645
503.002	2274
503.075	2039
503.149	1971
503.222	3293
503.295	2668
503.369	3807
503.442	4806
503.516	11065
503.589	34446
503.662	27130
503.736	6895
503.809	15255
503.882	14721
503.956	17450
504.029	19784
504.102	6785
504.175	5031
504.249	3120
504.322	2756
504.395	3640
504.468	2573
504.542	2203
504.615	1783
504.688	2663
504.761	1857
504.834	3165
504.907	3148
504.980	5892
505.053	2954
505.127	3779
505.200	3964
505.273	3590
505.346	3299
505.419	1787
505.492	1998
505.565	1935
505.638	1368
505.711	1840
505.784	1610
505.857	1574
505.930	3048
506.003	1823
506.076	1694
506.149	2819
506.221	2990
506.294	3106
506.367	6337
506.440	25600
506.513	18160
506.586	3811
506.659	2310
506.731	2191
506.804	2849
506.877	4322
506.950	2785
507.022	2205
507.095	1755
507.168	3638
507.241	2456
507.313	2368
507.386	1802
507.459	3524
507.531	2487
507.604	1999
507.677	2499
507.749	1455
507.822	2512
507.894	6166
507.967	10381
508.040	5628
508.112	4453
508.185	4414
508.257	3203
508.330	5513
508.402	3773
508.475	3600
508.547	3823
508.620	3674
508.692	4516
508.765	4067
508.837	2434
508.909	3419
508.982	2819
509.054	3854
509.127	3270
509.199	3125
509.271	3034
509.344	2798
509.416	2934
509.488	2301
509.560	3273
509.633	3702
509.705	3572
509.777	3729
509.849	4242
509.922	4192
509.994	3750
510.066	3229
510.138	3259
510.210	8379
510.283	8853
510.355	7030
510.427	5475
510.499	4051
510.571	4729
510.643	4848
510.715	5608
510.787	5894
510.859	4447
510.931	5546
511.003	6422
511.076	6727
511.148	4358
511.219	4768
511.291	6080
511.363	6374
511.435	4299
511.507	3708
511.579	4416
511.651	3023
511.723	4182
511.795	3667
511.867	4383
511.939	4553
512.010	6105
512.082	5718
512.154	4328
512.226	4453
512.298	5788
512.369	10433
512.441	7644
512.513	7592
512.585	5637
512.656	5522
512.728	5603
512.800	4378
512.871	4456
512.943	5130
513.015	3992
513.086	4184
513.158	4173
513.230	4170
513.301	5221
513.373	7001
513.444	4735
513.516	4677
513.588	3553
513.659	4927
513.731	5034
513.802	4084
513.874	6175
513.945	12289
514.016	6112
514.088	3814
514.159	3875
514.231	5914
514.302	7784
514.374	7533
514.445	6283
514.516	8021
514.588	7083
514.659	5700
514.730	6714
514.802	7052
514.873	5526
514.944	5988
515.016	4608
515.087	4966
515.158	5981
515.229	8204
515.301	5944
515.372	7915
515.443	4515
515.514	4609
515.585	3615
515.656	3847
515.728	3785
515.799	3866
515.870	3913
515.941	3178
516.012	3938
516.083	5675
516.154	6505
516.225	7673
516.296	6174
516.367	5901
516.438	5023
516.509	6948
516.580	7805
516.651	14428
516.722	53488
516.793	38910
516.864	7699
516.935	7710
517.006	7628
517.077	9291
517.148	18889
517.219	43588
517.289	101137
517.360	35637
517.431	17309
517.502	5491
517.573	4323
517.643	5300
517.714	4956
517.785	6471
517.856	4190
517.926	6488
517.997	6241
518.068	7474
518.138	9037
518.209	11539
518.280	28631
518.350	134249
518.421	74312
518.492	9394
518.562	6301
518.633	5862
518.703	3846
518.774	4610
518.845	4001
518.915	5390
518.986	4374
519.056	5442
519.127	9223
519.197	13935
519.268	27484
519.338	25294
519.408	5781
519.479	7064
519.549	6703
519.620	4288
519.690	3576
519.760	4242
519.831	3382
519.901	3046
519.971	2496
520.042	3633
520.112	3323
520.182	4728
520.253	4833
520.323	3159
520.393	2814
520.463	7250
520.534	3493
520.604	8441
520.674	4760
520.744	4159
520.814	7435
520.885	8815
520.955	7281
521.025	30946
521.095	19942
521.165	4707
521.235	4359
521.305	3157
521.375	2021
521.445	2688
521.515	3637
521.585	5315
521.655	4444
521.725	4040
521.795	3777
521.865	3152
521.935	4133
522.005	3619
522.075	1871
522.145	3429
522.215	2933
522.285	4102
522.355	5485
522.424	9015
522.494	8565
522.564	4713
522.634	7018
522.704	22228
522.774	13216
522.843	3387
522.913	2069
522.983	3661
523.053	3011
523.122	2646
523.192	3343
523.262	10753
523.331	14919
523.401	2666
523.471	2360
523.540	2958
523.610	1088
523.680	2060
523.749	2057
523.819	3099
523.888	2249
523.958	2644
524.027	2344
524.097	2762
524.166	2094
524.236	2755
524.305	1930
524.375	1989
524.444	1674
524.514	2473
524.583	1157
524.653	2221
524.722	2333
524.791	2694
524.861	1958
524.930	1647
524.999	2018
525.069	3433
525.138	2043
525.207	2596
525.277	1446
525.346	1843
525.415	1816
525.484	1697
525.554	2128
525.623	2017
525.692	1361
525.761	1431
525.830	1653
525.900	1485
525.969	1862
526.038	2199
526.107	1651
526.176	2811
526.245	2125
526.314	3241
526.383	4188
526.452	2598
526.522	3391
526.591	7047
526.660	9823
526.729	6150
526.797	5092
526.867	9940
526.935	48987
527.004	49651
527.073	15470
527.142	2775
527.211	1717
527.280	2631
527.349	2609
527.418	1512
527.487	1706
527.555	1530
527.624	487
527.693	1569
527.762	1103
527.831	1270
527.899	1060
527.968	1965
528.037	733
528.106	2611
528.174	3784
528.243	3137
528.312	2836
528.380	6065
528.449	2372
528.518	1373
528.586	875
528.655	1202
528.723	1151
528.792	1005
528.861	1515
528.929	693
528.998	956
529.066	1519
529.135	1372
529.203	861
529.272	-14
529.340	603
529.409	552
529.477	2040
529.545	616
529.614	1789
529.682	1720
529.751	2384
529.819	2630
529.887	1683
529.956	700
530.024	885
530.092	163
530.161	1022
530.229	653
530.297	1950
530.365	766
530.434	608
530.502	546
530.570	962
530.638	402
530.707	1425
530.775	1934
530.843	1047
530.911	1026
530.979	1318
531.047	1206
531.115	1665
531.183	635
531.252	766
531.320	944
531.388	299
531.456	1541
531.524	865
531.592	1241
531.660	1536
531.728	567
531.796	931
531.864	883
531.932	765
532.000	1033
532.067	1528
532.135	1035
532.203	1019
532.271	2027
532.339	2659
532.407	8552
532.475	7014
532.542	2414
532.610	2991
532.678	3654
532.746	11652
532.814	46984
532.881	16086
532.949	2114
533.017	1299
533.084	983
533.152	2235
533.220	953
533.287	1236
533.355	1034
533.423	1304
533.490	365
533.558	1219
533.625	1471
533.693	2212
533.761	958
533.828	1282
533.896	634
533.963	3205
534.031	3914
534.098	4963
534.166	2667
534.233	880
534.300	910
534.368	1040
534.435	563
534.503	1837
534.570	1130
534.637	1101
534.705	1801
534.772	1113
534.840	316
534.907	1707
534.974	1566
535.041	1153
535.109	1172
535.176	1293
535.243	818
535.310	893
535.378	459
535.445	625
535.512	1147
535.579	749
535.646	681
535.714	896
535.781	2126
535.848	2341
535.915	1316
535.982	2679
536.049	1809
536.116	1922
536.183	1749
536.250	1021
536.317	982
536.384	2392
536.451	2630
536.518	3405
536.585	1630
536.652	2953
536.719	2496
536.786	3049
536.853	1979
536.920	2465
536.987	5771
537.053	4892
537.120	16259
537.187	24915
537.254	2550
537.321	970
537.388	2359
537.454	1151
537.521	475
537.588	1004
537.654	1441
537.721	3296
537.788	2375
537.855	2049
537.921	1264
537.988	2227
538.055	1673
538.121	1681
538.188	1026
538.254	1493
538.321	4899
538.388	4371
538.454	1627
538.521	1985
538.587	1675
538.654	1204
538.720	1109
538.787	1691
538.853	1517
538.920	1523
538.986	2184
539.053	1887
539.119	1173
539.185	1869
539.252	2306
539.318	3496
539.385	2713
539.451	2958
539.517	2897
539.583	2381
539.650	3910
539.716	15494
539.782	7119
539.849	1865
539.915	1947
539.981	1640
540.047	1859
540.114	2335
540.180	2301
540.246	1418
540.312	1828
540.378	4646
540.444	6908
540.510	5306
540.576	16165
540.643	9595
540.709	1354
540.775	2049
540.841	1251
540.907	2360
540.973	3486
541.039	3696
541.105	3791
541.171	3053
541.237	1023
541.303	1691
541.369	2284
541.435	2671
541.500	3951
541.566	4132
541.632	1052
541.698	2061
541.764	832
541.830	1517
541.896	761
541.961	1594
542.027	1164
542.093	1699
542.159	977
542.224	1440
542.290	3059
542.356	5084
542.421	7142
542.487	2835
542.553	1952
542.618	2085
542.684	1766
542.750	2548
542.815	2154
542.881	3422
542.947	10731
543.012	15106
543.078	1484
543.143	1156
543.209	2069
543.274	2273
543.340	2329
543.405	4248
543.471	10442
543.536	3408
543.602	1378
543.667	1622
543.732	1541
543.798	1759
543.863	1939
543.928	1284
543.994	1331
544.059	935
544.124	620
544.190	2158
544.255	2032
544.320	2084
544.386	1188
544.451	3080
544.516	2825
544.581	2973
544.646	6586
544.712	17293
544.777	4668
544.842	2409
544.907	2688
544.972	2643
545.037	1657
545.102	2822
545.168	1792
545.233	2333
545.298	2956
545.363	3013
545.428	3741
545.493	4398
545.558	11417
545.623	7769
545.688	2418
545.753	2172
545.818	2245
545.883	2064
545.947	2012
546.012	3045
546.077	2207
546.142	2334
546.207	1174
546.272	2281
546.337	3246
546.401	2519
546.466	2141
546.531	1428
546.596	2410
546.661	1822
546.725	1745
546.790	1007
546.855	1411
546.919	618
546.984	1431
547.049	1616
547.113	1655
547.178	1453
547.243	2327
547.307	2622
547.372	1293
547.436	2702
547.501	1888
547.565	1972
547.630	1854
547.695	2936
547.759	2035
547.823	1833
547.888	1751
547.952	2072
548.017	1660
548.081	1693
548.146	2744
548.210	3355
548.274	2066
548.339	1479
548.403	2099
548.468	1149
548.532	824
548.596	1588
548.660	1338
548.725	1879
548.789	1875
548.853	3747
548.917	2411
548.982	2543
549.046	3359
549.110	1300
549.174	1144
549.238	1199
549.303	976
549.367	2599
549.431	1168
549.495	2320
549.559	1645
549.623	1745
549.687	1572
549.751	3829
549.815	2169
549.879	1805
549.943	654
550.007	1969
550.071	1632
550.135	2215
550.199	1800
550.263	2633
550.327	1877
550.391	2420
550.455	1689
550.519	1987
550.582	1852
550.646	2150
550.710	2423
550.774	1819
550.838	1586
550.901	1352
550.965	1767
551.029	2065
551.093	1583
551.156	2798
551.220	5403
551.284	7975
551.347	2650
551.411	6002
551.475	10680
551.538	3687
551.602	1208
551.666	1287
551.729	1415
551.793	2086
551.856	1435
551.920	1276
551.983	703
552.047	1407
552.110	1101
552.174	1541
552.237	1689
552.301	1507
552.364	1751
552.428	1425
552.491	158
552.554	1895
552.618	1529
552.681	1644
552.745	1223
552.808	2725
552.871	3740
552.934	2837
552.998	1425
553.061	1389
553.124	1855
553.187	1884
553.251	1787
553.314	2779
553.377	2594
553.440	4640
553.503	8114
553.567	23086
553.630	6705
553.693	1272
553.756	1773
553.819	1454
553.882	1226
553.945	1338
554.008	1399
554.071	992
554.134	1085
554.197	450
554.260	1287
554.323	2886
554.386	1855
554.449	1039
554.512	1775
554.575	927
554.638	665
554.701	1756
554.764	1073
554.827	1691
554.889	1110
554.952	1640
555.015	1540
555.078	526
555.141	1006
555.203	1049
555.266	795
555.329	1417
555.391	652
555.454	390
555.517	1084
555.580	1315
555.642	1596
555.705	1417
555.768	1328
555.830	2484
555.893	1022
555.955	1522
556.018	399
556.080	805
556.143	1069
556.206	1862
556.268	1235
556.330	1259
556.393	1510
556.455	1320
556.518	669
556.580	3203
556.643	1712
556.705	1905
556.767	538
556.830	1919
556.892	1330
556.955	2983
557.017	2657
557.079	1985
557.142	944
557.204	1586
557.266	4182
557.328	5500
557.391	1496
557.453	1567
557.515	1322
557.577	1953
557.639	2367
557.701	1668
557.764	437
557.826	101
557.888	1617
557.950	503
558.012	505
558.074	1896
558.136	1576
558.198	1209
558.260	2066
558.322	857
558.384	1357
558.446	2265
558.508	1890
558.570	2527
558.632	3872
558.694	8378
558.756	3469
558.818	2091
558.880	4543
558.942	2933
559.003	2045
559.065	1724
559.127	1307
559.189	626
559.251	626
559.312	1294
559.374	1339
559.436	2051
559.498	2480
559.559	760
559.621	775
559.683	2247
559.744	2171
559.806	3773
559.868	3986
559.929	3468
559.991	2382
560.052	2146
560.114	1803
560.176	2431
560.237	1522
560.299	2610
560.360	1773
560.422	2305
560.483	1841
560.545	2073
560.606	1273
560.667	1545
560.729	2054
560.790	1855
560.852	1569
560.913	2277
560.974	889
561.036	1555
561.097	1120
561.158	2552
561.220	2488
561.281	1569
561.342	2352
561.403	3410
561.465	2942
561.526	6345
561.587	13719
561.648	4889
561.709	2383
561.771	1579
561.832	910
561.893	2458
561.954	2007
562.015	1982
562.076	2746
562.137	1530
562.198	1689
562.259	2249
562.320	1721
562.381	2254
562.442	2258
562.503	3639
562.564	2328
562.625	2487
562.686	1827
562.747	2326
562.808	2692
562.869	1895
562.930	2182
562.991	2769
563.051	2529
563.112	2964
563.173	2026
563.234	1791
563.294	2483
563.355	2304
563.416	2815
563.477	2259
563.537	1428
563.598	2581
563.659	2414
563.720	2541
563.780	2814
563.841	2632
563.901	2821
563.962	1841
564.023	2987
564.083	2346
564.144	2150
564.204	2682
564.265	1787
564.325	3237
564.386	3917
564.446	6808
564.507	3170
564.567	2128
564.628	1662
564.688	3050
564.749	2243
564.809	2982
564.869	3047
564.930	3200
564.990	2638
565.050	2317
565.111	2518
565.171	2642
565.231	2449
565.292	3077
565.352	2028
565.412	3101
565.472	2842
565.532	2807
565.593	2396
565.653	2529
565.713	2762
565.773	3065
565.833	2910
565.893	5581
565.953	3199
566.013	3334
566.074	3954
566.134	4402
566.194	5038
566.254	7973
566.314	5353
566.374	3972
566.434	2343
566.494	3592
566.554	3309
566.614	3691
566.673	2519
566.733	3996
566.793	4600
566.853	4789
566.913	3774
566.973	4885
567.033	4400
567.092	3899
567.152	3450
567.212	4485
567.272	4105
567.331	3840
567.391	4418
567.451	4931
567.511	5863
567.570	6923
567.630	4560
567.690	3544
567.749	4227
567.809	5299
567.868	5606
567.928	6596
567.988	6110
568.047	8173
568.107	9138
568.166	13840
568.226	20853
568.285	34701
568.345	31020
568.404	20895
568.464	17624
568.523	15929
568.582	15875
568.642	17600
568.701	22606
568.761	31366
568.820	54514
568.879	63545
568.939	41816
568.998	26985
569.057	19191
569.116	14621
569.176	11403
569.235	10229
569.294	8218
569.353	7279
569.413	6579
569.472	6284
569.531	5643
569.590	5073
569.649	4055
569.708	4176
569.767	5098
569.827	3851
569.886	3789
569.945	3708
570.004	3746
570.063	3795
570.122	3837
570.181	4601
570.240	4117
570.299	4315
570.358	4443
570.417	4007
570.475	3055
570.534	3946
570.593	3408
570.652	3430
570.711	3603
570.770	2832
570.829	4631
570.887	4324
570.946	4312
571.005	4011
571.064	3328
571.122	3282
571.181	3370
571.240	4526
571.299	2984
571.357	3186
571.416	3594
571.475	4287
571.533	4617
571.592	3986
571.650	2705
571.709	3268
571.768	3415
571.826	2979
571.885	1682
571.943	2901
572.002	2690
572.060	3872
572.119	2930
572.177	3173
572.236	2813
572.294	2602
572.352	2209
572.411	2800
572.469	2940
572.528	2360
572.586	2751
572.644	2726
572.703	2775
572.761	3311
572.819	2904
572.877	2936
572.936	1729
572.994	3609
573.052	2616
573.110	3202
573.169	2027
573.227	2704
573.285	2704
573.343	2822
573.401	3152
573.459	2507
573.517	2598
573.576	2230
573.634	3029
573.692	2151
573.750	1991
573.808	2205
573.866	2666
573.924	4638
573.982	3996
574.040	3500
574.098	2791
574.155	2015
574.213	2885
574.271	2979
574.329	2393
574.387	3555
574.445	2011
574.503	2220
574.560	2257
574.618	2503
574.676	1855
574.734	2629
574.792	2811
574.849	2102
574.907	2399
574.965	1641
575.022	1872
575.080	2770
575.138	2378
575.195	2767
575.253	2544
575.311	2858
575.368	2238
575.426	2209
575.483	2684
575.541	2364
575.598	2325
575.656	2820
575.713	2695
575.771	2591
575.828	2779
575.886	1890
575.943	2632
576.001	3068
576.058	2661
576.115	3051
576.173	3027
576.230	3950
576.287	4353
576.345	4125
576.402	3126
576.459	3539
576.517	2679
576.574	3784
576.631	3564
576.688	3753
576.746	2447
576.803	3292
576.860	3135
576.917	2788
576.974	2530
577.031	3126
577.089	3036
577.146	3565
577.203	3044
577.260	3815
577.317	3284
577.374	3945
577.431	3550
577.488	3213
577.545	2645
577.602	3044
577.659	2965
577.716	3678
577.773	3425
577.830	3574
577.886	3288
577.943	3860
578.000	2898
578.057	3268
578.114	3193
578.171	4577
578.227	4673
578.284	4629
578.341	4295
578.398	3765
578.454	3981
578.511	4265
578.568	3510
578.625	3985
578.681	3092
578.738	3509
578.794	2657
578.851	2826
578.908	3169
578.964	2731
579.021	3046
579.077	2995
579.134	3143
579.190	2817
579.247	2057
579.303	3134
579.360	2736
579.416	3247
579.473	1990
579.529	2628
579.586	3357
579.642	3924
579.698	2889
579.755	2904
579.811	2988
579.867	3632
579.924	3400
579.980	3607
580.036	4693
580.093	5686
580.149	5637
580.205	8592
580.261	6681
580.317	5874
580.374	4887
580.430	4925
580.486	4921
580.542	4797
580.598	4282
580.619	4094
580.654	3771
580.692	3436
580.710	3270
580.765	3476
580.767	3482
580.823	3963
580.838	3867
580.879	3614
580.911	3612
580.935	3629
580.984	3333
580.991	3288
581.047	3546
581.057	3641
581.103	4075
581.130	3647
581.159	3230
581.203	4745
581.215	5124
581.270	4983
581.276	4937
581.326	4553
581.349	4393
581.382	4161
581.422	4510
581.438	4635
581.494	3889
581.494	3895
581.550	4501
581.567	4360
581.606	4070
581.640	4026
581.661	3998
581.713	4068
581.717	4067
581.773	3920
581.786	3800
581.829	3501
581.859	3844
581.885	4083
581.932	4172
581.940	4193
581.996	4610
582.004	4548
582.052	4158
582.077	4043
582.107	3944
582.150	3876
582.163	3846
582.219	4077
582.223	4076
582.274	4073
582.296	4165
582.330	4312
582.368	4979
582.386	5264
582.441	4095
582.441	4092
582.497	4569
582.514	4674
582.552	4911
582.587	4950
582.608	5013
582.659	5146
582.663	5143
582.719	5126
582.732	5078
582.774	4878
582.805	4748
582.830	4765
582.877	5097
582.885	5101
582.941	4896
582.950	4836
582.996	4691
583.023	4811
583.052	5011
583.095	5686
583.107	5905
583.162	6673
583.168	6781
583.218	7555
583.240	7474
583.273	7238
583.313	6946
583.328	6762
583.384	5806
583.385	5796
583.439	5802
583.458	5708
583.494	5580
583.531	5645
583.549	5663
583.603	4675
583.605	4647
583.660	5741
583.676	5644
583.715	5361
583.748	5883
583.770	6238
583.820	5818
583.825	5767
583.881	6348
583.893	6189
583.936	5819
583.965	5867
583.991	5865
584.038	5952
584.046	5967
584.101	6799
584.110	6600
584.156	5663
584.183	5730
584.211	5760
584.255	5871
584.266	5895
584.321	6036
584.328	6009
584.376	5988
584.400	6162
584.431	6329
584.472	6049
584.486	5996
584.541	6836
584.545	6802
584.596	6059
584.617	6289
584.651	6689
584.689	6546
584.706	6618
584.761	7021
584.762	7020
584.816	7163
584.834	7304
584.871	7488
584.906	6875
584.926	6499
584.978	7112
584.980	7161
585.035	7738
585.051	7886
585.090	8171
585.123	8436
585.145	8509
585.195	8147
585.200	8158
585.254	8809
585.267	9000
585.309	9624
585.340	10045
585.364	10402
585.412	10782
585.419	10737
585.473	9490
585.484	9296
585.528	8947
585.556	9093
585.583	9319
585.628	9269
585.637	9295
585.692	10205
585.700	10257
585.747	10796
585.772	11324
585.801	11518
585.845	10213
585.856	9886
585.910	10071
585.917	10036
585.965	10168
585.989	10244
586.019	10547
586.061	10612
586.074	10562
586.128	10488
586.133	10504
586.183	11175
586.205	11361
586.237	11674
586.277	12268
586.292	12443
586.346	12682
586.349	12661
586.401	12736
586.421	13025
586.455	13364
586.493	13416
586.509	13636
586.564	14544
586.565	14592
586.618	19385
586.637	21033
586.672	23078
586.709	20958
586.727	18536
586.781	14640
586.781	14659
586.835	14800
586.853	15000
586.889	15415
586.925	15479
586.944	15433
586.996	15340
586.998	15377
587.052	16194
587.068	16372
587.106	16937
587.140	17451
587.161	17841
587.212	18216
587.215	18253
587.269	18835
587.284	19080
587.323	19949
587.356	19974
587.377	20156
587.427	21523
587.431	21625
587.485	21918
587.499	21948
587.539	22755
587.571	23720
587.593	24328
587.643	25168
587.648	25377
587.702	27263
587.715	27784
587.755	28981
587.786	29732
587.810	30830
587.858	32705
587.864	32949
587.917	35462
587.930	35918
587.971	39050
588.001	41694
588.025	43907
588.073	47335
588.079	47913
588.133	53291
588.145	54541
588.187	61212
588.217	65825
588.241	70061
588.288	78279
588.295	79846
588.348	93887
588.360	96723
588.402	110613
588.431	121473
588.456	131486
588.503	150956
588.510	154924
588.564	188141
588.575	195566
588.617	231395
588.646	257850
588.671	288739
588.718	351781
588.725	367946
588.778	502170
588.789	532439
588.832	744068
588.861	897176
588.886	1090934
588.932	1467037
588.939	1493450
588.993	1595223
589.004	1608940
589.047	1572848
589.075	1536514
589.100	1419432
589.147	1138089
589.154	1086868
589.207	705481
589.218	630181
589.261	524012
589.290	456870
589.314	447732
589.361	436331
589.368	446317
589.421	535789
589.433	557926
589.475	775343
589.504	936715
589.528	1129500
589.576	1492798
589.582	1500143
589.635	1466407
589.647	1448672
589.689	1200184
589.718	1007574
589.742	810957
589.790	440195
589.795	424171
589.849	278473
589.861	245365
589.902	201556
589.932	169754
589.955	156162
590.004	126825
590.009	125010
590.062	103335
590.075	97903
590.115	89228
590.146	82231
590.168	78508
590.218	70124
590.222	69783
590.275	63296
590.289	61326
590.328	57984
590.360	55256
590.381	53372
590.431	48416
590.435	48385
590.488	45898
590.503	45111
590.541	43188
590.574	41418
590.594	40701
590.645	38345
590.647	38384
590.700	36702
590.716	36175
590.753	35290
590.787	34257
590.806	33922
590.859	32490
590.859	32554
590.912	31088
590.930	30452
590.965	29785
591.001	29163
591.018	29089
591.071	28310
591.072	28224
591.124	27830
591.143	27541
591.177	27800
591.214	27996
591.230	27798
591.283	26848
591.285	26729
591.336	26811
591.356	26819
591.389	26254
591.427	25335
591.442	25330
591.495	25002
591.498	24905
591.547	24573
591.569	24307
591.600	23845
591.640	23216
591.653	23418
591.706	23821
591.711	23799
591.759	23346
591.782	22962
591.811	23341
591.853	23949
591.864	23943
591.917	23271
591.924	23120
591.969	22275
591.995	21660
592.022	21731
592.066	21673
592.075	21722
592.127	21669
592.137	21597
592.180	22677
592.208	23279
592.233	23353
592.279	23206
592.285	22952
592.338	20244
592.350	19570
592.390	19453
592.421	19280
592.443	19752
592.491	20598
592.495	20618
592.548	20033
592.562	19820
592.600	19885
592.633	19817
592.653	19868
592.704	19738
592.705	19826
592.775	18461
592.846	19163
592.916	18156
592.987	20199
593.058	19639
593.128	19098
593.199	18057
593.270	17702
593.341	17286
593.411	16722
593.482	17424
593.553	17416
593.623	16789
593.694	16058
593.764	15367
593.835	16553
593.906	16225
593.976	15505
594.047	16444
594.117	16089
594.188	17750
594.258	16191
594.329	15688
594.399	13884
594.470	14687
594.540	14661
594.611	14243
594.681	14053
594.751	14145
594.822	15546
594.892	15541
594.963	15372
595.033	15891
595.103	14607
595.174	15036
595.244	16541
595.314	21076
595.384	18351
595.455	14062
595.525	14081
595.595	14242
595.665	13585
595.736	14268
595.806	14230
595.876	13664
595.946	13211
596.016	13971
596.087	13756
596.157	13798
596.227	13177
596.297	13593
596.367	14198
596.437	14047
596.507	14326
596.577	18054
596.647	17517
596.717	13687
596.787	13453
596.857	12186
596.927	12754
596.997	13044
597.067	12566
597.137	12554
597.207	14604
597.277	13764
597.347	12795
597.417	12558
597.487	11972
597.557	13204
597.626	12885
597.696	12918
597.766	14063
597.836	16064
597.906	17017
597.975	13107
598.045	12098
598.115	12531
598.185	12245
598.254	12266
598.324	12448
598.394	12528
598.464	12802
598.533	11456
598.603	11481
598.672	11427
598.742	11963
598.812	12021
598.881	11296
598.951	11279
599.020	11639
599.090	10954
599.159	10496
599.229	11049
599.299	11074
599.368	10586
599.437	10310
599.507	10505
599.576	10961
599.646	11619
599.715	12341
599.785	11517
599.854	10684
599.924	11950
599.993	13191
600.062	11551
600.132	11016
600.201	11184
600.270	11700
600.340	11405
600.409	10710
600.478	10433
600.547	10531
600.617	10071
600.686	11426
600.755	10667
600.824	11067
600.894	11439
600.963	10472
601.032	9890
601.101	10150
601.170	10170
601.239	10767
601.308	10711
601.378	10810
601.447	10440
601.516	9603
601.585	10202
601.654	10557
601.723	10466
601.792	9712
601.861	10652
601.930	10715
601.999	12394
602.068	10925
602.137	9938
602.206	10682
602.275	9573
602.343	10261
602.412	10764
602.481	9686
602.550	8790
602.619	8932
602.688	9231
602.756	9180
602.825	9032
602.894	9283
602.963	9928
603.032	8787
603.100	8561
603.169	9268
603.238	8976
603.307	8639
603.375	8722
603.444	8550
603.513	8821
603.581	8420
603.650	9450
603.719	8775
603.787	8927
603.856	8500
603.924	8789
603.993	9250
604.061	7908
604.130	7965
604.198	8750
604.267	9049
604.335	8469
604.404	8327
604.472	8479
604.541	8490
604.609	8265
604.678	7773
604.746	8058
604.815	8171
604.883	8779
604.951	8647
605.020	8407
605.088	7425
605.156	9171
605.225	8153
605.293	9200
605.361	8173
605.429	8227
605.498	8402
605.566	8719
605.634	8493
605.702	8449
605.771	8800
605.839	7963
605.907	8088
605.975	8013
606.043	7958
606.111	7739
606.180	8035
606.248	8937
606.316	11049
606.384	9591
606.452	8580
606.520	10893
606.588	10917
606.656	7963
606.724	7277
606.792	7340
606.860	7267
606.928	7437
606.996	7905
607.064	6959
607.132	7939
607.200	6852
607.267	7216
607.335	7975
607.403	7292
607.471	7094
607.539	7144
607.607	7786
607.674	6923
607.742	7658
607.810	7795
607.878	7419
607.946	7020
608.013	7723
608.081	6223
608.149	8426
608.216	7579
608.284	7522
608.352	7329
608.419	7143
608.487	8366
608.555	9873
608.622	7255
608.690	6758
608.757	7558
608.825	6853
608.893	7111
608.960	7849
609.028	8140
609.095	10013
609.163	10872
609.230	7795
609.298	8082
609.365	7373
609.432	6943
609.500	7513
609.567	8531
609.635	7593
609.702	8745
609.769	8356
609.837	8690
609.904	9051
609.971	7907
610.039	9233
610.106	8737
610.173	12067
610.241	20212
610.308	43773
610.375	82036
610.442	38028
610.509	11506
610.577	9527
610.644	8302
610.711	7378
610.778	7520
610.845	7872
610.912	7989
610.980	8222
611.047	9791
611.114	12851
611.181	8289
611.248	7312
611.315	7226
611.382	6665
611.449	6352
611.516	6886
611.583	6507
611.650	7115
611.717	6806
611.784	6159
611.851	6600
611.918	7301
611.984	7484
612.051	6772
612.118	8793
612.185	11831
612.252	18558
612.319	9211
612.386	6784
612.452	6331
612.519	7390
612.586	8679
612.653	10388
612.719	7204
612.786	6716
612.853	6791
612.919	6355
612.986	6619
613.053	5875
613.120	6930
613.186	6945
613.253	6611
613.319	6456
613.386	6214
613.453	7098
613.519	6115
613.586	7765
613.652	11640
613.719	13569
613.785	11391
613.852	9282
613.918	6348
613.985	6822
614.051	7894
614.118	13146
614.184	30491
614.250	17046
614.317	8064
614.383	6214
614.449	6328
614.516	5923
614.582	6436
614.648	6981
614.715	5971
614.781	6197
614.847	6370
614.914	6472
614.980	7954
615.046	7094
615.112	6663
615.179	6545
615.245	7599
615.311	8589
615.377	14070
615.443	25390
615.509	18095
615.575	8677
615.642	8048
615.708	7181
615.774	7831
615.840	8664
615.906	10391
615.972	14458
616.038	24367
616.104	49204
616.170	34067
616.236	29760
616.302	17382
616.368	9848
616.434	9268
616.500	9037
616.565	9372
616.631	7520
616.697	8236
616.763	7157
616.829	8226
616.895	8470
616.961	9413
617.026	9648
617.092	8187
617.158	6697
617.224	7739
617.289	6639
617.355	6713
617.421	8160
617.487	8712
617.552	7968
617.618	7482
617.684	7264
617.749	8367
617.815	7246
617.880	6905
617.946	7336
618.012	7455
618.077	7997
618.143	7858
618.208	7910
618.274	7891
618.339	8267
618.405	8067
618.470	8445
618.536	8804
618.601	8657
618.667	9726
618.732	9267
618.798	9005
618.863	8724
618.928	8250
618.994	9076
619.059	9473
619.124	11201
619.190	13576
619.255	9459
619.320	8638
619.386	8588
619.451	8548
619.516	7861
619.581	8625
619.647	9124
619.712	9209
619.777	8438
619.842	8348
619.907	9027
619.972	8576
620.038	9869
620.103	9186
620.168	8196
620.233	8299
620.298	8087
620.363	7970
620.428	8756
620.493	8892
620.558	8372
620.623	8219
620.688	8335
620.753	7836
620.818	7187
620.883	8020
620.948	8160
621.013	8448
621.078	7959
621.143	8221
621.207	9034
621.272	8389
621.337	9379
621.402	9813
621.467	10232
621.532	13236
621.596	11393
621.661	11125
621.726	9504
621.791	9159
621.855	9316
621.920	10120
621.985	10961
622.049	10698
622.114	11004
622.179	11173
622.243	9939
622.308	11166
622.373	10611
622.437	10600
622.502	11404
622.566	10612
622.631	10811
622.695	11373
622.760	11041
622.824	11128
622.889	10814
622.953	10966
623.018	11975
623.082	17120
623.147	13593
623.211	11317
623.276	10734
623.340	10393
623.404	10233
623.469	9617
623.533	10089
623.597	10005
623.662	9532
623.726	9925
623.790	10065
623.854	10370
623.919	10441
623.983	9762
624.047	10048
624.111	10338
624.176	10060
624.240	10206
624.304	10722
624.368	10386
624.432	9756
624.496	9783
624.560	10454
624.625	11227
624.689	11175
624.753	9741
624.817	9451
624.881	9110
624.945	9311
625.009	9497
625.073	9704
625.137	10099
625.201	10637
625.265	13063
625.329	10651
625.393	9884
625.456	9723
625.520	9232
625.584	9983
625.648	11027
625.712	12713
625.776	19415
625.839	37527
625.903	34390
625.967	12327
626.031	11768
626.095	17947
626.158	19616
626.222	10031
626.286	9794
626.349	8209
626.413	8279
626.477	8785
626.540	9355
626.604	8493
626.668	9030
626.731	8153
626.795	8650
626.858	9169
626.922	8506
626.986	8868
627.049	8081
627.113	8134
627.176	8025
627.240	7505
627.303	8194
627.366	7993
627.430	8354
627.493	7766
627.557	8672
627.620	8552
627.684	8592
627.747	8316
627.810	7419
627.874	8196
627.937	7241
628.000	8325
628.064	7494
628.127	7925
628.190	6964
628.253	6916
628.317	7106
628.380	7607
628.443	7395
628.506	7647
628.569	7606
628.632	6545
628.696	7339
628.759	6855
628.822	7146
628.885	6881
628.948	7438
629.011	6757
629.074	6831
629.137	7475
629.200	6958
629.263	7495
629.326	7458
629.389	7155
629.452	6815
629.515	7329
629.578	7440
629.641	6335
629.704	6792
629.767	6640
629.830	7158
629.892	6564
629.955	6212
630.018	7079
630.081	7537
630.144	7916
630.207	8312
630.269	7831
630.332	7158
630.395	7416
630.458	5859
630.520	6532
630.583	7384
630.646	6399
630.708	6200
630.771	6424
630.834	6829
630.896	6102
630.959	5844
631.021	6437
631.084	6564
631.146	5979
631.209	6806
631.272	6519
631.334	5655
631.397	4890
631.459	5692
631.522	5905
631.584	5986
631.646	5975
631.709	6167
631.771	6165
631.834	7727
631.896	5715
631.958	5421
632.021	4971
632.083	5801
632.145	4979
632.208	6277
632.270	6339
632.332	6209
632.395	4323
632.457	5571
632.519	5572
632.581	5778
632.643	4706
632.706	5169
632.768	5365
632.830	5624
632.892	4821
632.954	5285
633.016	4876
633.078	4913
633.141	5646
633.203	5325
633.265	5455
633.327	5615
633.389	5509
633.451	5373
633.513	6599
633.575	6553
633.637	5631
633.698	6563
633.760	6431
633.822	5701
633.884	5358
633.946	4730
634.008	5040
634.070	4692
634.132	4904
634.193	6699
634.255	5273
634.317	5039
634.379	4891
634.441	4577
634.502	4932
634.564	4094
634.626	4499
634.687	4812
634.749	5273
634.811	4865
634.873	4951
634.934	5109
634.996	3939
635.057	4423
635.119	3967
635.181	4691
635.242	4746
635.304	4248
635.365	4496
635.427	4837
635.488	4893
635.550	4680
635.611	4242
635.673	4970
635.734	4515
635.796	4207
635.857	5080
635.918	4456
635.980	4611
636.041	4385
636.102	4564
636.164	4381
636.225	4142
636.286	4389
636.348	4921
636.409	3911
636.470	3823
636.531	3735
636.593	3638
636.654	5456
636.715	4886
636.776	4224
636.838	3410
636.899	3867
636.960	4814
637.021	4258
637.082	3882
637.143	4350
637.204	4073
637.265	4224
637.326	4507
637.387	3332
637.448	3437
637.509	3915
637.570	3966
637.631	3308
637.692	3681
637.753	3460
637.814	2957
637.875	4271
637.936	3632
637.997	3948
638.058	3384
638.119	3445
638.179	3223
638.240	3168
638.301	3713
638.362	3687
638.423	3852
638.483	4331
638.544	2926
638.605	3215
638.666	3452
638.726	3510
638.787	3410
638.848	3793
638.908	3775
638.969	3674
639.030	3469
639.090	3805
639.151	3108
639.211	2685
639.272	4869
639.332	5168
639.393	7566
639.453	4254
639.514	3026
639.574	3431
639.635	2937
639.695	2977
639.756	3531
639.816	3291
639.877	3226
639.937	4980
639.997	6504
640.058	7167
640.118	3424
640.178	3264
640.239	3364
640.299	3659
640.359	3605
640.420	3185
640.480	3337
640.540	3489
640.600	3437
640.661	3359
640.721	3004
640.781	4356
640.841	3483
640.901	4592
640.961	3174
641.021	3292
641.082	4047
641.142	3763
641.202	5040
641.262	3012
641.322	3408
641.382	3270
641.442	2869
641.502	2637
641.562	3116
641.622	3310
641.682	2524
641.742	3122
641.802	2945
641.861	3111
641.921	3371
641.981	3931
642.041	3774
642.101	4392
642.161	4689
642.221	3567
642.280	2707
642.340	2528
642.400	2596
642.460	2768
642.519	3099
642.579	2678
642.639	2838
642.698	3121
642.758	2668
642.818	2894
642.877	2607
642.937	2588
642.997	3402
643.056	3887
643.116	4880
643.175	2870
643.235	2812
643.294	3435
643.354	3522
643.414	2802
643.473	3425
643.532	2702
643.592	2898
643.651	1906
643.711	3480
643.770	3898
643.830	4168
643.889	8071
643.948	12041
644.008	3811
644.067	2277
644.126	1829
644.186	2631
644.245	2789
644.304	2153
644.363	2051
644.423	2233
644.482	2703
644.541	2778
644.600	2420
644.659	3123
644.719	2349
644.778	2585
644.837	2577
644.896	2703
644.955	3454
645.014	3997
645.073	3221
645.132	3745
645.191	2640
645.250	2276
645.309	2496
645.368	2259
645.427	2523
645.486	2693
645.545	2237
645.604	2805
645.663	2297
645.722	2393
645.781	2655
645.840	1534
645.898	2744
645.957	2133
646.016	2018
646.075	2936
646.134	2921
646.192	3589
646.251	7328
646.310	7767
646.369	2221
646.427	2538
646.486	1802
646.545	1942
646.603	3048
646.662	2412
646.721	1718
646.779	1996
646.838	1373
646.896	2079
646.955	2593
647.014	1795
647.072	2045
647.131	2052
647.189	2854
647.248	1781
647.306	2595
647.365	2357
647.423	1727
647.481	2270
647.540	1781
647.598	1845
647.657	2467
647.715	2617
647.773	2576
647.832	1734
647.890	2085
647.948	1801
648.007	2871
648.065	2077
648.123	2328
648.181	2594
648.240	2584
648.298	2853
648.356	3089
648.414	2116
648.472	2004
648.531	2583
648.589	1914
648.647	2354
648.705	1629
648.763	2046
648.821	2437
648.879	1949
648.937	2112
648.995	1797
649.053	2582
649.111	2276
649.169	2481
649.227	1958
649.285	2332
649.343	3581
649.401	5942
649.459	5634
649.516	9464
649.574	5652
649.632	5126
649.690	11401
649.748	11580
649.806	3773
649.863	5701
649.921	6503
649.979	2677
650.037	2329
650.094	1904
650.152	1257
650.210	1919
650.268	2297
650.325	1948
650.383	1885
650.440	2101
650.498	2337
650.556	2291
650.613	2105
650.671	1749
650.728	2041
650.786	1610
650.843	2379
650.901	1815
650.958	1944
651.016	1377
651.073	1942
651.131	2175
651.188	1698
651.246	1797
651.303	1397
651.360	1864
651.418	1001
651.475	1891
651.532	996
651.590	1302
651.647	669
651.704	1951
651.762	1984
651.819	2003
651.876	1703
651.933	2077
651.990	1989
652.048	1652
652.105	1929
652.162	1115
652.219	2133
652.276	2097
652.333	1626
652.390	1866
652.448	1854
652.505	1094
652.562	1917
652.619	1607
652.676	2871
652.733	4033
652.790	3047
652.847	1508
652.904	1857
652.961	1636
653.017	1289
653.074	2203
653.131	1833
653.188	1742
653.245	1917
653.302	1486
653.359	1447
653.415	1579
653.472	1790
653.529	1781
653.586	1084
653.642	1030
653.699	816
653.756	905
653.813	1142
653.869	1152
653.926	806
653.983	1263
654.039	1873
654.096	1260
654.152	1597
654.209	1856
654.266	1816
654.322	1645
654.379	1460
654.435	1886
654.492	1693
654.548	1638
654.605	2494
654.661	4025
654.717	1855
654.774	2341
654.830	1887
654.887	1445
654.943	1200
655.000	1522
655.056	1667
655.112	1823
655.168	926
655.225	2092
655.281	2234
655.337	2141
655.394	2107
655.450	3288
655.506	1987
655.562	1941
655.618	3493
655.675	2349
655.731	1917
655.787	1731
655.843	1647
655.899	873
655.955	1806
656.011	1602
656.067	574
656.123	1987
656.179	1468
656.235	1877
656.291	1327
656.347	1948
656.403	1035
656.459	1980
656.515	1536
656.571	2048
656.627	1656
656.683	1803
656.739	1547
656.795	1587
656.850	1546
656.906	2193
656.962	2645
657.018	2289
657.074	2423
657.129	1987
657.185	1742
657.241	1436
657.297	1192
657.352	1350
657.408	1487
657.464	2210
657.519	1713
657.575	1385
657.630	1285
657.686	1678
657.742	1251
657.797	1530
657.853	1741
657.908	1838
657.964	1764
658.019	1154
658.075	1722
658.130	1367
658.186	1111
658.241	1002
658.297	135
658.352	1025
658.407	1516
658.463	1254
658.518	848
658.573	1681
658.629	1352
658.684	1927
658.739	1748
658.795	941
658.850	672
658.905	1570
658.960	1693
659.016	990
659.071	1548
659.126	1764
659.181	1555
659.236	1842
659.291	3093
659.346	2664
659.401	2374
659.457	2099
659.512	2191
659.567	3535
659.622	1379
659.677	1198
659.732	872
659.787	1268
659.842	971
659.897	1566
659.952	2028
660.007	1456
660.061	1754
660.116	1067
660.171	1055
660.226	1251
660.281	1659
660.336	1178
660.391	1000
660.445	2091
660.500	1712
660.555	1022
660.610	851
660.664	1591
660.719	1826
660.774	1924
660.828	1037
660.883	1104
660.938	1258
660.992	934
661.047	2216
661.101	1055
661.156	927
661.211	1714
661.265	1493
661.320	1150
661.374	1094
661.429	1262
661.483	1561
661.538	446
661.592	798
661.647	1379
661.701	1571
661.755	947
661.810	1441
661.864	1580
661.919	1249
661.973	1408
662.027	1433
662.081	1901
662.136	801
662.190	950
662.244	2115
662.299	1600
662.353	1468
662.407	881
662.461	659
662.515	1784
662.569	1753
662.624	1582
662.678	1124
662.732	1531
662.786	821
662.840	1739
662.894	1520
662.948	1044
663.002	1023
663.056	1816
663.110	1013
663.164	1300
663.218	1556
663.272	1139
663.326	870
663.380	1214
663.434	1617
663.488	884
663.542	1717
663.595	1077
663.649	1026
663.703	2673
663.757	1615
663.811	880
663.864	997
663.918	1013
663.972	656
664.026	1270
664.079	1702
664.133	1386
664.187	877
664.240	1525
664.294	1054
664.348	1564
664.401	1665
664.455	1255
664.508	647
664.562	1179
664.615	1283
664.669	919
664.722	972
664.776	519
664.829	1327
664.883	1307
664.936	981
664.990	1855
665.043	1145
665.097	1615
665.150	1153
665.203	1404
665.257	1576
665.310	1503
665.363	1270
665.417	1658
665.470	791
665.523	1118
665.576	1035
665.630	1660
665.683	1506
665.736	1633
665.789	2059
665.842	911
665.895	1170
665.949	1025
666.002	1647
666.055	1934
666.108	1389
666.161	1163
666.214	1181
666.267	1543
666.320	1691
666.373	1876
666.426	936
666.479	1219
666.532	1961
666.585	1089
666.638	1785
666.691	1675
666.744	1786
666.796	1868
666.849	847
666.902	1961
666.955	796
667.008	1140
667.060	1476
667.113	2075
667.166	1341
667.219	1495
667.271	993
667.324	2189
667.377	648
667.430	1169
667.482	893
667.535	2598
667.587	1542
667.640	2367
667.693	1418
667.745	1976
667.798	2675
667.850	2865
667.903	1618
667.955	1192
668.008	1221
668.060	1316
668.113	2071
668.165	2164
668.218	1416
668.270	1376
668.322	802
668.375	1828
668.427	1055
668.479	1811
668.532	1682
668.584	1965
668.636	1975
668.689	1009
668.741	1636
668.793	1197
668.845	1781
668.898	1983
668.950	1449
669.002	2400
669.054	1297
669.106	1404
669.158	1071
669.211	1451
669.263	1434
669.315	1768
669.367	1351
669.419	2150
669.471	2377
669.523	2209
669.575	2044
669.627	3702
669.679	2293
669.731	1117
669.783	1735
669.835	2018
669.886	2278
669.938	2589
669.990	2107
670.042	1428
670.094	1773
670.146	1584
670.197	1861
670.249	3058
670.301	2976
670.353	4619
670.404	5879
670.456	8840
670.508	14693
670.560	24329
670.611	44074
670.663	80977
670.715	143949
670.766	327646
670.818	542863
670.869	167338
670.921	28606
670.972	13274
671.024	9926
671.075	7515
671.127	5700
671.178	4245
671.230	2757
671.281	4040
671.333	3472
671.384	2314
671.436	2595
671.487	2727
671.538	2310
671.590	2729
671.641	1859
671.692	2625
671.744	1487
671.795	2731
671.846	2157
671.897	1869
671.949	1707
672.000	2112
672.051	969
672.102	2062
672.153	1493
672.204	1786
672.256	1373
672.307	2234
672.358	759
672.409	1261
672.460	1628
672.511	1864
672.562	940
672.613	1614
672.664	1587
672.715	1479
672.766	1393
672.817	1290
672.868	1205
672.919	1525
672.970	1331
673.021	733
673.071	1727
673.122	1542
673.173	611
673.224	1808
673.275	1152
673.326	1088
673.376	918
673.427	948
673.478	870
673.528	1569
673.579	525
673.630	968
673.680	1382
673.731	1299
673.782	1626
673.832	1604
673.883	534
673.934	1120
673.984	525
674.035	79
674.085	970
674.136	1331
674.186	785
674.237	1340
674.287	819
674.338	2224
674.388	1933
674.438	884
674.489	1297
674.539	1547
674.589	1457
674.640	990
674.690	1236
674.740	469
674.791	1088
674.841	1451
674.891	1473
674.942	1675
674.992	1056
675.042	985
675.092	1442
675.142	468
675.193	1145
675.243	1179
675.293	1467
675.343	1295
675.393	1057
675.443	1466
675.493	1074
675.543	78
675.593	1108
675.643	1899
675.693	1194
675.743	924
675.793	1658
675.843	-165
675.893	1171
675.943	458
675.993	777
676.043	1066
676.093	1076
676.142	713
676.192	246
676.242	657
676.292	127
676.341	426
676.391	658
676.441	831
676.491	737
676.540	1168
676.590	1110
676.640	718
676.689	471
676.739	258
676.789	-143
676.838	711
676.888	244
676.937	508
676.987	1400
677.037	861
677.086	435
677.136	398
677.185	27
677.235	1449
677.284	427
677.333	542
677.383	313
677.432	641
677.482	606
677.531	155
677.580	266
677.630	83
677.679	874
677.728	278
677.778	812
677.827	601
677.876	382
677.925	-137
677.975	127
678.024	796
678.073	900
678.122	1462
678.171	320
678.220	845
678.269	41
678.319	919
678.368	508
678.417	498
678.466	1025
678.515	729
678.564	987
678.613	953
678.662	364
678.711	-22
678.760	792
678.809	1325
678.857	828
678.906	746
678.955	543
679.004	1236
679.053	1415
679.102	569
679.151	42
679.199	608
679.248	377
679.297	658
679.346	682
679.394	606
679.443	510
679.492	800
679.540	483
679.589	854
679.638	522
679.686	727
679.735	588
679.784	416
679.832	794
679.881	186
679.929	573
679.978	685
680.026	965
680.075	227
680.123	426
680.172	-119
680.220	663
680.268	372
680.317	-303
680.365	473
680.414	43
680.462	1306
680.510	685
680.559	561
680.607	-244
680.655	1109
680.703	145
680.752	271
680.800	819
680.848	717
680.896	486
680.945	77
680.993	784
681.041	632
681.089	370
681.137	95
681.185	116
681.233	-193
681.258	378
681.281	887
681.329	925
681.377	874
681.380	896
681.425	667
681.473	750
681.502	645
681.521	521
681.569	1178
681.617	546
681.624	673
681.665	1245
681.713	1016
681.745	1436
681.761	1589
681.809	1391
681.857	1179
681.867	1223
681.904	1229
681.952	1300
681.989	1466
682.000	1481
682.048	2032
682.096	819
682.111	888
682.143	920
682.191	2606
682.233	1773
682.239	1615
682.286	1890
682.334	1560
682.354	1583
682.382	1541
682.430	1778
682.476	2074
682.477	2053
682.525	2256
682.572	1586
682.598	1791
682.620	1901
682.667	1504
682.715	2608
682.720	2650
682.763	2847
682.810	2577
682.841	2402
682.857	2255
682.905	2558
682.952	2761
682.963	2817
683.000	2836
683.047	2699
683.085	2946
683.095	3004
683.142	2893
683.190	2429
683.206	2610
683.237	2814
683.284	3137
683.328	2978
683.332	2949
683.379	2848
683.426	3043
683.449	3077
683.473	3043
683.521	3499
683.568	3261
683.571	3282
683.615	3271
683.662	2978
683.693	3295
683.709	3434
683.757	3586
683.804	3718
683.814	3703
683.851	3560
683.898	4124
683.936	3615
683.945	3476
683.992	4055
684.039	3447
684.057	3773
684.086	4208
684.133	4853
684.179	4506
684.180	4476
684.227	4345
684.274	4661
684.300	4612
684.321	4508
684.368	4657
684.415	4052
684.422	4138
684.462	4544
684.509	4270
684.543	4270
684.556	4213
684.603	5070
684.649	4563
684.665	4597
684.696	4764
684.743	4625
684.786	5137
684.790	5163
684.837	4978
684.883	5094
684.908	5216
684.930	5365
684.977	5675
685.023	5755
685.029	5789
685.070	5895
685.117	6463
685.150	6524
685.164	6429
685.210	6159
685.257	6023
685.272	5928
685.303	5967
685.350	5809
685.393	6601
685.396	6624
685.443	5704
685.490	6907
685.514	6826
685.536	6864
685.583	6774
685.629	6867
685.636	6920
685.675	7100
685.722	6920
685.757	6818
685.768	6727
685.815	7455
685.861	6798
685.878	6663
685.908	6542
685.954	7292
686.000	7748
686.000	7745
686.047	7677
686.093	7162
686.121	7326
686.139	7696
686.185	7910
686.232	8947
686.242	9076
686.278	8650
686.324	8685
686.363	7573
686.370	7406
686.416	7343
686.463	7506
686.484	7350
686.509	7283
686.555	7175
686.601	7860
686.606	7842
686.647	7652
686.693	7697
686.727	7725
686.739	7705
686.785	7961
686.831	7073
686.848	7289
686.877	7736
686.923	7978
686.969	8014
686.969	8012
687.015	7637
687.061	7185
687.090	7389
687.107	7574
687.153	7846
687.199	8111
687.211	7979
687.245	7530
687.291	7916
687.332	7937
687.336	7941
687.382	7588
687.428	7688
687.453	7910
687.474	8192
687.520	8682
687.565	8409
687.574	8542
687.611	8742
687.657	8418
687.695	8217
687.702	8211
687.748	8338
687.794	8265
687.816	8299
687.839	8496
687.885	8348
687.931	8528
687.937	8559
687.976	8281
688.022	8540
688.058	8214
688.067	8240
688.113	8493
688.158	8518
688.179	8680
688.204	8758
688.249	8631
688.295	8809
688.300	8795
688.340	8761
688.386	9232
688.421	8910
688.431	8874
688.477	8925
688.522	9748
688.542	9697
688.567	9458
688.613	9679
688.658	9060
688.663	9074
688.703	9321
688.749	9014
688.784	9121
688.794	9186
688.839	9748
688.884	9619
688.905	9623
688.930	9625
688.975	9607
689.020	9713
689.026	9738
689.065	9939
689.110	9562
689.146	9561
689.155	9598
689.201	9900
689.246	9854
689.267	9900
689.291	9846
689.336	9534
689.381	9681
689.388	9683
689.426	9904
689.471	9917
689.509	9691
689.516	9657
689.561	10046
689.606	9873
689.630	9660
689.651	9491
689.696	9641
689.741	9637
689.750	9665
689.785	9889
689.830	9855
689.871	10170
689.875	10204
689.920	10046
689.965	10135
689.992	9938
690.010	9866
690.054	9975
690.099	9967
690.112	10086
690.144	10455
690.189	10084
690.233	10172
690.233	10188
690.278	10183
690.323	10444
690.354	10463
690.367	10505
690.412	10659
690.457	10835
690.474	10743
690.501	10553
690.546	10377
690.590	10556
690.595	10536
690.635	10829
690.680	11369
690.716	11321
690.724	11379
690.769	12007
690.813	12867
690.836	13111
690.857	13722
690.902	15046
690.946	16219
690.957	16597
690.991	19287
691.035	22744
691.077	26133
691.080	26814
691.124	40072
691.168	50668
691.198	57799
691.213	57374
691.257	56780
691.301	56173
691.318	55971
691.346	49326
691.390	38015
691.434	26491
691.439	25217
691.478	22432
691.522	19065
691.559	16131
691.567	15998
691.611	15004
691.655	14176
691.680	13411
691.699	13319
691.743	13440
691.787	13578
691.800	13465
691.831	13081
691.875	12984
691.919	12649
691.921	12619
691.964	12735
692.008	12824
692.041	12673
692.052	12680
692.096	12990
692.139	12917
692.162	13054
692.183	13081
692.227	12908
692.271	12479
692.282	12310
692.315	12301
692.359	13123
692.402	13330
692.403	13356
692.447	13349
692.490	13240
692.523	13187
692.534	13195
692.578	12847
692.622	12978
692.643	12777
692.666	12877
692.709	13486
692.753	13837
692.763	13917
692.797	13829
692.840	13242
692.884	13318
692.884	13350
692.928	13387
692.971	13813
693.004	13709
693.015	13630
693.059	13668
693.102	13423
693.124	13456
693.146	13769
693.189	13783
693.233	14358
693.245	14434
693.276	14642
693.320	14836
693.363	14745
693.365	14726
693.407	15535
693.450	16082
693.485	16717
693.493	17038
693.537	18356
693.580	19671
693.605	20320
693.624	21478
693.667	24369
693.710	27214
693.725	28215
693.753	33616
693.797	41867
693.840	50642
693.845	51767
693.883	77786
693.926	104610
693.966	128677
693.970	128623
694.013	126210
694.056	124188
694.086	122253
694.099	113469
694.142	84953
694.185	56343
694.206	42485
694.229	39110
694.272	32974
694.315	26577
694.326	24857
694.358	23505
694.401	21591
694.444	19726
694.446	19587
694.487	19037
694.530	18409
694.566	17716
694.573	17670
694.616	17359
694.659	16892
694.686	16482
694.702	16165
694.745	15274
694.787	14612
694.806	14166
694.830	14028
694.873	13870
694.916	13743
694.926	13656
694.959	13563
695.002	13305
695.044	13356
695.046	13311
695.087	13179
695.130	13171
695.166	13282
695.172	13403
695.215	13751
695.258	13954
695.286	14237
695.301	14249
695.343	14172
695.386	14148
695.406	14021
695.428	13891
695.471	13474
695.514	13218
695.526	13158
695.556	13221
695.599	13040
695.641	12920
695.646	12876
695.684	13072
695.726	13194
695.766	13293
695.769	13322
695.811	13248
695.854	13235
695.886	13137
695.896	13195
695.938	13315
695.981	13360
696.005	13440
696.023	13422
696.065	13235
696.108	13052
696.125	12948
696.150	13038
696.192	12986
696.235	13089
696.245	13069
696.277	13459
696.319	13873
696.361	14427
696.365	14420
696.404	14073
696.446	13841
696.485	13528
696.488	13598
696.530	14015
696.572	14499
696.604	14778
696.614	14702
696.656	14163
696.698	13679
696.724	13382
696.740	13490
696.783	13557
696.825	13755
696.844	13729
696.867	13555
696.909	13364
696.951	13096
696.964	12965
696.992	13208
697.034	13515
697.076	13839
697.083	13864
697.118	13582
697.160	13153
697.202	12695
697.203	12646
697.244	12799
697.286	13033
697.323	13191
697.327	13221
697.369	13090
697.411	13082
697.442	12970
697.453	12947
697.494	12724
697.536	12520
697.562	12379
697.578	12631
697.620	13105
697.661	13630
697.682	13860
697.703	13863
697.744	13850
697.786	13693
697.801	13627
697.828	14126
697.869	14866
697.911	15579
697.921	15716
697.952	15881
697.994	16042
698.035	16200
698.040	16174
698.077	15521
698.118	14672
698.160	13894
698.160	13850
698.201	13716
698.243	13482
698.279	13266
698.284	13293
698.325	13229
698.367	13095
698.399	13000
698.408	13092
698.449	13304
698.491	13545
698.518	13645
698.532	13730
698.573	13911
698.614	14076
698.638	14117
698.656	14143
698.697	14140
698.738	14130
698.757	14080
698.779	13973
698.820	13707
698.862	13426
698.877	13293
698.903	13628
698.944	14090
698.985	14559
698.996	14649
699.026	14569
699.067	14405
699.116	14170
699.235	13815
699.354	14047
699.474	12956
699.593	14172
699.713	15097
699.832	14197
699.951	13726
700.070	14129
700.190	12782
700.309	13612
700.428	13637
700.547	13913
700.667	13496
700.786	13547
700.905	14507
701.024	13295
701.143	13587
701.262	14456
701.381	12563
701.500	12231
701.619	13660
701.738	13458
701.857	12734
701.976	11595
702.095	11533
702.214	11912
702.333	13403
702.452	12704
702.571	12889
702.690	11993
702.809	11910
702.928	11595
703.047	11547
703.165	12284
703.284	11545
703.403	10639
703.522	11923
703.640	12604
703.759	12237
703.878	14076
703.997	18189
704.115	12519
704.234	10699
704.353	10632
704.471	11276
704.590	11416
704.708	11406
704.827	11603
704.946	10423
705.064	10570
705.183	12486
705.301	10735
705.420	13311
705.538	19599
705.656	17925
705.775	15109
705.893	16659
706.012	25005
706.130	37498
706.249	16546
706.367	14703
706.485	15352
706.604	15542
706.722	15965
706.840	15728
706.958	17572
707.077	16614
707.195	15688
707.313	15207
707.431	13750
707.549	13620
707.668	13851
707.786	14202
707.904	13259
708.022	12690
708.140	13678
708.258	13221
708.376	14179
708.494	14337
708.612	13475
708.730	14154
708.848	20660
708.966	20859
709.084	18047
709.202	17157
709.320	15555
709.438	17047
709.556	16965
709.674	16590
709.791	16877
709.909	17298
710.027	16163
710.145	15257
710.263	16629
710.380	16535
710.498	15972
710.616	15840
710.733	16001
710.851	16001
710.969	15808
711.086	16532
711.204	15647
711.322	15506
711.439	15326
711.557	15273
711.674	15772
711.792	14616
711.909	15329
712.027	15677
712.144	17231
712.262	14492
712.379	13197
712.497	15828
712.614	22570
712.732	23331
712.849	19958
712.966	18451
713.084	18454
713.201	22572
713.318	20041
713.436	18708
713.553	19139
713.670	18420
713.787	18171
713.905	19177
714.022	20325
714.139	18523
714.256	17169
714.373	17653
714.490	17107
714.608	17690
714.725	17414
714.842	22916
714.959	25619
715.076	17114
715.193	16143
715.310	15847
715.427	16025
715.544	15150
715.661	15440
715.778	14913
715.895	14755
716.011	17703
716.128	16968
716.245	16002
716.362	15470
716.479	16897
716.596	18758
716.713	15421
716.829	15113
716.946	15325
717.063	15369
717.180	14430
717.296	13942
717.413	13422
717.530	13794
717.646	14091
717.763	14026
717.880	14095
717.996	12898
718.113	12970
718.229	14616
718.346	13145
718.462	12760
718.579	13428
718.695	15094
718.812	22426
718.928	19852
719.045	17484
719.161	15111
719.277	12996
719.394	12199
719.510	11946
719.626	13383
719.743	12532
719.859	13934
719.975	12488
720.092	12579
720.208	13460
720.324	16239
720.440	13016
720.557	12448
720.673	14167
720.789	18168
720.905	24342
721.021	46173
721.137	23121
721.253	12104
721.369	12795
721.486	12849
721.602	13357
721.718	18730
721.834	12441
721.950	10994
722.066	11660
722.181	10660
722.297	11082
722.413	11235
722.529	11210
722.645	10004
722.761	10903
722.877	10142
722.993	11026
723.108	9377
723.224	10739
723.340	9939
723.456	10597
723.571	9695
723.687	10850
723.803	10059
723.918	10869
724.034	9969
724.150	9798
724.265	10212
724.381	9841
724.497	18066
724.612	26809
724.728	10008
724.843	9501
724.959	9436
725.074	10559
725.190	17007
725.305	23741
725.421	9735
725.536	10321
725.651	8483
725.767	8700
725.882	8620
725.997	8473
726.113	8683
726.228	9010
726.343	8321
726.459	8989
726.574	7814
726.689	8822
726.804	9244
726.920	8023
727.035	8997
727.150	8118
727.265	8980
727.380	8482
727.495	8620
727.610	8460
727.725	7965
727.841	8136
727.956	9375
728.071	15469
728.186	15915
728.301	8834
728.416	8522
728.531	8267
728.645	7258
728.760	7897
728.875	8211
728.990	9025
729.105	8731
729.220	8060
729.335	8752
729.449	7684
729.564	7496
729.679	7295
729.794	6930
729.908	6408
730.023	8399
730.138	7983
730.253	6172
730.367	7241
730.482	6312
730.596	6961
730.711	6966
730.826	6862
730.940	6634
731.055	6615
731.169	6587
731.284	6742
731.398	5403
731.513	7398
731.627	8029
731.742	6956
731.856	7000
731.970	8048
732.085	5793
732.199	5964
732.313	5623
732.428	5523
732.542	6559
732.656	7650
732.771	7271
732.885	5821
732.999	6326
733.113	6258
733.227	6596
733.342	6041
733.456	5816
733.570	6266
733.684	5798
733.798	5229
733.912	5887
734.026	5464
734.140	6226
734.254	5810
734.368	6717
734.482	9982
734.596	13862
734.710	6407
734.824	6116
734.938	5191
735.052	5760
735.166	5534
735.280	6187
735.393	6141
735.507	5031
735.621	5744
735.735	7296
735.849	12438
735.962	7749
736.076	5537
736.190	5406
736.303	6440
736.417	7094
736.531	10267
736.644	5910
736.758	5602
736.872	5558
736.985	5415
737.099	5127
737.212	4895
737.326	4237
737.439	4490
737.553	5106
737.666	5475
737.780	5365
737.893	5044
738.007	4374
738.120	4936
738.233	5092
738.347	4368
738.460	4970
738.573	4358
738.687	5197
738.800	6032
738.913	4672
739.026	6272
739.140	5483
739.253	4995
739.366	5380
739.479	5230
739.592	4008
739.705	4340
739.818	4757
739.932	4602
740.045	4908
740.158	4595
740.271	4494
740.384	4967
740.497	4708
740.610	5112
740.723	5253
740.836	5499
740.949	5737
741.062	5221
741.174	6122
741.287	6255
741.400	4693
741.513	4794
741.626	5618
741.739	5634
741.851	4865
741.964	5298
742.077	4634
742.189	4309
742.302	4592
742.415	5195
742.527	5085
742.640	4509
742.753	4375
742.865	4022
742.978	3892
743.090	4437
743.203	4581
743.316	4152
743.428	3740
743.541	4223
743.653	4374
743.766	4133
743.878	4549
743.990	4689
744.103	6464
744.215	5532
744.327	4236
744.440	4453
744.552	4671
744.664	7479
744.777	5355
744.889	3980
745.001	3885
745.113	3774
745.226	3459
745.338	3744
745.450	3954
745.562	3965
745.674	3534
745.786	3429
745.898	3556
746.010	3913
746.122	3691
746.234	3668
746.347	4009
746.459	3796
746.570	3920
746.682	3746
746.794	3620
746.906	3608
747.018	3894
747.130	4352
747.242	3867
747.354	4372
747.466	3811
747.577	4310
747.689	3948
747.801	3756
747.913	3527
748.024	3809
748.136	3303
748.248	3938
748.359	3450
748.471	3138
748.583	3331
748.694	4107
748.806	4225
748.918	5462
749.029	4503
749.141	5026
749.252	4709
749.364	4559
749.475	4601
749.587	7501
749.698	6630
749.809	4261
749.921	3986
750.032	3970
750.144	3671
750.255	4056
750.366	3058
750.478	4194
750.589	3400
750.700	3698
750.811	3546
750.923	3866
751.034	4166
751.145	8002
751.256	10346
751.367	3922
751.479	4255
751.590	3492
751.701	3426
751.812	3389
751.923	3982
752.034	3407
752.145	3244
752.256	3797
752.367	3818
752.478	3605
752.589	3529
752.700	3831
752.811	3033
752.922	3508
753.032	3635
753.143	3797
753.254	4959
753.365	4355
753.476	3671
753.586	3445
753.697	3531
753.808	3901
753.919	3600
754.029	4013
754.140	4657
754.251	3781
754.361	3391
754.472	3636
754.582	3444
754.693	3482
754.804	4056
754.914	3550
755.025	3003
755.135	3444
755.246	3831
755.356	3648
755.466	3999
755.577	3587
755.687	4006
755.798	4063
755.908	3849
756.018	3681
756.129	3759
756.239	3905
756.349	3424
756.460	3395
756.570	3951
756.680	3900
756.790	3941
756.900	4610
757.011	4930
757.121	4390
757.231	3925
757.341	3555
757.451	4134
757.561	4191
757.671	4002
757.781	3966
757.891	4032
758.001	4339
758.111	4665
758.221	4597
758.331	4107
758.441	5070
758.551	4811
758.661	5733
758.771	5418
758.880	4181
758.990	4689
759.100	4929
759.210	4703
759.320	4694
759.429	5201
759.539	4344
759.649	4442
759.758	4088
759.868	4869
759.978	5279
760.087	5224
760.197	5581
760.307	5344
760.416	4530
760.526	5184
760.635	5840
760.745	4923
760.854	5432
760.964	5507
761.073	5515
761.182	5499
761.292	5637
761.401	5879
761.511	6642
761.620	5899
761.729	6152
761.839	6457
761.948	6620
762.057	6427
762.166	7888
762.276	6762
762.385	7752
762.494	6819
762.603	6963
762.712	7872
762.822	8397
762.931	7930
763.040	8267
763.149	8262
763.258	8765
763.367	9722
763.476	8843
763.585	9894
763.694	10309
763.803	11235
763.912	11900
764.021	12169
764.130	13268
764.238	13098
764.347	15150
764.456	14926
764.565	16386
764.674	17529
764.783	19108
764.891	21426
765.000	22442
765.109	25461
765.217	28703
765.326	32634
765.435	37282
765.543	45644
765.652	53496
765.761	67358
765.869	88534
765.978	120912
766.086	177120
766.195	279863
766.303	473783
766.412	849277
766.520	1120856
766.629	942047
766.737	943770
766.846	511851
766.954	290757
767.062	186892
767.171	130777
767.279	99553
767.387	76344
767.496	58544
767.604	50490
767.712	42183
767.820	37264
767.928	32708
768.037	30011
768.145	28027
768.253	26807
768.361	25165
768.469	24547
768.577	24908
768.685	25376
768.793	26440
768.901	27478
769.009	29623
769.117	34132
769.225	40664
769.333	51837
769.441	71155
769.549	108637
769.657	183601
769.765	360105
769.873	750422
769.981	940614
770.088	835876
770.196	414417
770.304	200429
770.412	118915
770.519	81664
770.627	60422
770.735	47831
770.842	38167
770.950	31552
771.058	27040
771.165	24568
771.273	21923
771.380	18646
771.488	17811
771.595	15599
771.703	15203
771.810	14090
771.918	12540
772.025	11801
772.133	10865
772.240	11288
772.348	9758
772.455	10310
772.562	8726
772.670	8986
772.777	8584
772.884	8936
772.991	8102
773.099	8717
773.206	8322
773.313	7243
773.420	7276
773.528	6192
773.635	6470
773.742	6591
773.849	6086
773.956	5635
774.063	6292
774.170	5846
774.277	5554
774.384	5499
774.491	5748
774.598	5463
774.705	5612
774.812	5896
774.919	6671
775.026	6279
775.133	4765
775.239	5367
775.346	4187
775.453	4826
775.560	5711
775.667	5356
775.773	5598
775.880	5167
775.987	4260
776.093	5042
776.200	4173
776.307	4132
776.413	4590
776.520	4609
776.627	3814
776.733	4680
776.840	5109
776.946	4220
777.053	4524
777.159	3755
777.266	5105
777.372	5202
777.478	4532
777.585	4643
777.691	3705
777.798	4584
777.904	4819
778.010	4824
778.117	5905
778.223	5655
778.329	4161
778.435	3633
778.542	4381
778.648	4305
778.754	3471
778.860	3877
778.966	4265
779.072	3735
779.178	3699
779.284	4095
779.391	3483
779.497	3211
779.603	3988
779.708	5225
779.815	8376
779.920	13909
780.026	47526
780.132	151651
780.238	33233
780.344	5826
780.450	4992
780.556	4239
780.661	3660
780.767	3521
780.873	3879
780.979	3073
781.085	3369
781.190	3791
781.296	3549
781.402	2185
781.507	3077
781.613	2399
781.719	2109
781.824	2691
781.930	3690
782.035	2903
782.141	2490
782.246	3042
782.352	2954
782.457	3490
782.563	2331
782.668	1641
782.773	2610
782.879	2873
782.984	3103
783.090	3930
783.195	3121
783.300	4620
783.405	4363
783.511	3737
783.616	3373
783.721	3003
783.826	3153
783.932	2747
784.037	2857
784.142	3067
784.247	3304
784.352	3113
784.457	2690
784.562	2031
784.667	2518
784.772	2425
784.877	2486
784.982	3184
785.087	2641
785.192	2335
785.297	2531
785.402	2585
785.507	2021
785.611	2934
785.716	3162
785.821	3151
785.926	2178
786.031	2725
786.135	2633
786.240	2975
786.345	2007
786.450	3051
786.554	2214
786.659	2791
786.763	2620
786.868	1928
786.973	2612
787.077	2594
787.182	2380
787.286	1593
787.391	1999
787.495	2238
787.600	2324
787.704	2417
787.809	2525
787.913	1730
788.017	2880
788.122	1787
788.226	2595
788.330	1058
788.435	2297
788.539	2340
788.643	2423
788.747	1551
788.852	2080
788.956	2269
789.060	1938
789.164	1443
789.268	1322
789.372	1661
789.476	1297
789.580	2264
789.684	1796
789.788	1309
789.892	1506
789.996	1885
790.100	1462
790.204	2201
790.308	1300
790.412	2031
790.516	2600
790.620	2325
790.724	3373
790.828	1548
790.931	2224
791.035	2159
791.139	1739
791.242	1841
791.346	3082
791.450	2578
791.554	2060
791.657	2428
791.761	2141
791.864	1669
791.968	2570
792.072	2125
792.175	2041
792.279	1844
792.382	2410
792.486	2370
792.589	2974
792.693	2478
792.796	2442
792.899	1984
793.003	2001
793.106	2209
793.209	1716
793.313	2071
793.416	1762
793.519	2336
793.623	2656
793.726	2710
793.829	4336
793.932	2717
794.035	1670
794.138	1848
794.242	2667
794.345	1975
794.448	3015
794.551	4719
794.654	9688
794.757	25318
794.860	75265
794.963	21569
795.066	3905
795.169	3027
795.272	2358
795.375	1734
795.477	2377
795.580	1611
795.683	1080
795.786	1691
795.889	922
795.991	1725
796.094	1677
796.197	1286
796.300	1579
796.402	701
796.505	839
796.608	1030
796.710	1130
796.813	1527
796.915	1408
797.018	944
797.120	941
797.223	1682
797.326	1620
797.428	1825
797.530	1226
797.633	982
797.735	1131
797.838	1516
797.940	3271
798.042	3249
798.145	900
798.247	2116
798.349	725
798.452	2265
798.554	1665
798.656	789
798.758	632
798.860	1336
798.962	1032
799.065	1593
799.167	1369
799.269	1357
799.371	1197
799.473	1931
799.575	1059
799.677	2039
799.779	2723
799.881	951
799.983	3589
800.085	2215
800.187	638
800.289	1515
800.390	1297
800.492	1106
800.594	1207
800.696	1334
800.798	978
800.899	1299
801.001	1412
801.103	1676
801.205	762
801.306	536
801.408	1430
801.509	922
801.611	1139
801.713	1141
801.814	1157
801.916	985
802.017	1411
802.119	1143
802.220	653
802.322	541
802.423	1308
802.525	1609
802.626	1673
802.727	1807
802.829	1383
802.930	790
803.031	1725
803.133	1605
803.234	1567
803.335	937
803.436	534
803.538	863
803.639	879
803.740	653
803.841	352
803.942	852
804.043	1102
804.144	455
804.245	1121
804.346	509
804.447	805
804.548	899
804.649	2048
804.750	1945
804.851	541
804.952	1136
805.053	593
805.154	506
805.255	901
805.355	241
805.456	1530
805.557	1061
805.658	1200
805.758	827
805.859	1059
805.960	332
806.061	804
806.161	772
806.262	296
806.362	632
806.463	594
806.564	1090
806.664	1035
806.765	735
806.865	880
806.966	1257
807.066	525
807.166	1463
807.267	867
807.367	1180
807.468	752
807.568	897
807.668	149
807.769	81
807.869	806
807.969	818
808.069	933
808.170	815
808.270	556
808.370	1178
808.470	-55
808.570	713
808.670	1807
808.770	1331
808.870	378
808.970	1194
809.070	719
809.170	461
809.271	393
809.370	1408
809.470	547
809.570	892
809.670	608
809.770	293
809.870	928
809.970	702
810.070	480
810.169	392
810.269	413
810.369	1090
810.469	409
810.568	360
810.668	1127
810.768	752
810.867	510
810.967	669
811.066	414
811.166	508
811.265	1259
811.365	412
811.464	760
811.564	1038
811.663	1413
811.763	628
811.862	285
811.962	351
812.061	497
812.160	521
812.260	608
812.359	1119
812.458	1042
812.557	1937
812.657	4732
812.756	10840
812.855	3600
812.954	1462
813.053	1021
813.153	905
813.252	837
813.351	745
813.450	857
813.549	-161
813.648	513
813.747	370
813.846	1396
813.945	367
814.044	636
814.143	1233
814.242	1110
814.341	865
814.439	168
814.538	629
814.637	716
814.736	552
814.835	998
814.933	429
815.032	172
815.131	1029
815.229	584
815.328	798
815.427	1098
815.525	547
815.624	1485
815.722	1497
815.821	1061
815.919	1246
816.018	1158
816.116	585
816.215	1539
816.313	1196
816.412	1284
816.510	1664
816.609	1548
816.707	1244
816.805	1544
816.904	1029
817.002	1602
817.100	1210
817.198	2227
817.296	2330
817.395	2284
817.493	3343
817.591	3126
817.689	3250
817.787	5466
817.885	7882
817.983	12681
818.081	22150
818.179	45388
818.277	109889
818.375	289620
818.473	365833
818.571	114884
818.669	35478
818.767	21085
818.865	16647
818.963	16673
819.061	19468
819.158	25875
819.256	45303
819.354	90091
819.452	209231
819.549	497745
819.647	467415
819.745	147481
819.842	53577
819.940	28126
820.038	18673
820.135	14430
820.233	10719
820.330	7861
820.428	6107
820.525	4789
820.623	4246
820.720	3672
820.818	3735
820.915	3073
821.012	2998
821.110	2966
821.207	2212
821.304	2217
821.402	1575
821.499	1526
821.596	2369
821.693	2797
821.791	1881
821.888	1875
821.985	1493
822.082	3500
822.179	3973
822.276	1816
822.373	668
822.470	925
822.567	666
822.664	773
822.761	1032
822.858	646
822.955	1405
823.052	1192
823.149	657
823.246	484
823.343	1112
823.440	590
823.536	1100
823.633	385
823.730	713
823.827	127
823.923	160
824.020	1437
824.117	513
824.213	152
824.310	793
824.407	282
824.503	225
824.600	299
824.696	689
824.793	922
824.889	180
824.986	193
825.082	-579
825.179	961
825.275	-152
825.371	122
825.468	163
825.564	274
825.660	579
825.757	-96
825.853	358
825.949	8
826.045	-26
826.142	375
826.238	151
826.334	541
826.430	7
826.526	788
826.622	540
826.718	-449
826.814	-374
826.910	442
827.006	350
827.102	-205
827.198	282
827.294	170
827.390	128
827.486	-232
827.582	-865
827.678	-151
827.774	814
827.869	382
827.965	793
828.061	-150
828.157	-763
828.252	-230
828.348	62
828.444	364
828.539	-47
828.635	520
828.731	-112
828.826	-63
828.922	-367
829.017	261
829.113	144
829.208	-2
829.304	-351
829.399	589
829.495	240
829.590	-29
829.685	-446
829.781	128
829.876	-215
829.971	182
830.066	613
830.162	267
830.257	76
830.352	-190
830.447	71
830.543	-96
830.638	-318
830.733	775
830.828	95
830.923	-87
831.018	108
831.113	4
831.208	382
831.303	684
831.398	569
831.493	-684
831.588	11
831.683	87
831.778	506
831.873	175
831.967	-119
832.062	521
832.157	-172
832.252	667
832.346	99
832.441	386
832.536	467
832.631	1281
832.725	2585
832.820	3303
832.914	328
833.009	144
833.104	-312
833.198	44
833.293	350
833.387	661
833.482	-52
833.576	25
833.670	128
833.765	367
833.859	-177
833.954	471
834.048	249
834.142	-78
834.237	-252
834.331	-127
834.425	-259
834.519	-297
834.613	761
834.708	-177
834.802	456
834.896	159
834.990	-666
835.084	132
835.178	262
835.272	-425
835.366	13
835.460	54
835.554	-123
835.648	-126
835.742	-212
835.836	-220
835.930	-525
836.024	116
836.117	-173
836.211	92
836.305	702
836.399	147
836.493	1324
836.586	570
836.680	-699
836.774	-127
836.867	-724
836.961	-703
837.055	-922
837.148	-505
837.242	-492
837.335	488
837.429	-470
837.522	413
837.616	-381
837.709	242
837.803	1011
837.896	1038
837.989	690
838.083	-97
838.176	732
838.269	1856
838.363	2095
838.456	-371
838.549	207
838.642	3
838.735	1259
838.829	4006
838.922	2537
839.015	415
839.108	276
839.201	-482
839.294	-228
839.387	281
839.480	-672
839.573	470
839.666	634
839.759	1005
839.852	-41
839.945	-400
840.038	77
840.131	-109
840.223	-747
840.316	-319
840.409	-229
840.502	-248
840.594	-616
840.687	125
840.780	27
840.873	-914
840.965	-669
841.058	1003
841.150	723
841.243	1304
841.336	1962
841.428	52
841.521	-777
841.613	-209
841.706	404
841.798	588
841.890	264
841.983	-485
842.075	395
842.167	-357
842.260	566
842.352	85
842.444	137
842.537	918
842.629	1720
842.721	4849
842.813	1508
842.905	-329
842.997	-343
843.090	265
843.182	-124
843.274	690
843.366	2440
843.458	4776
843.550	12518
843.642	10892
843.734	1495
843.826	496
843.918	890
844.009	508
844.101	282
844.193	-466
844.285	94
844.377	155
844.469	-129
844.560	509
844.652	-144
844.744	421
844.835	371
844.927	82
845.019	-203
845.110	730
845.202	250
845.293	-282
845.385	70
845.476	245
845.568	135
845.659	-519
845.751	-10
845.842	-33
845.934	-1325
846.025	-180
846.116	23
846.208	109
846.299	-579
846.390	148
846.482	-256
846.573	-322
846.664	574
846.755	805
846.846	1487
846.937	949
847.029	389
847.120	430
847.211	-257
847.302	-228
847.393	-915
847.484	-12
847.575	382
847.666	-694
847.757	-316
847.847	-137
847.938	115
848.029	-155
848.120	-287
848.211	-219
848.302	-390
848.392	68
848.483	-330
848.574	-444
848.664	-247
848.755	222
848.846	-300
848.936	-104
849.027	-315
849.118	16
849.208	-855
849.299	-340
849.389	-362
849.480	52
849.570	239
849.661	52
849.751	75
849.841	382
849.932	-950
850.022	-44
850.112	65
850.203	399
850.293	-492
850.383	-154
850.474	-198
850.564	-355
850.654	-346
850.744	-295
850.834	-439
850.924	88
851.014	-388
851.104	-15
851.194	-306
851.284	-164
851.374	-151
851.464	932
851.554	-342
851.644	139
851.734	534
851.824	1104
851.914	1211
852.004	582
852.094	486
852.183	1262
852.273	-151
852.363	62
852.452	-70
852.542	-252
852.632	109
852.721	-368
852.811	-423
852.901	-167
852.990	-266
853.080	-327
853.169	-1047
853.259	-315
853.348	-595
853.438	-265
853.527	-109
853.617	-609
853.706	-411
853.795	17
853.885	675
853.974	459
854.063	381
854.152	506
854.242	2196
854.331	1921
854.420	-205
854.509	-828
854.598	-252
854.687	257
854.777	-386
854.866	455
854.955	523
855.044	-877
855.133	-701
855.222	188
855.311	117
855.400	-57
855.488	-413
855.577	-255
855.666	-87
855.755	-315
855.844	33
855.933	-85
856.021	1383
856.110	714
856.199	-456
856.288	-291
856.376	122
856.465	-435
856.554	-396
856.642	-465
856.731	-119
856.819	-326
856.908	-591
856.996	-358
857.085	-783
857.173	64
857.262	-367
857.350	-7
857.438	-748
857.527	-447
857.615	-911
857.703	-71
857.792	-127
857.880	269
857.968	-785
858.056	-34
858.145	58
858.233	-33
858.321	-629
858.409	-368
858.497	-280
858.585	-974
858.673	-633
858.761	-331
858.849	-683
858.937	-180
859.025	-706
859.113	-68
859.201	-974
859.289	-597
859.377	-259
859.465	-279
859.552	-697
859.640	-926
859.728	457
859.816	-79
859.903	-39
859.991	-544
860.079	-606
860.166	-681
860.254	-828
860.342	-307
860.429	-940
860.517	-918
860.604	-730
860.692	-558
860.779	-748
860.867	-476
860.954	-1230
861.042	-414
861.129	-317
861.216	302
861.304	-372
861.391	-298
861.478	-457
861.565	-50
861.653	313
861.740	-461
861.827	-58
861.914	128
862.001	-622
862.089	-317
862.176	-143
862.263	-554
862.350	-1042
862.437	-303
862.524	-464
862.611	-177
862.698	-561
862.785	-603
862.871	-163
862.958	233
863.045	-1130
863.132	-133
863.219	-617
863.306	-586
863.392	-372
863.479	-463
863.566	288
863.652	1171
863.739	-111
863.826	-188
863.912	-426
863.999	-1138
864.086	-122
864.172	-149
864.259	-878
864.345	51
864.432	57
864.518	-978
864.604	-441
864.691	-348
864.777	-651
864.863	-47
864.950	26
865.036	-633
865.122	-731
865.209	-837
865.295	-296
865.381	-1051
865.467	-857
865.553	-130
865.639	73
865.726	199
865.812	-86
865.898	-268
865.984	691
866.070	676
866.156	2175
866.242	3348
866.328	797
866.414	-843
866.499	-379
866.585	-90
866.671	-952
866.757	73
866.843	35
866.928	-943
867.014	-647
867.100	40
867.186	-916
867.271	-325
867.357	111
867.442	-141
867.528	635
867.614	947
867.699	-295
867.785	80
867.870	-617
867.956	-317
868.041	-694
868.127	-632
868.212	-346
868.297	-95
868.383	-170
868.468	178
868.553	-668
868.639	1133
868.724	1230
868.809	3846
868.894	6239
868.979	1246
869.065	-328
869.150	-723
869.235	-190
869.320	-438
869.405	-119
869.490	-981
869.575	-927
869.660	30
869.745	-1135
869.830	-547
869.915	-927
870.000	-400
870.085	-604
870.169	-528
870.254	-317
870.339	-649
870.424	-520
870.509	-812
870.593	-175
870.678	11
870.763	-627
870.847	-173
870.932	-1277
871.016	-937
871.101	-129
871.186	-869
871.270	-223
871.355	-818
871.439	-678
871.523	-606
871.608	15
871.692	-287
871.777	-616
871.861	-254
871.945	-354
872.030	-70
872.114	-618
872.198	-886
872.282	-853
872.367	-424
872.451	-743
872.535	-186
872.619	-222
872.703	-1359
872.787	-531
872.871	-699
872.955	-83
873.039	-743
873.123	-631
873.207	-84
873.291	-132
873.375	-372
873.459	-148
873.543	-352
873.627	-343
873.711	-210
873.794	-20
873.878	-799
873.962	-829
874.045	-897
874.129	312
874.137	280
874.213	-36
874.245	-194
874.296	-452
874.352	-530
874.380	-567
874.460	-372
874.464	-365
874.547	-1158
874.568	-996
874.631	-509
874.676	-614
874.714	-702
874.784	-293
874.798	-212
874.881	-142
874.892	-219
874.965	-768
874.999	-549
875.048	-231
875.107	-51
875.131	10
875.215	-238
875.215	-237
875.298	1
875.323	-51
875.381	-143
875.430	-231
875.465	-270
875.538	280
875.548	329
875.631	-35
875.646	-113
875.714	-318
875.753	-613
875.798	-966
875.861	-412
875.881	-262
875.964	-828
875.968	-814
876.047	-429
876.076	-272
876.130	-44
876.183	43
876.213	107
876.291	-545
876.296	-593
876.379	-417
876.398	-404
876.462	-249
876.506	-349
876.545	-504
876.613	-137
876.628	-62
876.711	-206
876.721	-239
876.794	-293
876.828	-243
876.877	-339
876.935	-528
876.960	-542
877.043	581
877.043	581
877.125	453
877.150	380
877.208	206
877.258	383
877.291	493
877.365	296
877.374	257
877.456	146
877.472	213
877.539	650
877.579	411
877.622	87
877.687	501
877.704	647
877.787	435
877.794	444
877.869	440
877.901	421
877.952	375
878.008	256
878.034	241
878.115	161
878.117	159
878.199	13
878.222	141
878.282	468
878.329	188
878.364	24
878.437	161
878.447	141
878.529	-10
878.544	5
878.611	131
878.651	-91
878.694	-215
878.758	-342
878.776	-382
878.858	184
878.865	151
878.941	-403
878.972	-244
879.023	122
879.078	-90
879.105	-213
879.185	-64
879.187	-60
879.269	-89
879.292	-120
879.351	-75
879.399	18
879.433	-20
879.506	-154
879.516	-163
879.598	79
879.613	-3
879.680	-237
879.720	55
879.762	252
879.827	-208
879.844	-310
879.926	192
879.933	149
880.007	-189
880.040	-116
880.089	-74
880.147	-200
880.171	-161
880.253	76
880.254	76
880.335	218
880.360	367
880.417	863
880.467	958
880.499	1074
880.574	1503
880.580	1533
880.662	3011
880.680	2622
880.744	1124
880.787	465
880.825	-165
880.893	-291
880.907	-253
880.989	-88
881.000	-73
881.070	-102
881.106	-123
881.152	-373
881.213	-699
881.233	-616
881.315	-7
881.319	31
881.396	371
881.426	198
881.478	-132
881.532	-98
881.559	-81
881.639	12
881.641	20
881.722	4
881.745	113
881.803	204
881.852	8
881.885	-157
881.958	-113
881.966	-118
882.047	-111
882.064	-143
882.129	106
882.171	-22
882.210	-87
882.277	288
882.291	309
882.372	594
882.383	600
882.454	698
882.489	399
882.535	-66
882.596	-186
882.616	-167
882.697	47
882.702	53
882.778	241
882.808	147
882.859	-197
882.914	-191
882.940	-37
883.020	689
883.021	692
883.102	-147
883.127	-33
883.183	463
883.233	276
883.264	4
883.339	-314
883.345	-305
883.426	-154
883.445	-102
883.507	219
883.551	501
883.587	513
883.657	-27
883.668	-94
883.749	30
883.763	74
883.830	679
883.869	670
883.910	240
883.975	61
883.991	129
884.072	180
884.081	174
884.152	294
884.187	444
884.233	383
884.292	262
884.314	123
884.394	-458
884.398	-490
884.475	85
884.504	327
884.555	373
884.610	394
884.636	326
884.716	213
884.716	215
884.797	-186
884.821	-125
884.877	-15
884.927	-167
884.958	-56
885.033	336
885.038	331
885.118	128
885.139	115
885.199	181
885.244	146
885.279	325
885.350	502
885.359	445
885.439	219
885.456	138
885.520	80
885.561	50
885.600	220
885.667	561
885.680	509
885.760	233
885.773	171
885.840	513
885.878	658
885.920	611
885.984	386
886.000	262
886.080	-19
886.089	-52
886.160	441
886.195	638
886.240	452
886.300	68
886.320	3
886.400	-5
886.406	-20
886.480	-105
886.511	-81
886.560	252
886.616	660
886.640	789
886.720	862
886.722	864
886.800	86
886.827	-265
886.879	-140
886.932	134
886.959	152
887.038	170
887.039	174
887.119	189
887.143	201
887.198	323
887.248	374
887.278	517
887.354	949
887.358	954
887.437	909
887.459	874
887.517	326
887.564	-62
887.596	193
887.669	727
887.676	695
887.755	306
887.774	163
887.835	289
887.880	443
887.914	506
887.985	605
887.994	600
888.073	571
888.090	521
888.153	393
888.195	408
888.232	419
888.300	368
888.311	390
888.391	394
888.405	431
888.470	663
888.510	706
888.549	424
888.615	29
888.628	74
888.708	314
888.720	346
888.787	224
888.825	121
888.866	188
888.930	313
888.945	383
889.024	775
889.035	824
889.103	372
889.140	107
889.182	288
889.245	582
889.261	544
889.340	318
889.349	296
889.419	111
889.454	-3
889.498	95
889.559	249
889.577	323
889.656	647
889.664	678
889.735	-112
889.768	-491
889.814	-337
889.873	-124
889.978	1077
890.083	268
890.187	262
890.292	-173
890.397	679
890.501	30
890.606	1305
890.710	618
890.815	1065
890.919	606
891.024	514
891.128	69
891.233	752
891.337	489
891.442	997
891.546	357
891.650	1254
891.755	474
891.859	890
891.963	631
892.068	748
892.172	-126
892.276	-161
892.380	209
892.484	206
892.589	426
892.693	663
892.797	108
892.901	966
893.005	275
893.109	483
893.213	855
893.317	1026
893.421	826
893.525	456
893.629	119
893.733	1026
893.837	447
893.941	571
894.045	1467
894.148	739
894.252	331
894.356	684
894.460	764
894.564	720
894.667	-525
894.771	356
894.875	437
894.978	106
895.082	122
895.186	70
895.289	216
895.393	477
895.496	341
895.600	329
895.703	1007
895.807	633
895.910	115
896.014	836
896.117	-213
896.221	2
896.324	821
896.427	644
896.531	272
896.634	619
896.737	-71
896.840	987
896.944	287
897.047	338
897.150	259
897.253	563
897.356	1398
897.460	547
897.563	36
897.666	419
897.769	-155
897.872	631
897.975	384
898.078	498
898.181	996
898.284	199
898.387	368
898.490	785
898.593	901
898.695	583
898.798	-234
898.901	322
899.004	849
899.107	175
899.209	666
899.312	1231
899.415	472
899.518	644
899.620	168
899.723	938
899.826	939
899.928	145
900.031	620
900.133	461
900.236	659
900.338	551
900.441	505
900.543	67
900.646	962
900.748	-337
900.851	820
900.953	203
901.055	1009
901.158	207
901.260	474
901.362	461
901.465	388
901.567	470
901.669	835
901.771	-242
901.873	257
901.976	570
902.078	909
902.180	271
902.282	796
902.384	712
902.486	162
902.588	531
902.690	812
902.792	582
902.894	79
902.996	-234
903.098	1055
903.200	1091
903.302	648
903.404	75
903.505	809
903.607	670
903.709	219
903.811	306
903.913	240
904.014	474
904.116	417
904.218	515
904.319	323
904.421	490
904.523	128
904.624	529
904.726	75
904.827	-257
904.929	354
905.030	556
905.132	-400
905.233	364
905.335	-409
905.436	614
905.537	308
905.639	-220
905.740	154
905.841	600
905.943	238
906.044	61
906.145	-248
906.247	737
906.348	201
906.449	799
906.550	177
906.651	741
906.752	755
906.854	-12
906.955	455
907.056	45
907.157	107
907.258	371
907.359	-241
907.460	220
907.561	561
907.662	-306
907.762	122
907.863	299
907.964	-148
908.065	354
908.166	-382
908.267	791
908.367	-10
908.468	259
908.569	-212
908.670	513
908.770	188
908.871	972
908.971	152
909.072	707
909.173	-98
909.273	152
909.374	249
909.474	1136
909.575	-434
909.675	29
909.776	1154
909.876	377
909.977	-384
910.077	180
910.177	354
910.278	-286
910.378	-275
910.478	57
910.579	498
910.679	-119
910.779	821
910.879	-487
910.980	149
911.080	112
911.180	-37
911.280	619
911.380	166
911.480	106
911.580	-610
911.680	828
911.780	-804
911.880	722
911.980	32
912.080	-45
912.180	857
912.280	22
912.380	-191
912.480	720
912.580	151
912.679	409
912.779	494
912.879	76
912.979	14
913.078	-311
913.178	-272
913.278	413
913.377	-668
913.477	158
913.577	184
913.676	413
913.776	129
913.875	178
913.975	-226
914.074	-346
914.174	-522
914.273	-119
914.373	-201
914.472	374
914.572	306
914.671	-313
914.770	317
914.870	530
914.969	-224
915.068	-487
915.167	319
915.267	241
915.366	-320
915.465	-473
915.564	-377
915.663	200
915.763	-895
915.862	257
915.961	607
916.060	1216
916.159	-393
916.258	263
916.357	-280
916.456	667
916.555	-395
916.654	320
916.752	-85
916.851	-114
916.950	11
917.049	-52
917.148	-527
917.247	512
917.345	255
917.444	59
917.543	-539
917.642	510
917.740	882
917.839	180
917.937	-24
918.036	962
918.135	341
918.233	629
918.332	-824
918.430	-858
918.529	-448
918.627	-698
918.726	454
918.824	176
918.923	418
919.021	-69
919.119	205
919.218	139
919.316	-335
919.414	-119
919.512	93
919.611	344
919.709	-159
919.807	-357
919.905	31
920.003	37
920.102	-404
920.200	396
920.298	59
920.396	683
920.494	-88
920.592	879
920.690	-281
920.788	288
920.886	352
920.984	492
921.082	12
921.180	-11
921.277	209
921.375	431
921.473	-92
921.571	578
921.669	148
921.766	-101
921.864	246
921.962	-86
922.060	141
922.157	352
922.255	101
922.352	-21
922.450	154
922.548	211
922.645	276
922.743	-846
922.840	-156
922.938	58
923.035	329
923.133	671
923.230	-66
923.327	285
923.425	-177
923.522	791
923.619	57
923.717	-473
923.814	-57
923.911	-31
924.008	-282
924.106	-180
924.203	-22
924.300	58
924.397	-67
924.494	-40
924.591	-234
924.688	184
924.786	-469
924.883	-72
924.979	-241
925.077	340
925.173	-427
925.270	621
925.367	-126
925.464	810
925.561	-84
925.658	331
925.755	-562
925.852	126
925.948	-580
926.045	148
926.142	-159
926.239	307
926.335	-541
926.432	188
926.529	387
926.625	-290
926.722	-360
926.818	333
926.915	177
927.011	544
927.108	49
927.204	243
927.301	183
927.397	-850
927.494	438
927.590	37
927.687	-621
927.783	-125
927.879	-6
927.976	-162
928.072	281
928.168	-210
928.264	-15
928.361	-777
928.457	241
928.553	-603
928.649	126
928.745	375
928.841	296
928.937	334
929.033	33
929.129	198
929.225	376
929.321	-318
929.417	-607
929.513	507
929.609	153
929.705	-40
929.801	-407
929.897	-145
929.993	-969
930.089	-625
930.184	-596
930.280	-310
930.376	121
930.471	-354
930.567	-83
930.663	-490
930.758	-613
930.854	316
930.950	533
931.045	162
931.141	-358
931.236	54
931.332	362
931.427	-3
931.523	-123
931.618	-63
931.714	-439
931.809	-225
931.905	212
932.000	382
932.095	243
932.191	-852
932.286	-231
932.381	107
932.476	78
932.572	458
932.667	-965
932.762	-693
932.857	-43
932.952	-633
933.047	-69
933.142	509
933.237	-394
933.332	-339
933.427	-604
933.522	-75
933.617	67
933.712	-291
933.807	-584
933.902	340
933.997	-599
934.092	423
934.187	270
934.282	2
934.376	-443
934.471	-226
934.566	-72
934.661	317
934.755	-430
934.850	-245
934.945	-177
935.039	-278
935.134	-566
935.228	-868
935.323	-451
935.417	-222
935.512	-119
935.606	-217
935.701	-144
935.795	131
935.890	-227
935.984	249
936.079	82
936.173	-369
936.267	-476
936.362	3
936.456	-128
936.550	210
936.644	-684
936.738	-42
936.833	-86
936.927	53
937.021	-628
937.115	130
937.209	-491
937.303	735
937.397	-821
937.491	238
937.585	-663
937.679	98
937.773	-340
937.867	306
937.961	-12
938.055	-325
938.149	-989
938.243	-254
938.337	-13
938.430	121
938.524	-191
938.618	494
938.712	3
938.805	-4
938.899	-606
938.993	-495
939.086	-580
939.180	-68
939.274	-292
939.367	-271
939.461	533
939.554	-7
939.648	326
939.741	27
939.835	-122
939.928	937
940.022	-258
940.115	-397
940.208	-375
940.302	-184
940.395	-650
940.488	-386
940.582	-729
940.675	-675
940.768	-72
940.861	417
940.954	-142
941.048	-658
941.141	-38
941.234	-556
941.327	-385
941.420	1235
941.513	-329
941.606	-85
941.699	139
941.792	402
941.885	53
941.978	195
942.071	9
942.164	-479
942.257	38
942.349	-664
942.442	-151
942.535	-313
942.628	-33
942.721	-239
942.813	-392
942.906	-828
942.999	-703
943.091	-308
943.184	-457
943.277	-358
943.369	-285
943.462	-363
943.554	-749
943.647	-450
943.739	54
943.832	-589
943.924	-304
944.017	-374
944.109	-631
944.201	-134
944.294	-535
944.386	257
944.478	-352
944.571	-207
944.663	-781
944.755	-86
944.847	-385
944.940	-335
945.032	-46
945.124	-234
945.216	-141
945.308	-7
945.400	-877
945.492	-410
945.584	383
945.676	-607
945.768	-781
945.860	-40
945.952	-1308
946.044	-930
946.136	-860
946.228	-702
946.320	-579
946.412	140
946.503	-608
946.595	-100
946.687	-686
946.779	-364
946.870	-122
946.962	-180
947.054	-654
947.145	153
947.237	238
947.329	497
947.420	-563
947.512	-1257
947.603	-52
947.695	-348
947.786	-715
947.878	-589
947.969	-711
948.061	-173
948.152	-1022
948.243	-682
948.335	-989
948.426	-510
948.517	-774
948.609	-573
948.700	108
948.791	-1248
948.882	-1096
948.973	-614
949.065	-1070
949.156	-927
949.247	-474
949.338	-37
949.429	-434
949.520	-791
949.611	-1269
949.702	-639
949.793	-1452
949.884	-283
949.975	-905
950.066	-30
950.157	-1167
950.247	-239
950.338	-506
950.429	-532
950.520	-1288
950.611	112
950.701	-396
950.792	-600
950.883	-909
950.973	-614
951.064	-712
951.155	-843
951.245	-380
951.336	-525
951.427	-1055
951.517	-387
951.608	-546
951.698	-671
951.788	-651
951.879	302
951.969	-340
952.060	-924
952.150	-164
952.240	-948
952.331	-1830
952.421	-119
952.511	-1209
952.602	-1160
952.692	-652
952.782	-572
952.872	-1081
952.962	-1086
953.052	-1460
953.143	-560
953.233	-694
953.323	-201
953.413	-756
953.503	-1295
953.593	-1165
953.683	-1212
953.773	-648
953.863	-756
953.953	-1071
954.042	-459
954.132	-698
954.222	-184
954.312	-556
954.402	-705
954.492	-1409
954.581	-1246
954.671	-587
954.761	-1005
954.850	-1631
954.940	-644
955.030	-778
955.119	-341
955.209	-672
955.298	-739
955.388	-696
955.477	7
955.567	-810
955.656	-956
955.746	-723
955.835	-1263
955.925	-853
956.014	-1129
956.103	-1878
956.193	-311
956.282	-1427
956.371	-485
956.461	-1007
956.550	-934
956.639	-834
956.728	-1036
956.817	-933
956.906	-1357
956.995	-593
957.085	-930
957.174	-1110
957.263	-661
957.352	-421
957.441	-1219
957.530	-1483
957.619	-682
957.708	-570
957.796	-1099
957.885	-1123
957.974	-636
958.063	-1121
958.152	-1390
958.241	-562
958.329	-1191
958.418	-1672
958.507	-1511
958.596	-1793
958.684	-619
958.773	-755
958.861	-1307
958.950	-965
959.039	-1469
959.127	-213
959.216	-206
959.304	-857
959.393	-587
959.481	-1338
959.570	-1247
959.658	-1161
959.746	-978
959.835	-699
959.923	-708
960.011	-906
960.100	-389
960.188	-954
960.276	-1374
960.365	-714
960.453	-1527
960.541	-712
960.629	-1057
960.717	-296
960.805	-608
960.893	-1440
960.981	-1146
961.069	-810
961.158	-695
961.245	-1730
961.333	-1180
961.421	-604
961.509	-588
961.597	-1496
961.685	-972
961.773	-1382
961.861	-873
961.949	-564
962.036	-1014
962.124	-1096
962.212	-770
962.299	-1197
962.387	-855
962.475	-566
962.562	-1741
962.650	-629
962.738	-690
962.825	-1823
962.913	-630
963.000	-1518
963.088	-1353
963.175	-712
963.263	-788
963.350	-615
963.438	-474
963.525	-1126
963.612	-860
963.700	-846
963.787	-567
963.874	-364
963.962	-848
964.049	-873
964.136	-1446
964.223	-553
964.310	-381
964.398	-1062
964.485	-540
964.572	-982
964.659	-616
964.746	-1308
964.833	-669
964.920	-912
965.007	-778
965.094	-2004
965.181	-824
965.268	-1432
965.355	-832
965.441	-404
965.528	-1551
965.615	-938
965.702	-313
965.789	-940
965.875	-546
965.962	-456
966.049	-1874
966.136	-1199
966.222	-926
966.309	-732
966.395	-977
966.482	-1521
966.569	-424
966.655	-462
966.742	-443
966.828	-246
966.915	-1446
967.001	-1147
967.087	-834
967.174	-1144
967.260	-1670
967.347	-654
967.433	-933
967.519	-634
967.605	-41
967.692	-1307
967.778	-234
967.864	-397
967.950	-284
968.036	-999
968.123	-948
968.209	-1108
968.295	-654
968.381	-1065
968.467	-438
968.553	-1355
968.639	-262
968.725	-1366
968.811	-1448
968.897	-40
968.983	-1582
969.069	-894
969.154	-913
969.240	-958
969.326	-975
969.412	-886
969.497	-455
969.583	-1510
969.669	-1134
969.755	-880
969.840	-1051
969.926	-649
970.012	-899
970.097	-736
970.183	-963
970.268	-985
970.354	-626
970.439	-1189
970.525	-881
970.610	-646
970.696	-949
970.781	-342
970.866	-1286
970.952	-702
971.037	-1609
971.122	-672
971.208	-691
971.293	-1295
971.378	-1009
971.463	-815
971.549	-456
971.634	-777
971.719	-1219
971.804	-1931
971.889	-251
971.974	-1455
972.059	-1112
972.144	-482
972.229	-860
972.314	-1550
972.399	-1088
972.484	-1500
972.569	-240
972.654	-1117
972.739	-902
972.824	-1385
972.908	345
972.993	-1260
973.078	-947
973.163	-904
973.247	-1505
973.332	-1288
973.417	-487
973.501	-996
973.586	-438
973.671	-1157
973.755	-1224
973.840	-1384
973.924	-669
974.009	-1157
974.093	-1105
974.178	-358
974.262	-1158
974.346	-1442
974.431	-456
974.515	-1855
974.600	-1180
974.684	-1311
974.768	-1128
974.852	-476
974.937	-736
975.021	-1087
975.105	-983
975.189	-849
975.273	-539
975.358	-931
975.442	-536
975.526	-1058
975.610	-916
975.694	-1840
975.778	-1232
975.862	-687
975.946	-1541
976.030	-167
976.114	-423
976.198	-1135
976.281	-88
976.365	-649
976.449	-1126
976.533	-1453
976.617	-413
976.700	-696
976.784	-453
976.868	-689
976.951	-599
977.035	-759
977.119	-716
977.202	-592
977.286	-723
977.369	-819
977.453	-1211
977.536	-994
977.620	-1432
977.703	-949
977.787	-1131
977.870	-789
977.953	-742
978.037	-2146
978.120	-877
978.203	-1402
978.287	-357
978.370	-681
978.453	-244
978.536	-904
978.620	-236
978.703	-776
978.786	647
978.869	-1074
978.952	-1409
979.035	-1017
979.118	-1002
979.201	-1105
979.284	-971
979.367	-1233
979.450	-333
979.533	-1310
979.616	-1115
979.699	-1605
979.782	-1437
979.865	-635
979.948	-1322
980.030	-1552
980.113	-389
980.196	-1180
980.279	-1134
980.361	-1797
980.444	-1107
980.526	-1446
980.609	-545
980.692	-1424
980.774	-875
980.857	-1526
980.939	-630
981.022	-1654
981.104	-1190
981.187	-1001
981.269	-1144
981.352	-865
981.434	-1580
981.516	-1788
981.599	-1127
981.681	-564
981.763	-1081
981.846	-1539
981.928	-1260
982.010	-856
982.092	-1426
982.174	-96
982.256	-1013
982.339	-724
982.421	-1554
982.503	-1641
982.585	-963
982.667	-807
982.749	-980
982.831	-1305
982.913	-960
982.995	-1119
983.077	-1728
983.158	-709
983.240	-1451
983.322	-666
983.404	-1140
983.486	-1912
983.568	-999
983.649	-1030
983.731	-712
983.813	-1091
983.894	-573
983.976	-1384
984.058	-1437
984.139	-864
984.221	-1502
984.302	-1668
984.384	-775
984.465	-1179
984.547	-1051
984.628	-1366
984.710	-1039
984.791	-1287
984.872	-1761
984.954	-1215
985.035	-1200
985.116	-942
985.198	-683
985.279	-971
985.360	-935
985.441	-1748
985.522	-1184
985.604	-1128
985.685	-1449
985.766	-506
985.847	-1634
985.928	-1851
986.009	-1308
986.090	-1625
986.171	-1341
986.252	-1741
986.333	-665
986.414	-921
986.495	-650
986.576	-1686
986.656	-851
986.737	-998
986.818	-711
986.899	-299
986.980	-816
987.060	-1595
987.141	-1363
987.222	-1041
987.302	-1071
987.383	-1867
987.464	-1511
987.544	-764
987.625	-1480
987.705	-450
987.786	-1532
987.866	-1557
987.947	-1122
988.027	-1795
988.108	-1376
988.188	-1088
988.268	-1267
988.349	-1103
988.429	-634
988.509	-608
988.589	-1721
988.670	-1154
988.750	-44
988.830	-1848
988.910	-1096
988.990	-1193
989.070	-994
989.151	-1378
989.231	-1278
989.311	-991
989.391	-773
989.471	-1633
989.551	-1582
989.631	-1309
989.711	-860
989.791	-1299
989.870	-1523
989.950	-994
990.030	-1060
990.110	-1659
990.190	-280
990.269	-1145
990.349	-894
990.429	-1650
990.509	-1342
990.588	-1915
990.668	-1176
990.747	-1043
990.827	-1224
990.907	-1042
990.986	-1305
991.066	-1985
991.145	-1207
991.225	-1523
991.304	-1293
991.383	-2178
991.463	-753
991.542	-963
991.622	-994
991.701	-1342
991.780	-229
991.859	-1750
991.939	-598
992.018	-1669
992.097	-967
992.176	-564
992.256	-865
992.335	-1595
992.414	-884
992.493	-1669
992.572	-1393
992.651	-1130
992.730	-1842
992.809	-1569
992.888	-923
992.967	-1332
993.046	-746
993.125	-1299
993.203	-16
993.282	-940
993.361	-1486
993.440	-1423
993.519	-1070
993.597	-918
993.676	-724
993.755	-1320
993.834	-1121
993.912	-1460
993.991	-1058
994.069	-1782
994.148	-934
994.226	-814
994.305	-1622
994.384	-1748
994.462	-429
994.540	-1264
994.619	-951
994.697	-136
994.776	-1179
994.854	-218
994.932	-1092
995.011	-1188
995.089	-1217
995.167	-637
995.245	-1354
995.324	-1166
995.402	-1079
995.480	-916
995.558	-1251
995.636	-1772
995.714	-1534
995.792	-1759
995.870	-1364
995.948	-1676
996.026	-1018
996.104	-1460
996.182	-737
996.260	-370
996.338	-2045
996.416	-1571
996.494	-1397
996.572	-793
996.649	-1628
996.727	-1697
996.805	-1037
996.883	-1069
996.960	-736
997.038	-1841
997.116	-1626
997.193	-2144
997.271	-647
997.348	-1377
997.426	-916
997.504	-1248
997.581	-1586
997.658	-1068
997.736	-935
997.813	-1906
997.891	-1041
997.968	-1306
998.046	-869
998.123	-1738
998.200	-867
998.277	-844
998.355	-1091
998.432	-1926
998.509	-1148
998.586	-1347
998.663	-697
998.741	-1218
998.818	-1241
998.895	-1246
998.972	-702
999.049	-1657
999.126	-1078
999.203	-1339
999.280	-1357
999.357	-1524
999.434	-1637
999.511	-588
999.587	-1475
999.664	-1261
999.741	-1249
999.818	-1701
999.895	-1217
999.971	-1343
1000.048	-1619
1000.125	-967
1000.202	-2044
1000.278	-1708
1000.355	-1025
1000.431	-794
1000.508	-1360
1000.584	-935
1000.661	-820
1000.738	-1426
1000.814	-1184
1000.890	-1487
1000.967	-1142
1001.043	-1670
1001.120	-1110
1001.196	-1501
1001.272	-1111
1001.349	-1060
1001.425	-1339
1001.501	-1532
1001.577	-1554
1001.654	-1166
1001.730	-1096
1001.806	-996
1001.882	-899
1001.958	-861
1002.034	-1402
1002.110	-1308
1002.186	-776
1002.262	-1788
1002.338	-868
1002.414	-1256
1002.490	-1325
1002.566	-1165
1002.642	-1032
1002.718	-1646
1002.794	-1775
1002.870	-1831
1002.945	-1333
1003.021	-2096
1003.097	-1700
1003.173	-627
1003.248	-1546
1003.324	-1263
1003.400	-2138
1003.475	-1556
1003.551	-1923
1003.626	-929
1003.702	-1872
1003.777	-1507
1003.853	-1047
1003.928	-1742
1004.004	-1416
1004.079	-1202
1004.155	-1353
1004.230	-1747
1004.305	-1736
1004.381	-1353
1004.456	-1338
1004.531	-2023
1004.607	-1783
1004.682	-1291
1004.757	-1959
1004.832	-1654
1004.907	-1824
1004.982	-1055
1005.057	-1669
1005.133	-1920
1005.208	-1794
1005.283	-1783
1005.358	-872
1005.433	-1728
1005.508	-1234
1005.583	-1616
1005.657	-1103
1005.732	-861
1005.807	-1267
1005.882	-1825
1005.957	-1476
1006.032	-1352
1006.106	-1565
1006.181	-2361
1006.256	-1022
1006.331	-1901
1006.405	-2060
1006.480	-1307
1006.554	-1255
1006.629	-1056
1006.704	-1419
1006.778	-1146
1006.853	-1589
1006.927	-1794
1007.002	-1374
1007.076	-1316
1007.150	-1971
1007.225	-1582
1007.299	-1477
1007.373	-1865
1007.448	-1617
1007.522	-1576
1007.596	-1389
1007.671	-1801
1007.745	-1078
1007.819	-1915
1007.893	-2014
1007.967	-2330
1008.041	-1735
1008.115	-1393
1008.190	-1596
1008.264	-1772
1008.338	-1280
1008.412	-1955
1008.486	-1393
1008.560	-983
1008.633	-1648
1008.707	-1237
1008.781	-1193
1008.855	-1714
1008.929	-1725
1009.003	-1942
1009.076	-1317
1009.150	-1661
1009.224	-1440
1009.298	-2184
1009.371	-1190
1009.445	-1708
1009.519	-1877
1009.592	-1900
1009.666	-1844
1009.739	-1033
1009.813	-944
1009.886	-2217
1009.960	-1437
1010.033	-1609
1010.107	-1753
1010.180	-1697
1010.253	-907
1010.327	-1718
1010.400	-1494
1010.473	-1308
1010.547	-1300
1010.620	-2419
1010.693	-1897
1010.766	-1762
1010.840	-1452
1010.913	-1461
1010.986	-1869
1011.059	-1874
1011.132	-1663
1011.205	-1242
1011.278	-1252
1011.351	-2626
1011.424	-1856
1011.497	-2497
1011.570	-1962
1011.643	-1969
1011.716	-1334
1011.789	-2066
1011.862	-1814
1011.934	-1761
1012.007	-1439
1012.080	-1235
1012.153	-1604
1012.225	-1523
1012.298	-1113
1012.371	-1768
1012.443	-1497
1012.516	-2752
1012.588	-1425
1012.661	-1608
1012.733	-1700
1012.806	-1751
1012.879	-1656
1012.951	-1983
1013.023	-1590
1013.096	-1729
1013.168	-1610
1013.241	-1929
1013.313	-1957
1013.385	-1730
1013.458	-675
1013.530	-1615
1013.602	-2689
1013.674	-2373
1013.746	-2071
1013.819	-2088
1013.891	-1234
1013.963	-2194
1014.035	-1386
1014.107	-1659
1014.179	-1945
1014.251	-1625
1014.323	-1504
1014.395	-2002
1014.467	-1294
1014.539	-1655
1014.611	-999
1014.683	-1671
1014.754	-1607
1014.826	-2231
1014.898	-1526
1014.970	-2470
1015.042	-1618
1015.113	-1150
1015.185	-2069
1015.257	-2338
1015.328	-1812
1015.400	-2569
1015.471	-1703
1015.543	-2215
1015.615	-2164
1015.686	-1801
1015.757	-2039
1015.829	-1559
1015.901	-1395
1015.972	-1375
1016.043	-1433
1016.115	-1855
1016.186	-1403
1016.257	-2035
1016.328	-1522
1016.400	-2280
1016.471	-1397
1016.542	-2247
1016.613	-1233
1016.685	-1508
1016.756	-1123
1016.827	-1672
1016.898	-2576
1016.969	-1132
1017.040	-1323
1017.111	-1401
1017.182	-2211
1017.253	-2120
1017.324	-1938
1017.395	-1217
1017.466	-1468
1017.537	-1896
1017.608	-2018
1017.678	-1402
1017.749	-960
1017.820	-2062
1017.891	-2647
1017.961	-2291
1018.032	-1826
1018.103	-1783
1018.173	-1285
1018.244	-1705
1018.315	-1640
1018.385	-1647
1018.456	-2514
1018.526	-1885
1018.597	-1983
1018.667	-2813
1018.738	-2255
1018.808	-1865
1018.878	-1775
1018.949	-2530
1019.019	-1480
1019.089	-1620
1019.160	-1591
1019.230	-2190
1019.300	-1750
1019.371	-2500
1019.441	-2229
1019.511	-1275
1019.581	-1148
1019.651	-1152
1019.721	-1798
1019.791	-1187
1019.861	-2075
1019.931	-1826
1020.001	-2443
1020.071	-1177
1020.141	-1978
1020.211	-1555
1020.281	-2090
1020.351	-2452
1020.421	-1536
1020.491	-2049
1020.560	-2159
1020.630	-2019
1020.700	-1633
1020.770	-2500
1020.839	-1568
1020.909	-1851
1020.979	-1925
1021.048	-2227
1021.118	-1656
1021.187	-1089
1021.257	-2047
1021.326	-1329
1021.396	-1289
1021.465	-1978
1021.535	-1552
1021.604	-1228
1021.674	-1684
1021.743	-1226
1021.812	-1717
1021.882	-1016
1021.951	-1617
1022.020	-1573
1022.089	-1577
1022.159	-2045
1022.228	-1340
1022.297	-2237
1022.366	-1407
1022.435	-910
1022.504	-1643
1022.573	-2523
1022.642	-937
1022.711	-2176
1022.781	-1424
1022.849	-1195
1022.918	-1612
1022.987	-1955
1023.056	-1483
1023.125	-1841
1023.194	-2168
1023.263	-1256
1023.331	-1507
1023.400	-1878
1023.469	-1531
1023.538	-1358
1023.606	-1851
1023.675	-1818
1023.744	-1651
1023.812	-1550
1023.881	-1122
1023.949	-1258
1024.018	-1846
1024.086	-2078
1024.155	-1635
1024.223	-1989
1024.292	-1971
1024.360	-2126
1024.429	-1334
1024.497	-2397
1024.565	-1330
1024.634	-947
1024.702	-1667
1024.770	-1789
1024.838	-1706
1024.907	-1712
1024.975	-1653
1025.043	-2011
1025.111	-1539
1025.179	-2203
1025.247	-2303
1025.315	-1613
1025.383	-1716
1025.451	-1437
1025.519	-1380
1025.587	-1270
1025.655	-2171
1025.723	-1467
1025.791	-1851
1025.859	-2001
1025.927	-1821
1025.995	-1724
1026.062	-1346
1026.130	-1717
1026.198	-1714
1026.266	-1957
1026.333	-1847
1026.401	-2233
1026.469	-1856
1026.536	-2199
1026.604	-1303
1026.671	-1784
1026.739	-1248
1026.806	-1736
1026.874	-1977
1026.941	-2102
1027.009	-1525
1027.076	-1142
1027.144	-1668
1027.211	-1311
1027.278	-1519
1027.345	-1426
1027.413	-1384
1027.480	-2265
1027.547	-2093
1027.614	-2198
1027.682	-1416
1027.749	-1453
1027.816	-1566
1027.883	-1997
1027.950	-1933
1028.017	-2262
1028.084	-1338
1028.151	-1968
1028.218	-1499
1028.285	-1493
1028.352	-2139
1028.419	-1958
1028.486	-2415
1028.553	-1943
1028.619	-1710
1028.686	-1958
1028.753	-1783
1028.820	-2530
1028.886	-1731
1028.953	-1968
1029.020	-1561
1029.086	-1600
1029.153	-1705
1029.220	-1702
1029.286	-2200
1029.353	-1773
1029.419	-1552
1029.486	-2220
1029.552	-1003
1029.619	-1537
1029.685	-1325
1029.751	-1879
1029.818	-1393
1029.884	-1665
1029.951	-956
1030.017	-1438
1030.083	-1636
1030.149	-1911
1030.216	-1302
1030.282	-1494
1030.348	-1287
1030.414	-1637
1030.480	-1983
1030.546	-1759
1030.612	-765
1030.678	-1525
1030.744	-2050
1030.810	-1850
1030.876	-1436
1030.942	-1258
1031.008	-1498
1031.074	-1499
1031.140	-1619
1031.206	-2264
1031.272	-1102
1031.337	-1228
1031.403	-1271
1031.469	-1625
1031.534	-1909
1031.600	-1787
1031.666	-1754
1031.731	-1798
1031.797	-1872
1031.863	-2197
1031.928	-1335
1031.994	-1976
1032.059	-1234
1032.125	-1500
1032.190	-1599
1032.256	-2057
1032.321	-1937
1032.386	-1460
1032.452	-1344
1032.517	-1221
1032.582	-1495
1032.647	-1130
1032.713	-1391
1032.778	-1625
1032.843	-887
1032.908	-1953
1032.974	-1723
1033.039	-1936
1033.104	-1567
1033.169	-1863
1033.234	-1415
1033.299	-985
1033.364	-1569
1033.429	-1096
1033.494	-2007
1033.559	-1729
1033.624	-779
1033.688	-1389
1033.753	-2033
1033.818	-1807
1033.883	-1959
1033.948	-2240
1034.013	-1485
1034.077	-1764
1034.142	-1952
1034.207	-2312
1034.271	-1599
1034.336	-1410
1034.400	-1426
1034.465	-1455
1034.530	-2060
1034.594	-1112
1034.658	-1423
1034.723	-1594
1034.787	-1976
1034.852	-1535
1034.916	-1454
1034.981	-2400
1035.045	-3169
1035.109	-2822
1035.173	-1726
1035.238	-1776
1035.302	-1882
1035.366	-1743
1035.430	-2048
1035.495	-1891
1035.559	-1866
1035.623	-2079
1035.687	-1449
1035.751	-1534
1035.815	-1726
1035.879	-1530
1035.943	-1830
1036.007	-1574
1036.071	-1416
1036.135	-2228
1036.198	-2364
1036.262	-1556
1036.326	-1372
1036.390	-2026
1036.454	-1972
1036.517	-1784
1036.581	-1320
1036.645	-1809
1036.709	-1932
1036.772	-1065
1036.836	-2012
1036.900	-1995
1036.963	-1901
1037.026	-1993
1037.090	-2042
1037.154	-1414
1037.217	-1495
1037.280	-1727
1037.344	-1908
1037.407	-1440
1037.471	-1880
1037.534	-1938
1037.597	-2672
1037.661	-1666
1037.724	-1694
1037.787	-2212
1037.850	-1012
1037.913	-1674
1037.977	-1590
1038.040	-2269
1038.103	-1488
1038.166	-2025
1038.229	-1261
1038.292	-1513
1038.355	-2378
1038.418	-1639
1038.481	-1349
1038.544	-2099
1038.607	-608
1038.670	-2047
1038.732	-2246
1038.795	-2731
1038.858	-1477
1038.921	-1670
1038.984	-1816
1039.046	-2060
1039.109	-2264
1039.172	-1788
1039.234	-2884
1039.297	-2304
1039.360	-1450
1039.422	-1115
1039.485	-2198
1039.547	-2177
1039.610	-2190
1039.672	-2191
1039.734	-2305
1039.797	-2282
1039.859	-2364
1039.922	-2535
1039.984	-2109
1040.046	-1918
1040.109	-1673
1040.171	-1389
1040.233	-1486
1040.295	-2018
1040.358	-2059
1040.420	-1689
1040.482	-1644
1040.544	-2224
1040.606	-1136
1040.668	-1756
1040.730	-2062
1040.792	-2371
1040.854	-1960
1040.916	-2039
1040.978	-1989
1041.040	-1767
1041.102	-1126
1041.164	-2086
1041.225	-1725
1041.287	-2278
1041.349	-2113
1041.411	-1522
1041.472	-1968
1041.534	-1812
1041.596	-2064
1041.657	-1629
1041.719	-2020
1041.781	-1967
1041.842	-1916
1041.904	-2523
1041.965	-1365
1042.027	-2066
1042.088	-1968
1042.150	-1435
1042.211	-1110
1042.272	-2093
1042.334	-1446
1042.395	-1873
1042.456	-2179
1042.518	-1873
1042.579	-1802
1042.640	-1718
1042.701	-2103
1042.763	-2663
1042.824	-1748
1042.885	-2061
1042.946	-2268
1043.007	-2009
1043.068	-1816
1043.129	-1253
1043.190	-1765
1043.251	-2221
1043.312	-2184
1043.373	-1862
1043.434	-1791
1043.495	-2676
1043.556	-670
1043.616	-1759
1043.677	-1811
1043.738	-2155
1043.799	-2028
1043.859	-1511
1043.920	-1651
1043.981	-1691
1044.041	-1764
1044.102	-2141
1044.162	-1326
1044.223	-2078
1044.284	-1615
1044.344	-2089
1044.405	-1703
1044.465	-1675
1044.525	-1582
1044.586	-1527
1044.646	-1247
1044.707	-2157
1044.767	-1400
1044.827	-1596
1044.887	-1334
1044.948	-1666
1045.008	-1523
1045.068	-1943
1045.128	-175
1045.188	-1216
1045.249	-1136
1045.309	-1459
1045.369	-1771
1045.429	-1042
1045.489	-1317
1045.549	-1378
1045.609	-1596
1045.669	-1765
1045.729	-1693
1045.789	-1800
1045.848	-1041
1045.908	-1588
1045.968	-1132
1046.028	-1143
1046.088	-1529
1046.147	-1785
1046.207	-913
1046.267	-1160
1046.326	-1213
1046.386	-1223
1046.446	-1147
1046.505	-835
1046.565	-1015
1046.624	-996
1046.684	-1379
1046.743	-456
1046.803	282
1046.862	-507
1046.922	0
