'Start Wavelength	183.907
'End Wavelength	1046.922
'Gate Delay	5.000
'Gate Width (ms)	1.050
'Laser Output Level	0.000
'X Position	0.000
'Y Position	0.000
'Z Position	0.000
'Grid Point Number	1.000
'Shot Number	100.000
183.907	805.000
183.977	440.000
184.047	344
184.116	798
184.186	420
184.256	76
184.325	386
184.395	28
184.465	378
184.534	766
184.604	-34
184.674	261
184.743	783
184.813	179
184.883	594
184.952	170
185.022	-13
185.092	225
185.161	451
185.231	908
185.301	710
185.370	623
185.440	-104
185.509	-127
185.579	341
185.649	-56
185.718	346
185.788	869
185.857	904
185.927	-737
185.996	270
186.066	277
186.136	266
186.205	320
186.275	509
186.344	-152
186.414	893
186.483	-138
186.553	1400
186.622	1064
186.692	899
186.761	562
186.831	35
186.900	387
186.970	1384
187.039	394
187.109	426
187.178	897
187.248	1123
187.317	485
187.387	912
187.456	790
187.526	1511
187.595	492
187.664	1107
187.734	481
187.803	444
187.873	659
187.942	1113
188.012	34
188.081	718
188.150	1318
188.220	1931
188.289	1493
188.358	625
188.428	743
188.497	1008
188.567	598
188.636	887
188.705	568
188.775	279
188.844	710
188.913	1141
188.983	1016
189.052	548
189.121	265
189.191	857
189.260	1159
189.329	1784
189.399	597
189.468	666
189.537	423
189.606	555
189.676	972
189.745	1517
189.814	1122
189.883	821
189.953	603
190.022	2555
190.091	4136
190.161	3680
190.230	1047
190.299	1017
190.368	14
190.437	991
190.507	1236
190.576	1150
190.645	233
190.714	1237
190.783	668
190.853	735
190.922	879
190.991	1451
191.060	652
191.129	902
191.198	345
191.268	370
191.337	794
191.406	1003
191.475	1029
191.544	843
191.613	330
191.682	961
191.752	579
191.821	1083
191.890	827
191.959	30
192.028	-60
192.097	1134
192.166	761
192.235	263
192.304	1073
192.373	608
192.442	157
192.511	869
192.580	-340
192.650	735
192.719	1201
192.788	892
192.857	573
192.926	836
192.995	634
193.064	2229
193.133	1986
193.202	1736
193.271	1081
193.340	1413
193.409	1131
193.478	1969
193.547	2306
193.615	2985
193.684	2548
193.753	1207
193.822	1262
193.891	1659
193.960	951
194.029	1182
194.098	837
194.167	926
194.236	643
194.305	836
194.374	517
194.443	795
194.512	975
194.580	726
194.649	1175
194.718	660
194.787	577
194.856	1155
194.925	336
194.994	1286
195.062	882
195.131	1846
195.200	1022
195.269	2129
195.338	528
195.407	1455
195.475	1405
195.544	1544
195.613	565
195.682	1167
195.751	1556
195.819	953
195.888	652
195.957	2186
196.026	1426
196.094	1127
196.163	1235
196.232	1587
196.301	812
196.369	1426
196.438	777
196.507	1705
196.576	638
196.644	360
196.713	1133
196.782	451
196.850	959
196.919	877
196.988	923
197.056	1790
197.125	1319
197.194	736
197.262	621
197.331	1052
197.400	546
197.468	850
197.537	838
197.606	1673
197.674	2902
197.743	4053
197.812	2070
197.880	5037
197.949	2461
198.017	4039
198.086	1931
198.155	1555
198.223	2733
198.292	4981
198.360	1202
198.429	1866
198.497	1741
198.566	4527
198.635	3203
198.703	1289
198.772	2730
198.840	7441
198.909	3139
198.977	1183
199.046	1957
199.114	2129
199.183	1339
199.251	897
199.320	1022
199.388	1303
199.457	1171
199.525	1813
199.594	1717
199.662	1682
199.731	1137
199.799	1536
199.867	2154
199.936	2067
200.004	1071
200.073	1181
200.141	1246
200.210	1264
200.278	1396
200.346	2274
200.415	3005
200.483	2285
200.552	1399
200.620	1776
200.688	1449
200.757	824
200.825	300
200.893	1344
200.962	1115
201.030	1041
201.098	625
201.167	1587
201.235	1597
201.303	1109
201.372	799
201.440	1946
201.508	1732
201.577	1603
201.645	1180
201.713	1531
201.781	1854
201.850	1826
201.918	1058
201.986	1289
202.055	922
202.123	1107
202.191	1307
202.259	1589
202.327	1559
202.396	1703
202.464	1366
202.532	2233
202.600	4062
202.669	1554
202.737	1121
202.805	746
202.873	533
202.941	1443
203.009	1634
203.078	924
203.146	1391
203.214	1449
203.282	1176
203.350	2166
203.418	1894
203.487	1125
203.555	971
203.623	1801
203.691	975
203.759	1591
203.827	1737
203.895	1722
203.963	1758
204.031	2096
204.099	1846
204.168	1348
204.236	1483
204.304	2010
204.372	2022
204.440	2024
204.508	1333
204.576	1299
204.644	1317
204.712	1733
204.780	2099
204.848	1375
204.916	1964
204.984	1125
205.052	1620
205.120	1733
205.188	1277
205.256	1922
205.324	1899
205.392	2321
205.460	2420
205.528	2747
205.596	1981
205.664	2304
205.732	2296
205.799	9674
205.867	6703
205.935	3385
206.003	1854
206.071	2465
206.139	2676
206.207	2534
206.275	1675
206.343	1578
206.411	2148
206.478	2228
206.546	2346
206.614	2345
206.682	1759
206.750	1764
206.818	3125
206.885	2968
206.953	1789
207.021	2454
207.089	2081
207.157	1790
207.225	2100
207.292	1563
207.360	1680
207.428	2171
207.496	1969
207.563	1164
207.631	1438
207.699	2010
207.767	1859
207.834	2474
207.902	2585
207.970	2609
208.038	1681
208.105	2125
208.173	3218
208.241	3426
208.309	2579
208.376	3605
208.444	5062
208.512	3481
208.579	2030
208.647	2995
208.715	3083
208.782	2500
208.850	2125
208.918	2373
208.985	2121
209.053	2264
209.120	2296
209.188	3075
209.256	3464
209.323	3802
209.391	3186
209.459	2788
209.526	2026
209.594	2732
209.661	2386
209.729	2993
209.796	2249
209.864	2693
209.932	1829
209.999	2574
210.067	3046
210.134	2657
210.202	2601
210.269	3752
210.337	3889
210.404	2448
210.472	2274
210.539	2217
210.607	4288
210.674	3126
210.742	3273
210.809	3334
210.877	3524
210.944	4276
211.012	3577
211.079	3790
211.146	3261
211.214	3629
211.281	4446
211.349	3441
211.416	3153
211.484	3799
211.551	3380
211.618	3464
211.686	3276
211.753	3060
211.821	3145
211.888	3755
211.955	3679
212.023	3216
212.090	3397
212.157	3116
212.225	5107
212.292	9602
212.359	17425
212.427	23421
212.494	9586
212.561	4956
212.629	4098
212.696	3798
212.763	4067
212.831	3860
212.898	3267
212.965	3209
213.032	3010
213.100	3535
213.167	2658
213.234	3828
213.301	2446
213.369	3405
213.436	2948
213.503	3045
213.570	3389
213.638	3333
213.705	3314
213.772	2871
213.839	4112
213.906	3794
213.973	3379
214.041	3109
214.108	2876
214.175	3190
214.242	3438
214.309	3236
214.376	3234
214.444	3608
214.511	3923
214.578	4212
214.645	3856
214.712	4548
214.779	4382
214.846	3859
214.913	4325
214.980	4717
215.048	4649
215.115	4993
215.182	4142
215.249	4060
215.316	3198
215.383	4106
215.450	2627
215.517	3381
215.584	3385
215.651	2961
215.718	2372
215.785	4160
215.852	4053
215.919	3696
215.986	3316
216.053	2854
216.120	3221
216.187	4093
216.254	3421
216.321	4261
216.388	3750
216.455	4209
216.522	3839
216.589	5058
216.656	7220
216.722	5713
216.789	5530
216.856	5434
216.923	4556
216.990	3993
217.057	5404
217.124	5296
217.191	4964
217.258	5323
217.324	6801
217.391	6726
217.458	5533
217.525	5253
217.592	4022
217.659	4937
217.725	5296
217.792	7204
217.859	4546
217.926	2940
217.993	4221
218.059	3412
218.126	3370
218.193	4086
218.260	3749
218.327	3558
218.393	3630
218.460	3133
218.527	3773
218.594	5072
218.660	6502
218.727	4873
218.794	3174
218.860	3646
218.927	2777
218.994	3796
219.061	3221
219.127	4618
219.194	5242
219.261	3046
219.327	2874
219.394	3800
219.461	2670
219.527	3204
219.594	4449
219.661	3633
219.727	3132
219.794	4382
219.860	3595
219.927	4172
219.994	7278
220.060	9474
220.127	6198
220.193	5242
220.260	5355
220.326	6420
220.393	8915
220.460	10728
220.526	5970
220.593	5237
220.659	5513
220.726	8179
220.792	14289
220.859	12216
220.925	14469
220.992	16138
221.058	19854
221.125	16927
221.191	10983
221.258	6053
221.324	5547
221.391	5934
221.457	4049
221.524	5067
221.590	10025
221.657	19506
221.723	10558
221.789	13758
221.856	9162
221.922	6873
221.989	4709
222.055	4958
222.121	6178
222.188	8443
222.254	4797
222.321	4075
222.387	3273
222.453	4007
222.520	3283
222.586	3900
222.652	3088
222.719	4433
222.785	3587
222.851	3653
222.918	3715
222.984	2738
223.050	3572
223.116	3375
223.183	3488
223.249	3353
223.315	2495
223.382	3257
223.448	3230
223.514	2770
223.580	2914
223.647	3382
223.713	3296
223.779	3473
223.845	3705
223.911	3712
223.978	3999
224.044	3341
224.110	3268
224.176	3676
224.242	3500
224.309	3427
224.375	3229
224.441	3077
224.507	2660
224.573	3056
224.639	2967
224.705	2559
224.772	3323
224.838	2661
224.904	3566
224.970	3573
225.036	2862
225.102	3226
225.168	3951
225.234	2765
225.300	3162
225.366	3198
225.432	2405
225.499	3214
225.565	4429
225.631	4183
225.697	5192
225.763	5109
225.829	5432
225.895	6289
225.961	8056
226.027	6695
226.093	5701
226.159	7359
226.225	9908
226.291	20944
226.357	20738
226.423	11440
226.489	7788
226.554	6408
226.620	5765
226.686	8391
226.752	10773
226.818	20161
226.884	33749
226.950	19488
227.016	9956
227.082	7470
227.148	6997
227.214	6636
227.279	4986
227.345	5097
227.411	5554
227.477	8391
227.543	14585
227.609	10261
227.674	5504
227.740	5925
227.806	5820
227.872	5172
227.938	4769
228.003	4976
228.069	3280
228.135	4047
228.201	3926
228.267	3848
228.332	4891
228.398	5597
228.464	3070
228.530	3525
228.595	3592
228.661	4574
228.727	5669
228.792	4028
228.858	4183
228.924	5269
228.990	5217
229.055	4603
229.121	4544
229.187	4318
229.252	3756
229.318	3032
229.384	4109
229.449	4506
229.515	3327
229.581	2964
229.646	4005
229.712	5036
229.777	9139
229.843	6545
229.909	6751
229.974	6788
230.040	5930
230.105	6326
230.171	7203
230.236	11770
230.302	13866
230.368	8082
230.433	6748
230.499	6566
230.564	5820
230.630	4813
230.695	5038
230.761	4594
230.826	4224
230.892	7076
230.957	3960
231.023	4363
231.088	4648
231.154	5015
231.219	5194
231.284	6168
231.350	4892
231.415	4411
231.481	4528
231.546	4167
231.612	3936
231.677	4120
231.742	3243
231.808	3929
231.873	3973
231.939	4280
232.004	6311
232.069	5155
232.135	4933
232.200	4310
232.265	3116
232.331	4468
232.396	3669
232.461	3739
232.527	3555
232.592	4327
232.657	4478
232.723	5958
232.788	3802
232.853	3745
232.918	2923
232.984	3655
233.049	4360
233.114	5696
233.179	5031
233.245	8693
233.310	5142
233.375	3727
233.440	4233
233.506	3906
233.571	3192
233.636	3565
233.701	3826
233.766	6689
233.832	4838
233.897	4375
233.962	3986
234.027	4274
234.092	3688
234.157	4371
234.222	4616
234.288	8821
234.353	13668
234.418	10637
234.483	7838
234.548	8099
234.613	5975
234.678	6553
234.743	8681
234.808	15578
234.873	7461
234.938	6296
235.004	5874
235.069	5842
235.134	5485
235.199	5519
235.264	5230
235.329	5379
235.394	5248
235.459	6612
235.524	5046
235.589	5579
235.654	4935
235.719	5151
235.784	4524
235.849	7141
235.913	8324
235.978	10751
236.043	7867
236.108	5277
236.173	6665
236.238	4529
236.303	5129
236.368	5713
236.433	8533
236.498	8877
236.563	9040
236.627	21573
236.692	44369
236.757	22600
236.822	13076
236.887	11042
236.952	8808
237.017	9291
237.081	8876
237.146	13159
237.211	22204
237.276	54732
237.341	51986
237.405	20887
237.470	12473
237.535	10105
237.600	7235
237.664	7412
237.729	6545
237.794	10242
237.859	10871
237.923	7674
237.988	6822
238.053	8460
238.118	9401
238.182	21922
238.247	10634
238.312	8153
238.376	7081
238.441	5967
238.506	5703
238.570	4961
238.635	4814
238.700	5050
238.764	5614
238.829	12333
238.893	7886
238.958	7201
239.023	6191
239.087	5569
239.152	5731
239.216	5565
239.281	5054
239.346	5283
239.410	5017
239.475	8467
239.539	20266
239.604	8712
239.668	5237
239.733	5728
239.797	14528
239.862	22903
239.926	15739
239.991	6714
240.055	5362
240.120	4813
240.184	4378
240.249	3963
240.313	3857
240.378	5445
240.442	14691
240.507	11685
240.571	6011
240.635	11296
240.700	7190
240.764	4904
240.829	3155
240.893	3919
240.957	5190
241.022	14259
241.086	13371
241.151	6368
241.215	4305
241.279	8256
241.344	7642
241.408	7522
241.472	7036
241.537	7884
241.601	6675
241.665	5895
241.730	6813
241.794	6157
241.858	7043
241.922	7092
241.987	7391
242.051	6031
242.115	5670
242.179	6001
242.244	5190
242.308	5749
242.372	7235
242.436	6024
242.501	5209
242.565	5376
242.629	4787
242.693	5693
242.757	5605
242.822	5699
242.886	5829
242.950	6034
243.014	6290
243.078	7083
243.142	5412
243.206	7046
243.271	6617
243.335	9047
243.399	15991
243.463	64670
243.527	63901
243.591	19346
243.655	11118
243.719	8691
243.783	10069
243.847	19556
243.911	15947
243.975	14433
244.040	8294
244.104	6524
244.168	7174
244.232	10648
244.296	15213
244.360	13893
244.424	6612
244.488	6066
244.552	5699
244.615	4880
244.679	4945
244.743	7335
244.807	5138
244.871	4469
244.935	4407
244.999	4841
245.063	5099
245.127	6976
245.191	15524
245.255	8124
245.319	8301
245.383	5308
245.446	4589
245.510	4771
245.574	5432
245.638	5066
245.702	8004
245.766	11115
245.829	6753
245.893	6387
245.957	5659
246.021	6012
246.085	6546
246.149	9336
246.212	18917
246.276	16778
246.340	8163
246.404	7019
246.467	9775
246.531	9355
246.595	6864
246.659	6421
246.722	7232
246.786	7302
246.850	9998
246.913	8744
246.977	4589
247.041	6133
247.104	6082
247.168	7865
247.232	18492
247.295	24061
247.359	8579
247.423	8569
247.486	10818
247.550	7519
247.614	7124
247.677	7480
247.741	5322
247.804	6166
247.868	7420
247.932	17774
247.995	17144
248.059	7958
248.122	5712
248.186	9110
248.249	17896
248.313	46178
248.376	31556
248.440	19009
248.503	9083
248.567	9958
248.630	15012
248.694	17245
248.757	29787
248.821	38611
248.884	20594
248.948	28604
249.011	36034
249.075	51792
249.138	28330
249.202	14924
249.265	13765
249.328	14382
249.392	12151
249.455	9904
249.519	9883
249.582	13446
249.645	16853
249.709	11014
249.772	10255
249.835	9861
249.899	10098
249.962	9966
250.025	10440
250.089	24038
250.152	18252
250.215	11855
250.279	10114
250.342	10789
250.405	10564
250.468	12120
250.532	16841
250.595	36036
250.658	120910
250.721	89554
250.785	35080
250.848	20593
250.911	16140
250.974	15111
251.038	24400
251.101	25675
251.164	16726
251.227	19448
251.290	21253
251.354	52235
251.417	133014
251.480	84476
251.543	120157
251.606	191625
251.669	105423
251.732	53381
251.795	53378
251.859	77772
251.922	119515
251.985	47420
252.048	24897
252.111	19683
252.174	19915
252.237	39651
252.300	54101
252.363	108971
252.426	118176
252.489	44641
252.552	25822
252.615	20106
252.678	28091
252.741	52061
252.804	111457
252.867	133803
252.930	61743
252.993	32151
253.056	22038
253.119	17722
253.182	23272
253.245	37549
253.308	18589
253.371	15968
253.434	12894
253.497	16930
253.559	24672
253.622	15540
253.685	21891
253.748	15306
253.811	9944
253.874	13372
253.937	10098
254.000	11232
254.062	23179
254.125	20001
254.188	22336
254.251	12386
254.314	11153
254.376	20198
254.439	16398
254.502	13575
254.565	24394
254.628	22351
254.690	13334
254.753	9242
254.816	9260
254.878	10915
254.941	22869
255.004	11724
255.067	8628
255.129	7460
255.192	5819
255.255	6061
255.317	6557
255.380	4662
255.443	4664
255.505	4885
255.568	5007
255.631	6049
255.693	5627
255.756	5056
255.819	5749
255.881	4970
255.944	5007
256.006	4445
256.069	4432
256.132	5154
256.194	9008
256.257	13609
256.319	11646
256.382	10226
256.444	7632
256.507	7495
256.569	6836
256.632	8259
256.694	12384
256.757	41159
256.819	50860
256.882	18974
256.944	10396
257.007	10375
257.069	9319
257.132	7395
257.194	8175
257.257	15187
257.319	9974
257.381	10842
257.444	30245
257.506	95373
257.569	84632
257.631	58097
257.693	21611
257.756	13358
257.818	10876
257.880	9007
257.943	7501
258.005	6613
258.067	6598
258.130	6671
258.192	8966
258.254	13008
258.317	7858
258.379	17291
258.441	33208
258.503	14847
258.566	26895
258.628	15136
258.690	7014
258.753	10445
258.815	11207
258.877	8285
258.939	7957
259.001	6824
259.064	7355
259.126	10240
259.188	9616
259.250	15230
259.312	33882
259.375	59059
259.437	16602
259.499	10980
259.561	18156
259.623	11284
259.685	8056
259.747	9453
259.809	27507
259.872	28447
259.934	52453
259.996	21432
260.058	9818
260.120	7190
260.182	7000
260.244	7347
260.306	6407
260.368	7329
260.430	7569
260.492	17351
260.554	60827
260.616	26551
260.678	37785
260.740	22031
260.802	8957
260.864	8872
260.926	6484
260.988	9444
261.050	8873
261.112	16089
261.174	33682
261.236	14787
261.298	9501
261.359	21323
261.421	13154
261.483	6743
261.545	6111
261.607	5497
261.669	5786
261.731	16429
261.793	19033
261.854	9628
261.916	9039
261.978	7658
262.040	6375
262.102	7148
262.164	10675
262.225	7333
262.287	10552
262.349	17311
262.411	12366
262.472	8579
262.534	19311
262.596	14174
262.658	7915
262.719	5707
262.781	12128
262.843	17086
262.904	7253
262.966	8295
263.028	17264
263.090	96220
263.151	88761
263.213	24764
263.275	12965
263.336	8325
263.398	6906
263.459	5683
263.521	7342
263.583	12192
263.644	5875
263.706	4400
263.767	4210
263.829	4403
263.891	3147
263.952	4534
264.014	3487
264.075	7346
264.137	6961
264.198	4363
264.260	2761
264.321	4571
264.383	12341
264.444	10641
264.506	4939
264.567	4300
264.629	9848
264.690	9374
264.752	5765
264.813	4938
264.875	3928
264.936	4124
264.998	4395
265.059	4658
265.120	4979
265.182	11786
265.243	39658
265.305	15848
265.366	6295
265.427	5549
265.489	4152
265.550	5200
265.611	5706
265.673	4526
265.734	3535
265.795	3762
265.857	3121
265.918	5555
265.979	18276
266.040	61257
266.102	20498
266.163	9526
266.224	7171
266.286	5465
266.347	4418
266.408	6020
266.469	4848
266.530	3825
266.592	4001
266.653	10561
266.714	8596
266.775	4475
266.836	3371
266.898	4113
266.959	6292
267.020	5130
267.081	4762
267.142	4722
267.203	3580
267.264	4520
267.326	5449
267.387	3250
267.448	3316
267.509	4996
267.570	3743
267.631	3657
267.692	3111
267.753	4467
267.814	3640
267.875	12269
267.936	11384
267.997	6065
268.058	5058
268.119	4944
268.180	4805
268.241	4235
268.302	4402
268.363	5135
268.424	4234
268.485	4976
268.546	4103
268.607	3346
268.668	2802
268.729	3446
268.790	3359
268.851	5635
268.912	13038
268.972	9191
269.033	4088
269.094	4216
269.155	4716
269.216	4350
269.277	4580
269.338	4707
269.398	4912
269.459	5776
269.520	6705
269.581	8251
269.642	7237
269.702	6112
269.763	5018
269.824	4688
269.885	6873
269.945	6408
270.006	4087
270.067	4005
270.128	5158
270.188	6385
270.249	4869
270.310	3654
270.370	6128
270.431	5288
270.492	3616
270.553	7270
270.613	11627
270.674	13243
270.734	5833
270.795	5914
270.856	7933
270.916	4505
270.977	4758
271.038	6655
271.098	5674
271.159	9889
271.219	6066
271.280	5302
271.340	4770
271.401	8430
271.462	9553
271.522	6468
271.583	5031
271.643	4972
271.704	4936
271.764	6741
271.825	15907
271.885	48266
271.946	28918
272.006	12855
272.066	33200
272.127	25875
272.187	10917
272.248	7588
272.308	14437
272.369	28186
272.429	10772
272.489	12655
272.550	9560
272.610	11962
272.671	7272
272.731	11696
272.791	10838
272.852	7234
272.912	6432
272.972	5113
273.033	6221
273.093	6510
273.153	5072
273.214	5312
273.274	7052
273.334	31930
273.394	25181
273.455	11411
273.515	22263
273.575	24140
273.635	10805
273.696	27285
273.756	27943
273.816	10010
273.876	9097
273.936	27754
273.997	18074
274.057	7120
274.117	7247
274.177	17216
274.237	50229
274.297	25751
274.358	24112
274.418	30850
274.478	13642
274.538	8025
274.598	12071
274.658	29918
274.718	22346
274.778	8781
274.838	7356
274.898	27085
274.958	37329
275.018	36472
275.078	13394
275.138	7813
275.198	5451
275.258	5573
275.318	8447
275.378	11455
275.438	8648
275.498	9022
275.558	32560
275.618	37942
275.678	17293
275.738	14399
275.798	8062
275.858	5115
275.918	4184
275.978	7316
276.038	5800
276.098	7058
276.157	15623
276.217	19497
276.277	8471
276.337	7014
276.397	5628
276.457	6198
276.517	3446
276.576	3881
276.636	3963
276.696	8596
276.756	15770
276.815	7495
276.875	4990
276.935	7062
276.995	4126
277.055	4905
277.114	5131
277.174	12956
277.234	16674
277.293	5812
277.353	5898
277.413	4322
277.472	5186
277.532	4989
277.592	6574
277.651	21675
277.711	14880
277.771	13291
277.830	34639
277.890	15203
277.950	34166
278.009	41932
278.069	12442
278.128	22886
278.188	16869
278.248	14502
278.307	26600
278.367	10293
278.426	6124
278.486	5340
278.545	4014
278.605	5047
278.664	5333
278.724	7262
278.783	27849
278.843	27525
278.902	9009
278.962	9323
279.021	9058
279.081	11183
279.140	9049
279.199	7389
279.259	7124
279.318	10365
279.378	15590
279.437	59392
279.496	140606
279.556	176932
279.615	60733
279.675	25956
279.734	27339
279.793	77498
279.853	86480
279.912	27617
279.971	24564
280.031	25674
280.090	73167
280.149	57514
280.208	44578
280.268	132878
280.327	52036
280.386	23062
280.445	25259
280.505	13931
280.564	9644
280.623	10234
280.682	19438
280.742	12760
280.801	7908
280.860	6594
280.919	8126
280.978	6150
281.037	4258
281.097	5137
281.156	4823
281.215	5552
281.274	12937
281.333	33634
281.392	12109
281.451	6462
281.510	5615
281.569	5185
281.628	5285
281.688	5060
281.747	7170
281.806	8053
281.865	5709
281.924	5627
281.983	3892
282.042	4250
282.101	3731
282.160	5296
282.219	5137
282.278	9874
282.337	16413
282.396	9227
282.454	6766
282.513	12244
282.572	21799
282.631	9497
282.690	7078
282.749	6111
282.808	5886
282.867	6068
282.926	4428
282.985	4227
283.043	3252
283.102	5630
283.161	6036
283.220	17919
283.279	15936
283.338	5863
283.396	4033
283.455	4706
283.514	5828
283.573	6585
283.631	4534
283.690	4006
283.749	4927
283.808	10573
283.866	6805
283.925	4265
283.984	3957
284.043	5688
284.101	5200
284.160	3608
284.219	4670
284.277	5495
284.336	11169
284.395	29220
284.453	11620
284.512	6751
284.570	9419
284.629	6213
284.688	6323
284.746	6628
284.805	6578
284.863	9112
284.922	9335
284.981	10862
285.039	16281
285.098	35001
285.156	117250
285.215	222268
285.273	129709
285.332	49653
285.390	29408
285.449	19729
285.507	13977
285.566	11973
285.624	7742
285.683	8092
285.741	5994
285.799	6024
285.858	5172
285.916	5677
285.975	4021
286.033	3827
286.091	3658
286.150	3455
286.208	4280
286.267	4668
286.325	5012
286.383	7736
286.442	5253
286.500	3631
286.558	3527
286.616	3785
286.675	5269
286.733	4606
286.791	4361
286.850	6059
286.908	8324
286.966	8269
287.024	4444
287.083	4010
287.141	3665
287.199	4847
287.257	5980
287.315	5459
287.374	7158
287.432	12290
287.490	6556
287.548	6258
287.606	4696
287.664	5814
287.723	7526
287.781	7549
287.839	8082
287.897	9162
287.955	14723
288.013	27055
288.071	72649
288.129	265386
288.187	310873
288.245	115190
288.303	49362
288.361	31176
288.419	22653
288.477	17503
288.535	12733
288.593	10130
288.651	7938
288.709	6664
288.767	6206
288.825	4304
288.883	4749
288.941	5176
288.999	4187
289.057	3941
289.115	3587
289.173	3800
289.231	5003
289.289	3923
289.346	4830
289.404	5533
289.462	6893
289.520	5117
289.578	2937
289.636	3071
289.694	2814
289.751	3451
289.809	3594
289.867	3669
289.925	4754
289.983	4177
290.040	2951
290.098	3662
290.156	4064
290.214	4536
290.271	2918
290.329	4218
290.387	2532
290.444	2897
290.502	2847
290.560	3516
290.617	2605
290.675	3148
290.733	3273
290.790	3769
290.848	2727
290.906	3516
290.963	2750
291.021	2900
291.078	3014
291.136	4585
291.194	15484
291.251	14237
291.309	4517
291.366	4712
291.424	6546
291.481	8313
291.539	4753
291.596	4302
291.654	2639
291.711	3085
291.769	5010
291.826	6552
291.884	3105
291.941	2391
291.999	3140
292.056	4344
292.114	3108
292.171	3269
292.228	3986
292.286	5447
292.343	7635
292.401	7583
292.458	5213
292.515	8435
292.573	10823
292.630	7294
292.687	5114
292.745	4236
292.802	6668
292.859	15416
292.917	22393
292.974	7846
293.031	5137
293.089	3995
293.146	3517
293.203	5349
293.260	11797
293.318	24913
293.375	8844
293.432	5695
293.489	4317
293.546	4915
293.604	7555
293.661	27761
293.718	31939
293.775	13472
293.832	11061
293.889	22993
293.947	36652
294.004	18195
294.061	16419
294.118	21274
294.175	21704
294.232	14946
294.289	7070
294.346	6744
294.403	5994
294.460	5628
294.517	4231
294.574	4538
294.631	4314
294.688	6218
294.745	21747
294.802	47043
294.859	32075
294.916	48750
294.973	23153
295.030	11755
295.087	7141
295.144	6312
295.201	5235
295.258	5300
295.315	7859
295.372	27782
295.429	24606
295.486	8901
295.542	7899
295.599	18868
295.656	17283
295.713	24888
295.770	22160
295.827	7984
295.883	5731
295.940	6011
295.997	9938
296.054	6759
296.111	3910
296.167	3533
296.224	3345
296.281	2938
296.338	2758
296.394	4175
296.451	5963
296.508	20805
296.564	19526
296.621	16947
296.678	45893
296.734	30020
296.791	10926
296.848	7594
296.904	12263
296.961	24643
297.018	36971
297.074	15851
297.131	8214
297.187	7919
297.244	15633
297.301	56836
297.357	45480
297.414	13961
297.470	7659
297.527	6092
297.583	5162
297.640	5268
297.696	4134
297.753	4151
297.809	2818
297.866	3292
297.922	3279
297.979	3366
298.035	5214
298.092	9619
298.148	22848
298.204	12617
298.261	8822
298.317	25960
298.374	37896
298.430	15184
298.486	9199
298.543	7868
298.599	7286
298.656	11368
298.712	30810
298.768	63156
298.824	25294
298.881	10293
298.937	6361
298.993	6163
299.050	6421
299.106	4706
299.162	4619
299.218	4322
299.275	4053
299.331	6516
299.387	18263
299.443	47523
299.500	34000
299.556	12816
299.612	8658
299.668	10402
299.724	20420
299.780	12616
299.837	8619
299.893	17105
299.949	44749
300.005	32088
300.061	44961
300.117	46997
300.173	16626
300.229	11103
300.285	13197
300.341	11153
300.397	6447
300.453	4895
300.510	5590
300.566	6595
300.622	14368
300.678	44308
300.734	39615
300.790	39315
300.845	34562
300.901	32596
300.957	35933
301.013	17792
301.069	8832
301.125	10133
301.181	7992
301.237	6235
301.293	4075
301.349	4170
301.405	4037
301.461	4604
301.516	5571
301.572	5783
301.628	9697
301.684	8980
301.740	16426
301.796	16024
301.851	13770
301.907	22312
301.963	21595
302.019	60015
302.074	109131
302.130	68463
302.186	27027
302.242	15044
302.297	12299
302.353	14746
302.409	22377
302.464	15531
302.520	20395
302.576	43796
302.631	31805
302.687	14465
302.743	7936
302.798	5784
302.854	5048
302.910	5613
302.965	7466
303.021	11029
303.076	10187
303.132	14320
303.187	11894
303.243	6063
303.299	4284
303.354	4084
303.410	3889
303.465	3947
303.521	4119
303.576	5497
303.632	6322
303.687	18274
303.743	35076
303.798	17673
303.853	7905
303.909	6846
303.964	5703
304.020	11667
304.075	12572
304.130	14199
304.186	18391
304.241	17013
304.297	14421
304.352	11498
304.358	11645
304.407	12852
304.449	18096
304.463	19876
304.518	14373
304.539	13210
304.573	11333
304.629	9570
304.630	9741
304.684	17651
304.720	30536
304.739	37188
304.794	29809
304.811	25233
304.850	13870
304.902	8057
304.905	7708
304.960	6135
304.992	6136
305.015	6141
305.071	5058
305.083	4686
305.126	3332
305.173	3354
305.181	3369
305.236	3935
305.264	4192
305.292	4450
305.347	5520
305.354	5924
305.402	8709
305.445	11343
305.457	12006
305.512	8833
305.535	7926
305.567	6660
305.622	6980
305.626	7535
305.678	17266
305.716	32181
305.733	38404
305.788	28487
305.807	26738
305.843	22805
305.897	34087
305.898	34251
305.953	23700
305.988	16837
306.008	12430
306.063	7719
306.078	6865
306.118	5541
306.168	5178
306.173	5167
306.228	6216
306.259	5318
306.283	4402
306.338	3789
306.349	3663
306.393	3520
306.440	4454
306.448	4590
306.503	4742
306.530	5928
306.558	7712
306.613	14736
306.620	15470
306.668	20325
306.711	26792
306.723	28036
306.778	17177
306.801	14216
306.833	9937
306.888	5435
306.892	5301
306.943	5056
306.982	5756
306.997	6114
307.052	6538
307.072	6126
307.107	5026
307.162	4957
307.163	4972
307.217	6850
307.253	8586
307.272	9398
307.327	9824
307.343	9348
307.381	7394
307.434	6683
307.436	6775
307.491	12890
307.524	18621
307.546	21731
307.600	19232
307.614	17622
307.655	10212
307.704	5728
307.710	5568
307.765	6126
307.795	7909
307.819	10051
307.874	14493
307.885	14496
307.929	11728
307.975	10686
307.984	10827
308.038	13179
308.065	18270
308.093	27857
308.148	65427
308.156	73683
308.202	130973
308.246	135417
308.257	126302
308.312	64098
308.336	45587
308.366	35235
308.421	20204
308.426	19201
308.475	12959
308.517	9525
308.530	8883
308.585	7230
308.607	6858
308.639	6644
308.694	6681
308.697	6816
308.748	11146
308.787	14704
308.803	15291
308.857	12788
308.877	12129
308.912	9747
308.967	7811
308.967	7811
309.021	10367
309.058	13937
309.076	17170
309.130	32517
309.148	40840
309.185	75360
309.238	144938
309.239	145978
309.293	179797
309.328	170822
309.348	137773
309.402	58193
309.418	39318
309.457	26511
309.508	15128
309.511	14771
309.566	12287
309.598	11676
309.620	12457
309.674	15828
309.688	16429
309.729	15912
309.778	13131
309.783	12711
309.837	9760
309.868	8707
309.892	9820
309.946	15486
309.959	17313
310.001	26033
310.049	30621
310.055	29610
310.109	18227
310.139	12942
310.163	10063
310.218	5149
310.229	4380
310.272	4009
310.319	3708
310.326	3627
310.381	3302
310.409	3067
310.435	2854
310.489	2687
310.499	2642
310.543	2681
310.589	3033
310.598	3053
310.652	2957
310.679	2958
310.706	2887
310.760	2415
310.769	2425
310.814	2355
310.859	2010
310.868	1968
310.923	2012
310.948	2037
310.977	2483
311.031	3522
311.038	3620
311.085	3278
311.128	3032
311.139	2955
311.193	2658
311.218	2528
311.247	2533
311.301	2536
311.308	2550
311.356	2648
311.398	2609
311.410	2474
311.464	1963
311.488	1770
311.518	1893
311.572	2081
311.578	2119
311.626	2895
311.668	3526
311.680	3454
311.734	3106
311.758	3007
311.788	2947
311.842	2749
311.847	2748
311.896	2803
311.937	2825
311.950	3001
312.004	3836
312.027	4190
312.058	3462
312.112	2209
312.117	2094
312.165	1991
312.207	1930
312.297	2937
312.386	2525
312.476	2050
312.566	3869
312.656	3603
312.745	1788
312.835	1727
312.925	2156
313.015	2299
313.104	2911
313.194	1829
313.284	2313
313.374	1792
313.463	2617
313.553	2633
313.643	1583
313.732	2617
313.822	2200
313.912	2496
314.001	2606
314.091	3150
314.180	3291
314.270	3469
314.360	3536
314.449	3330
314.539	1953
314.628	1812
314.718	2415
314.808	3856
314.897	3894
314.987	3123
315.076	4365
315.166	4195
315.255	4251
315.345	3869
315.434	4029
315.524	4080
315.613	5400
315.703	8066
315.792	17882
315.881	80797
315.971	61254
316.060	11442
316.150	9978
316.239	9117
316.328	5231
316.418	2899
316.507	2235
316.597	4092
316.686	3764
316.775	4329
316.865	8747
316.954	4354
317.043	2492
317.133	3157
317.222	3371
317.311	2514
317.400	3397
317.490	5139
317.579	5950
317.668	7015
317.757	11521
317.847	32421
317.936	143429
318.025	86656
318.114	30078
318.203	22021
318.293	6368
318.382	7697
318.471	6817
318.560	7381
318.649	14360
318.738	6810
318.828	3594
318.917	4060
319.006	3370
319.095	8170
319.184	17364
319.273	15342
319.362	8449
319.451	3048
319.540	2187
319.629	4450
319.718	9431
319.807	4383
319.896	5831
319.985	22385
320.074	15208
320.163	4010
320.252	5271
320.341	4373
320.430	4091
320.519	4971
320.608	3558
320.697	2575
320.786	2742
320.875	4064
320.964	4705
321.053	6238
321.142	9077
321.230	12232
321.319	11110
321.408	15302
321.497	12016
321.586	8389
321.675	9134
321.764	9592
321.852	5614
321.941	7624
322.030	8244
322.119	6161
322.207	14885
322.296	14509
322.385	8316
322.474	12772
322.562	21040
322.651	18982
322.740	15290
322.829	39820
322.917	17515
323.006	10786
323.095	13134
323.183	6403
323.272	6993
323.361	12081
323.449	34845
323.538	22843
323.626	26079
323.715	40848
323.804	9400
323.892	17510
323.981	18087
324.069	7733
324.158	9464
324.246	15535
324.335	7468
324.424	13501
324.512	3914
324.601	3152
324.689	3757
324.778	7724
324.866	19740
324.954	6964
325.043	3339
325.131	5932
325.220	9700
325.308	15401
325.397	9277
325.485	6786
325.574	5991
325.662	8765
325.750	2948
325.839	6143
325.927	4534
326.015	5423
326.104	5783
326.192	5628
326.280	2356
326.369	1747
326.457	4946
326.545	6448
326.634	3267
326.722	1288
326.810	2165
326.898	2235
326.987	2518
327.075	4024
327.163	4661
327.251	3082
327.340	2044
327.428	2750
327.516	2751
327.604	1836
327.692	1983
327.781	2162
327.869	3148
327.957	2709
328.045	2513
328.133	2062
328.221	2026
328.309	2066
328.397	1543
328.485	2178
328.574	3389
328.662	9546
328.750	7752
328.838	3204
328.926	1797
329.014	1657
329.102	1481
329.190	3782
329.278	4077
329.366	1551
329.454	1188
329.542	1510
329.630	2496
329.718	2635
329.806	2719
329.893	1524
329.981	1732
330.069	1026
330.157	2154
330.245	6099
330.333	4094
330.421	1822
330.509	2904
330.597	9731
330.684	9709
330.772	2987
330.860	2760
330.948	3351
331.036	2116
331.123	1229
331.211	2419
331.299	2074
331.387	3015
331.475	6705
331.562	3882
331.650	2657
331.738	3016
331.825	3558
331.913	1792
332.001	1471
332.089	1909
332.176	3277
332.264	7629
332.352	10310
332.439	2536
332.527	1533
332.614	1394
332.702	1741
332.790	1830
332.877	3494
332.965	8978
333.052	4803
333.140	2567
333.228	4574
333.315	1499
333.403	1414
333.490	4783
333.578	5236
333.665	5048
333.753	4020
333.840	2634
333.928	1981
334.015	5296
334.103	9043
334.190	26283
334.278	14117
334.365	6298
334.452	6924
334.540	3711
334.627	3489
334.715	4644
334.802	7436
334.889	33582
334.977	66723
335.064	18974
335.151	5644
335.239	3347
335.326	4139
335.413	9860
335.501	21803
335.588	4923
335.675	2335
335.762	2969
335.850	5077
335.937	5831
336.024	12195
336.111	45069
336.199	45745
336.286	12002
336.373	4711
336.460	2911
336.547	2145
336.635	2177
336.722	2863
336.809	1474
336.896	2189
336.983	5921
337.070	15196
337.157	28881
337.245	23907
337.332	27749
337.419	3228
337.506	1667
337.593	1901
337.680	3771
337.767	13160
337.854	6631
337.941	5720
338.028	7047
338.115	4648
338.202	2674
338.289	5242
338.376	22597
338.463	12751
338.550	7127
338.637	10816
338.724	3316
338.811	7472
338.898	2233
338.984	1394
339.071	1285
339.158	1850
339.245	4346
339.332	4307
339.419	3367
339.506	5574
339.593	836
339.679	1763
339.766	837
339.853	1027
339.940	3902
340.027	2485
340.113	1653
340.200	1893
340.287	1498
340.374	1677
340.460	3696
340.547	1845
340.634	2106
340.720	9389
340.807	9968
340.894	1352
340.980	1110
341.067	1291
341.154	1907
341.240	1694
341.327	5150
341.414	2474
341.500	1412
341.587	936
341.674	1486
341.760	2985
341.847	4850
341.933	1742
342.020	575
342.106	1023
342.193	1820
342.279	3080
342.366	2082
342.452	3257
342.539	2774
342.625	3701
342.712	11638
342.798	7314
342.885	2326
342.971	217
343.058	696
343.144	482
343.230	894
343.317	1291
343.403	1655
343.490	914
343.576	797
343.662	869
343.749	2315
343.835	2188
343.921	4637
344.008	26845
344.094	96165
344.180	40757
344.267	15274
344.353	14961
344.439	24333
344.525	7817
344.612	3632
344.698	2592
344.784	1630
344.870	1377
344.957	1255
345.043	2590
345.129	1956
345.215	3841
345.301	2436
345.387	1532
345.474	961
345.560	1094
345.646	604
345.732	917
345.818	955
345.904	1620
345.990	4158
346.076	7902
346.162	3288
346.249	2404
346.335	1389
346.421	1935
346.507	6604
346.593	29523
346.679	12466
346.765	1825
346.851	1258
346.937	1998
347.023	1488
347.108	1330
347.194	1947
347.280	1584
347.366	3555
347.452	13222
347.538	38103
347.624	30906
347.710	21042
347.796	4130
347.882	1816
347.967	1435
348.053	1375
348.139	1474
348.225	1964
348.311	5347
348.397	2743
348.482	1376
348.568	1686
348.654	1765
348.740	3598
348.825	6386
348.911	6262
348.997	11936
349.083	38704
349.168	9952
349.254	1694
349.340	1157
349.425	1076
349.511	1613
349.597	2529
349.682	4577
349.768	15521
349.854	11815
349.939	1064
350.025	1028
350.110	866
350.196	334
350.282	670
350.367	1184
350.453	1900
350.538	2288
350.624	1367
350.709	974
350.795	856
350.880	872
350.966	719
351.051	1482
351.137	2245
351.222	1217
351.308	3667
351.393	12169
351.479	5405
351.564	1099
351.649	723
351.735	932
351.820	848
351.906	747
351.991	1302
352.076	6026
352.162	14509
352.247	3674
352.332	1851
352.418	2418
352.503	3222
352.588	14256
352.673	18719
352.759	3483
352.844	2264
352.929	1720
353.014	3100
353.100	5738
353.185	35868
353.270	37222
353.355	7419
353.441	1462
353.526	2191
353.611	3463
353.696	5220
353.781	2968
353.866	1685
353.952	1510
354.037	3251
354.122	7914
354.207	8016
354.292	4869
354.377	1577
354.462	1297
354.547	1446
354.632	3461
354.717	12807
354.802	57825
354.887	30256
354.972	3006
355.057	809
355.142	1112
355.227	1682
355.312	2338
355.397	4696
355.482	11662
355.567	10219
355.652	3753
355.737	5739
355.822	15444
355.907	22796
355.991	3623
356.076	1217
356.161	1910
356.246	1456
356.331	1477
356.416	3978
356.501	29558
356.585	58161
356.670	8863
356.755	4674
356.840	7251
356.924	52757
357.009	157014
357.094	71325
357.179	8177
357.263	4379
357.348	3060
357.433	3730
357.517	2863
357.602	2844
357.687	3407
357.771	15794
357.856	21582
357.941	7694
358.025	13544
358.110	89454
358.195	74608
358.279	7831
358.364	4070
358.448	9333
358.533	31325
358.617	32473
358.702	33526
358.787	14639
358.871	5186
358.956	4489
359.040	1888
359.125	1104
359.209	1113
359.294	1982
359.378	5542
359.462	4783
359.547	5721
359.631	2102
359.716	580
359.800	596
359.885	1212
359.969	1675
360.053	1448
360.138	934
360.222	1664
360.306	3298
360.391	3618
360.475	3104
360.559	10151
360.644	11323
360.728	15771
360.812	22336
360.896	71241
360.981	33563
361.065	15866
361.149	4261
361.233	3026
361.318	1467
361.402	1691
361.486	1895
361.570	1053
361.654	2652
361.739	4958
361.823	27658
361.907	77982
361.991	22715
362.075	4723
362.159	8433
362.243	8632
362.327	9361
362.411	25039
362.495	12626
362.580	4171
362.664	2198
362.748	2438
362.832	3331
362.916	6344
363.000	22767
363.084	77177
363.168	106646
363.252	31350
363.336	5956
363.420	4872
363.503	13566
363.587	26407
363.671	6148
363.755	3766
363.839	4744
363.923	2733
364.007	4068
364.091	6447
364.175	7291
364.258	29144
364.342	39595
364.426	79766
364.510	69970
364.594	16730
364.677	9255
364.761	43892
364.845	56426
364.929	10064
365.013	6451
365.096	4785
365.180	7476
365.264	5716
365.347	26543
365.431	20695
365.515	3217
365.598	1470
365.682	1040
365.766	1271
365.849	3079
365.933	1831
366.017	2657
366.100	1824
366.184	1135
366.267	1013
366.351	949
366.435	1209
366.518	1076
366.602	502
366.685	1371
366.769	977
366.852	2110
366.936	4199
367.019	3771
367.103	1955
367.186	3559
367.270	1051
367.353	276
367.436	1005
367.520	1324
367.603	1330
367.687	2386
367.770	5117
367.853	3213
367.937	8901
368.020	24965
368.104	8052
368.187	2726
368.270	4970
368.353	4628
368.437	4111
368.520	14041
368.603	12693
368.687	9633
368.770	28102
368.853	9875
368.936	3197
369.020	3443
369.103	1298
369.186	1358
369.269	818
369.352	3064
369.436	5242
369.519	3036
369.602	1103
369.685	1388
369.768	1661
369.851	1111
369.934	1305
370.018	1140
370.101	3227
370.184	3475
370.267	2169
370.350	2868
370.433	5535
370.516	20475
370.599	60131
370.682	36885
370.765	12620
370.848	14556
370.931	35117
371.014	20014
371.097	2205
371.180	1683
371.263	856
371.346	-89
371.429	687
371.511	1237
371.594	1327
371.677	3577
371.760	3987
371.843	4238
371.926	19792
372.009	86949
372.091	39603
372.174	10032
372.257	36358
372.340	21887
372.423	5035
372.505	6507
372.588	2925
372.671	5758
372.754	30572
372.836	26495
372.919	6689
373.002	15423
373.085	7320
373.167	4191
373.250	10830
373.332	32932
373.415	40708
373.498	117947
373.580	65316
373.663	57410
373.746	143429
373.828	36113
373.911	6573
373.993	4817
374.076	11925
374.159	18453
374.241	7577
374.324	22956
374.406	23848
374.489	19380
374.571	92519
374.654	58017
374.736	13683
374.819	48146
374.901	74949
374.983	108241
375.066	27523
375.148	5393
375.231	8675
375.313	27936
375.395	13258
375.478	4089
375.560	2330
375.643	2778
375.725	9241
375.807	59061
375.890	72056
375.972	21693
376.054	8452
376.136	12470
376.219	8259
376.301	9862
376.383	56599
376.465	34884
376.548	8597
376.630	9776
376.712	39528
376.794	32863
376.877	3251
376.959	1257
377.041	1600
377.123	1916
377.205	2889
377.287	337
377.369	1258
377.452	1139
377.534	622
377.616	1574
377.698	1478
377.780	379
377.862	1323
377.944	723
378.026	774
378.108	743
378.190	899
378.272	850
378.354	1357
378.436	148
378.518	1046
378.600	4809
378.682	6399
378.764	14426
378.846	18757
378.928	4108
379.010	6098
379.091	5230
379.173	1266
379.255	865
379.337	1217
379.419	4801
379.501	24471
379.583	16650
379.664	1953
379.746	4606
379.828	12963
379.910	22797
379.991	27258
380.073	6545
380.155	2650
380.237	2106
380.318	1106
380.400	1575
380.482	2607
380.564	7219
380.645	22078
380.727	36676
380.809	7288
380.890	3360
380.972	6740
381.053	3704
381.135	1889
381.217	2932
381.298	15838
381.380	12062
381.461	5132
381.543	29652
381.624	71457
381.706	18661
381.787	4670
381.869	3253
381.951	11063
382.032	75759
382.113	80757
382.195	13430
382.276	7617
382.358	33358
382.439	57999
382.521	46548
382.602	88537
382.684	44935
382.765	39218
382.846	49507
382.928	34657
383.009	27805
383.090	10582
383.172	31876
383.253	93974
383.334	46271
383.416	71291
383.497	62196
383.578	11674
383.659	8521
383.741	24120
383.822	118800
383.903	104170
383.984	32366
384.066	66832
384.147	63020
384.228	13981
384.309	5512
384.390	7803
384.471	6405
384.553	3102
384.634	3593
384.715	5264
384.796	2766
384.877	2981
384.958	11110
385.039	24125
385.120	9584
385.201	2881
385.282	2699
385.363	2811
385.444	3511
385.525	4820
385.606	24057
385.687	40809
385.768	9005
385.849	4332
385.930	21451
386.011	79107
386.092	34759
386.173	5685
386.254	2549
386.335	3268
386.416	1639
386.496	6987
386.577	18869
386.658	8584
386.739	3659
386.820	2939
386.901	2506
386.981	2469
387.062	3323
387.143	4869
387.224	14371
387.304	22423
387.385	8185
387.466	4978
387.547	4458
387.627	5175
387.708	5865
387.789	25710
387.869	53290
387.950	22838
388.031	4141
388.111	1931
388.192	3893
388.273	5724
388.353	6160
388.434	2887
388.514	4279
388.595	28698
388.676	61027
388.756	26628
388.837	14149
388.917	13527
388.998	3269
389.078	2022
389.159	1249
389.239	1809
389.320	1934
389.400	2408
389.480	4030
389.561	18352
389.641	15492
389.722	2793
389.802	4436
389.883	6543
389.963	23664
390.043	22889
390.124	6412
390.204	2936
390.284	16150
390.365	18144
390.445	13657
390.525	78769
390.605	146036
390.686	36696
390.766	6438
390.846	3121
390.927	1933
391.007	2004
391.087	2353
391.167	2055
391.247	2400
391.328	2808
391.408	4537
391.488	3657
391.568	1893
391.648	2829
391.728	4214
391.808	4473
391.888	5366
391.969	8186
392.049	20028
392.129	11556
392.209	8462
392.289	25083
392.369	21933
392.449	10045
392.529	9522
392.609	8103
392.689	10926
392.769	25742
392.849	34839
392.929	20048
393.009	39557
393.089	52441
393.169	52595
393.248	127831
393.328	508192
393.408	876093
393.488	395986
393.568	103666
393.648	44036
393.728	25452
393.807	16278
393.887	12970
393.967	11077
394.047	10005
394.127	9128
394.206	10691
394.286	21320
394.366	128494
394.446	256998
394.525	72030
394.605	11971
394.685	7322
394.764	9082
394.844	17874
394.924	20404
395.003	8976
395.083	5214
395.163	4657
395.242	4200
395.322	5164
395.402	3721
395.481	3932
395.561	5321
395.640	18724
395.720	29240
395.799	25219
395.879	25587
395.958	12042
396.038	26576
396.117	165188
396.197	333426
396.276	103162
396.356	23182
396.435	15430
396.515	15975
396.594	19831
396.673	37061
396.753	112920
396.832	500453
396.912	632767
396.991	192451
397.070	46944
397.150	21007
397.229	14276
397.308	13842
397.388	30433
397.467	20653
397.546	6682
397.625	4840
397.705	4766
397.784	4420
397.863	3697
397.942	2485
398.022	2992
398.101	3129
398.180	15464
398.259	13734
398.338	4399
398.417	3276
398.497	2819
398.576	2675
398.655	2592
398.734	3408
398.813	2427
398.892	2929
398.971	15025
399.050	15609
399.129	2100
399.208	624
399.287	822
399.366	380
399.445	665
399.524	417
399.603	339
399.682	1462
399.761	3796
399.840	14743
399.919	22815
399.998	4687
400.077	840
400.156	229
400.235	1829
400.313	359
400.392	518
400.471	4236
400.550	15114
400.629	6062
400.708	1645
400.786	985
400.865	1263
400.944	3292
401.023	2773
401.102	999
401.180	-335
401.259	314
401.338	43
401.416	446
401.495	1059
401.574	683
401.652	969
401.731	1726
401.810	10209
401.888	10069
401.967	512
402.046	286
402.124	1025
402.203	1680
402.281	1183
402.360	913
402.438	2433
402.517	3598
402.596	1423
402.674	1898
402.753	1662
402.831	1401
402.910	2103
402.988	12186
403.066	91066
403.145	104850
403.223	28475
403.302	91891
403.380	106297
403.459	102088
403.537	64842
403.615	23975
403.694	6256
403.772	1988
403.850	1022
403.929	855
404.007	1339
404.085	11795
404.164	46583
404.242	20174
404.320	3458
404.398	10186
404.477	13378
404.555	41741
404.633	77413
404.711	21711
404.789	7253
404.868	11284
404.946	12237
405.024	1382
405.102	103
405.180	158
405.258	11
405.336	653
405.415	624
405.493	3737
405.571	20003
405.649	12216
405.727	889
405.805	1906
405.883	6564
405.961	9206
406.039	2447
406.117	-52
406.195	2364
406.273	4944
406.351	39039
406.429	47824
406.507	7208
406.585	1136
406.663	-56
406.740	360
406.818	1355
406.896	484
406.974	207
407.052	2857
407.130	13460
407.208	42949
407.285	15238
407.363	597
407.441	596
407.519	674
407.596	884
407.674	2800
407.752	19033
407.830	38113
407.907	15000
407.985	15656
408.063	3401
408.141	-153
408.218	636
408.296	9160
408.373	17148
408.451	8497
408.529	1385
408.606	81
408.684	87
408.762	-279
408.839	-274
408.917	-147
408.994	183
409.072	96
409.149	-179
409.227	2397
409.304	4243
409.382	3873
409.459	3613
409.537	7410
409.614	6282
409.692	3146
409.769	2366
409.846	5832
409.924	10622
410.001	6262
410.079	2589
410.156	1194
410.233	987
410.311	2522
410.388	1344
410.465	665
410.543	833
410.620	453
410.697	-492
410.775	879
410.852	592
410.929	1457
411.006	1525
411.083	1451
411.161	1976
411.238	1766
411.315	517
411.392	670
411.469	76
411.547	879
411.624	164
411.701	133
411.778	303
411.855	1727
411.932	1063
412.009	70
412.086	-242
412.163	353
412.240	81
412.317	110
412.394	-23
412.471	-249
412.548	-343
412.625	8
412.702	678
412.779	548
412.856	389
412.933	-146
413.010	-468
413.087	59
413.164	3294
413.241	11847
413.318	4186
413.395	136
413.471	906
413.548	1700
413.625	-734
413.702	-152
413.779	-141
413.855	-485
413.932	-799
414.009	-393
414.086	28
414.162	-637
414.239	-301
414.316	2996
414.393	15479
414.469	11346
414.546	875
414.623	57
414.699	-564
414.776	-141
414.853	242
414.929	318
415.006	-573
415.082	345
415.159	-313
415.236	9
415.312	-664
415.389	-367
415.465	1129
415.542	922
415.618	-745
415.695	575
415.771	281
415.848	-199
415.924	-62
416.000	-761
416.077	-232
416.153	-1094
416.230	-1057
416.306	-1169
416.383	-578
416.459	-565
416.535	-1003
416.612	-511
416.688	-760
416.764	-696
416.841	-1287
416.917	-709
416.993	-897
417.069	-789
417.146	-922
417.222	895
417.298	468
417.374	-1185
417.451	-123
417.527	-839
417.603	-215
417.679	1129
417.755	271
417.831	-211
417.908	-704
417.984	-766
418.060	-582
418.136	651
418.212	1864
418.288	1288
418.364	-45
418.440	-1078
418.516	818
418.592	290
418.668	1025
418.744	2571
418.820	3685
418.896	993
418.972	-611
419.048	34
419.124	1012
419.200	830
419.276	338
419.352	-1093
419.428	-692
419.504	-917
419.579	-167
419.655	-514
419.731	99
419.807	974
419.883	3956
419.959	5393
420.034	1508
420.110	473
420.186	6196
420.262	13050
420.337	2711
420.413	630
420.489	61
420.565	99
420.640	-1028
420.716	46
420.792	-351
420.867	160
420.943	72
421.019	398
421.094	1280
421.170	1172
421.245	1184
421.321	1001
421.397	1252
421.472	2468
421.548	11494
421.623	19469
421.699	5016
421.774	2658
421.850	2591
421.925	3037
422.001	3674
422.076	4353
422.152	4605
422.227	6187
422.302	10664
422.378	14330
422.453	25944
422.529	55035
422.604	162504
422.679	348364
422.755	331692
422.830	156691
422.905	56086
422.981	27418
423.056	16798
423.131	11717
423.207	8229
423.282	6246
423.357	6568
423.432	6579
423.508	8160
423.583	15114
423.658	9424
423.733	3803
423.808	2546
423.883	2666
423.959	3287
424.034	4692
424.109	3671
424.184	1760
424.259	1278
424.334	495
424.409	129
424.484	82
424.559	-62
424.634	-139
424.709	-201
424.784	1522
424.859	591
424.934	225
425.009	3555
425.084	10703
425.159	8780
425.234	877
425.309	-527
425.384	154
425.459	764
425.534	531
425.609	-724
425.683	-631
425.758	343
425.833	1700
425.908	-46
425.983	397
426.058	9115
426.132	9695
426.207	1505
426.282	-35
426.357	565
426.431	-371
426.506	-20
426.581	743
426.655	1057
426.730	-9
426.805	-861
426.879	-499
426.954	-154
427.029	149
427.103	4177
427.178	28935
427.253	31672
427.327	4906
427.402	-282
427.476	1133
427.551	1597
427.625	-109
427.700	-435
427.774	-472
427.849	-512
427.923	1
427.998	-582
428.072	365
428.147	3863
428.221	7273
428.296	50012
428.370	75788
428.444	14196
428.519	911
428.593	1407
428.667	2765
428.742	2372
428.816	3374
428.890	15461
428.965	71640
429.039	42759
429.113	5814
429.188	1783
429.262	-62
429.336	-330
429.410	2826
429.485	4589
429.559	1565
429.633	1592
429.707	790
429.781	1130
429.855	14484
429.930	66905
430.004	39532
430.078	13213
430.152	18570
430.226	48463
430.300	134080
430.374	46139
430.448	4302
430.522	2600
430.596	10647
430.670	15515
430.744	29778
430.818	109099
430.892	50128
430.966	4886
431.040	222
431.114	-369
431.188	-338
431.262	50
431.336	246
431.410	355
431.484	1481
431.557	3759
431.631	831
431.705	87
431.779	2848
431.853	37125
431.927	78064
432.000	18247
432.074	1184
432.148	-112
432.222	-89
432.295	-441
432.369	-747
432.443	-178
432.516	3286
432.590	30136
432.664	31112
432.737	3547
432.811	-535
432.885	-928
432.958	-1570
433.032	-1075
433.106	-1160
433.179	-539
433.253	-1165
433.326	-1086
433.400	-978
433.473	-776
433.547	-624
433.620	-981
433.694	-1300
433.767	798
433.841	-835
433.914	-1133
433.988	-834
434.061	-1107
434.134	-1226
434.208	-895
434.281	-1411
434.355	-1613
434.428	-1362
434.501	-1130
434.575	-412
434.648	-462
434.721	-1009
434.795	-1459
434.868	-1219
434.941	-1486
435.014	-1880
435.088	-811
435.161	-1339
435.234	-261
435.307	243
435.381	384
435.454	-223
435.527	2093
435.600	4163
435.673	2908
435.746	1116
435.819	277
435.892	-295
435.966	-641
436.039	-990
436.112	-651
436.185	-1350
436.258	-1226
436.331	-1210
436.404	-1179
436.477	-996
436.550	-397
436.623	-1882
436.696	-1328
436.769	-1052
436.842	-971
436.915	-697
436.987	-807
437.060	-459
437.133	-1476
437.206	-1196
437.279	-327
437.352	-1218
437.425	-798
437.498	-164
437.570	-183
437.643	280
437.716	-924
437.789	-1008
437.861	-988
437.934	-298
438.007	193
438.080	-973
438.152	-809
438.225	80
438.298	4688
438.370	47278
438.443	52793
438.516	8356
438.588	243
438.661	-81
438.734	-731
438.806	-436
438.879	-694
438.951	-779
439.024	-196
439.096	-564
439.169	-715
439.241	-1515
439.314	-1668
439.386	-592
439.459	-444
439.531	-351
439.604	-117
439.676	-350
439.749	-1081
439.821	-886
439.893	-1295
439.966	-946
440.038	-1501
440.110	-481
440.183	-693
440.255	-977
440.327	495
440.400	374
440.472	16111
440.544	35321
440.617	8502
440.689	369
440.761	-820
440.833	846
440.905	1312
440.978	54
441.050	-1183
441.122	-498
441.194	-301
441.266	-669
441.338	-800
441.411	-856
441.483	2745
441.555	14762
441.627	7065
441.699	1061
441.771	-807
441.843	-205
441.915	-1036
441.987	-194
442.059	-640
442.131	-747
442.203	-610
442.275	85
442.347	1265
442.419	907
442.491	8651
442.563	62467
442.635	73275
442.706	15435
442.778	5461
442.850	1479
442.922	-182
442.994	148
443.066	158
443.137	1449
443.209	1041
443.281	1369
443.353	2715
443.425	11367
443.496	77835
443.568	180938
443.640	110845
443.711	28670
443.783	4248
443.855	1570
443.926	812
443.998	174
444.070	476
444.141	105
444.213	756
444.285	935
444.356	534
444.428	991
444.499	-85
444.571	-330
444.642	71
444.714	-456
444.785	-33
444.857	1092
444.928	1074
445.000	1649
445.071	686
445.143	3248
445.214	10290
445.285	6132
445.357	8584
445.428	28940
445.500	157948
445.571	197045
445.642	111260
445.714	46544
445.785	16146
445.856	8868
445.928	5561
445.999	2798
446.070	948
446.141	2641
446.213	5268
446.284	8002
446.355	1829
446.426	492
446.497	2008
446.569	2451
446.640	20
446.711	643
446.782	-343
446.853	-69
446.924	46
446.995	-495
447.066	680
447.138	580
447.209	400
447.280	-837
447.351	169
447.422	-483
447.493	-1383
447.564	-1085
447.635	-160
447.706	-121
447.777	-604
447.847	-1221
447.918	-1016
447.989	-1585
448.060	-16
448.131	-1
448.202	594
448.273	228
448.344	-36
448.414	-486
448.485	-919
448.556	-1071
448.627	-831
448.698	-463
448.768	-1515
448.839	-1064
448.910	-1235
448.981	-188
449.051	72
449.122	-287
449.193	-1155
449.263	-1319
449.334	-1431
449.405	-1252
449.475	-127
449.546	722
449.616	-389
449.687	46
449.758	-335
449.828	-1381
449.899	-105
449.969	1333
450.040	-155
450.110	-1042
450.181	-583
450.251	19
450.322	784
450.392	-956
450.463	-1186
450.533	-794
450.604	-720
450.674	-565
450.744	-347
450.815	-864
450.885	-600
450.955	-1018
451.026	-636
451.096	-620
451.166	-1439
451.237	-942
451.307	803
451.377	1187
451.447	-703
451.518	-687
451.588	-1298
451.658	-1142
451.728	-978
451.799	-371
451.869	2694
451.939	1158
452.009	-953
452.079	-627
452.149	-708
452.219	-1158
452.289	469
452.360	2143
452.430	703
452.500	-1170
452.570	150
452.640	737
452.710	3065
452.780	10557
452.850	7569
452.920	3659
452.990	1611
453.060	-117
453.129	-807
453.199	-162
453.269	-99
453.339	8475
453.409	17080
453.479	10255
453.549	14070
453.619	17532
453.688	13208
453.758	3670
453.828	-814
453.898	-208
453.968	-1141
454.037	-344
454.087	-730
454.107	-907
454.168	-1164
454.177	-1230
454.247	-728
454.249	-704
454.316	-623
454.330	-734
454.386	-1219
454.411	-930
454.456	-719
454.492	384
454.525	1310
454.574	1035
454.595	923
454.655	-476
454.665	-722
454.734	-1033
454.736	-982
454.804	-48
454.817	286
454.873	955
454.898	1914
454.943	3269
454.979	2624
455.013	2171
455.060	942
455.082	471
455.141	425
455.152	408
455.221	1350
455.222	1455
455.291	4814
455.303	5276
455.360	7110
455.384	8435
455.430	8023
455.465	8494
455.499	9461
455.546	5756
455.569	3967
455.627	2787
455.638	2604
455.707	1234
455.708	1247
455.777	-243
455.789	-178
455.846	11
455.869	-143
455.916	-458
455.950	-80
455.985	209
456.031	-94
456.054	-209
456.112	510
456.124	617
456.193	474
456.193	455
456.262	888
456.274	854
456.332	579
456.355	632
456.401	412
456.436	912
456.470	1329
456.516	449
456.540	94
456.597	494
456.609	539
456.678	450
456.678	431
456.747	679
456.759	626
456.817	341
456.840	370
456.886	450
456.920	474
456.955	399
457.001	703
457.024	1013
457.082	1125
457.093	1117
457.162	1725
457.163	1753
457.232	2052
457.243	2009
457.301	1395
457.324	1002
457.370	704
457.405	938
457.439	1132
457.485	1120
457.508	1108
457.566	1724
457.577	1869
457.646	2465
457.647	2506
457.715	6494
457.727	7042
457.784	14509
457.808	18423
457.853	21508
457.889	26743
457.922	24306
457.969	16274
457.991	18844
458.050	22456
458.060	24106
458.129	40789
458.130	41506
458.198	35866
458.211	33293
458.267	22827
458.292	14564
458.336	9099
458.372	7855
458.405	9926
458.453	14597
458.474	21457
458.533	43570
458.543	45458
458.611	66163
458.614	67292
458.680	40752
458.694	30910
458.749	17993
458.775	11898
458.818	5752
458.855	4503
458.887	3711
458.936	3104
458.955	2904
459.016	2588
459.024	2536
459.093	2602
459.097	2619
459.162	3123
459.177	3254
459.230	3306
459.257	3430
459.299	3502
459.338	3120
459.368	3018
459.418	3530
459.437	3447
459.499	3016
459.505	3012
459.574	2977
459.579	2978
459.643	2731
459.659	2681
459.711	2599
459.740	2652
459.780	2913
459.820	3188
459.849	3270
459.900	3161
459.917	3193
459.981	3839
459.986	3847
460.054	3931
460.061	3933
460.123	3818
460.141	3795
460.191	4655
460.222	5241
460.260	5737
460.302	6195
460.328	5490
460.382	4671
460.397	4973
460.462	5386
460.465	5468
460.534	7929
460.543	8314
460.602	21831
460.623	26638
460.671	51587
460.703	69463
460.739	59275
460.783	51027
460.808	42568
460.864	11942
460.876	10947
460.944	4543
460.945	4475
461.013	3944
461.024	4007
461.081	4538
461.104	4662
461.150	4114
461.184	3890
461.218	4046
461.264	3963
461.286	3902
461.345	3550
461.355	3455
461.423	3732
461.425	3725
461.491	3589
461.505	3640
461.559	4899
461.585	5480
461.628	8491
461.665	11056
461.696	12264
461.745	14848
461.764	12754
461.825	5597
461.832	5643
461.901	4918
461.905	4897
461.969	4207
461.985	4105
462.037	4088
462.065	4079
462.105	3843
462.145	3750
462.173	4854
462.225	6714
462.241	7453
462.305	10644
462.310	10370
462.378	6098
462.385	5614
462.446	4901
462.465	4530
462.514	4840
462.545	5299
462.582	5566
462.625	5771
462.650	5503
462.705	4776
462.718	4660
462.785	4048
462.786	4073
462.854	5609
462.865	5831
462.922	6327
462.945	6654
462.990	5640
463.025	4591
463.058	4332
463.104	3940
463.126	3963
463.184	4406
463.194	4452
463.262	4185
463.264	4195
463.330	4069
463.344	4010
463.398	4673
463.424	4740
463.466	4718
463.504	4914
463.533	4697
463.583	4434
463.601	4695
463.663	5344
463.669	5460
463.737	6978
463.743	7093
463.805	8341
463.823	8715
463.873	11542
463.903	13224
463.940	14467
463.982	15841
464.008	13029
464.062	7399
464.076	7210
464.142	5486
464.144	5482
464.211	5295
464.221	5225
464.279	5111
464.301	5167
464.347	5033
464.381	5016
464.414	5754
464.461	6686
464.482	6902
464.540	7207
464.550	7050
464.617	6119
464.620	6073
464.685	7075
464.699	7308
464.753	9396
464.779	10339
464.820	11026
464.859	11714
464.888	11332
464.938	10646
464.956	10430
465.018	9339
465.023	9292
465.091	8559
465.098	8478
465.158	8624
465.177	8662
465.226	8514
465.257	8291
465.293	8508
465.336	8786
465.361	9167
465.416	10134
465.428	10435
465.495	11814
465.496	11859
465.563	15486
465.575	16085
465.631	19936
465.654	21602
465.698	14956
465.734	9426
465.765	8837
465.813	7624
465.833	7622
465.893	7652
465.900	7625
465.968	7473
465.972	7435
466.035	7778
466.052	7866
466.102	7743
466.131	7673
466.170	8002
466.210	8252
466.237	8107
466.290	7840
466.304	8073
466.369	8925
466.372	8946
466.439	9034
466.449	9025
466.506	8631
466.528	8452
466.573	10048
466.607	11211
466.641	16107
466.687	22872
466.708	25350
466.766	31984
466.775	29970
466.842	14454
466.845	13685
466.909	10651
466.925	9880
466.977	9695
467.004	9614
467.044	10228
467.083	10772
467.111	12188
467.163	14809
467.178	15117
467.242	16201
467.245	16153
467.312	14406
467.321	14141
467.379	12669
467.400	12092
467.446	13108
467.480	13794
467.559	12365
467.638	11771
467.717	12239
467.796	12988
467.875	15093
467.955	14205
468.034	15135
468.113	26298
468.192	39415
468.271	18260
468.350	16098
468.429	22278
468.508	26364
468.588	18873
468.667	13614
468.746	12491
468.825	12027
468.904	10955
468.983	11529
469.062	15276
469.141	17656
469.220	11912
469.299	10951
469.378	11146
469.456	15077
469.535	14219
469.614	12140
469.693	12554
469.772	13833
469.851	16507
469.930	13860
470.009	12607
470.088	12488
470.166	13013
470.245	15976
470.324	17749
470.403	13842
470.482	12055
470.560	11588
470.639	12247
470.718	14402
470.797	12969
470.875	16765
470.954	27491
471.033	20429
471.111	10296
471.190	10621
471.269	9414
471.347	9582
471.426	10165
471.505	11286
471.583	12243
471.662	12118
471.740	11508
471.819	11705
471.898	10995
471.976	10751
472.055	10985
472.133	11903
472.212	12771
472.290	13455
472.369	11285
472.447	10583
472.526	10999
472.604	12126
472.683	19877
472.761	25606
472.839	12897
472.918	10924
472.996	10679
473.075	11036
473.153	11470
473.231	9812
473.310	12017
473.388	10543
473.466	11278
473.545	12212
473.623	16181
473.701	16443
473.780	13328
473.858	18304
473.936	20364
474.014	11048
474.093	12126
474.171	13122
474.249	16478
474.327	12463
474.405	10146
474.484	10525
474.562	11043
474.640	10449
474.718	9895
474.796	10253
474.874	10254
474.952	9813
475.030	10693
475.108	11733
475.187	14736
475.265	26483
475.343	87980
475.421	136239
475.499	22964
475.577	13065
475.655	12057
475.733	16740
475.811	26058
475.889	25866
475.966	23158
476.044	21869
476.122	52016
476.200	102701
476.278	73068
476.356	14861
476.434	15612
476.512	37380
476.590	87323
476.667	66754
476.745	12440
476.823	10559
476.901	9899
476.979	9568
477.056	9643
477.134	10241
477.212	10155
477.290	10041
477.367	9132
477.445	9442
477.523	9423
477.601	8893
477.678	9070
477.756	9205
477.834	10968
477.911	10881
477.989	11837
478.066	13191
478.144	18613
478.222	41664
478.299	147272
478.377	146630
478.454	15976
478.532	9034
478.609	10207
478.687	10440
478.764	8504
478.842	10042
478.919	10099
478.997	9618
479.074	8395
479.152	8331
479.229	11002
479.307	8133
479.384	8328
479.461	7626
479.539	8087
479.616	9579
479.694	8266
479.771	8241
479.848	8422
479.926	9787
480.003	11757
480.080	8355
480.157	7962
480.235	7226
480.312	8713
480.389	8692
480.467	10642
480.544	14221
480.621	9423
480.698	10052
480.775	9795
480.853	9806
480.930	8254
481.007	8762
481.084	9445
481.161	12474
481.238	10912
481.315	8013
481.392	8488
481.470	8118
481.547	8465
481.624	8999
481.701	8436
481.778	8589
481.855	10661
481.932	11863
482.009	18806
482.086	19426
482.163	21110
482.240	57956
482.317	202391
482.393	160308
482.470	16724
482.547	12187
482.624	10178
482.701	9099
482.778	8379
482.855	7532
482.932	8406
483.009	7958
483.085	9428
483.162	11870
483.239	12060
483.316	10661
483.393	10990
483.469	9698
483.546	9060
483.623	10705
483.699	8101
483.776	7823
483.853	9119
483.930	11488
484.006	19001
484.083	34234
484.160	25124
484.236	43326
484.313	34688
484.389	26335
484.466	23580
484.543	22748
484.619	24479
484.696	27073
484.772	24966
484.849	24028
484.925	20918
485.002	20517
485.078	20362
485.155	21220
485.231	19599
485.308	18719
485.384	19217
485.461	21645
485.537	26422
485.614	32351
485.690	18060
485.766	18477
485.843	18434
485.919	24491
485.995	29514
486.072	17989
486.148	17658
486.224	17680
486.301	17026
486.377	18553
486.453	19590
486.530	18315
486.606	24389
486.682	27511
486.758	26848
486.835	30238
486.911	25612
486.987	33905
487.063	41021
487.139	60198
487.215	47927
487.292	25382
487.368	21451
487.444	23813
487.520	29031
487.596	34955
487.672	53659
487.748	158933
487.824	327395
487.900	101562
487.976	29783
488.052	22537
488.128	24278
488.204	21223
488.280	17610
488.356	19643
488.432	26241
488.508	42135
488.584	21941
488.660	17843
488.736	17367
488.812	16946
488.888	22094
488.964	25789
489.039	48611
489.115	84768
489.191	56613
489.267	17940
489.343	16172
489.418	14938
489.494	14298
489.570	14337
489.646	14012
489.722	14588
489.797	13962
489.873	16078
489.949	28555
490.024	29577
490.100	14108
490.176	14141
490.251	15240
490.327	23132
490.403	14188
490.478	14095
490.554	12367
490.629	12410
490.705	12055
490.781	13246
490.856	12506
490.932	14397
491.007	14014
491.083	15129
491.158	13064
491.234	13843
491.309	20534
491.385	25822
491.460	13327
491.536	12650
491.611	13785
491.686	12307
491.762	17854
491.837	30374
491.913	57415
491.988	64358
492.063	114009
492.139	26667
492.214	16237
492.289	11432
492.365	10996
492.440	12371
492.515	11582
492.590	11878
492.666	10910
492.741	11295
492.816	16693
492.891	11515
492.967	11167
493.042	9750
493.117	11482
493.192	10754
493.267	15057
493.342	42050
493.418	80770
493.493	18545
493.568	8492
493.643	9596
493.718	10785
493.793	13800
493.868	20187
493.943	13155
494.018	9863
494.093	9254
494.168	9092
494.243	9434
494.318	7791
494.393	8227
494.468	8359
494.543	7983
494.618	10822
494.693	9167
494.768	7703
494.842	9575
494.917	8587
494.992	9176
495.067	8504
495.142	7896
495.217	8736
495.292	8668
495.366	9696
495.441	11844
495.516	14723
495.591	18556
495.665	51677
495.740	174945
495.815	82209
495.890	13863
495.964	9451
496.039	10419
496.114	9503
496.188	11754
496.263	13493
496.338	8820
496.412	9958
496.487	11027
496.561	15030
496.636	15349
496.710	10167
496.785	10457
496.860	11530
496.934	9366
497.009	9228
497.083	8516
497.158	9613
497.232	10112
497.307	12107
497.381	10618
497.455	10269
497.530	14098
497.604	9652
497.679	9810
497.753	14282
497.827	18077
497.902	16682
497.976	18581
498.050	35822
498.125	149440
498.199	225470
498.273	34447
498.348	20336
498.422	15497
498.496	15303
498.570	15903
498.645	11315
498.719	11136
498.793	12407
498.867	18522
498.941	24617
499.016	48867
499.090	196973
499.164	90361
499.238	11606
499.312	9541
499.386	13380
499.460	11825
499.534	10364
499.609	11329
499.683	16091
499.757	15922
499.831	24763
499.905	103733
499.979	141048
500.053	21213
500.127	20222
500.201	20413
500.275	12016
500.349	10913
500.422	13156
500.496	17567
500.570	34549
500.644	59136
500.718	136511
500.792	38690
500.866	11427
500.940	11876
501.013	11867
501.087	10529
501.161	18579
501.235	24907
501.309	29680
501.382	88378
501.456	111804
501.530	23034
501.603	34138
501.677	18790
501.751	10241
501.825	11421
501.898	14093
501.972	37705
502.046	32149
502.119	11277
502.193	17892
502.266	43798
502.340	28420
502.413	16279
502.487	38885
502.561	25701
502.634	10719
502.708	10828
502.781	10421
502.855	7664
502.928	7321
503.002	7393
503.075	6399
503.149	6794
503.222	7802
503.295	8002
503.369	8437
503.442	10179
503.516	22287
503.589	69810
503.662	56120
503.736	17832
503.809	33327
503.882	37039
503.956	43999
504.029	62055
504.102	85529
504.175	172169
504.249	60004
504.322	19141
504.395	13870
504.468	9143
504.542	8749
504.615	7182
504.688	7517
504.761	6877
504.834	7779
504.907	10009
504.980	17715
505.053	9203
505.127	10353
505.200	12397
505.273	10003
505.346	7625
505.419	5985
505.492	5715
505.565	6345
505.638	5536
505.711	5438
505.784	5904
505.857	4159
505.930	5792
506.003	5675
506.076	7155
506.149	6468
506.221	8058
506.294	7776
506.367	12444
506.440	50083
506.513	39902
506.586	9898
506.659	6490
506.731	5932
506.804	6914
506.877	10788
506.950	7654
507.022	5688
507.095	5972
507.168	8282
507.241	7209
507.313	6899
507.386	5727
507.459	10539
507.531	8380
507.604	6311
507.677	6326
507.749	5186
507.822	7201
507.894	14571
507.967	20424
508.040	11571
508.112	9062
508.185	7920
508.257	8551
508.330	12098
508.402	9218
508.475	9202
508.547	8384
508.620	8378
508.692	11004
508.765	8730
508.837	7057
508.909	7559
508.982	6333
509.054	9096
509.127	7519
509.199	6092
509.271	6911
509.344	7444
509.416	7156
509.488	7203
509.560	6644
509.633	7724
509.705	9575
509.777	8596
509.849	12426
509.922	10570
509.994	8482
510.066	8559
510.138	7822
510.210	14792
510.283	15946
510.355	12268
510.427	10439
510.499	9753
510.571	9427
510.643	9907
510.715	12786
510.787	14873
510.859	10637
510.931	10925
511.003	13622
511.076	13460
511.148	9222
511.219	9230
511.291	11374
511.363	13500
511.435	9464
511.507	8541
511.579	7960
511.651	7695
511.723	8716
511.795	9472
511.867	9019
511.939	8406
512.010	12643
512.082	12695
512.154	8745
512.226	9366
512.298	11831
512.369	19340
512.441	15108
512.513	14523
512.585	12127
512.656	10955
512.728	12399
512.800	10058
512.871	10214
512.943	9772
513.015	9000
513.086	9455
513.158	9894
513.230	10709
513.301	13625
513.373	18316
513.444	10234
513.516	7744
513.588	7999
513.659	9526
513.731	13075
513.802	10431
513.874	16314
513.945	36511
514.016	15134
514.088	9326
514.159	10369
514.231	11649
514.302	17190
514.374	12929
514.445	11525
514.516	15761
514.588	13910
514.659	9883
514.730	13206
514.802	14241
514.873	10176
514.944	10556
515.016	9337
515.087	14003
515.158	13057
515.229	14634
515.301	8367
515.372	9590
515.443	8202
515.514	8062
515.585	8229
515.656	8604
515.728	8972
515.799	8163
515.870	8370
515.941	9498
516.012	9504
516.083	11485
516.154	13331
516.225	16746
516.296	15951
516.367	12909
516.438	13227
516.509	16712
516.580	21426
516.651	42173
516.722	180951
516.793	129279
516.864	22940
516.935	22017
517.006	21510
517.077	27867
517.148	56921
517.219	145322
517.289	365272
517.360	90698
517.431	37058
517.502	12532
517.573	12055
517.643	12023
517.714	12245
517.785	13976
517.856	12288
517.926	15632
517.997	16793
518.068	22081
518.138	27739
518.209	38904
518.280	95087
518.350	471121
518.421	275565
518.492	31814
518.562	22193
518.633	23669
518.703	29040
518.774	50202
518.845	145361
518.915	214071
518.986	53866
519.056	25644
519.127	30117
519.197	39951
519.268	64609
519.338	52883
519.408	15265
519.479	19495
519.549	17563
519.620	12737
519.690	13371
519.760	10451
519.831	8196
519.901	10534
519.971	7919
520.042	8889
520.112	9590
520.182	10180
520.253	13416
520.323	9007
520.393	9656
520.463	13371
520.534	9054
520.604	16549
520.674	12082
520.744	9653
520.814	17743
520.885	21536
520.955	16414
521.025	60158
521.095	40732
521.165	9088
521.235	8754
521.305	8538
521.375	8141
521.445	8563
521.515	11578
521.585	13345
521.655	13886
521.725	10221
521.795	9573
521.865	7313
521.935	8706
522.005	9533
522.075	7427
522.145	7849
522.215	7753
522.285	10511
522.355	10846
522.424	18220
522.494	20751
522.564	13333
522.634	20108
522.704	69666
522.774	41894
522.843	9516
522.913	8047
522.983	12001
523.053	9384
523.122	8226
523.192	11355
523.262	33029
523.331	48636
523.401	10483
523.471	7141
523.540	8104
523.610	6302
523.680	6801
523.749	7040
523.819	7418
523.888	9423
523.958	7351
524.027	5926
524.097	6571
524.166	6920
524.236	8423
524.305	8165
524.375	7012
524.444	6595
524.514	6251
524.583	7108
524.653	8501
524.722	9290
524.791	7121
524.861	6868
524.930	7358
524.999	6990
525.069	10440
525.138	8041
525.207	8170
525.277	8650
525.346	8274
525.415	8204
525.484	9657
525.554	14146
525.623	11142
525.692	10815
525.761	12973
525.830	14962
525.900	19540
525.969	28444
526.038	53430
526.107	88268
526.176	308894
526.245	357963
526.314	95091
526.383	132927
526.452	272846
526.522	296781
526.591	496446
526.660	93123
526.729	49958
526.797	50976
526.867	78445
526.935	257216
527.004	686043
527.073	655324
527.142	60614
527.211	21496
527.280	16229
527.349	15264
527.418	10661
527.487	8209
527.555	8140
527.624	7634
527.693	6904
527.762	6757
527.831	7835
527.899	7081
527.968	6721
528.037	6330
528.106	8171
528.174	12771
528.243	10585
528.312	11210
528.380	20772
528.449	7882
528.518	6339
528.586	5091
528.655	5910
528.723	5931
528.792	5903
528.861	6390
528.929	5629
528.998	6142
529.066	5870
529.135	6317
529.203	6021
529.272	5237
529.340	7269
529.409	7131
529.477	6906
529.545	6053
529.614	7916
529.682	8138
529.751	9485
529.819	9939
529.887	9247
529.956	7659
530.024	7851
530.092	6563
530.161	7112
530.229	11618
530.297	9208
530.365	6902
530.434	7600
530.502	7343
530.570	7174
530.638	5288
530.707	6997
530.775	7287
530.843	7686
530.911	7276
530.979	6587
531.047	7622
531.115	7077
531.183	7218
531.252	6842
531.320	6657
531.388	6963
531.456	6064
531.524	6664
531.592	7762
531.660	7921
531.728	7663
531.796	7457
531.864	7582
531.932	7632
532.000	7585
532.067	7926
532.135	8290
532.203	9184
532.271	11061
532.339	13196
532.407	32425
532.475	28190
532.542	12624
532.610	13865
532.678	16969
532.746	38748
532.814	151936
532.881	58701
532.949	12100
533.017	9945
533.084	8025
533.152	7347
533.220	7927
533.287	8865
533.355	8933
533.423	7369
533.490	8404
533.558	8632
533.625	8750
533.693	8939
533.761	9185
533.828	10048
533.896	10115
533.963	16305
534.031	22244
534.098	39478
534.166	27981
534.233	11660
534.300	10617
534.368	11510
534.435	11086
534.503	11911
534.570	11792
534.637	13957
534.705	16386
534.772	19030
534.840	30248
534.907	102382
534.974	252001
535.041	42167
535.109	13991
535.176	9709
535.243	10063
535.310	9680
535.378	10070
535.445	8864
535.512	8702
535.579	9445
535.646	8066
535.714	9100
535.781	10663
535.848	10753
535.915	10316
535.982	11506
536.049	11060
536.116	11339
536.183	10833
536.250	9810
536.317	9645
536.384	10862
536.451	13341
536.518	15937
536.585	11739
536.652	11970
536.719	16300
536.786	17155
536.853	11665
536.920	14889
536.987	22368
537.053	22655
537.120	55354
537.187	84200
537.254	13932
537.321	10605
537.388	11608
537.454	9649
537.521	9527
537.588	9653
537.654	11327
537.721	14386
537.788	19782
537.855	11201
537.921	10143
537.988	10364
538.055	10177
538.121	9933
538.188	9949
538.254	11030
538.321	21373
538.388	19735
538.454	10759
538.521	10052
538.587	9947
538.654	10052
538.720	9095
538.787	8725
538.853	10110
538.920	11145
538.986	9706
539.053	9045
539.119	10588
539.185	10317
539.252	10959
539.318	15160
539.385	14961
539.451	18434
539.517	17758
539.583	13806
539.650	18393
539.716	52279
539.782	27020
539.849	11538
539.915	12747
539.981	15713
540.047	12452
540.114	11437
540.180	10957
540.246	12660
540.312	13708
540.378	20474
540.444	27243
540.510	20169
540.576	55683
540.643	34519
540.709	12752
540.775	15188
540.841	10956
540.907	11499
540.973	13998
541.039	14561
541.105	16913
541.171	12367
541.237	11606
541.303	12191
541.369	13306
541.435	14939
541.500	20040
541.566	18318
541.632	10028
541.698	10142
541.764	10181
541.830	10281
541.896	9465
541.961	11329
542.027	16625
542.093	16764
542.159	12325
542.224	10999
542.290	13673
542.356	17479
542.421	25988
542.487	14763
542.553	11096
542.618	11079
542.684	10159
542.750	12038
542.815	12231
542.881	15849
542.947	41227
543.012	52114
543.078	12179
543.143	10540
543.209	11927
543.274	14715
543.340	13007
543.405	17574
543.471	36872
543.536	15829
543.602	9746
543.667	9786
543.732	10075
543.798	9702
543.863	9413
543.928	9404
543.994	9145
544.059	9737
544.124	9104
544.190	10880
544.255	10680
544.320	10714
544.386	11781
544.451	13661
544.516	15856
544.581	15935
544.646	25319
544.712	57992
544.777	20291
544.842	11999
544.907	11225
544.972	11118
545.037	10664
545.102	12228
545.168	12298
545.233	12618
545.298	12915
545.363	14583
545.428	15913
545.493	19018
545.558	40812
545.623	29407
545.688	12621
545.753	13588
545.818	12605
545.883	13649
545.947	13722
546.012	15058
546.077	14180
546.142	14216
546.207	14638
546.272	17970
546.337	19859
546.401	17939
546.466	18021
546.531	17143
546.596	18442
546.661	19410
546.725	19265
546.790	19185
546.855	21065
546.919	22117
546.984	25105
547.049	29780
547.113	32607
547.178	32162
547.243	36214
547.307	40698
547.372	46386
547.436	49299
547.501	47621
547.565	52256
547.630	50460
547.695	48716
547.759	48095
547.823	47651
547.888	47585
547.952	48928
548.017	50029
548.081	54883
548.146	56696
548.210	55463
548.274	54763
548.339	56696
548.403	51876
548.468	48073
548.532	45200
548.596	47707
548.660	48792
548.725	50301
548.789	57532
548.853	59077
548.917	52853
548.982	52396
549.046	49891
549.110	43699
549.174	42655
549.238	47143
549.303	53145
549.367	56449
549.431	53932
549.495	51068
549.559	50694
549.623	55418
549.687	65068
549.751	66240
549.815	72809
549.879	77246
549.943	71080
550.007	75215
550.071	76537
550.135	71365
550.199	65309
550.263	62933
550.327	59600
550.391	60730
550.455	65648
550.519	70020
550.582	74089
550.646	83516
550.710	89870
550.774	83704
550.838	84267
550.901	84959
550.965	90667
551.029	95422
551.093	101468
551.156	108920
551.220	125701
551.284	162338
551.347	133564
551.411	100830
551.475	102325
551.538	92357
551.602	88396
551.666	82620
551.729	78421
551.793	72395
551.856	71297
551.920	69250
551.983	69259
552.047	68284
552.110	68202
552.174	69281
552.237	71419
552.301	67865
552.364	63191
552.428	60521
552.491	61677
552.554	64971
552.618	62849
552.681	65432
552.745	63838
552.808	66265
552.871	74717
552.934	69669
552.998	65620
553.061	63143
553.124	61968
553.187	58965
553.251	61699
553.314	62663
553.377	62072
553.440	68381
553.503	77870
553.567	105354
553.630	74603
553.693	64733
553.756	66390
553.819	66032
553.882	62246
553.945	60156
554.008	60704
554.071	61083
554.134	62417
554.197	59790
554.260	56941
554.323	57209
554.386	59291
554.449	60194
554.512	62247
554.575	58181
554.638	57760
554.701	56363
554.764	56407
554.827	55218
554.889	53309
554.952	49118
555.015	47420
555.078	48211
555.141	50962
555.203	50035
555.266	47691
555.329	49402
555.391	46624
555.454	46567
555.517	46215
555.580	43746
555.642	41880
555.705	40866
555.768	40171
555.830	40535
555.893	37496
555.955	37396
556.018	35816
556.080	36924
556.143	37592
556.206	37186
556.268	37142
556.330	36525
556.393	35684
556.455	34742
556.518	34200
556.580	35745
556.643	32424
556.705	30522
556.767	30213
556.830	31764
556.892	30473
556.955	33104
557.017	32527
557.079	29727
557.142	27939
557.204	28439
557.266	34884
557.328	36737
557.391	25567
557.453	23868
557.515	23556
557.577	25136
557.639	27466
557.701	25517
557.764	24760
557.826	25430
557.888	27943
557.950	29027
558.012	32160
558.074	41044
558.136	66016
558.198	206122
558.260	143765
558.322	33883
558.384	32007
558.446	35940
558.508	40105
558.570	50184
558.632	66561
558.694	95980
558.756	123570
558.818	254496
558.880	885559
558.942	544997
559.003	217088
559.065	190831
559.127	53992
559.189	49314
559.251	56138
559.312	77637
559.374	141580
559.436	498537
559.498	520883
559.559	74962
559.621	51459
559.683	56173
559.744	79021
559.806	188035
559.868	510368
559.929	175077
559.991	51873
560.052	65373
560.114	173162
560.176	206455
560.237	90621
560.299	217325
560.360	91042
560.422	21174
560.483	17305
560.545	15434
560.606	14509
560.667	13973
560.729	13336
560.790	13123
560.852	13012
560.913	12274
560.974	12352
561.036	12108
561.097	12361
561.158	12706
561.220	12063
561.281	11886
561.342	11988
561.403	13643
561.465	13921
561.526	20892
561.587	36490
561.648	18157
561.709	11507
561.771	10147
561.832	11104
561.893	10116
561.954	10099
562.015	10044
562.076	9550
562.137	10414
562.198	9921
562.259	10318
562.320	10079
562.381	10792
562.442	12869
562.503	13408
562.564	10473
562.625	9741
562.686	9238
562.747	10094
562.808	9961
562.869	9532
562.930	10199
562.991	9612
563.051	9597
563.112	9365
563.173	9565
563.234	9177
563.294	9336
563.355	8542
563.416	9246
563.477	8809
563.537	8743
563.598	10168
563.659	8737
563.720	9823
563.780	8921
563.841	9759
563.901	9107
563.962	9908
564.023	8148
564.083	9307
564.144	9718
564.204	8304
564.265	8943
564.325	8741
564.386	11091
564.446	13246
564.507	8337
564.567	8374
564.628	8345
564.688	8031
564.749	8101
564.809	8459
564.869	9089
564.930	8526
564.990	8218
565.050	7752
565.111	8535
565.171	7928
565.231	7224
565.292	8797
565.352	7415
565.412	8490
565.472	7636
565.532	8710
565.593	7370
565.653	7229
565.713	8135
565.773	9019
565.833	8638
565.893	11489
565.953	8435
566.013	6970
566.074	7795
566.134	8690
566.194	10256
566.254	12853
566.314	10265
566.374	8077
566.434	7489
566.494	7962
566.554	8034
566.614	8194
566.673	7945
566.733	8216
566.793	7721
566.853	7871
566.913	7998
566.973	8361
567.033	7899
567.092	8117
567.152	8545
567.212	8740
567.272	8350
567.331	8214
567.391	8132
567.451	8005
567.511	9684
567.570	10378
567.630	7833
567.690	8005
567.749	7138
567.809	7315
567.868	7663
567.928	8283
567.988	8139
568.047	8976
568.107	8937
568.166	8734
568.226	10280
568.285	11678
568.345	12172
568.404	10927
568.464	10568
568.523	10133
568.582	9181
568.642	10229
568.701	9672
568.761	11413
568.820	15066
568.879	16760
568.939	13692
568.998	12005
569.057	9696
569.116	8844
569.176	8212
569.235	8011
569.294	7560
569.353	6679
569.413	6402
569.472	6949
569.531	6264
569.590	6655
569.649	7156
569.708	7025
569.767	7530
569.827	7651
569.886	7526
569.945	7353
570.004	7209
570.063	6702
570.122	7699
570.181	9170
570.240	7485
570.299	8083
570.358	7540
570.417	7328
570.475	6617
570.534	7769
570.593	7620
570.652	7913
570.711	8135
570.770	7803
570.829	9061
570.887	9331
570.946	8781
571.005	7889
571.064	6945
571.122	7305
571.181	7137
571.240	8121
571.299	6762
571.357	7424
571.416	6780
571.475	7097
571.533	7569
571.592	7442
571.650	7006
571.709	7711
571.768	7438
571.826	8597
571.885	7830
571.943	7402
572.002	6492
572.060	7743
572.119	6760
572.177	6430
572.236	6342
572.294	6252
572.352	7048
572.411	6816
572.469	6500
572.528	5566
572.586	6755
572.644	6449
572.703	7709
572.761	6393
572.819	6139
572.877	6516
572.936	5497
572.994	6234
573.052	5492
573.110	6101
573.169	6249
573.227	6914
573.285	5949
573.343	6097
573.401	6366
573.459	6298
573.517	5461
573.576	7202
573.634	6240
573.692	5952
573.750	6674
573.808	7422
573.866	6325
573.924	6723
573.982	6105
574.040	6386
574.098	5730
574.155	5653
574.213	5996
574.271	5709
574.329	5916
574.387	5742
574.445	5751
574.503	5848
574.560	5238
574.618	5170
574.676	5768
574.734	6069
574.792	5798
574.849	5286
574.907	4116
574.965	4477
575.022	4526
575.080	4286
575.138	4869
575.195	5571
575.253	5091
575.311	5361
575.368	6099
575.426	5610
575.483	4830
575.541	4953
575.598	5321
575.656	4710
575.713	4576
575.771	5434
575.828	5552
575.886	5611
575.943	5516
576.001	5347
576.058	4482
576.115	4818
576.173	4821
576.230	6275
576.287	6570
576.345	7020
576.402	4906
576.459	5761
576.517	5747
576.574	6046
576.631	4866
576.688	4735
576.746	4485
576.803	5026
576.860	4439
576.917	5182
576.974	4859
577.031	5323
577.089	4760
577.146	4885
577.203	4996
577.260	4749
577.317	4687
577.374	4214
577.431	4962
577.488	4171
577.545	4940
577.602	5049
577.659	4201
577.716	4943
577.773	4907
577.830	4358
577.886	4723
577.943	4306
578.000	4547
578.057	5372
578.114	4980
578.171	6123
578.227	6135
578.284	6950
578.341	5084
578.398	5264
578.454	4417
578.511	4837
578.568	5412
578.625	5602
578.681	4517
578.738	4348
578.794	4274
578.851	4883
578.908	5050
578.964	4613
579.021	4832
579.077	4707
579.134	5160
579.190	5141
579.247	4293
579.303	4575
579.360	4034
579.416	4652
579.473	4977
579.529	4330
579.586	4583
579.642	4407
579.698	3785
579.755	4667
579.811	4380
579.867	5097
579.924	5062
579.980	4722
580.036	5668
580.093	5646
580.149	7428
580.205	9455
580.261	7003
580.317	5519
580.374	5735
580.430	6443
580.486	5920
580.542	4643
580.598	5453
580.619	5234
580.654	4860
580.692	4555
580.710	4407
580.765	4860
580.767	4880
580.823	5692
580.838	5556
580.879	5207
580.911	4881
580.935	4664
580.984	5314
580.991	5410
581.047	5097
581.057	5146
581.103	5368
581.130	5260
581.159	5163
581.203	5646
581.215	5781
581.270	5359
581.276	5249
581.326	4237
581.349	4407
581.382	4685
581.422	4681
581.438	4674
581.494	3794
581.494	3803
581.550	5081
581.567	4860
581.606	4418
581.640	5327
581.661	5871
581.713	5112
581.717	5057
581.773	4317
581.786	4276
581.829	4172
581.859	4287
581.885	4379
581.932	4398
581.940	4420
581.996	4222
582.004	4276
582.052	4425
582.077	4632
582.107	4988
582.150	4278
582.163	4046
582.219	4361
582.223	4410
582.274	5047
582.296	4808
582.330	4466
582.368	4620
582.386	4679
582.441	4746
582.441	4748
582.497	4376
582.514	4699
582.552	5368
582.587	5307
582.608	5301
582.659	5212
582.663	5204
582.719	4627
582.732	4695
582.774	4747
582.805	4797
582.830	5052
582.877	5041
582.885	4984
582.941	4694
582.950	4724
582.996	5048
583.023	5038
583.052	4991
583.095	5422
583.107	5563
583.162	5827
583.168	5952
583.218	6904
583.240	6494
583.273	6034
583.313	5619
583.328	5366
583.384	4268
583.385	4293
583.439	5350
583.458	5163
583.494	4704
583.531	4958
583.549	5149
583.603	4769
583.605	4747
583.660	4695
583.676	4621
583.715	4599
583.748	4622
583.770	4615
583.820	4649
583.825	4646
583.881	4347
583.893	4373
583.936	4604
583.965	4564
583.991	4461
584.038	4189
584.046	4142
584.101	4290
584.110	4277
584.156	4185
584.183	4092
584.211	3974
584.255	4223
584.266	4364
584.321	4695
584.328	4749
584.376	4657
584.400	4397
584.431	4234
584.472	4155
584.486	4153
584.541	4809
584.545	4832
584.596	4970
584.617	4986
584.651	4953
584.689	4967
584.706	5034
584.761	4941
584.762	4943
584.816	4937
584.834	5144
584.871	5600
584.906	5600
584.926	5543
584.978	5493
584.980	5491
585.035	5651
585.051	5924
585.090	6781
585.123	7146
585.145	7365
585.195	8129
585.200	8205
585.254	9420
585.267	9969
585.309	11895
585.340	13183
585.364	14112
585.412	16760
585.419	17135
585.473	19871
585.484	20839
585.528	25072
585.556	29493
585.583	34983
585.628	51475
585.637	57149
585.692	110802
585.700	129090
585.747	251463
585.772	255664
585.801	218251
585.845	107962
585.856	78795
585.910	24727
585.917	19771
585.965	14281
585.989	11667
586.019	9847
586.061	8880
586.074	8671
586.128	7865
586.133	7847
586.183	7960
586.205	7859
586.237	7643
586.277	7716
586.292	7746
586.346	6973
586.349	6998
586.401	6992
586.421	6906
586.455	7234
586.493	7733
586.509	7739
586.564	6994
586.565	7028
586.618	9001
586.637	9622
586.672	10731
586.709	10287
586.727	10016
586.781	10488
586.781	10481
586.835	9383
586.853	8978
586.889	7891
586.925	7286
586.944	7035
586.996	6665
586.998	6668
587.052	6885
587.068	6944
587.106	6760
587.140	6815
587.161	7038
587.212	6986
587.215	6954
587.269	6769
587.284	6836
587.323	7144
587.356	7070
587.377	6935
587.427	6977
587.431	7004
587.485	7488
587.499	7569
587.539	7453
587.571	7590
587.593	7765
587.643	7576
587.648	7546
587.702	8012
587.715	7976
587.755	7831
587.786	7982
587.810	8161
587.858	8265
587.864	8245
587.917	8804
587.930	8858
587.971	9445
588.001	9891
588.025	9938
588.073	10044
588.079	10114
588.133	10573
588.145	10782
588.187	11120
588.217	11425
588.241	12063
588.288	13565
588.295	13718
588.348	14943
588.360	15413
588.402	17283
588.431	18363
588.456	19237
588.503	21996
588.510	22472
588.564	26873
588.575	28075
588.617	32033
588.646	35224
588.671	38237
588.718	45631
588.725	46711
588.778	59253
588.789	63113
588.832	84524
588.861	107009
588.886	148246
588.932	251136
588.939	278931
588.993	535259
589.004	561684
589.047	489172
589.075	400505
589.100	266566
589.147	84724
589.154	78014
589.207	50804
589.218	46021
589.261	41828
589.290	40622
589.314	41788
589.361	46814
589.368	47776
589.421	59427
589.433	63867
589.475	95500
589.504	126046
589.528	186951
589.576	339703
589.582	356285
589.635	438827
589.647	438340
589.689	215452
589.718	91999
589.742	64667
589.790	26187
589.795	25222
589.849	18774
589.861	17446
589.902	15405
589.932	14529
589.955	13887
590.004	12273
590.009	12115
590.062	11049
590.075	10788
590.115	10240
590.146	10130
590.168	10067
590.218	9657
590.222	9598
590.275	9223
590.289	9120
590.328	8936
590.360	8775
590.381	8872
590.431	9373
590.435	9341
590.488	8844
590.503	8754
590.541	8686
590.574	8626
590.594	8551
590.645	8540
590.647	8543
590.700	8822
590.716	8994
590.753	8770
590.787	8505
590.806	8407
590.859	8487
590.859	8480
590.912	8969
590.930	9196
590.965	8863
591.001	8631
591.018	8640
591.071	8522
591.072	8540
591.124	8713
591.143	8777
591.177	8628
591.214	8609
591.230	8799
591.283	9434
591.285	9476
591.336	9438
591.356	9433
591.389	9528
591.427	9654
591.442	9481
591.495	8946
591.498	8916
591.547	8712
591.569	8725
591.600	8778
591.640	8793
591.653	8827
591.706	9118
591.711	9160
591.759	9269
591.782	9389
591.811	9364
591.853	9342
591.864	9409
591.917	9773
591.924	9852
591.969	9275
591.995	8970
592.022	9070
592.066	9283
592.075	9272
592.127	9385
592.137	9430
592.180	9595
592.208	9723
592.233	9596
592.279	9446
592.285	9419
592.338	9433
592.350	9455
592.390	9327
592.421	9312
592.443	9441
592.491	9792
592.495	9793
592.548	10164
592.562	10295
592.600	10171
592.633	10118
592.653	9904
592.704	9381
592.705	9437
592.775	9637
592.846	9491
592.916	11226
592.987	10576
593.058	10899
593.128	10141
593.199	10483
593.270	10136
593.341	10482
593.411	9972
593.482	11593
593.553	11899
593.623	11844
593.694	11731
593.764	11964
593.835	11809
593.906	12324
593.976	11471
594.047	11743
594.117	12168
594.188	13342
594.258	13399
594.329	13514
594.399	13374
594.470	14420
594.540	14205
594.611	14457
594.681	14199
594.751	15392
594.822	15649
594.892	16986
594.963	17193
595.033	16296
595.103	16701
595.174	16943
595.244	16878
595.314	18638
595.384	18661
595.455	18078
595.525	17847
595.595	18841
595.665	19692
595.736	20770
595.806	19232
595.876	19463
595.946	19348
596.016	20272
596.087	20453
596.157	21644
596.227	20961
596.297	21082
596.367	21976
596.437	24832
596.507	25739
596.577	25780
596.647	26163
596.717	26267
596.787	27450
596.857	28494
596.927	28056
596.997	28577
597.067	28445
597.137	29049
597.207	29406
597.277	29074
597.347	28425
597.417	27556
597.487	27372
597.557	26915
597.626	28120
597.696	28535
597.766	28165
597.836	28034
597.906	27058
597.975	25812
598.045	24969
598.115	25799
598.185	26793
598.254	28291
598.324	33594
598.394	34420
598.464	34475
598.533	34854
598.603	32821
598.672	30920
598.742	30731
598.812	31486
598.881	31344
598.951	31865
599.020	31658
599.090	32973
599.159	33712
599.229	33960
599.299	32470
599.368	32403
599.437	33251
599.507	31078
599.576	28911
599.646	29112
599.715	27863
599.785	28483
599.854	26981
599.924	27226
599.993	26322
600.062	26351
600.132	27119
600.201	28280
600.270	29435
600.340	36210
600.409	35078
600.478	35421
600.547	35102
600.617	35602
600.686	29923
600.755	25039
600.824	23459
600.894	21586
600.963	21589
601.032	22675
601.101	20854
601.170	20734
601.239	21133
601.308	23473
601.378	31573
601.447	23684
601.516	20517
601.585	23075
601.654	31335
601.723	36061
601.792	21936
601.861	22468
601.930	22852
601.999	24209
602.068	25528
602.137	30729
602.206	48380
602.275	32070
602.343	23765
602.412	25106
602.481	24172
602.550	23943
602.619	24212
602.688	25338
602.756	24524
602.825	24884
602.894	24713
602.963	26150
603.032	26716
603.100	26085
603.169	26269
603.238	27437
603.307	26413
603.375	28196
603.444	26751
603.513	28988
603.581	28392
603.650	28690
603.719	28791
603.787	28773
603.856	29574
603.924	30965
603.993	31270
604.061	32563
604.130	33454
604.198	35809
604.267	35311
604.335	35149
604.404	36545
604.472	36973
604.541	36704
604.609	38287
604.678	38177
604.746	38850
604.815	39198
604.883	40622
604.951	40788
605.020	40116
605.088	40834
605.156	42158
605.225	43301
605.293	43418
605.361	43496
605.429	43497
605.498	44651
605.566	45766
605.634	47091
605.702	49510
605.771	51132
605.839	52118
605.907	53092
605.975	50457
606.043	48939
606.111	48917
606.180	48260
606.248	47441
606.316	47619
606.384	47140
606.452	46524
606.520	47893
606.588	50256
606.656	49799
606.724	50749
606.792	48269
606.860	44790
606.928	40249
606.996	36781
607.064	34625
607.132	34842
607.200	35950
607.267	38318
607.335	39638
607.403	40650
607.471	40306
607.539	39527
607.607	39880
607.674	36471
607.742	34413
607.810	34470
607.878	35075
607.946	34005
608.013	35363
608.081	36132
608.149	37082
608.216	36532
608.284	39152
608.352	39491
608.419	40715
608.487	40010
608.555	39238
608.622	37293
608.690	40062
608.757	42719
608.825	47615
608.893	47214
608.960	45705
609.028	43099
609.095	41657
609.163	42625
609.230	40337
609.298	34212
609.365	33331
609.432	35734
609.500	38494
609.567	43589
609.635	50680
609.702	56925
609.769	59191
609.837	54915
609.904	39586
609.971	36824
610.039	40014
610.106	46568
610.173	70237
610.241	158767
610.308	317591
610.375	110748
610.442	51253
610.509	40926
610.577	38686
610.644	36886
610.711	38477
610.778	40101
610.845	40747
610.912	42673
610.980	46075
611.047	46710
611.114	47503
611.181	45861
611.248	44073
611.315	44489
611.382	47982
611.449	49127
611.516	51050
611.583	51026
611.650	49744
611.717	50757
611.784	51522
611.851	53503
611.918	57285
611.984	64427
612.051	81573
612.118	130625
612.185	305772
612.252	678815
612.319	230376
612.386	77242
612.452	68715
612.519	61367
612.586	57869
612.653	58442
612.719	58456
612.786	60850
612.853	56754
612.919	52484
612.986	52734
613.053	51878
613.120	49794
613.186	44953
613.253	45035
613.319	43911
613.386	44697
613.453	45261
613.519	46493
613.586	45702
613.652	47406
613.719	46968
613.785	46084
613.852	45648
613.918	46467
613.985	46981
614.051	47850
614.118	50825
614.184	55156
614.250	49351
614.317	46601
614.383	46636
614.449	46689
614.516	47968
614.582	48059
614.648	48083
614.715	46750
614.781	47237
614.847	44445
614.914	44156
614.980	43997
615.046	42393
615.112	43948
615.179	44827
615.245	44569
615.311	45324
615.377	45306
615.443	46985
615.509	47299
615.575	47854
615.642	50318
615.708	47865
615.774	51495
615.840	54256
615.906	58945
615.972	66679
616.038	88772
616.104	153950
616.170	353723
616.236	865154
616.302	418795
616.368	108998
616.434	87429
616.500	61962
616.565	60393
616.631	72526
616.697	85613
616.763	65802
616.829	76554
616.895	132634
616.961	226430
617.026	158350
617.092	62966
617.158	49420
617.224	46844
617.289	45968
617.355	41241
617.421	39538
617.487	40561
617.552	39167
617.618	37541
617.684	37584
617.749	37670
617.815	36877
617.880	35482
617.946	34243
618.012	34818
618.077	36941
618.143	35784
618.208	35231
618.274	35115
618.339	38989
618.405	38377
618.470	30868
618.536	31217
618.601	30852
618.667	30481
618.732	28204
618.798	26652
618.863	25996
618.928	26760
618.994	26678
619.059	27230
619.124	26719
619.190	27454
619.255	27042
619.320	25409
619.386	26225
619.451	26330
619.516	25563
619.581	23654
619.647	25465
619.712	26447
619.777	25319
619.842	24739
619.907	24977
619.972	26399
620.038	25763
620.103	25522
620.168	24445
620.233	25041
620.298	24361
620.363	25055
620.428	26250
620.493	27639
620.558	27103
620.623	27573
620.688	27320
620.753	27269
620.818	28197
620.883	28767
620.948	29188
621.013	27800
621.078	27379
621.143	26401
621.207	27289
621.272	28173
621.337	26944
621.402	26661
621.467	26242
621.532	26704
621.596	26732
621.661	26745
621.726	25043
621.791	25143
621.855	25641
621.920	26237
621.985	25388
622.049	26110
622.114	25823
622.179	26927
622.243	26064
622.308	26818
622.373	28213
622.437	29438
622.502	28202
622.566	27150
622.631	25885
622.695	27485
622.760	27429
622.824	27625
622.889	26267
622.953	26785
623.018	27417
623.082	32018
623.147	29599
623.211	29038
623.276	28848
623.340	28303
623.404	25761
623.469	25664
623.533	25696
623.597	26466
623.662	25010
623.726	25648
623.790	23398
623.854	21225
623.919	20978
623.983	21376
624.047	22187
624.111	22912
624.176	22891
624.240	23089
624.304	23798
624.368	24445
624.432	22718
624.496	22830
624.560	24354
624.625	25624
624.689	26824
624.753	25227
624.817	27033
624.881	24519
624.945	23925
625.009	22280
625.073	20488
625.137	22113
625.201	22738
625.265	24104
625.329	23812
625.393	22483
625.456	23270
625.520	23395
625.584	24431
625.648	24471
625.712	24844
625.776	26467
625.839	29901
625.903	27697
625.967	19875
626.031	19459
626.095	21464
626.158	26450
626.222	21837
626.286	16334
626.349	15884
626.413	14356
626.477	13899
626.540	14753
626.604	14274
626.668	14101
626.731	13437
626.795	12978
626.858	13088
626.922	13758
626.986	13814
627.049	13596
627.113	12949
627.176	14291
627.240	12940
627.303	12292
627.366	13070
627.430	12851
627.493	13471
627.557	12640
627.620	13484
627.684	12973
627.747	13452
627.810	13802
627.874	12573
627.937	10910
628.000	11792
628.064	11937
628.127	11698
628.190	10299
628.253	9575
628.317	9434
628.380	8812
628.443	8575
628.506	8221
628.569	7934
628.632	8288
628.696	7480
628.759	8033
628.822	7576
628.885	6979
628.948	6671
629.011	6417
629.074	6805
629.137	6496
629.200	6693
629.263	6656
629.326	6065
629.389	5920
629.452	6469
629.515	5932
629.578	6248
629.641	6350
629.704	6509
629.767	6733
629.830	6947
629.892	5467
629.955	5261
630.018	6147
630.081	5820
630.144	6101
630.207	6349
630.269	6169
630.332	5461
630.395	5551
630.458	5807
630.520	5975
630.583	5901
630.646	5211
630.708	5878
630.771	5461
630.834	6158
630.896	6287
630.959	5325
631.021	5589
631.084	6110
631.146	5407
631.209	5596
631.272	5468
631.334	5935
631.397	5912
631.459	6706
631.522	6726
631.584	7465
631.646	7035
631.709	7577
631.771	8250
631.834	8905
631.896	8156
631.958	6445
632.021	6784
632.083	6044
632.145	5872
632.208	5758
632.270	5275
632.332	5743
632.395	5715
632.457	6180
632.519	5466
632.581	5148
632.643	4728
632.706	5649
632.768	5156
632.830	5411
632.892	5095
632.954	5474
633.016	5647
633.078	5738
633.141	4471
633.203	5407
633.265	6005
633.327	4928
633.389	4973
633.451	5323
633.513	5677
633.575	6645
633.637	5937
633.698	6892
633.760	5839
633.822	5908
633.884	6127
633.946	6642
634.008	6522
634.070	6890
634.132	6950
634.193	8602
634.255	9604
634.317	10387
634.379	10992
634.441	10286
634.502	8735
634.564	8869
634.626	7803
634.687	9492
634.749	8164
634.811	6441
634.873	5651
634.934	5593
634.996	5250
635.057	6282
635.119	5096
635.181	5102
635.242	6179
635.304	5038
635.365	5570
635.427	6072
635.488	5640
635.550	6029
635.611	4834
635.673	5804
635.734	5460
635.796	6437
635.857	7330
635.918	7844
635.980	8705
636.041	9690
636.102	10339
636.164	11793
636.225	11325
636.286	11736
636.348	9205
636.409	7500
636.470	6223
636.531	6193
636.593	5443
636.654	4747
636.715	5106
636.776	4118
636.838	4510
636.899	4178
636.960	4812
637.021	4837
637.082	4933
637.143	6108
637.204	4554
637.265	4185
637.326	4016
637.387	4409
637.448	4483
637.509	3661
637.570	4453
637.631	4512
637.692	4158
637.753	4014
637.814	3671
637.875	4255
637.936	3491
637.997	3477
638.058	3435
638.119	3804
638.179	3761
638.240	4083
638.301	4024
638.362	3466
638.423	3145
638.483	3065
638.544	3329
638.605	3669
638.666	3648
638.726	3418
638.787	3682
638.848	3430
638.908	3140
638.969	3406
639.030	2857
639.090	3224
639.151	3135
639.211	3304
639.272	3431
639.332	4303
639.393	4800
639.453	4182
639.514	4300
639.574	3865
639.635	2576
639.695	3224
639.756	2320
639.816	3364
639.877	2405
639.937	4061
639.997	5107
640.058	5176
640.118	2693
640.178	3269
640.239	3234
640.299	3957
640.359	3407
640.420	3957
640.480	3455
640.540	4236
640.600	6159
640.661	4707
640.721	3914
640.781	5102
640.841	4239
640.901	4236
640.961	2764
641.021	3129
641.082	3667
641.142	4067
641.202	4149
641.262	2948
641.322	3345
641.382	3310
641.442	2860
641.502	2603
641.562	3086
641.622	2423
641.682	2498
641.742	3994
641.802	4226
641.861	3540
641.921	2464
641.981	3533
642.041	2480
642.101	3360
642.161	3650
642.221	2555
642.280	1620
642.340	3089
642.400	1907
642.460	2234
642.519	2316
642.579	3178
642.639	2922
642.698	2598
642.758	2594
642.818	3541
642.877	2254
642.937	2414
642.997	2559
643.056	3103
643.116	2727
643.175	3021
643.235	3146
643.294	3780
643.354	3348
643.414	3447
643.473	3689
643.532	5246
643.592	8750
643.651	13464
643.711	24000
643.770	44429
643.830	92839
643.889	236846
643.948	442934
644.008	77761
644.067	14804
644.126	9766
644.186	6962
644.245	5121
644.304	4668
644.363	3890
644.423	4059
644.482	3565
644.541	3567
644.600	3346
644.659	3865
644.719	5594
644.778	7437
644.837	12853
644.896	23417
644.955	52460
645.014	110750
645.073	27928
645.132	5857
645.191	5043
645.250	2837
645.309	3781
645.368	3550
645.427	5149
645.486	6099
645.545	12778
645.604	20146
645.663	5371
645.722	3074
645.781	3458
645.840	3813
645.898	5308
645.957	8152
646.016	12516
646.075	20679
646.134	41683
646.192	83467
646.251	238054
646.310	295205
646.369	33934
646.427	9559
646.486	8680
646.545	5955
646.603	4485
646.662	3439
646.721	3947
646.779	3186
646.838	2639
646.896	4195
646.955	4991
647.014	6622
647.072	12495
647.131	26250
647.189	73517
647.248	28414
647.306	4862
647.365	3495
647.423	2814
647.481	2735
647.540	2088
647.598	2296
647.657	1302
647.715	1727
647.773	2092
647.832	1851
647.890	1337
647.948	1335
648.007	1371
648.065	1511
648.123	1775
648.181	2178
648.240	2106
648.298	1497
648.356	2197
648.414	1005
648.472	1582
648.531	1621
648.589	1885
648.647	1666
648.705	2085
648.763	1597
648.821	1408
648.879	1940
648.937	2136
648.995	3107
649.053	3971
649.111	5825
649.169	10033
649.227	17427
649.285	31551
649.343	70132
649.401	200987
649.459	76521
649.516	11022
649.574	5120
649.632	5212
649.690	5305
649.748	6340
649.806	5392
649.863	8931
649.921	17140
649.979	50315
650.037	27410
650.094	4325
650.152	2301
650.210	1772
650.268	1567
650.325	1028
650.383	1189
650.440	1003
650.498	1386
650.556	711
650.613	849
650.671	1197
650.728	486
650.786	1247
650.843	1159
650.901	2086
650.958	1327
651.016	1675
651.073	476
651.131	721
651.188	548
651.246	346
651.303	1007
651.360	854
651.418	738
651.475	297
651.532	144
651.590	910
651.647	-223
651.704	383
651.762	1052
651.819	1319
651.876	456
651.933	352
651.990	947
652.048	349
652.105	374
652.162	579
652.219	1042
652.276	403
652.333	626
652.390	1437
652.448	-301
652.505	443
652.562	580
652.619	795
652.676	46
652.733	1015
652.790	918
652.847	-65
652.904	642
652.961	622
653.017	320
653.074	477
653.131	145
653.188	607
653.245	726
653.302	670
653.359	-212
653.415	1087
653.472	569
653.529	150
653.586	1109
653.642	-136
653.699	878
653.756	364
653.813	-159
653.869	443
653.926	815
653.983	1102
654.039	195
654.096	510
654.152	-33
654.209	-407
654.266	531
654.322	324
654.379	-61
654.435	920
654.492	927
654.548	412
654.605	641
654.661	1106
654.717	71
654.774	631
654.830	475
654.887	326
654.943	-8
655.000	750
655.056	1013
655.112	676
655.168	291
655.225	488
655.281	634
655.337	518
655.394	557
655.450	1117
655.506	943
655.562	554
655.618	1446
655.675	298
655.731	1031
655.787	338
655.843	859
655.899	1182
655.955	819
656.011	1745
656.067	832
656.123	2378
656.179	2233
656.235	2709
656.291	2841
656.347	2629
656.403	2605
656.459	2082
656.515	1450
656.571	1064
656.627	849
656.683	898
656.739	1317
656.795	890
656.850	767
656.906	1450
656.962	719
657.018	71
657.074	665
657.129	886
657.185	1677
657.241	2055
657.297	4826
657.352	3190
657.408	598
657.464	468
657.519	225
657.575	-21
657.630	222
657.686	488
657.742	-11
657.797	206
657.853	-59
657.908	531
657.964	-357
658.019	-50
658.075	99
658.130	44
658.186	113
658.241	425
658.297	-155
658.352	-1006
658.407	284
658.463	829
658.518	-290
658.573	394
658.629	-51
658.684	33
658.739	53
658.795	-188
658.850	100
658.905	-82
658.960	666
659.016	-133
659.071	-327
659.126	-165
659.181	263
659.236	240
659.291	608
659.346	1398
659.401	-509
659.457	353
659.512	557
659.567	876
659.622	289
659.677	-99
659.732	2
659.787	-659
659.842	-60
659.897	178
659.952	-145
660.007	-26
660.061	-61
660.116	118
660.171	-328
660.226	946
660.281	427
660.336	20
660.391	-24
660.445	854
660.500	165
660.555	168
660.610	-363
660.664	954
660.719	-209
660.774	-270
660.828	-258
660.883	-447
660.938	-372
660.992	-269
661.047	483
661.101	-839
661.156	-252
661.211	-43
661.265	-589
661.320	-534
661.374	-82
661.429	-70
661.483	-419
661.538	-99
661.592	-162
661.647	218
661.701	877
661.755	233
661.810	-275
661.864	-422
661.919	281
661.973	-22
662.027	-48
662.081	229
662.136	-810
662.190	-308
662.244	902
662.299	404
662.353	-73
662.407	117
662.461	-288
662.515	-351
662.569	-409
662.624	168
662.678	-813
662.732	656
662.786	-538
662.840	462
662.894	492
662.948	-368
663.002	85
663.056	84
663.110	-14
663.164	68
663.218	466
663.272	373
663.326	-262
663.380	625
663.434	-281
663.488	-233
663.542	253
663.595	142
663.649	54
663.703	1015
663.757	-264
663.811	-799
663.864	-612
663.918	246
663.972	448
664.026	-324
664.079	-536
664.133	-327
664.187	-83
664.240	-339
664.294	-182
664.348	-212
664.401	80
664.455	216
664.508	290
664.562	588
664.615	-394
664.669	-472
664.722	128
664.776	-266
664.829	11
664.883	423
664.936	-482
664.990	-316
665.043	575
665.097	207
665.150	-233
665.203	173
665.257	-310
665.310	422
665.363	-161
665.417	-158
665.470	483
665.523	614
665.576	445
665.630	35
665.683	576
665.736	35
665.789	276
665.842	-423
665.895	-620
665.949	557
666.002	223
666.055	20
666.108	140
666.161	156
666.214	292
666.267	490
666.320	-335
666.373	631
666.426	183
666.479	158
666.532	102
666.585	569
666.638	107
666.691	1320
666.744	-93
666.796	251
666.849	-112
666.902	371
666.955	-749
667.008	222
667.060	-357
667.113	-66
667.166	-166
667.219	317
667.271	333
667.324	456
667.377	-26
667.430	909
667.482	-123
667.535	208
667.587	-117
667.640	-94
667.693	-395
667.745	417
667.798	777
667.850	1123
667.903	50
667.955	493
668.008	-168
668.060	73
668.113	-332
668.165	1021
668.218	552
668.270	272
668.322	-170
668.375	-419
668.427	-37
668.479	-239
668.532	697
668.584	491
668.636	57
668.689	-85
668.741	-84
668.793	364
668.845	-13
668.898	665
668.950	183
669.002	207
669.054	191
669.106	543
669.158	1019
669.211	578
669.263	343
669.315	492
669.367	45
669.419	61
669.471	937
669.523	702
669.575	481
669.627	604
669.679	966
669.731	43
669.783	584
669.835	-169
669.886	91
669.938	1314
669.990	160
670.042	-122
670.094	421
670.146	933
670.197	220
670.249	1005
670.301	1026
670.353	2082
670.404	2388
670.456	4140
670.508	5291
670.560	9061
670.611	14415
670.663	24176
670.715	44410
670.766	103600
670.818	225740
670.869	100637
670.921	13778
670.972	6452
671.024	3688
671.075	3081
671.127	2339
671.178	1356
671.230	1141
671.281	1032
671.333	634
671.384	999
671.436	951
671.487	1917
671.538	2149
671.590	3261
671.641	5695
671.692	8926
671.744	15851
671.795	38618
671.846	27007
671.897	6370
671.949	2702
672.000	1840
672.051	1340
672.102	1379
672.153	231
672.204	1486
672.256	269
672.307	635
672.358	972
672.409	628
672.460	376
672.511	687
672.562	-89
672.613	330
672.664	-300
672.715	155
672.766	368
672.817	330
672.868	284
672.919	-182
672.970	173
673.021	-568
673.071	-204
673.122	336
673.173	-478
673.224	108
673.275	-631
673.326	471
673.376	-288
673.427	-569
673.478	-242
673.528	-442
673.579	-81
673.630	208
673.680	435
673.731	311
673.782	-349
673.832	87
673.883	200
673.934	81
673.984	-209
674.035	81
674.085	-263
674.136	-273
674.186	380
674.237	-64
674.287	118
674.338	111
674.388	233
674.438	552
674.489	618
674.539	-95
674.589	201
674.640	-525
674.690	10
674.740	43
674.791	275
674.841	-53
674.891	61
674.942	749
674.992	-579
675.042	-483
675.092	-402
675.142	274
675.193	308
675.243	345
675.293	-263
675.343	6
675.393	307
675.443	-144
675.493	-71
675.543	-317
675.593	-307
675.643	-109
675.693	-711
675.743	252
675.793	-5
675.843	-563
675.893	272
675.943	-88
675.993	-424
676.043	251
676.093	-150
676.142	-235
676.192	11
676.242	-440
676.292	-527
676.341	226
676.391	-97
676.441	185
676.491	146
676.540	-390
676.590	-301
676.640	-351
676.689	-147
676.739	-111
676.789	218
676.838	-172
676.888	-144
676.937	-309
676.987	-168
677.037	-212
677.086	-217
677.136	20
677.185	-418
677.235	-268
677.284	-802
677.333	-539
677.383	-818
677.432	-324
677.482	-71
677.531	-535
677.580	-470
677.630	-164
677.679	-200
677.728	174
677.778	53
677.827	-447
677.876	123
677.925	-394
677.975	-363
678.024	212
678.073	-32
678.122	763
678.171	-122
678.220	-189
678.269	220
678.319	550
678.368	-306
678.417	396
678.466	564
678.515	-205
678.564	-1082
678.613	192
678.662	-602
678.711	-196
678.760	-237
678.809	-149
678.857	-45
678.906	-374
678.955	-1009
679.004	-368
679.053	-242
679.102	484
679.151	-182
679.199	-289
679.248	-624
679.297	-982
679.346	-139
679.394	-249
679.443	-535
679.492	593
679.540	-566
679.589	324
679.638	-542
679.686	-285
679.735	409
679.784	133
679.832	-255
679.881	36
679.929	331
679.978	-1098
680.026	-530
680.075	-584
680.123	168
680.172	-232
680.220	-214
680.268	-592
680.317	-74
680.365	-845
680.414	-298
680.462	168
680.510	-679
680.559	-255
680.607	159
680.655	-640
680.703	-147
680.752	-224
680.800	-417
680.848	-834
680.896	-276
680.945	-196
680.993	140
681.041	-26
681.089	-510
681.137	24
681.185	-712
681.233	-135
681.258	-109
681.281	-89
681.329	206
681.377	-593
681.380	-605
681.425	-954
681.473	1
681.502	-374
681.521	-651
681.569	218
681.617	-453
681.624	-384
681.665	40
681.713	-108
681.745	-287
681.761	-389
681.809	-164
681.857	-303
681.867	-235
681.904	-1
681.952	-144
681.989	18
682.000	51
682.048	-259
682.096	-389
682.111	-198
682.143	201
682.191	216
682.233	-49
682.239	-91
682.286	121
682.334	-1248
682.354	-656
682.382	120
682.430	-373
682.476	-37
682.477	-35
682.525	-48
682.572	-282
682.598	-309
682.620	-340
682.667	389
682.715	-783
682.720	-669
682.763	347
682.810	-452
682.841	-218
682.857	-120
682.905	-295
682.952	541
682.963	392
683.000	-156
683.047	-518
683.085	262
683.095	484
683.142	-395
683.190	-63
683.206	43
683.237	187
683.284	290
683.328	152
683.332	140
683.379	-391
683.426	230
683.449	75
683.473	-99
683.521	254
683.568	135
683.571	168
683.615	567
683.662	-53
683.693	77
683.709	122
683.757	299
683.804	-341
683.814	-413
683.851	-626
683.898	166
683.936	206
683.945	209
683.992	748
684.039	182
684.057	332
684.086	556
684.133	535
684.179	-103
684.180	-129
684.227	-114
684.274	987
684.300	894
684.321	828
684.368	269
684.415	-40
684.422	-15
684.462	42
684.509	235
684.543	413
684.556	486
684.603	651
684.649	-117
684.665	110
684.696	563
684.743	444
684.786	332
684.790	330
684.837	343
684.883	518
684.908	367
684.930	138
684.977	866
685.023	132
685.029	192
685.070	744
685.117	514
685.150	490
685.164	453
685.210	494
685.257	408
685.272	558
685.303	892
685.350	322
685.393	517
685.396	528
685.443	552
685.490	1052
685.514	505
685.536	94
685.583	798
685.629	960
685.636	960
685.675	752
685.722	964
685.757	869
685.768	850
685.815	879
685.861	427
685.878	468
685.908	572
685.954	883
686.000	700
686.000	694
686.047	563
686.093	575
686.121	306
686.139	208
686.185	744
686.232	1032
686.242	1047
686.278	945
686.324	902
686.363	504
686.370	432
686.416	733
686.463	620
686.484	592
686.509	613
686.555	728
686.601	1026
686.606	1047
686.647	1137
686.693	432
686.727	437
686.739	477
686.785	1084
686.831	348
686.848	645
686.877	1117
686.923	1057
686.969	1096
686.969	1096
687.015	680
687.061	1109
687.090	1230
687.107	1286
687.153	1086
687.199	764
687.211	706
687.245	683
687.291	1118
687.332	971
687.336	939
687.382	1169
687.428	833
687.453	826
687.474	900
687.520	1135
687.565	1135
687.574	1117
687.611	966
687.657	817
687.695	1185
687.702	1276
687.748	1191
687.794	1376
687.816	1800
687.839	2134
687.885	1272
687.931	1649
687.937	1674
687.976	1850
688.022	1155
688.058	1504
688.067	1564
688.113	983
688.158	1359
688.179	1103
688.204	925
688.249	1141
688.295	1129
688.300	1173
688.340	1367
688.386	1254
688.421	1196
688.431	1239
688.477	1208
688.522	1379
688.542	1397
688.567	1283
688.613	1734
688.658	1131
688.663	1189
688.703	1709
688.749	1807
688.784	1286
688.794	1140
688.839	1294
688.884	1432
688.905	1401
688.930	1356
688.975	1474
689.020	1277
689.026	1315
689.065	1667
689.110	1681
689.146	1260
689.155	1138
689.201	1441
689.246	1337
689.267	1179
689.291	1120
689.336	1482
689.381	1921
689.388	1869
689.426	1377
689.471	1550
689.509	1315
689.516	1319
689.561	1849
689.606	1043
689.630	1447
689.651	1680
689.696	1161
689.741	1197
689.750	1137
689.785	1202
689.830	1519
689.871	2096
689.875	2123
689.920	1853
689.965	1386
689.992	1211
690.010	1160
690.054	1385
690.099	1379
690.112	1394
690.144	1437
690.189	1304
690.233	1437
690.233	1441
690.278	1093
690.323	1576
690.354	1339
690.367	1244
690.412	1564
690.457	1577
690.474	1638
690.501	1732
690.546	1973
690.590	1685
690.595	1702
690.635	1771
690.680	2076
690.716	1644
690.724	1561
690.769	1666
690.813	1895
690.836	1817
690.857	1841
690.902	1920
690.946	2279
690.957	2217
690.991	1971
691.035	2370
691.077	2835
691.080	2922
691.124	4653
691.168	5328
691.198	5788
691.213	5506
691.257	5028
691.301	4939
691.318	4796
691.346	4324
691.390	3309
691.434	2355
691.439	2267
691.478	2327
691.522	2283
691.559	2418
691.567	2438
691.611	2262
691.655	2006
691.680	2021
691.699	2032
691.743	1737
691.787	1665
691.800	1558
691.831	1451
691.875	1960
691.919	1904
691.921	1894
691.964	1660
692.008	1737
692.041	1847
692.052	1910
692.096	1832
692.139	2334
692.162	2298
692.183	2147
692.227	2146
692.271	1883
692.282	1821
692.315	1747
692.359	1651
692.402	1888
692.403	1895
692.447	1810
692.490	1990
692.523	2335
692.534	2438
692.578	2191
692.622	2111
692.643	2069
692.666	1988
692.709	2094
692.753	1890
692.763	1888
692.797	1964
692.840	1805
692.884	1916
692.884	1924
692.928	2071
692.971	2157
693.004	2272
693.015	2302
693.059	2379
693.102	2370
693.124	2342
693.146	2208
693.189	2170
693.233	2012
693.245	1935
693.276	1919
693.320	1990
693.363	1880
693.365	1875
693.407	1984
693.450	2220
693.485	2467
693.493	2548
693.537	2576
693.580	2719
693.605	2767
693.624	2764
693.667	2917
693.710	2882
693.725	2937
693.753	3369
693.797	3843
693.840	4858
693.845	4960
693.883	7371
693.926	9846
693.966	11518
693.970	11463
694.013	11001
694.056	10599
694.086	10340
694.099	9596
694.142	7219
694.185	5034
694.206	3717
694.229	3475
694.272	3559
694.315	3371
694.326	3291
694.358	3017
694.401	2800
694.444	2631
694.446	2608
694.487	2546
694.530	2631
694.566	2635
694.573	2646
694.616	2505
694.659	2588
694.686	2532
694.702	2473
694.745	2296
694.787	2154
694.806	2149
694.830	2248
694.873	2164
694.916	2193
694.926	2152
694.959	2090
695.002	2357
695.044	2330
695.046	2325
695.087	2450
695.130	2522
695.166	2659
695.172	2650
695.215	2578
695.258	2313
695.286	2214
695.301	2280
695.343	2483
695.386	2672
695.406	2610
695.428	2398
695.471	2380
695.514	2183
695.526	2175
695.556	2383
695.599	2189
695.641	2569
695.646	2575
695.684	2626
695.726	2634
695.766	2664
695.769	2665
695.811	2643
695.854	2571
695.886	2410
695.896	2424
695.938	2606
695.981	2712
696.005	2824
696.023	2873
696.065	2763
696.108	2777
696.125	2851
696.150	2971
696.192	2926
696.235	2871
696.245	2888
696.277	2999
696.319	3027
696.361	2975
696.365	2973
696.404	3110
696.446	3249
696.485	3281
696.488	3280
696.530	3116
696.572	3022
696.604	2925
696.614	2988
696.656	3282
696.698	3545
696.724	3641
696.740	3556
696.783	3346
696.825	3249
696.844	3162
696.867	3146
696.909	3026
696.951	2935
696.964	2928
696.992	2985
697.034	2956
697.076	2922
697.083	2912
697.118	3082
697.160	3291
697.202	3467
697.203	3462
697.244	3474
697.286	3446
697.323	3445
697.327	3453
697.369	3506
697.411	3453
697.442	3400
697.453	3403
697.494	3382
697.536	3395
697.562	3369
697.578	3482
697.620	3797
697.661	4018
697.682	4152
697.703	4097
697.744	3975
697.786	3797
697.801	3767
697.828	3970
697.869	4113
697.911	4350
697.921	4366
697.952	4241
697.994	4208
698.035	4062
698.040	4039
698.077	3828
698.118	3575
698.160	3300
698.160	3288
698.201	3556
698.243	3849
698.279	4089
698.284	4098
698.325	4099
698.367	4027
698.399	4020
698.408	4072
698.449	4204
698.491	4382
698.518	4476
698.532	4512
698.573	4593
698.614	4657
698.638	4687
698.656	4530
698.697	4121
698.738	3725
698.757	3523
698.779	3448
698.820	3286
698.862	3128
698.877	3065
698.903	3491
698.944	4144
698.985	4803
698.996	4973
699.026	4632
699.067	4142
699.116	3549
699.235	4103
699.354	3687
699.474	4489
699.593	3348
699.713	3735
699.832	3643
699.951	4255
700.070	4878
700.190	4741
700.309	4489
700.428	4264
700.547	4279
700.667	4804
700.786	3855
700.905	4514
701.024	3398
701.143	3242
701.262	3516
701.381	4370
701.500	3814
701.619	3292
701.738	3926
701.857	2955
701.976	3729
702.095	3897
702.214	3256
702.333	3547
702.452	3813
702.571	3472
702.690	3704
702.809	3223
702.928	3877
703.047	3181
703.165	3315
703.284	2808
703.403	3596
703.522	3998
703.640	3371
703.759	4276
703.878	3831
703.997	3359
704.115	3125
704.234	4049
704.353	2925
704.471	2514
704.590	3542
704.708	3254
704.827	4022
704.946	2659
705.064	3043
705.183	3377
705.301	2626
705.420	3075
705.538	3428
705.656	3640
705.775	3159
705.893	2554
706.012	4510
706.130	4824
706.249	3444
706.367	3755
706.485	3508
706.604	2839
706.722	2632
706.840	2753
706.958	3905
707.077	4386
707.195	3684
707.313	2396
707.431	2833
707.549	2430
707.668	3012
707.786	2966
707.904	2660
708.022	2751
708.140	2634
708.258	3019
708.376	3081
708.494	2573
708.612	2649
708.730	3522
708.848	2483
708.966	2992
709.084	2975
709.202	3582
709.320	3412
709.438	3174
709.556	3371
709.674	3049
709.791	3286
709.909	3312
710.027	3416
710.145	3069
710.263	2555
710.380	2616
710.498	2779
710.616	2936
710.733	3135
710.851	2702
710.969	2391
711.086	2882
711.204	2665
711.322	2416
711.439	3347
711.557	2324
711.674	2778
711.792	2122
711.909	2907
712.027	2686
712.144	3408
712.262	2670
712.379	2451
712.497	2696
712.614	2916
712.732	3106
712.849	2976
712.966	2651
713.084	3087
713.201	2842
713.318	3268
713.436	2676
713.553	3284
713.670	3072
713.787	3332
713.905	3558
714.022	3492
714.139	2538
714.256	3193
714.373	3924
714.490	6820
714.608	12865
714.725	32673
714.842	159576
714.959	258566
715.076	18509
715.193	5685
715.310	4630
715.427	4063
715.544	2688
715.661	3576
715.778	3185
715.895	2840
716.011	3178
716.128	3403
716.245	2885
716.362	3173
716.479	2729
716.596	3219
716.713	3217
716.829	3488
716.946	2471
717.063	2209
717.180	2183
717.296	2500
717.413	2077
717.530	3060
717.646	2093
717.763	2540
717.880	1759
717.996	2463
718.113	2054
718.229	2429
718.346	1781
718.462	2345
718.579	2643
718.695	2395
718.812	4020
718.928	2868
719.045	2573
719.161	2131
719.277	1777
719.394	2838
719.510	2429
719.626	2125
719.743	2598
719.859	3400
719.975	4903
720.092	10548
720.208	42192
720.324	136318
720.440	22134
720.557	3577
720.673	3211
720.789	3777
720.905	3731
721.021	4166
721.137	2815
721.253	2651
721.369	2162
721.486	2492
721.602	1673
721.718	2460
721.834	1372
721.950	1594
722.066	1615
722.181	1565
722.297	2091
722.413	1960
722.529	1243
722.645	1555
722.761	2145
722.877	1674
722.993	2035
723.108	1760
723.224	2404
723.340	1890
723.456	1851
723.571	2520
723.687	1393
723.803	1809
723.918	679
724.034	1084
724.150	1321
724.265	1641
724.381	1155
724.497	2070
724.612	1932
724.728	1514
724.843	1938
724.959	1400
725.074	1775
725.190	2771
725.305	2410
725.421	1140
725.536	1383
725.651	618
725.767	1367
725.882	1292
725.997	-40
726.113	1185
726.228	1412
726.343	1067
726.459	950
726.574	1228
726.689	1187
726.804	1045
726.920	806
727.035	1908
727.150	776
727.265	1894
727.380	1473
727.495	1637
727.610	1726
727.725	2436
727.841	1417
727.956	954
728.071	1493
728.186	2207
728.301	1418
728.416	1380
728.531	1727
728.645	1927
728.760	1471
728.875	1720
728.990	2224
729.105	2425
729.220	2695
729.335	1806
729.449	1317
729.564	1708
729.679	784
729.794	1261
729.908	818
730.023	1172
730.138	1763
730.253	1102
730.367	2615
730.482	1681
730.596	1262
730.711	1733
730.826	907
730.940	1580
731.055	1081
731.169	2064
731.284	730
731.398	594
731.513	1762
731.627	1509
731.742	1482
731.856	2215
731.970	1859
732.085	2390
732.199	2163
732.313	3861
732.428	6003
732.542	15381
732.656	61235
732.771	60371
732.885	6450
732.999	3365
733.113	2669
733.227	2715
733.342	2081
733.456	2071
733.570	2329
733.684	1488
733.798	1551
733.912	1412
734.026	1941
734.140	1518
734.254	1785
734.368	2616
734.482	1901
734.596	3019
734.710	2251
734.824	1445
734.938	2506
735.052	1507
735.166	1955
735.280	2129
735.393	2522
735.507	943
735.621	1883
735.735	1946
735.849	2837
735.962	2421
736.076	2079
736.190	2412
736.303	2073
736.417	2550
736.531	1800
736.644	1944
736.758	1724
736.872	1940
736.985	1442
737.099	1401
737.212	1270
737.326	1823
737.439	642
737.553	1797
737.666	2041
737.780	1348
737.893	1042
738.007	1885
738.120	1437
738.233	1627
738.347	1533
738.460	1245
738.573	1272
738.687	1758
738.800	1081
738.913	1192
739.026	1507
739.140	1754
739.253	1055
739.366	1165
739.479	951
739.592	1032
739.705	1295
739.818	2096
739.932	1698
740.045	1128
740.158	879
740.271	2297
740.384	1556
740.497	2075
740.610	998
740.723	2412
740.836	1857
740.949	2415
741.062	1908
741.174	1620
741.287	1785
741.400	1443
741.513	1278
741.626	1708
741.739	2350
741.851	1605
741.964	1590
742.077	884
742.189	339
742.302	1622
742.415	1971
742.527	2738
742.640	1218
742.753	1698
742.865	1169
742.978	1061
743.090	1156
743.203	877
743.316	1305
743.428	726
743.541	705
743.653	716
743.766	897
743.878	1186
743.990	599
744.103	872
744.215	888
744.327	2134
744.440	1607
744.552	1793
744.664	1307
744.777	1471
744.889	738
745.001	1382
745.113	907
745.226	294
745.338	1568
745.450	716
745.562	1063
745.674	1873
745.786	1281
745.898	1265
746.010	1447
746.122	1620
746.234	1084
746.347	1724
746.459	850
746.570	1572
746.682	559
746.794	1926
746.906	2688
747.018	1000
747.130	1588
747.242	1235
747.354	484
747.466	798
747.577	673
747.689	1599
747.801	671
747.913	502
748.024	552
748.136	142
748.248	1112
748.359	815
748.471	709
748.583	162
748.694	914
748.806	858
748.918	1145
749.029	1329
749.141	286
749.252	1173
749.364	441
749.475	1094
749.587	1269
749.698	1328
749.809	517
749.921	455
750.032	1399
750.144	704
750.255	520
750.366	308
750.478	596
750.589	378
750.700	111
750.811	316
750.923	672
751.034	703
751.145	2506
751.256	1382
751.367	926
751.479	78
751.590	631
751.701	813
751.812	173
751.923	161
752.034	281
752.145	1192
752.256	190
752.367	379
752.478	386
752.589	770
752.700	818
752.811	1012
752.922	-207
753.032	177
753.143	1684
753.254	703
753.365	375
753.476	-9
753.586	397
753.697	919
753.808	616
753.919	97
754.029	-24
754.140	822
754.251	170
754.361	419
754.472	841
754.582	290
754.693	392
754.804	1175
754.914	109
755.025	647
755.135	18
755.246	385
755.356	1348
755.466	594
755.577	723
755.687	149
755.798	167
755.908	942
756.018	-143
756.129	783
756.239	240
756.349	147
756.460	-138
756.570	369
756.680	936
756.790	932
756.900	558
757.011	-1
757.121	-28
757.231	981
757.341	498
757.451	100
757.561	336
757.671	1303
757.781	174
757.891	499
758.001	71
758.111	756
758.221	580
758.331	608
758.441	-347
758.551	909
758.661	1123
758.771	777
758.880	562
758.990	654
759.100	820
759.210	349
759.320	262
759.429	792
759.539	407
759.649	1018
759.758	998
759.868	1419
759.978	298
760.087	1142
760.197	883
760.307	1030
760.416	1303
760.526	513
760.635	892
760.745	86
760.854	1472
760.964	1128
761.073	644
761.182	2451
761.292	1608
761.401	756
761.511	1116
761.620	1120
761.729	931
761.839	991
761.948	1229
762.057	1099
762.166	599
762.276	615
762.385	605
762.494	737
762.603	755
762.712	1631
762.822	1426
762.931	1163
763.040	649
763.149	1466
763.258	734
763.367	865
763.476	851
763.585	722
763.694	1385
763.803	1763
763.912	478
764.021	1599
764.130	1724
764.238	1566
764.347	1128
764.456	1077
764.565	987
764.674	1039
764.783	1859
764.891	1643
765.000	2469
765.109	2121
765.217	2596
765.326	3065
765.435	3025
765.543	3641
765.652	5228
765.761	5385
765.869	7918
765.978	11615
766.086	17361
766.195	29009
766.303	56955
766.412	129109
766.520	300678
766.629	314131
766.737	133230
766.846	51246
766.954	26870
767.062	17794
767.171	12239
767.279	9787
767.387	6859
767.496	4807
767.604	4622
767.712	3917
767.820	3785
767.928	3586
768.037	3326
768.145	3435
768.253	3540
768.361	2788
768.469	3553
768.577	2808
768.685	2399
768.793	2481
768.901	2412
769.009	3217
769.117	3272
769.225	3871
769.333	5108
769.441	7353
769.549	11140
769.657	21856
769.765	47536
769.873	133287
769.981	280994
770.088	156437
770.196	42715
770.304	18203
770.412	11052
770.519	7983
770.627	5939
770.735	4785
770.842	3311
770.950	3157
771.058	2914
771.165	3133
771.273	2503
771.380	2569
771.488	2126
771.595	2216
771.703	2488
771.810	2540
771.918	2214
772.025	1741
772.133	1100
772.240	1942
772.348	2253
772.455	2422
772.562	1945
772.670	1590
772.777	1040
772.884	1211
772.991	1293
773.099	1454
773.206	1083
773.313	1543
773.420	1880
773.528	857
773.635	1145
773.742	2090
773.849	1604
773.956	1508
774.063	632
774.170	401
774.277	1007
774.384	1326
774.491	1483
774.598	1565
774.705	1181
774.812	509
774.919	1432
775.026	1616
775.133	1627
775.239	1053
775.346	1046
775.453	529
775.560	655
775.667	1283
775.773	1017
775.880	931
775.987	1325
776.093	1197
776.200	658
776.307	884
776.413	1377
776.520	1000
776.627	1304
776.733	585
776.840	629
776.946	893
777.053	550
777.159	1161
777.266	3822
777.372	2872
777.478	3067
777.585	3092
777.691	2003
777.798	1199
777.904	841
778.010	596
778.117	655
778.223	1125
778.329	539
778.435	751
778.542	900
778.648	32
778.754	613
778.860	783
778.966	393
779.072	747
779.178	688
779.284	416
779.391	-50
779.497	1263
779.603	1082
779.708	255
779.815	1675
779.920	1369
780.026	7306
780.132	18475
780.238	4102
780.344	1092
780.450	585
780.556	301
780.661	570
780.767	303
780.873	636
780.979	-144
781.085	427
781.190	912
781.296	560
781.402	673
781.507	86
781.613	1212
781.719	-202
781.824	948
781.930	435
782.035	-302
782.141	-93
782.246	1082
782.352	202
782.457	137
782.563	392
782.668	-331
782.773	93
782.879	78
782.984	703
783.090	-111
783.195	206
783.300	659
783.405	441
783.511	155
783.616	-307
783.721	-33
783.826	105
783.932	843
784.037	238
784.142	-123
784.247	-354
784.352	191
784.457	-56
784.562	358
784.667	203
784.772	295
784.877	473
784.982	430
785.087	-77
785.192	1327
785.297	-575
785.402	69
785.507	161
785.611	455
785.716	69
785.821	-136
785.926	-611
786.031	719
786.135	-627
786.240	93
786.345	-512
786.450	-609
786.554	72
786.659	-418
786.763	-402
786.868	-13
786.973	305
787.077	-30
787.182	122
787.286	-784
787.391	-531
787.495	253
787.600	-432
787.704	-287
787.809	-237
787.913	153
788.017	-475
788.122	448
788.226	-85
788.330	-199
788.435	-90
788.539	-447
788.643	-242
788.747	-285
788.852	-450
788.956	301
789.060	-224
789.164	258
789.268	-210
789.372	-99
789.476	-342
789.580	-220
789.684	-28
789.788	-798
789.892	-777
789.996	-69
790.100	83
790.204	-692
790.308	-25
790.412	528
790.516	-287
790.620	-241
790.724	685
790.828	79
790.931	460
791.035	-208
791.139	-126
791.242	-626
791.346	728
791.450	-443
791.554	-722
791.657	-122
791.761	-17
791.864	17
791.968	-384
792.072	347
792.175	-142
792.279	-260
792.382	22
792.486	94
792.589	125
792.693	518
792.796	-482
792.899	89
793.003	146
793.106	-217
793.209	530
793.313	-24
793.416	262
793.519	-695
793.623	473
793.726	494
793.829	457
793.932	-233
794.035	-367
794.138	124
794.242	273
794.345	363
794.448	582
794.551	-85
794.654	976
794.757	3271
794.860	8836
794.963	2293
795.066	-291
795.169	425
795.272	-353
795.375	18
795.477	184
795.580	-703
795.683	-178
795.786	-238
795.889	-246
795.991	389
796.094	-47
796.197	-627
796.300	-402
796.402	-380
796.505	-227
796.608	-337
796.710	-587
796.813	-645
796.915	122
797.018	-212
797.120	-424
797.223	-292
797.326	-389
797.428	330
797.530	-1297
797.633	-178
797.735	260
797.838	-187
797.940	141
798.042	589
798.145	-490
798.247	-976
798.349	162
798.452	-560
798.554	-656
798.656	-376
798.758	-93
798.860	364
798.962	146
799.065	-209
799.167	-984
799.269	-208
799.371	-572
799.473	-247
799.575	-496
799.677	253
799.779	-520
799.881	-582
799.983	785
800.085	-209
800.187	-278
800.289	-530
800.390	-436
800.492	-398
800.594	-178
800.696	-375
800.798	-499
800.899	-83
801.001	22
801.103	-363
801.205	-175
801.306	-43
801.408	-931
801.509	-525
801.611	-52
801.713	-534
801.814	369
801.916	-272
802.017	-706
802.119	-381
802.220	-609
802.322	-886
802.423	81
802.525	-718
802.626	-972
802.727	-785
802.829	-427
802.930	-1040
803.031	-304
803.133	-856
803.234	-574
803.335	57
803.436	-643
803.538	-490
803.639	-97
803.740	-283
803.841	-812
803.942	-996
804.043	-273
804.144	-497
804.245	-697
804.346	-729
804.447	-402
804.548	-993
804.649	83
804.750	-290
804.851	-673
804.952	77
805.053	-422
805.154	-645
805.255	-350
805.355	-350
805.456	-987
805.557	-298
805.658	-1074
805.758	-259
805.859	-925
805.960	-787
806.061	-559
806.161	-272
806.262	-303
806.362	-532
806.463	-1100
806.564	-347
806.664	-950
806.765	-7
806.865	-331
806.966	-657
807.066	-1061
807.166	-243
807.267	-859
807.367	-401
807.468	-472
807.568	-735
807.668	107
807.769	-227
807.869	-853
807.969	-737
808.069	-794
808.170	-844
808.270	-343
808.370	158
808.470	-1023
808.570	-550
808.670	-1265
808.770	-1117
808.870	-369
808.970	-530
809.070	-941
809.170	-788
809.271	-1331
809.370	-347
809.470	-687
809.570	-437
809.670	-1152
809.770	-783
809.870	-615
809.970	-596
810.070	-749
810.169	-947
810.269	-1390
810.369	-252
810.469	-255
810.568	-879
810.668	-1358
810.768	-1244
810.867	-868
810.967	-1055
811.066	-1230
811.166	-764
811.265	-7
811.365	-708
811.464	-1064
811.564	-839
811.663	-708
811.763	-1247
811.862	-1446
811.962	-701
812.061	-1377
812.160	-607
812.260	-321
812.359	-1519
812.458	-783
812.557	-600
812.657	253
812.756	-196
812.855	-659
812.954	-56
813.053	-1138
813.153	-678
813.252	-443
813.351	-619
813.450	-505
813.549	-1251
813.648	-1237
813.747	-719
813.846	-887
813.945	-38
814.044	-374
814.143	-440
814.242	-677
814.341	-1514
814.439	-15
814.538	-407
814.637	-1355
814.736	-466
814.835	-917
814.933	-832
815.032	-446
815.131	-308
815.229	-1201
815.328	-228
815.427	826
815.525	-52
815.624	86
815.722	527
815.821	-119
815.919	-19
816.018	-495
816.116	20
816.215	-410
816.313	128
816.412	-228
816.510	-63
816.609	-128
816.707	41
816.805	-46
816.904	78
817.002	437
817.100	122
817.198	665
817.296	1454
817.395	436
817.493	667
817.591	-11
817.689	360
817.787	-257
817.885	26
817.983	608
818.081	958
818.179	1413
818.277	3402
818.375	10260
818.473	12796
818.571	1879
818.669	1232
818.767	915
818.865	906
818.963	756
819.061	-279
819.158	317
819.256	1247
819.354	2668
819.452	8062
819.549	23643
819.647	20417
819.745	2978
819.842	567
819.940	-301
820.038	-436
820.135	383
820.233	692
820.330	-814
820.428	431
820.525	575
820.623	168
820.720	16
820.818	105
820.915	306
821.012	310
821.110	-431
821.207	349
821.304	452
821.402	-820
821.499	240
821.596	784
821.693	1433
821.791	858
821.888	-367
821.985	65
822.082	599
822.179	1141
822.276	333
822.373	168
822.470	-61
822.567	289
822.664	382
822.761	-431
822.858	-720
822.955	157
823.052	157
823.149	-609
823.246	-475
823.343	754
823.440	-123
823.536	0
823.633	-1280
823.730	-261
823.827	-256
823.923	9
824.020	-98
824.117	-751
824.213	316
824.310	549
824.407	-17
824.503	-634
824.600	-425
824.696	133
824.793	-135
824.889	503
824.986	-152
825.082	152
825.179	-87
825.275	-366
825.371	-499
825.468	320
825.564	129
825.660	-358
825.757	55
825.853	965
825.949	-495
826.045	-438
826.142	-778
826.238	-330
826.334	-826
826.430	-354
826.526	-517
826.622	-727
826.718	-429
826.814	295
826.910	-128
827.006	407
827.102	-1694
827.198	-386
827.294	45
827.390	-433
827.486	944
827.582	-888
827.678	-824
827.774	-446
827.869	-1134
827.965	-153
828.061	-840
828.157	-1416
828.252	86
828.348	-382
828.444	-399
828.539	-803
828.635	-536
828.731	-344
828.826	-248
828.922	225
829.017	108
829.113	335
829.208	-184
829.304	-1183
829.399	207
829.495	-408
829.590	-653
829.685	-884
829.781	-48
829.876	-737
829.971	-411
830.066	-786
830.162	-1169
830.257	-815
830.352	-254
830.447	-99
830.543	-248
830.638	-640
830.733	-367
830.828	-450
830.923	-724
831.018	-666
831.113	-681
831.208	-878
831.303	-904
831.398	-606
831.493	-1191
831.588	-713
831.683	-781
831.778	-756
831.873	-433
831.967	-1015
832.062	384
832.157	-469
832.252	-103
832.346	-1103
832.441	39
832.536	-63
832.631	-144
832.725	-481
832.820	-579
832.914	-733
833.009	-449
833.104	-968
833.198	-474
833.293	-423
833.387	-933
833.482	-910
833.576	-992
833.670	-140
833.765	-256
833.859	-572
833.954	-617
834.048	-893
834.142	-1157
834.237	-659
834.331	-609
834.425	-664
834.519	-779
834.613	-223
834.708	-436
834.802	-1055
834.896	-695
834.990	-520
835.084	-975
835.178	-464
835.272	-546
835.366	-1433
835.460	-274
835.554	-1225
835.648	-802
835.742	-574
835.836	-1115
835.930	-839
836.024	-820
836.117	-1018
836.211	-618
836.305	-463
836.399	-497
836.493	-1906
836.586	-461
836.680	-1061
836.774	-277
836.867	-847
836.961	-1695
837.055	-757
837.148	-1139
837.242	-972
837.335	-419
837.429	-1459
837.522	-965
837.616	-384
837.709	-1060
837.803	-883
837.896	-685
837.989	-960
838.083	-283
838.176	-192
838.269	-396
838.363	-390
838.456	-1112
838.549	-705
838.642	-1567
838.735	-321
838.829	-316
838.922	-729
839.015	-809
839.108	-415
839.201	-827
839.294	-136
839.387	-713
839.480	-1483
839.573	-1308
839.666	-1190
839.759	-1006
839.852	-677
839.945	-386
840.038	-1205
840.131	-1495
840.223	-826
840.316	-1489
840.409	-608
840.502	-1365
840.594	-360
840.687	-1102
840.780	-456
840.873	-1082
840.965	-1509
841.058	-757
841.150	-366
841.243	-401
841.336	-630
841.428	-381
841.521	-937
841.613	-675
841.706	-854
841.798	-1192
841.890	-554
841.983	-1233
842.075	-242
842.167	-737
842.260	-769
842.352	-713
842.444	-1146
842.537	-16
842.629	-350
842.721	-641
842.813	-410
842.905	-1639
842.997	-380
843.090	-412
843.182	-577
843.274	-1475
843.366	-1012
843.458	-414
843.550	-167
843.642	-388
843.734	-334
843.826	-910
843.918	-1082
844.009	-1138
844.101	-751
844.193	-1028
844.285	-677
844.377	-1008
844.469	-180
844.560	-468
844.652	-176
844.744	-598
844.835	-381
844.927	-272
845.019	-914
845.110	-477
845.202	-1447
845.293	-558
845.385	-995
845.476	-1352
845.568	-301
845.659	-725
845.751	-805
845.842	-1022
845.934	-897
846.025	-867
846.116	-288
846.208	-279
846.299	-1114
846.390	-760
846.482	-935
846.573	-708
846.664	-731
846.755	-1293
846.846	-884
846.937	-779
847.029	-533
847.120	-923
847.211	-584
847.302	-985
847.393	-227
847.484	-580
847.575	-698
847.666	-1091
847.757	-1046
847.847	-1024
847.938	-477
848.029	-1289
848.120	-197
848.211	-1175
848.302	-972
848.392	-1117
848.483	-1205
848.574	-179
848.664	-410
848.755	-945
848.846	-759
848.936	-1429
849.027	-923
849.118	-1362
849.208	-748
849.299	327
849.389	-427
849.480	671
849.570	2994
849.661	7257
849.751	13207
849.841	30183
849.932	16597
850.022	992
850.112	-728
850.203	-1253
850.293	-270
850.383	-667
850.474	-473
850.564	-1184
850.654	-676
850.744	-723
850.834	-871
850.924	-686
851.014	-1015
851.104	-780
851.194	-714
851.284	-675
851.374	-266
851.464	-160
851.554	-962
851.644	-903
851.734	-881
851.824	-920
851.914	-781
852.004	-870
852.094	-996
852.183	-667
852.273	-1339
852.363	-554
852.452	-1133
852.542	-507
852.632	-1470
852.721	-1009
852.811	-690
852.901	-1309
852.990	-767
853.080	-926
853.169	-883
853.259	-639
853.348	-391
853.438	-753
853.527	-332
853.617	218
853.706	1288
853.795	3037
853.885	7561
853.974	19192
854.063	42853
854.152	70055
854.242	142514
854.331	77273
854.420	10451
854.509	2183
854.598	1313
854.687	137
854.777	970
854.866	-156
854.955	557
855.044	-339
855.133	-1083
855.222	-905
855.311	-708
855.400	-1021
855.488	-880
855.577	-226
855.666	-288
855.755	-962
855.844	-330
855.933	-517
856.021	287
856.110	-1119
856.199	-1139
856.288	-1305
856.376	-1565
856.465	-630
856.554	-1395
856.642	-1229
856.731	-1598
856.819	-444
856.908	-795
856.996	-970
857.085	-606
857.173	-1309
857.262	-1072
857.350	-913
857.438	-1226
857.527	-1167
857.615	-434
857.703	-947
857.792	-1979
857.880	-1622
857.968	-1294
858.056	-1194
858.145	-1427
858.233	-1201
858.321	-1037
858.409	-890
858.497	-963
858.585	-1561
858.673	-555
858.761	-1696
858.849	-1053
858.937	-1101
859.025	-785
859.113	-1297
859.201	-1395
859.289	-280
859.377	-890
859.465	-820
859.552	-946
859.640	-466
859.728	-1417
859.816	-1305
859.903	-888
859.991	-1396
860.079	-552
860.166	-1342
860.254	-1422
860.342	-406
860.429	-1683
860.517	-1597
860.604	-994
860.692	-830
860.779	-1403
860.867	-1193
860.954	-990
861.042	-917
861.129	-983
861.216	-394
861.304	-1030
861.391	-928
861.478	-713
861.565	-1031
861.653	-398
861.740	-1038
861.827	-1201
861.914	-844
862.001	-1352
862.089	-973
862.176	-931
862.263	-1039
862.350	-576
862.437	-1140
862.524	-1569
862.611	-1396
862.698	-579
862.785	-918
862.871	-1081
862.958	-873
863.045	-899
863.132	-1039
863.219	-848
863.306	-1716
863.392	-1100
863.479	-708
863.566	-791
863.652	-488
863.739	-815
863.826	-717
863.912	-1627
863.999	-1229
864.086	-1000
864.172	-874
864.259	-486
864.345	-452
864.432	-699
864.518	-1291
864.604	-820
864.691	-1302
864.777	-1020
864.863	-615
864.950	20
865.036	101
865.122	134
865.209	378
865.295	970
865.381	-265
865.467	660
865.553	847
865.639	874
865.726	1653
865.812	4774
865.898	9133
865.984	22180
866.070	34182
866.156	57628
866.242	91697
866.328	33392
866.414	4906
866.499	1847
866.585	1134
866.671	1416
866.757	1306
866.843	801
866.928	-472
867.014	22
867.100	83
867.186	608
867.271	352
867.357	215
867.442	226
867.528	122
867.614	542
867.699	-468
867.785	646
867.870	678
867.956	611
868.041	1008
868.127	622
868.212	113
868.297	123
868.383	669
868.468	433
868.553	1025
868.639	386
868.724	634
868.809	1315
868.894	1315
868.979	763
869.065	-79
869.150	157
869.235	-875
869.320	-145
869.405	245
869.490	-284
869.575	213
869.660	-589
869.745	-847
869.830	-610
869.915	185
870.000	-509
870.085	-301
870.169	-812
870.254	-114
870.339	-647
870.424	-467
870.509	-564
870.593	-210
870.678	-45
870.763	-308
870.847	70
870.932	-399
871.016	-413
871.101	83
871.186	-295
871.270	-111
871.355	-360
871.439	-773
871.523	-585
871.608	-30
871.692	-256
871.777	-597
871.861	-153
871.945	-338
872.030	-236
872.114	-198
872.198	-717
872.282	-428
872.367	-1229
872.451	-796
872.535	-637
872.619	115
872.703	-27
872.787	245
872.871	-780
872.955	-418
873.039	-365
873.123	-581
873.207	10
873.291	455
873.375	-1165
873.459	-385
873.543	-638
873.627	-427
873.711	-934
873.794	-457
873.878	-546
873.962	-622
874.045	-746
874.129	-75
874.137	-94
874.213	-282
874.245	-226
874.296	-141
874.352	-400
874.380	-526
874.460	-569
874.464	-571
874.547	-551
874.568	-458
874.631	-191
874.676	-333
874.714	-452
874.784	-297
874.798	-270
874.881	67
874.892	31
874.965	-206
874.999	-264
875.048	-334
875.107	-245
875.131	-213
875.215	-104
875.215	-104
875.298	-482
875.323	-473
875.381	-450
875.430	-364
875.465	-296
875.538	-376
875.548	-395
875.631	-376
875.646	-419
875.714	-589
875.753	-687
875.798	-788
875.861	-428
875.881	-337
875.964	81
875.968	44
876.047	-515
876.076	-481
876.130	-401
876.183	-338
876.213	-342
876.291	-34
876.296	-6
876.379	-563
876.398	-363
876.462	233
876.506	-29
876.545	-239
876.613	-460
876.628	-520
876.711	-86
876.721	-107
876.794	-156
876.828	59
876.877	237
876.935	-22
876.960	-64
877.043	-289
877.043	-290
877.125	-509
877.150	-257
877.208	408
877.258	263
877.291	30
877.365	84
877.374	118
877.456	-353
877.472	-295
877.539	-36
877.579	-45
877.622	-194
877.687	-203
877.704	-151
877.787	-195
877.794	-193
877.869	-104
877.901	-6
877.952	92
878.008	30
878.034	-32
878.115	299
878.117	308
878.199	-608
878.222	-676
878.282	-829
878.329	-618
878.364	-395
878.437	-154
878.447	-149
878.529	-339
878.544	-336
878.611	-134
878.651	-150
878.694	-291
878.758	-88
878.776	48
878.858	243
878.865	260
878.941	219
878.972	137
879.023	0
879.078	-279
879.105	-291
879.185	335
879.187	343
879.269	452
879.292	292
879.351	49
879.399	291
879.433	316
879.506	151
879.516	157
879.598	-145
879.613	-179
879.680	-161
879.720	83
879.762	316
879.827	112
879.844	34
879.926	-219
879.933	-154
880.007	277
880.040	-162
880.089	-695
880.147	-368
880.171	-165
880.253	-14
880.254	-16
880.335	-19
880.360	72
880.417	378
880.467	758
880.499	1192
880.574	2202
880.580	2224
880.662	2343
880.680	2135
880.744	1082
880.787	484
880.825	124
880.893	37
880.907	98
880.989	712
881.000	687
881.070	357
881.106	200
881.152	-24
881.213	35
881.233	-0
881.315	-480
881.319	-513
881.396	-301
881.426	-170
881.478	-169
881.532	239
881.559	468
881.639	643
881.641	648
881.722	256
881.745	143
881.803	-243
881.852	-154
881.885	176
881.958	715
881.966	729
882.047	372
882.064	412
882.129	413
882.171	320
882.210	449
882.277	585
882.291	672
882.372	1256
882.383	1253
882.454	715
882.489	573
882.535	379
882.596	164
882.616	132
882.697	88
882.702	94
882.778	367
882.808	236
882.859	211
882.914	670
882.940	672
883.020	263
883.021	268
883.102	338
883.127	438
883.183	680
883.233	739
883.264	590
883.339	266
883.345	257
883.426	264
883.445	162
883.507	-191
883.551	-170
883.587	155
883.657	656
883.668	735
883.749	1010
883.763	1087
883.830	979
883.869	756
883.910	302
883.975	55
883.991	170
884.072	219
884.081	246
884.152	592
884.187	616
884.233	647
884.292	1195
884.314	1241
884.394	477
884.398	453
884.475	231
884.504	134
884.555	-103
884.610	-97
884.636	10
884.716	-274
884.716	-268
884.797	443
884.821	709
884.877	825
884.927	805
884.958	771
885.033	667
885.038	660
885.118	331
885.139	282
885.199	341
885.244	457
885.279	585
885.350	698
885.359	744
885.439	1110
885.456	1166
885.520	880
885.561	755
885.600	752
885.667	528
885.680	558
885.760	833
885.773	872
885.840	685
885.878	611
885.920	438
885.984	30
886.000	179
886.080	1145
886.089	1198
886.160	679
886.195	602
886.240	936
886.300	1125
886.320	1097
886.400	1115
886.406	1110
886.480	1105
886.511	1051
886.560	807
886.616	565
886.640	592
886.720	662
886.722	654
886.800	516
886.827	557
886.879	689
886.932	535
886.959	544
887.038	940
887.039	946
887.119	668
887.143	571
887.198	756
887.248	911
887.278	1164
887.354	1696
887.358	1658
887.437	812
887.459	531
887.517	429
887.564	367
887.596	456
887.669	576
887.676	556
887.755	319
887.774	249
887.835	121
887.880	30
887.914	202
887.985	517
887.994	552
888.073	754
888.090	824
888.153	1639
888.195	2115
888.232	2042
888.300	1816
888.311	1659
888.391	488
888.405	292
888.470	843
888.510	1096
888.549	1036
888.615	1008
888.628	1035
888.708	1132
888.720	1140
888.787	1628
888.825	1869
888.866	1521
888.930	966
888.945	942
889.024	826
889.035	801
889.103	1171
889.140	1356
889.182	1202
889.245	948
889.261	996
889.340	1216
889.349	1235
889.419	1246
889.454	1242
889.498	1315
889.559	1407
889.577	1390
889.656	1288
889.664	1273
889.735	1711
889.768	1911
889.814	1827
889.873	1700
889.978	1827
890.083	1142
890.187	600
890.292	819
890.397	1264
890.501	1302
890.606	1556
890.710	1673
890.815	1554
890.919	1696
891.024	1872
891.128	2109
891.233	539
891.337	573
891.442	1245
891.546	2146
891.650	1335
891.755	856
891.859	824
891.963	1772
892.068	1228
892.172	1331
892.276	-27
892.380	1213
892.484	1028
892.589	1680
892.693	1158
892.797	1914
892.901	987
893.005	597
893.109	884
893.213	2088
893.317	1337
893.421	1691
893.525	499
893.629	719
893.733	784
893.837	1115
893.941	1678
894.045	1251
894.148	1164
894.252	1093
894.356	1584
894.460	1385
894.564	2117
894.667	953
894.771	593
894.875	945
894.978	719
895.082	526
895.186	1187
895.289	827
895.393	980
895.496	1247
895.600	1186
895.703	553
895.807	175
895.910	1090
896.014	369
896.117	682
896.221	483
896.324	1333
896.427	997
896.531	241
896.634	-129
896.737	735
896.840	204
896.944	389
897.047	784
897.150	1050
897.253	496
897.356	797
897.460	1156
897.563	1032
897.666	710
897.769	1552
897.872	729
897.975	145
898.078	846
898.181	766
898.284	588
898.387	1407
898.490	1031
898.593	1116
898.695	1579
898.798	1118
898.901	488
899.004	594
899.107	1547
899.209	858
899.312	1013
899.415	1050
899.518	393
899.620	433
899.723	560
899.826	224
899.928	1521
900.031	1446
900.133	973
900.236	791
900.338	-42
900.441	407
900.543	1001
900.646	1361
900.748	815
900.851	938
900.953	782
901.055	977
901.158	912
901.260	707
901.362	259
901.465	-358
901.567	-49
901.669	889
901.771	1479
901.873	940
901.976	1038
902.078	913
902.180	190
902.282	662
902.384	691
902.486	1116
902.588	1820
902.690	1248
902.792	554
902.894	1143
902.996	1046
903.098	405
903.200	409
903.302	414
903.404	248
903.505	725
903.607	696
903.709	772
903.811	1924
903.913	602
904.014	635
904.116	515
904.218	353
904.319	220
904.421	1246
904.523	1116
904.624	1132
904.726	678
904.827	626
904.929	383
905.030	986
905.132	1051
905.233	1192
905.335	1137
905.436	346
905.537	540
905.639	-109
905.740	10
905.841	1292
905.943	662
906.044	681
906.145	952
906.247	1051
906.348	1141
906.449	279
906.550	755
906.651	635
906.752	971
906.854	376
906.955	1342
907.056	584
907.157	79
907.258	1324
907.359	1545
907.460	-147
907.561	585
907.662	935
907.762	742
907.863	86
907.964	1270
908.065	616
908.166	461
908.267	1095
908.367	178
908.468	1023
908.569	438
908.670	923
908.770	1012
908.871	582
908.971	694
909.072	1111
909.173	611
909.273	799
909.374	-229
909.474	926
909.575	609
909.675	192
909.776	1181
909.876	30
909.977	893
910.077	739
910.177	799
910.278	1332
910.378	179
910.478	123
910.579	1518
910.679	742
910.779	299
910.879	949
910.980	743
911.080	1070
911.180	509
911.280	791
911.380	783
911.480	41
911.580	-268
911.680	299
911.780	1042
911.880	821
911.980	503
912.080	623
912.180	1085
912.280	1028
912.380	355
912.480	-195
912.580	912
912.679	300
912.779	446
912.879	727
912.979	478
913.078	421
913.178	155
913.278	253
913.377	900
913.477	178
913.577	395
913.676	272
913.776	531
913.875	630
913.975	205
914.074	363
914.174	630
914.273	1111
914.373	344
914.472	97
914.572	844
914.671	-4
914.770	1248
914.870	1087
914.969	343
915.068	595
915.167	888
915.267	551
915.366	412
915.465	547
915.564	361
915.663	607
915.763	1206
915.862	696
915.961	1041
916.060	1071
916.159	91
916.258	-498
916.357	726
916.456	406
916.555	833
916.654	763
916.752	741
916.851	838
916.950	361
917.049	959
917.148	851
917.247	1029
917.345	799
917.444	462
917.543	129
917.642	405
917.740	692
917.839	823
917.937	1963
918.036	801
918.135	360
918.233	587
918.332	657
918.430	329
918.529	439
918.627	595
918.726	129
918.824	597
918.923	933
919.021	-11
919.119	470
919.218	292
919.316	799
919.414	684
919.512	708
919.611	275
919.709	966
919.807	1132
919.905	802
920.003	1010
920.102	862
920.200	759
920.298	827
920.396	436
920.494	1264
920.592	1583
920.690	410
920.788	492
920.886	1618
920.984	752
921.082	1288
921.180	1254
921.277	1659
921.375	919
921.473	1474
921.571	1716
921.669	1284
921.766	1514
921.864	1756
921.962	2056
922.060	1453
922.157	1554
922.255	1240
922.352	1061
922.450	1917
922.548	2262
922.645	2015
922.743	3072
922.840	3184
922.938	5120
923.035	4039
923.133	3384
923.230	4204
923.327	5426
923.425	5687
923.522	4563
923.619	4510
923.717	4835
923.814	4175
923.911	4186
924.008	3860
924.106	4252
924.203	3719
924.300	4124
924.397	4546
924.494	3564
924.591	4111
924.688	3978
924.786	3634
924.883	3487
924.979	3784
925.077	3487
925.173	3709
925.270	2952
925.367	4020
925.464	4849
925.561	4401
925.658	4363
925.755	3922
925.852	4654
925.948	4490
926.045	3702
926.142	4109
926.239	3785
926.335	4469
926.432	3734
926.529	3994
926.625	4157
926.722	4111
926.818	2996
926.915	3914
927.011	3902
927.108	3694
927.204	3799
927.301	3056
927.397	2686
927.494	4185
927.590	3780
927.687	2075
927.783	2807
927.879	3919
927.976	3509
928.072	2795
928.168	2722
928.264	4069
928.361	3385
928.457	4321
928.553	3207
928.649	2621
928.745	3456
928.841	2695
928.937	2790
929.033	2867
929.129	3271
929.225	3932
929.321	3141
929.417	3208
929.513	3294
929.609	3056
929.705	3018
929.801	2733
929.897	3130
929.993	1915
930.089	2602
930.184	3338
930.280	2449
930.376	3384
930.471	2894
930.567	2895
930.663	2440
930.758	2838
930.854	2235
930.950	2376
931.045	3135
931.141	2459
931.236	2926
931.332	3406
931.427	2882
931.523	2901
931.618	2682
931.714	1879
931.809	1950
931.905	2583
932.000	3144
932.095	2733
932.191	3121
932.286	3418
932.381	1976
932.476	1668
932.572	2366
932.667	2596
932.762	2206
932.857	1908
932.952	1760
933.047	2610
933.142	2183
933.237	1498
933.332	1942
933.427	2875
933.522	3113
933.617	1755
933.712	2200
933.807	2195
933.902	3193
933.997	3489
934.092	2503
934.187	1339
934.282	1512
934.376	1650
934.471	2153
934.566	2095
934.661	1804
934.755	2626
934.850	2448
934.945	2518
935.039	1848
935.134	1580
935.228	1469
935.323	3000
935.417	3126
935.512	2066
935.606	1475
935.701	2173
935.795	2293
935.890	2294
935.984	2710
936.079	2331
936.173	1928
936.267	1484
936.362	1471
936.456	1785
936.550	1980
936.644	3219
936.738	1792
936.833	1429
936.927	983
937.021	1998
937.115	1324
937.209	2054
937.303	2233
937.397	1876
937.491	1716
937.585	1937
937.679	2415
937.773	1563
937.867	1861
937.961	865
938.055	1809
938.149	3134
938.243	1394
938.337	1662
938.430	1152
938.524	2307
938.618	2226
938.712	2416
938.805	1143
938.899	1747
938.993	2590
939.086	2314
939.180	1547
939.274	2145
939.367	1903
939.461	2530
939.554	1974
939.648	1622
939.741	1357
939.835	1593
939.928	1382
940.022	3072
940.115	1812
940.208	1513
940.302	1647
940.395	2495
940.488	2540
940.582	1149
940.675	920
940.768	938
940.861	1050
940.954	2685
941.048	1426
941.141	723
941.234	2258
941.327	2925
941.420	4659
941.513	4425
941.606	2833
941.699	1581
941.792	2021
941.885	2397
941.978	1958
942.071	1655
942.164	2123
942.257	1085
942.349	1659
942.442	2529
942.535	899
942.628	1202
942.721	819
942.813	1310
942.906	1707
942.999	1721
943.091	632
943.184	929
943.277	1201
943.369	281
943.462	1010
943.554	533
943.647	1898
943.739	2248
943.832	1940
943.924	1026
944.017	-5
944.109	1054
944.201	694
944.294	1857
944.386	548
944.478	1598
944.571	1940
944.663	1111
944.755	180
944.847	957
944.940	1381
945.032	664
945.124	360
945.216	1292
945.308	1588
945.400	1527
945.492	1371
945.584	1958
945.676	1679
945.768	1486
945.860	1183
945.952	1226
946.044	2037
946.136	924
946.228	1180
946.320	1358
946.412	858
946.503	1596
946.595	1507
946.687	785
946.779	640
946.870	873
946.962	794
947.054	1492
947.145	905
947.237	1011
947.329	602
947.420	945
947.512	1255
947.603	626
947.695	854
947.786	295
947.878	125
947.969	1305
948.061	915
948.152	213
948.243	1028
948.335	163
948.426	754
948.517	676
948.609	913
948.700	1233
948.791	246
948.882	1056
948.973	855
949.065	822
949.156	1016
949.247	-53
949.338	318
949.429	738
949.520	756
949.611	654
949.702	317
949.793	882
949.884	1137
949.975	845
950.066	114
950.157	250
950.247	39
950.338	438
950.429	119
950.520	1322
950.611	928
950.701	313
950.792	1562
950.883	1763
950.973	884
951.064	1446
951.155	1570
951.245	1840
951.336	1250
951.427	1098
951.517	281
951.608	2004
951.698	507
951.788	1182
951.879	325
951.969	280
952.060	-424
952.150	687
952.240	326
952.331	1116
952.421	1681
952.511	995
952.602	634
952.692	776
952.782	310
952.872	83
952.962	553
953.052	638
953.143	733
953.233	582
953.323	528
953.413	656
953.503	313
953.593	68
953.683	41
953.773	993
953.863	1113
953.953	-103
954.042	1172
954.132	656
954.222	884
954.312	1550
954.402	150
954.492	543
954.581	792
954.671	1081
954.761	1201
954.850	979
954.940	225
955.030	768
955.119	308
955.209	757
955.298	-18
955.388	613
955.477	1435
955.567	706
955.656	619
955.746	982
955.835	649
955.925	358
956.014	753
956.103	1437
956.193	1797
956.282	1124
956.371	914
956.461	771
956.550	802
956.639	825
956.728	54
956.817	425
956.906	206
956.995	1227
957.085	-57
957.174	-196
957.263	598
957.352	1155
957.441	534
957.530	578
957.619	582
957.708	1343
957.796	983
957.885	1237
957.974	631
958.063	574
958.152	297
958.241	551
958.329	485
958.418	932
958.507	1076
958.596	1105
958.684	441
958.773	1753
958.861	1027
958.950	-313
959.039	806
959.127	1588
959.216	939
959.304	1010
959.393	1290
959.481	974
959.570	941
959.658	1297
959.746	439
959.835	1035
959.923	328
960.011	1399
960.100	418
960.188	1208
960.276	891
960.365	757
960.453	945
960.541	572
960.629	403
960.717	775
960.805	1354
960.893	-960
960.981	271
961.069	959
961.158	1804
961.245	1260
961.333	998
961.421	825
961.509	547
961.597	847
961.685	621
961.773	852
961.861	481
961.949	814
962.036	-83
962.124	706
962.212	92
962.299	179
962.387	245
962.475	-171
962.562	46
962.650	466
962.738	46
962.825	977
962.913	488
963.000	969
963.088	684
963.175	1125
963.263	913
963.350	743
963.438	639
963.525	33
963.612	700
963.700	673
963.787	1782
963.874	2687
963.962	1319
964.049	1
964.136	184
964.223	-424
964.310	171
964.398	627
964.485	35
964.572	299
964.659	-191
964.746	467
964.833	106
964.920	-621
965.007	-379
965.094	-119
965.181	-366
965.268	-101
965.355	874
965.441	318
965.528	-119
965.615	582
965.702	417
965.789	-81
965.875	250
965.962	-71
966.049	145
966.136	523
966.222	342
966.309	221
966.395	-107
966.482	332
966.569	290
966.655	-500
966.742	1037
966.828	448
966.915	-520
967.001	-57
967.087	527
967.174	-294
967.260	321
967.347	-62
967.433	786
967.519	976
967.605	2105
967.692	898
967.778	-684
967.864	-180
967.950	-464
968.036	433
968.123	-169
968.209	318
968.295	70
968.381	782
968.467	-59
968.553	139
968.639	-207
968.725	164
968.811	-526
968.897	1082
968.983	845
969.069	1038
969.154	-382
969.240	-21
969.326	-6
969.412	557
969.497	-459
969.583	12
969.669	-258
969.755	309
969.840	-254
969.926	243
970.012	-45
970.097	1566
970.183	1253
970.268	785
970.354	799
970.439	-571
970.525	1
970.610	857
970.696	649
970.781	127
970.866	-387
970.952	-462
971.037	398
971.122	268
971.208	588
971.293	-381
971.378	404
971.463	524
971.549	37
971.634	-234
971.719	62
971.804	-323
971.889	366
971.974	182
972.059	552
972.144	-772
972.229	195
972.314	-262
972.399	-896
972.484	812
972.569	56
972.654	728
972.739	-218
972.824	875
972.908	-251
972.993	183
973.078	-380
973.163	-71
973.247	210
973.332	-400
973.417	-560
973.501	496
973.586	-682
973.671	982
973.755	-160
973.840	520
973.924	171
974.009	344
974.093	461
974.178	900
974.262	504
974.346	113
974.431	324
974.515	-304
974.600	-170
974.684	319
974.768	73
974.852	521
974.937	663
975.021	-486
975.105	-189
975.189	-178
975.273	-591
975.358	-368
975.442	96
975.526	154
975.610	-442
975.694	-110
975.778	-411
975.862	-198
975.946	-507
976.030	383
976.114	-276
976.198	-180
976.281	182
976.365	-476
976.449	219
976.533	-271
976.617	-591
976.700	-325
976.784	-132
976.868	-185
976.951	-344
977.035	-133
977.119	-417
977.202	-1413
977.286	-858
977.369	385
977.453	120
977.536	444
977.620	211
977.703	580
977.787	-15
977.870	632
977.953	-122
978.037	421
978.120	-73
978.203	-290
978.287	-141
978.370	547
978.453	889
978.536	-182
978.620	77
978.703	66
978.786	185
978.869	-111
978.952	-54
979.035	655
979.118	241
979.201	-4
979.284	-633
979.367	748
979.450	-376
979.533	780
979.616	71
979.699	-267
979.782	-158
979.865	-12
979.948	-31
980.030	-102
980.113	-760
980.196	-628
980.279	-199
980.361	-541
980.444	-1670
980.526	-731
980.609	103
980.692	-66
980.774	360
980.857	1098
980.939	82
981.022	118
981.104	-1154
981.187	775
981.269	-462
981.352	263
981.434	-683
981.516	223
981.599	4
981.681	-751
981.763	182
981.846	-582
981.928	-62
982.010	-363
982.092	-417
982.174	115
982.256	-558
982.339	-746
982.421	-616
982.503	-60
982.585	-43
982.667	-301
982.749	-624
982.831	-438
982.913	-1146
982.995	209
983.077	116
983.158	-681
983.240	-100
983.322	-127
983.404	-165
983.486	474
983.568	877
983.649	230
983.731	-261
983.813	133
983.894	-305
983.976	-447
984.058	201
984.139	-681
984.221	441
984.302	152
984.384	-593
984.465	435
984.547	-80
984.628	111
984.710	375
984.791	-39
984.872	-234
984.954	395
985.035	351
985.116	-257
985.198	-284
985.279	18
985.360	-174
985.441	103
985.522	-313
985.604	272
985.685	-179
985.766	-460
985.847	-42
985.928	-304
986.009	-466
986.090	219
986.171	-158
986.252	-344
986.333	224
986.414	-528
986.495	-358
986.576	-145
986.656	-547
986.737	44
986.818	102
986.899	-401
986.980	457
987.060	251
987.141	-57
987.222	-323
987.302	333
987.383	366
987.464	386
987.544	207
987.625	486
987.705	1051
987.786	568
987.866	-193
987.947	490
988.027	24
988.108	-281
988.188	300
988.268	158
988.349	267
988.429	-35
988.509	950
988.589	307
988.670	-228
988.750	283
988.830	-305
988.910	-30
988.990	610
989.070	-352
989.151	-133
989.231	183
989.311	244
989.391	-294
989.471	-245
989.551	29
989.631	571
989.711	173
989.791	-382
989.870	46
989.950	-300
990.030	-386
990.110	-68
990.190	459
990.269	-368
990.349	-170
990.429	213
990.509	-619
990.588	-680
990.668	-200
990.747	11
990.827	-133
990.907	-583
990.986	-199
991.066	-350
991.145	-17
991.225	308
991.304	-683
991.383	-17
991.463	404
991.542	-275
991.622	-437
991.701	-475
991.780	-228
991.859	-344
991.939	-745
992.018	-194
992.097	64
992.176	-86
992.256	-607
992.335	470
992.414	47
992.493	-92
992.572	-75
992.651	-469
992.730	-1342
992.809	-337
992.888	-1054
992.967	-373
993.046	-717
993.125	-352
993.203	-116
993.282	-714
993.361	-452
993.440	-327
993.519	-169
993.597	-349
993.676	-416
993.755	-544
993.834	-190
993.912	-727
993.991	-901
994.069	-122
994.148	-815
994.226	15
994.305	-803
994.384	-896
994.462	-316
994.540	-530
994.619	-619
994.697	-115
994.776	-506
994.854	-988
994.932	-121
995.011	667
995.089	-622
995.167	-817
995.245	195
995.324	-831
995.402	-889
995.480	-309
995.558	-467
995.636	-45
995.714	-1247
995.792	-164
995.870	-650
995.948	-16
996.026	-1459
996.104	-1233
996.182	-589
996.260	-1049
996.338	-1429
996.416	-737
996.494	-644
996.572	-615
996.649	-648
996.727	-1095
996.805	-374
996.883	-664
996.960	-1328
997.038	-1071
997.116	-1172
997.193	-926
997.271	-572
997.348	-696
997.426	-962
997.504	-55
997.581	-517
997.658	-349
997.736	-1609
997.813	-627
997.891	295
997.968	-1394
998.046	-544
998.123	-96
998.200	-973
998.277	-1098
998.355	-885
998.432	-933
998.509	-1253
998.586	-104
998.663	-1219
998.741	-273
998.818	-578
998.895	-346
998.972	-719
999.049	-992
999.126	-880
999.203	-1079
999.280	-431
999.357	-1287
999.434	-1428
999.511	-1090
999.587	-876
999.664	-993
999.741	-1093
999.818	-275
999.895	-947
999.971	-490
1000.048	-405
1000.125	-66
1000.202	-985
1000.278	-469
1000.355	-1000
1000.431	-848
1000.508	-1506
1000.584	-921
1000.661	-740
1000.738	-1620
1000.814	-1722
1000.890	-980
1000.967	-1911
1001.043	-883
1001.120	-269
1001.196	-625
1001.272	-1403
1001.349	-663
1001.425	-1047
1001.501	-1209
1001.577	-962
1001.654	-651
1001.730	-686
1001.806	-1323
1001.882	-1973
1001.958	-336
1002.034	-970
1002.110	-1003
1002.186	-715
1002.262	-1433
1002.338	-1832
1002.414	-974
1002.490	-1589
1002.566	-944
1002.642	-1519
1002.718	-803
1002.794	-2061
1002.870	-1348
1002.945	-1696
1003.021	-1050
1003.097	-1400
1003.173	-1122
1003.248	-669
1003.324	-1776
1003.400	-907
1003.475	-1215
1003.551	-840
1003.626	-1326
1003.702	-1161
1003.777	-1002
1003.853	-1287
1003.928	-613
1004.004	-987
1004.079	-1235
1004.155	-1284
1004.230	-998
1004.305	-1375
1004.381	-1594
1004.456	-997
1004.531	-1703
1004.607	-1723
1004.682	-1447
1004.757	-1494
1004.832	-1378
1004.907	-1517
1004.982	-600
1005.057	-2065
1005.133	-798
1005.208	-1528
1005.283	-1435
1005.358	-2066
1005.433	-1198
1005.508	-2003
1005.583	-990
1005.657	-2171
1005.732	-936
1005.807	-1913
1005.882	-1079
1005.957	-2004
1006.032	-1274
1006.106	-1681
1006.181	-454
1006.256	-1701
1006.331	-1734
1006.405	-1261
1006.480	-1411
1006.554	-476
1006.629	-860
1006.704	-1849
1006.778	-1221
1006.853	-1252
1006.927	-1968
1007.002	-1210
1007.076	-1538
1007.150	-1614
1007.225	-1496
1007.299	-1649
1007.373	-965
1007.448	-1935
1007.522	-868
1007.596	-1072
1007.671	-1699
1007.745	-1596
1007.819	-1898
1007.893	-1387
1007.967	-1653
1008.041	-823
1008.115	-1196
1008.190	-1476
1008.264	-1689
1008.338	-1396
1008.412	-1989
1008.486	-1450
1008.560	-1825
1008.633	-1507
1008.707	-948
1008.781	-1358
1008.855	-1336
1008.929	-1597
1009.003	-1789
1009.076	-1493
1009.150	-1573
1009.224	-1169
1009.298	-1474
1009.371	-1826
1009.445	-1168
1009.519	-1712
1009.592	-1687
1009.666	-1977
1009.739	-1765
1009.813	-1521
1009.886	-1074
1009.960	-2148
1010.033	-1875
1010.107	-1415
1010.180	-1629
1010.253	-1186
1010.327	-1418
1010.400	-1647
1010.473	-1551
1010.547	-1541
1010.620	-2141
1010.693	-1259
1010.766	-1478
1010.840	-940
1010.913	-1583
1010.986	-2377
1011.059	-1839
1011.132	-2422
1011.205	-1147
1011.278	-1535
1011.351	-1949
1011.424	-1592
1011.497	-1837
1011.570	-2145
1011.643	-1556
1011.716	-1579
1011.789	-1423
1011.862	-1513
1011.934	-1977
1012.007	-2276
1012.080	-2131
1012.153	-1649
1012.225	-1722
1012.298	-1488
1012.371	-2523
1012.443	-2369
1012.516	-1894
1012.588	-1723
1012.661	-1697
1012.733	-1399
1012.806	-1360
1012.879	-2594
1012.951	-1547
1013.023	-1443
1013.096	-1882
1013.168	-1510
1013.241	-1500
1013.313	-1454
1013.385	-1674
1013.458	-2015
1013.530	-1632
1013.602	-1471
1013.674	-1726
1013.746	-1590
1013.819	-1860
1013.891	-1763
1013.963	-1802
1014.035	-1659
1014.107	-1302
1014.179	-1206
1014.251	-1826
1014.323	-1921
1014.395	-1741
1014.467	-1839
1014.539	-960
1014.611	-1785
1014.683	-942
1014.754	-1797
1014.826	-1911
1014.898	-2310
1014.970	-1638
1015.042	-1285
1015.113	-1226
1015.185	-1509
1015.257	-1101
1015.328	-1676
1015.400	-2291
1015.471	-1627
1015.543	-1994
1015.615	-1833
1015.686	-2145
1015.757	-2060
1015.829	-1101
1015.901	-2149
1015.972	-2295
1016.043	-2043
1016.115	-801
1016.186	-2078
1016.257	-1833
1016.328	-1287
1016.400	-1228
1016.471	-1818
1016.542	-2007
1016.613	-1310
1016.685	-1140
1016.756	-1345
1016.827	-1596
1016.898	-2076
1016.969	-1274
1017.040	-1736
1017.111	-2000
1017.182	-2016
1017.253	-2196
1017.324	-2014
1017.395	-1782
1017.466	-1308
1017.537	-1725
1017.608	-2248
1017.678	-1150
1017.749	-2047
1017.820	-1514
1017.891	-1948
1017.961	-1610
1018.032	-1643
1018.103	-1352
1018.173	-1114
1018.244	-2020
1018.315	-1534
1018.385	-1802
1018.456	-1802
1018.526	-1265
1018.597	-1816
1018.667	-1164
1018.738	-1272
1018.808	-1704
1018.878	-1532
1018.949	-1130
1019.019	-1922
1019.089	-1417
1019.160	-2106
1019.230	-2514
1019.300	-1966
1019.371	-1864
1019.441	-2196
1019.511	-1309
1019.581	-2075
1019.651	-1060
1019.721	-1848
1019.791	-1105
1019.861	-1902
1019.931	-2114
1020.001	-1676
1020.071	-1121
1020.141	-1432
1020.211	-1444
1020.281	-2173
1020.351	-1714
1020.421	-2154
1020.491	-1270
1020.560	-2150
1020.630	-1317
1020.700	-1562
1020.770	-1584
1020.839	-1369
1020.909	-1632
1020.979	-1756
1021.048	-2153
1021.118	-1973
1021.187	-1498
1021.257	-1905
1021.326	-1322
1021.396	-1634
1021.465	-1508
1021.535	-2351
1021.604	-1961
1021.674	-1140
1021.743	-1998
1021.812	-1744
1021.882	-1718
1021.951	-2184
1022.020	-1309
1022.089	-1740
1022.159	-1933
1022.228	-1818
1022.297	-1636
1022.366	-1700
1022.435	-2028
1022.504	-1890
1022.573	-1638
1022.642	-1011
1022.711	-2040
1022.781	-1248
1022.849	-987
1022.918	-1786
1022.987	-1565
1023.056	-1449
1023.125	-1727
1023.194	-2244
1023.263	-1267
1023.331	-2289
1023.400	-2498
1023.469	-1658
1023.538	-945
1023.606	-2344
1023.675	-2119
1023.744	-2357
1023.812	-1582
1023.881	-1945
1023.949	-1526
1024.018	-1614
1024.086	-1604
1024.155	-2113
1024.223	-2018
1024.292	-584
1024.360	-1620
1024.429	-1352
1024.497	-1611
1024.565	-1964
1024.634	-1475
1024.702	-2081
1024.770	-1512
1024.838	-2182
1024.907	-1670
1024.975	-2105
1025.043	-2030
1025.111	-2128
1025.179	-2095
1025.247	-1478
1025.315	-2116
1025.383	-1784
1025.451	-1499
1025.519	-1390
1025.587	-1847
1025.655	-1521
1025.723	-960
1025.791	-1290
1025.859	-1403
1025.927	-2010
1025.995	-1715
1026.062	-1848
1026.130	-1315
1026.198	-1500
1026.266	-1344
1026.333	-1681
1026.401	-1955
1026.469	-2155
1026.536	-2020
1026.604	-1524
1026.671	-1426
1026.739	-1990
1026.806	-1102
1026.874	-2175
1026.941	-1175
1027.009	-2116
1027.076	-1915
1027.144	-1760
1027.211	-1218
1027.278	-1541
1027.345	-2306
1027.413	-2124
1027.480	-2845
1027.547	-1477
1027.614	-1965
1027.682	-837
1027.749	-1516
1027.816	-1774
1027.883	-2005
1027.950	-1701
1028.017	-1331
1028.084	-1573
1028.151	-2281
1028.218	-1532
1028.285	-1920
1028.352	-1743
1028.419	-2031
1028.486	-1442
1028.553	-2034
1028.619	-2125
1028.686	-1772
1028.753	-1760
1028.820	-1494
1028.886	-1582
1028.953	-1098
1029.020	-2797
1029.086	-1595
1029.153	-1774
1029.220	-1975
1029.286	-1863
1029.353	-2064
1029.419	-1893
1029.486	-2253
1029.552	-1644
1029.619	-1632
1029.685	-2445
1029.751	-2395
1029.818	-1516
1029.884	-1635
1029.951	-1382
1030.017	-2267
1030.083	-1436
1030.149	-1738
1030.216	-2560
1030.282	-1987
1030.348	-1466
1030.414	-2538
1030.480	-2553
1030.546	-1577
1030.612	-2370
1030.678	-1322
1030.744	-2422
1030.810	-2130
1030.876	-1138
1030.942	-2118
1031.008	-1372
1031.074	-2391
1031.140	-1712
1031.206	-2349
1031.272	-1690
1031.337	-1446
1031.403	-1847
1031.469	-2169
1031.534	-1635
1031.600	-1894
1031.666	-2337
1031.731	-2023
1031.797	-2072
1031.863	-2028
1031.928	-2252
1031.994	-2083
1032.059	-2018
1032.125	-1515
1032.190	-2101
1032.256	-2370
1032.321	-2152
1032.386	-2522
1032.452	-2006
1032.517	-2061
1032.582	-2314
1032.647	-1429
1032.713	-1835
1032.778	-1820
1032.843	-2706
1032.908	-1605
1032.974	-2291
1033.039	-2567
1033.104	-2008
1033.169	-1274
1033.234	-1616
1033.299	-1959
1033.364	-1331
1033.429	-1773
1033.494	-1954
1033.559	-1887
1033.624	-1928
1033.688	-2312
1033.753	-1881
1033.818	-1723
1033.883	-2386
1033.948	-1827
1034.013	-1832
1034.077	-907
1034.142	-2176
1034.207	-1632
1034.271	-673
1034.336	-768
1034.400	-221
1034.465	123
1034.530	-619
1034.594	-1039
1034.658	-2191
1034.723	-1861
1034.787	-2117
1034.852	-1753
1034.916	-2313
1034.981	-2422
1035.045	-2709
1035.109	-1676
1035.173	-1662
1035.238	-2025
1035.302	-1640
1035.366	-1682
1035.430	-2477
1035.495	-1979
1035.559	-1847
1035.623	-1922
1035.687	-2206
1035.751	-2752
1035.815	-2129
1035.879	-1434
1035.943	-2219
1036.007	-2062
1036.071	-2028
1036.135	-2480
1036.198	-2146
1036.262	-1888
1036.326	-1806
1036.390	-2677
1036.454	-1968
1036.517	-1593
1036.581	-2124
1036.645	-1850
1036.709	-1662
1036.772	-1560
1036.836	-2478
1036.900	-2559
1036.963	-2871
1037.026	-1737
1037.090	-2691
1037.154	-1763
1037.217	-1105
1037.280	-2248
1037.344	-1841
1037.407	-2515
1037.471	-2052
1037.534	-1199
1037.597	-2314
1037.661	-1716
1037.724	-1894
1037.787	-2257
1037.850	-2020
1037.913	-1193
1037.977	-1987
1038.040	-2148
1038.103	-1735
1038.166	-1778
1038.229	-2630
1038.292	-1571
1038.355	-2339
1038.418	-2071
1038.481	-1682
1038.544	-2282
1038.607	-1376
1038.670	-2331
1038.732	-2398
1038.795	-2202
1038.858	-2150
1038.921	-2500
1038.984	-2253
1039.046	-1626
1039.109	-2101
1039.172	-2521
1039.234	-2566
1039.297	-2153
1039.360	-1878
1039.422	-1892
1039.485	-2730
1039.547	-2315
1039.610	-2268
1039.672	-1832
1039.734	-1877
1039.797	-2179
1039.859	-1811
1039.922	-2007
1039.984	-1995
1040.046	-1929
1040.109	-1624
1040.171	-1832
1040.233	-2799
1040.295	-1810
1040.358	-2457
1040.420	-1664
1040.482	-2515
1040.544	-1868
1040.606	-1998
1040.668	-2060
1040.730	-2421
1040.792	-2054
1040.854	-2541
1040.916	-1791
1040.978	-2080
1041.040	-1258
1041.102	-1978
1041.164	-2323
1041.225	-2593
1041.287	-2446
1041.349	-3058
1041.411	-2256
1041.472	-2393
1041.534	-1329
1041.596	-2626
1041.657	-1804
1041.719	-2753
1041.781	-2047
1041.842	-2033
1041.904	-2465
1041.965	-2516
1042.027	-1839
1042.088	-2191
1042.150	-1690
1042.211	-1693
1042.272	-1430
1042.334	-2276
1042.395	-1985
1042.456	-2187
1042.518	-1579
1042.579	-2089
1042.640	-2316
1042.701	-2111
1042.763	-1957
1042.824	-1845
1042.885	-1757
1042.946	-2624
1043.007	-1891
1043.068	-1798
1043.129	-1721
1043.190	-2429
1043.251	-1292
1043.312	-1895
1043.373	-2716
1043.434	-2182
1043.495	-2114
1043.556	-2152
1043.616	-1111
1043.677	-2188
1043.738	-1992
1043.799	-2205
1043.859	-1761
1043.920	-1148
1043.981	-1477
1044.041	-1950
1044.102	-1740
1044.162	-2307
1044.223	-2132
1044.284	-2649
1044.344	-2088
1044.405	-1979
1044.465	-1245
1044.525	-2332
1044.586	-2024
1044.646	-2132
1044.707	-2185
1044.767	-1706
1044.827	-2243
1044.887	-2108
1044.948	-1467
1045.008	-2256
1045.068	-1198
1045.128	-2060
1045.188	-2585
1045.249	-2104
1045.309	-1902
1045.369	-1181
1045.429	-2110
1045.489	-1982
1045.549	-1758
1045.609	-1785
1045.669	-2245
1045.729	-2033
1045.789	-1680
1045.848	-1718
1045.908	-1655
1045.968	-2179
1046.028	-1925
1046.088	-2878
1046.147	-885
1046.207	-1835
1046.267	-1089
1046.326	-1195
1046.386	-1598
1046.446	-1495
1046.505	-1189
1046.565	-1340
1046.624	-822
1046.684	-890
1046.743	-328
1046.803	-1026
1046.862	-857
1046.922	0
