'Start Wavelength	183.907
'End Wavelength	1046.922
'Gate Delay	5.000
'Gate Width (ms)	1.050
'Laser Output Level	0.000
'X Position	0.000
'Y Position	0.000
'Z Position	0.000
'Grid Point Number	1.000
'Shot Number	100.000
183.907	917.000
183.977	-511.000
184.047	-157
184.116	892
184.186	-133
184.256	366
184.325	-744
184.395	-222
184.465	257
184.534	375
184.604	-843
184.674	795
184.743	-577
184.813	762
184.883	-334
184.952	13
185.022	-752
185.092	420
185.161	-400
185.231	227
185.301	175
185.370	277
185.440	-179
185.509	546
185.579	-90
185.649	312
185.718	-17
185.788	484
185.857	-179
185.927	268
185.996	-442
186.066	44
186.136	-152
186.205	-99
186.275	-591
186.344	4
186.414	430
186.483	23
186.553	387
186.622	1411
186.692	-308
186.761	472
186.831	-322
186.900	-38
186.970	683
187.039	708
187.109	1534
187.178	206
187.248	330
187.317	199
187.387	-94
187.456	456
187.526	431
187.595	678
187.664	95
187.734	1168
187.803	-144
187.873	1207
187.942	984
188.012	137
188.081	-16
188.150	514
188.220	1026
188.289	824
188.358	658
188.428	543
188.497	452
188.567	727
188.636	241
188.705	158
188.775	109
188.844	138
188.913	157
188.983	359
189.052	33
189.121	263
189.191	618
189.260	1982
189.329	435
189.399	115
189.468	79
189.537	1242
189.606	222
189.676	703
189.745	566
189.814	1099
189.883	261
189.953	1060
190.022	1147
190.091	3560
190.161	4369
190.230	1441
190.299	135
190.368	992
190.437	528
190.507	969
190.576	432
190.645	1009
190.714	400
190.783	1080
190.853	909
190.922	1014
190.991	608
191.060	468
191.129	10
191.198	-277
191.268	127
191.337	334
191.406	605
191.475	679
191.544	441
191.613	678
191.682	718
191.752	1127
191.821	834
191.890	538
191.959	234
192.028	595
192.097	497
192.166	936
192.235	410
192.304	1101
192.373	13
192.442	139
192.511	209
192.580	688
192.650	181
192.719	38
192.788	532
192.857	1235
192.926	651
192.995	997
193.064	1698
193.133	2452
193.202	1962
193.271	2841
193.340	2311
193.409	2031
193.478	2252
193.547	3096
193.615	3792
193.684	3097
193.753	2106
193.822	2197
193.891	1092
193.960	1368
194.029	1193
194.098	1482
194.167	781
194.236	1180
194.305	363
194.374	1263
194.443	240
194.512	1272
194.580	766
194.649	1512
194.718	320
194.787	212
194.856	264
194.925	1660
194.994	1642
195.062	700
195.131	1134
195.200	1492
195.269	1677
195.338	1252
195.407	60
195.475	809
195.544	971
195.613	1001
195.682	1354
195.751	1866
195.819	1288
195.888	1063
195.957	1705
196.026	1914
196.094	1578
196.163	1793
196.232	1091
196.301	1493
196.369	1473
196.438	1437
196.507	843
196.576	647
196.644	819
196.713	1387
196.782	374
196.850	1131
196.919	1007
196.988	1289
197.056	422
197.125	1400
197.194	1370
197.262	782
197.331	660
197.400	780
197.468	606
197.537	1457
197.606	574
197.674	2831
197.743	5026
197.812	2508
197.880	4871
197.949	2649
198.017	3689
198.086	3223
198.155	1273
198.223	2007
198.292	5880
198.360	2283
198.429	1477
198.497	1572
198.566	3654
198.635	4600
198.703	2048
198.772	2581
198.840	6711
198.909	5955
198.977	1591
199.046	1820
199.114	1477
199.183	2124
199.251	1620
199.320	1057
199.388	1723
199.457	892
199.525	520
199.594	1539
199.662	1463
199.731	1411
199.799	714
199.867	1629
199.936	1879
200.004	1295
200.073	1072
200.141	1522
200.210	863
200.278	984
200.346	2070
200.415	1464
200.483	1229
200.552	1782
200.620	1167
200.688	1758
200.757	1345
200.825	767
200.893	1304
200.962	1297
201.030	390
201.098	1705
201.167	1788
201.235	1276
201.303	1814
201.372	1755
201.440	1153
201.508	2384
201.577	1768
201.645	1630
201.713	1769
201.781	2091
201.850	1493
201.918	1798
201.986	800
202.055	1907
202.123	1446
202.191	1718
202.259	1564
202.327	565
202.396	1357
202.464	1683
202.532	2104
202.600	6476
202.669	3164
202.737	1587
202.805	1250
202.873	1460
202.941	1180
203.009	899
203.078	1166
203.146	2370
203.214	1466
203.282	1388
203.350	1498
203.418	1902
203.487	1752
203.555	2377
203.623	1375
203.691	2321
203.759	1502
203.827	906
203.895	934
203.963	2408
204.031	1570
204.099	2742
204.168	942
204.236	2146
204.304	1581
204.372	2353
204.440	1744
204.508	1570
204.576	903
204.644	1803
204.712	1690
204.780	1505
204.848	1801
204.916	847
204.984	1923
205.052	2460
205.120	1256
205.188	1982
205.256	1442
205.324	1564
205.392	1382
205.460	2081
205.528	2197
205.596	1817
205.664	1823
205.732	2303
205.799	7258
205.867	9528
205.935	2825
206.003	2656
206.071	1395
206.139	2986
206.207	2711
206.275	1989
206.343	1605
206.411	1920
206.478	2223
206.546	1882
206.614	2208
206.682	1808
206.750	1393
206.818	3037
206.885	2597
206.953	800
207.021	2560
207.089	2366
207.157	1543
207.225	2371
207.292	1294
207.360	2402
207.428	1689
207.496	2003
207.563	1500
207.631	1858
207.699	1742
207.767	2403
207.834	1870
207.902	2338
207.970	1869
208.038	1386
208.105	1721
208.173	3176
208.241	3560
208.309	3176
208.376	2160
208.444	5516
208.512	2706
208.579	1726
208.647	2388
208.715	2532
208.782	2355
208.850	2864
208.918	2119
208.985	2462
209.053	2537
209.120	2018
209.188	1014
209.256	2652
209.323	2061
209.391	3345
209.459	3229
209.526	2455
209.594	2018
209.661	2592
209.729	2731
209.796	2896
209.864	1945
209.932	2613
209.999	2007
210.067	2313
210.134	2685
210.202	2809
210.269	3228
210.337	3957
210.404	2182
210.472	2330
210.539	2894
210.607	2624
210.674	2843
210.742	2822
210.809	2268
210.877	3672
210.944	3388
211.012	2617
211.079	2820
211.146	3128
211.214	2917
211.281	3825
211.349	2602
211.416	2943
211.484	3016
211.551	3003
211.618	2291
211.686	3281
211.753	1986
211.821	2575
211.888	2138
211.955	2779
212.023	2892
212.090	2837
212.157	2886
212.225	3469
212.292	6951
212.359	14736
212.427	27945
212.494	13174
212.561	6381
212.629	5011
212.696	4153
212.763	3622
212.831	3025
212.898	3621
212.965	2414
213.032	2710
213.100	3949
213.167	3062
213.234	3234
213.301	3367
213.369	2928
213.436	3664
213.503	2352
213.570	3288
213.638	3324
213.705	2770
213.772	2871
213.839	4095
213.906	3961
213.973	3762
214.041	3560
214.108	3443
214.175	3104
214.242	2788
214.309	2723
214.376	3321
214.444	3061
214.511	3456
214.578	3371
214.645	4377
214.712	3847
214.779	3769
214.846	2653
214.913	4993
214.980	3530
215.048	4761
215.115	4341
215.182	4247
215.249	3506
215.316	2550
215.383	3500
215.450	3532
215.517	3436
215.584	2701
215.651	2913
215.718	2265
215.785	2727
215.852	3242
215.919	3168
215.986	4244
216.053	2885
216.120	2431
216.187	3462
216.254	3463
216.321	2149
216.388	4107
216.455	3644
216.522	3839
216.589	4811
216.656	6596
216.722	6794
216.789	4558
216.856	4716
216.923	4987
216.990	4199
217.057	4444
217.124	4394
217.191	5128
217.258	5079
217.324	7016
217.391	6486
217.458	5688
217.525	4222
217.592	3826
217.659	3363
217.725	4541
217.792	5849
217.859	4766
217.926	3098
217.993	2405
218.059	2543
218.126	2865
218.193	3138
218.260	2454
218.327	2427
218.393	2728
218.460	1876
218.527	1973
218.594	2482
218.660	4688
218.727	4984
218.794	3207
218.860	2819
218.927	2774
218.994	1781
219.061	3329
219.127	2728
219.194	4598
219.261	2704
219.327	2400
219.394	2026
219.461	2301
219.527	2394
219.594	3702
219.661	2168
219.727	1624
219.794	2441
219.860	2995
219.927	2927
219.994	3929
220.060	6067
220.127	5533
220.193	4684
220.260	5106
220.326	6710
220.393	9631
220.460	10301
220.526	8059
220.593	4837
220.659	6762
220.726	6698
220.792	15505
220.859	12549
220.925	15312
220.992	17561
221.058	20063
221.125	18640
221.191	15019
221.258	7278
221.324	5248
221.391	4048
221.457	3761
221.524	4419
221.590	6379
221.657	18606
221.723	11448
221.789	12170
221.856	9704
221.922	6008
221.989	4234
222.055	3177
222.121	3146
222.188	3816
222.254	2947
222.321	2768
222.387	2973
222.453	1813
222.520	2205
222.586	1833
222.652	2949
222.719	2678
222.785	2839
222.851	2090
222.918	2316
222.984	2304
223.050	2578
223.116	2090
223.183	2906
223.249	1802
223.315	1467
223.382	2465
223.448	2321
223.514	1352
223.580	2263
223.647	1201
223.713	1125
223.779	1613
223.845	2386
223.911	1725
223.978	1662
224.044	1511
224.110	2555
224.176	2116
224.242	2147
224.309	1228
224.375	2031
224.441	1468
224.507	1243
224.573	1827
224.639	1655
224.705	907
224.772	1884
224.838	1872
224.904	2780
224.970	2268
225.036	1453
225.102	2067
225.168	2408
225.234	1675
225.300	2328
225.366	2027
225.432	2302
225.499	2032
225.565	2751
225.631	2287
225.697	3203
225.763	3048
225.829	3170
225.895	3696
225.961	6584
226.027	5527
226.093	5538
226.159	6879
226.225	9956
226.291	21358
226.357	28238
226.423	15243
226.489	9930
226.554	7528
226.620	7357
226.686	8097
226.752	13620
226.818	22182
226.884	36980
226.950	31491
227.016	15167
227.082	9502
227.148	7366
227.214	6620
227.279	5314
227.345	4100
227.411	4125
227.477	4670
227.543	8613
227.609	8804
227.674	5310
227.740	3875
227.806	4288
227.872	3008
227.938	3479
228.003	4563
228.069	3939
228.135	2336
228.201	3139
228.267	2492
228.332	2234
228.398	3298
228.464	3514
228.530	2525
228.595	2082
228.661	2490
228.727	4901
228.792	3651
228.858	2950
228.924	2561
228.990	4884
229.055	2812
229.121	4023
229.187	2135
229.252	3083
229.318	1047
229.384	2975
229.449	2980
229.515	1268
229.581	1196
229.646	2741
229.712	2954
229.777	7169
229.843	6004
229.909	4891
229.974	4872
230.040	5389
230.105	3211
230.171	4309
230.236	5668
230.302	9389
230.368	6143
230.433	3694
230.499	3127
230.564	4233
230.630	2644
230.695	2740
230.761	2351
230.826	1925
230.892	4296
230.957	2544
231.023	2304
231.088	2606
231.154	2415
231.219	2796
231.284	4300
231.350	3802
231.415	2692
231.481	2784
231.546	2237
231.612	2102
231.677	1654
231.742	1869
231.808	2915
231.873	2433
231.939	1479
232.004	4807
232.069	4077
232.135	3162
232.200	2467
232.265	2178
232.331	2329
232.396	1436
232.461	1688
232.527	2067
232.592	1318
232.657	3607
232.723	5389
232.788	3878
232.853	2785
232.918	2135
232.984	2338
233.049	2729
233.114	4605
233.179	4587
233.245	7938
233.310	8800
233.375	1735
233.440	2807
233.506	2185
233.571	2246
233.636	2513
233.701	2674
233.766	6162
233.832	7240
233.897	2845
233.962	2931
234.027	4597
234.092	3650
234.157	3041
234.222	3697
234.288	7025
234.353	20025
234.418	16101
234.483	8129
234.548	5589
234.613	4634
234.678	4756
234.743	5480
234.808	20111
234.873	12116
234.938	4708
235.004	4994
235.069	3929
235.134	4422
235.199	3213
235.264	3182
235.329	2436
235.394	3382
235.459	5068
235.524	4090
235.589	2857
235.654	3379
235.719	2494
235.784	3881
235.849	4775
235.913	10647
235.978	11371
236.043	12042
236.108	5152
236.173	5540
236.238	5366
236.303	3783
236.368	4299
236.433	7682
236.498	13118
236.563	9635
236.627	18420
236.692	50106
236.757	41091
236.822	19596
236.887	14255
236.952	11469
237.017	8994
237.081	9852
237.146	12641
237.211	28197
237.276	52849
237.341	74372
237.405	39717
237.470	18196
237.535	14516
237.600	8974
237.664	7187
237.729	5346
237.794	8030
237.859	15581
237.923	12088
237.988	7063
238.053	9665
238.118	10083
238.182	27551
238.247	21415
238.312	11110
238.376	7577
238.441	5649
238.506	5866
238.570	2923
238.635	4182
238.700	4296
238.764	3712
238.829	12175
238.893	13846
238.958	6527
239.023	5826
239.087	3364
239.152	4389
239.216	3209
239.281	3193
239.346	3227
239.410	4018
239.475	5729
239.539	27636
239.604	16717
239.668	6443
239.733	4680
239.797	6879
239.862	15569
239.926	21411
239.991	7773
240.055	4802
240.120	3181
240.184	3802
240.249	2866
240.313	2875
240.378	2838
240.442	16786
240.507	23175
240.571	7413
240.635	12938
240.700	13222
240.764	4929
240.829	3756
240.893	2905
240.957	4128
241.022	14912
241.086	24555
241.151	9373
241.215	4377
241.279	7343
241.344	12656
241.408	6441
241.472	4466
241.537	3533
241.601	4050
241.665	3047
241.730	3879
241.794	4541
241.858	3739
241.922	3285
241.987	3906
242.051	3487
242.115	2996
242.179	2635
242.244	3115
242.308	3810
242.372	4888
242.436	5061
242.501	4143
242.565	3068
242.629	2490
242.693	3415
242.757	3456
242.822	3509
242.886	4354
242.950	3752
243.014	5532
243.078	5486
243.142	5051
243.206	4912
243.271	5029
243.335	5725
243.399	10244
243.463	40713
243.527	79414
243.591	24468
243.655	10949
243.719	5755
243.783	7198
243.847	12003
243.911	14748
243.975	15937
244.040	9380
244.104	5943
244.168	4819
244.232	7484
244.296	11006
244.360	12401
244.424	7196
244.488	5803
244.552	5060
244.615	3919
244.679	3864
244.743	4823
244.807	4363
244.871	3227
244.935	3516
244.999	2751
245.063	3845
245.127	5380
245.191	9775
245.255	8527
245.319	6070
245.383	4402
245.446	4680
245.510	3290
245.574	4029
245.638	3705
245.702	4712
245.766	10691
245.829	7385
245.893	5272
245.957	4142
246.021	4312
246.085	4898
246.149	6728
246.212	14557
246.276	19954
246.340	10038
246.404	6467
246.467	7401
246.531	10393
246.595	6709
246.659	6559
246.722	6309
246.786	7428
246.850	7932
246.913	8627
246.977	4908
247.041	4802
247.104	5509
247.168	5943
247.232	15563
247.295	28713
247.359	12666
247.423	7154
247.486	11675
247.550	7381
247.614	6312
247.677	7059
247.741	6247
247.804	4213
247.868	7096
247.932	13640
247.995	26323
248.059	10217
248.122	5593
248.186	7894
248.249	15556
248.313	47963
248.376	43833
248.440	28529
248.503	11835
248.567	9464
248.630	13570
248.694	17823
248.757	23272
248.821	47720
248.884	25443
248.948	27126
249.011	37003
249.075	57037
249.138	43933
249.202	17142
249.265	13060
249.328	19360
249.392	12119
249.455	9200
249.519	7676
249.582	9856
249.645	15846
249.709	12329
249.772	13154
249.835	10020
249.899	11035
249.962	7576
250.025	8242
250.089	21183
250.152	23265
250.215	11819
250.279	10243
250.342	10097
250.405	9622
250.468	8963
250.532	13438
250.595	24290
250.658	85396
250.721	115182
250.785	40794
250.848	22993
250.911	15053
250.974	13178
251.038	17845
251.101	30690
251.164	17157
251.227	17117
251.290	17353
251.354	31153
251.417	112977
251.480	100227
251.543	83910
251.606	185640
251.669	131877
251.732	56117
251.795	51922
251.859	56655
251.922	123516
251.985	64827
252.048	26308
252.111	20037
252.174	18583
252.237	32658
252.300	61562
252.363	79551
252.426	140301
252.489	59550
252.552	33446
252.615	23215
252.678	24138
252.741	50867
252.804	76281
252.867	148539
252.930	82040
252.993	41234
253.056	27255
253.119	19394
253.182	17307
253.245	30783
253.308	21968
253.371	18448
253.434	16710
253.497	15876
253.559	27903
253.622	19593
253.685	25308
253.748	22825
253.811	13168
253.874	19055
253.937	15870
254.000	11735
254.062	21327
254.125	27362
254.188	26205
254.251	20990
254.314	12350
254.376	21566
254.439	21279
254.502	17543
254.565	22100
254.628	31691
254.690	18873
254.753	10648
254.816	9684
254.878	12145
254.941	23346
255.004	19930
255.067	11837
255.129	9693
255.192	7448
255.255	5222
255.317	7314
255.380	5714
255.443	4387
255.505	4123
255.568	4343
255.631	4238
255.693	5585
255.756	3232
255.819	4374
255.881	3638
255.944	3705
256.006	4671
256.069	4887
256.132	4485
256.194	8616
256.257	21815
256.319	14879
256.382	12707
256.444	7917
256.507	6352
256.569	5835
256.632	6264
256.694	13702
256.757	32259
256.819	77264
256.882	32650
256.944	13916
257.007	11288
257.069	12625
257.132	7906
257.194	6867
257.257	6134
257.319	5914
257.381	8134
257.444	25530
257.506	93247
257.569	90064
257.631	40623
257.693	23287
257.756	13462
257.818	13059
257.880	7046
257.943	6599
258.005	5780
258.067	5939
258.130	5853
258.192	7497
258.254	13931
258.317	8194
258.379	6289
258.441	15756
258.503	14213
258.566	27388
258.628	29018
258.690	7433
258.753	7382
258.815	12579
258.877	7374
258.939	5159
259.001	4728
259.064	5237
259.126	6975
259.188	10301
259.250	6426
259.312	8358
259.375	16180
259.437	10284
259.499	5035
259.561	4624
259.623	5571
259.685	6094
259.747	7131
259.809	26582
259.872	42296
259.934	70220
259.996	47685
260.058	14087
260.120	7649
260.182	6244
260.244	5110
260.306	4538
260.368	3750
260.430	4554
260.492	9089
260.554	16018
260.616	11830
260.678	32996
260.740	40390
260.802	9903
260.864	7924
260.926	6105
260.988	7002
261.050	6394
261.112	15356
261.174	45818
261.236	32061
261.298	10356
261.359	21662
261.421	26868
261.483	7540
261.545	7024
261.607	3914
261.669	5476
261.731	14593
261.793	27871
261.854	10382
261.916	7573
261.978	5909
262.040	7224
262.102	5905
262.164	12272
262.225	8069
262.287	4942
262.349	12708
262.411	9847
262.472	6212
262.534	15249
262.596	28106
262.658	8019
262.719	5685
262.781	9928
262.843	28463
262.904	10817
262.966	8681
263.028	13361
263.090	66620
263.151	130942
263.213	37049
263.275	17621
263.336	9649
263.398	7261
263.459	5255
263.521	5936
263.583	13098
263.644	8034
263.706	3481
263.767	2715
263.829	2651
263.891	2676
263.952	2086
264.014	2186
264.075	5689
264.137	12495
264.198	5785
264.260	3211
264.321	2614
264.383	10119
264.444	19946
264.506	6976
264.567	4359
264.629	9560
264.690	15050
264.752	7175
264.813	4843
264.875	3420
264.936	3324
264.998	3608
265.059	3510
265.120	4182
265.182	9014
265.243	42582
265.305	37370
265.366	10374
265.427	6120
265.489	5606
265.550	3736
265.611	5377
265.673	4168
265.734	3757
265.795	3554
265.857	3443
265.918	4829
265.979	13369
266.040	68875
266.102	51687
266.163	15308
266.224	11257
266.286	6618
266.347	4930
266.408	5115
266.469	6321
266.530	3619
266.592	3625
266.653	8765
266.714	12757
266.775	3951
266.836	2835
266.898	3149
266.959	6234
267.020	3937
267.081	3264
267.142	3356
267.203	3604
267.264	3075
267.326	4652
267.387	2789
267.448	2045
267.509	2474
267.570	3647
267.631	2712
267.692	2003
267.753	3935
267.814	2644
267.875	8226
267.936	16125
267.997	8301
268.058	7125
268.119	4151
268.180	4515
268.241	2865
268.302	3580
268.363	2275
268.424	3150
268.485	3527
268.546	2602
268.607	1826
268.668	2805
268.729	1920
268.790	3961
268.851	2951
268.912	11255
268.972	11844
269.033	5080
269.094	2865
269.155	3509
269.216	3184
269.277	3171
269.338	2654
269.398	2396
269.459	3827
269.520	5877
269.581	6995
269.642	8214
269.702	5345
269.763	5028
269.824	3896
269.885	5608
269.945	7477
270.006	3605
270.067	2351
270.128	2800
270.188	3053
270.249	3252
270.310	1854
270.370	3352
270.431	3009
270.492	2132
270.553	3143
270.613	8211
270.674	16002
270.734	6443
270.795	4461
270.856	6112
270.916	4664
270.977	3806
271.038	4489
271.098	5084
271.159	6505
271.219	7370
271.280	3702
271.340	3530
271.401	5120
271.462	15490
271.522	5945
271.583	4250
271.643	3955
271.704	4092
271.764	5048
271.825	13435
271.885	43018
271.946	50319
272.006	16813
272.066	26821
272.127	39349
272.187	12443
272.248	7550
272.308	9136
272.369	27924
272.429	14321
272.489	12272
272.550	11440
272.610	12457
272.671	8746
272.731	11519
272.791	18361
272.852	7740
272.912	6965
272.972	4822
273.033	5484
273.093	8639
273.153	7155
273.214	5119
273.274	7332
273.334	24213
273.394	38464
273.455	14901
273.515	17685
273.575	34496
273.635	14586
273.696	24520
273.756	38992
273.816	14639
273.876	11235
273.936	30891
273.997	44521
274.057	11136
274.117	9161
274.177	13771
274.237	51073
274.297	41346
274.358	35535
274.418	31537
274.478	22018
274.538	10318
274.598	11756
274.658	43367
274.718	49204
274.778	15684
274.838	10681
274.898	28009
274.958	70780
275.018	46464
275.078	24823
275.138	12560
275.198	7348
275.258	5248
275.318	9401
275.378	13882
275.438	12831
275.498	9939
275.558	35326
275.618	56626
275.678	26773
275.738	17365
275.798	12931
275.858	7066
275.918	5264
275.978	5692
276.038	5871
276.098	4935
276.157	11351
276.217	27862
276.277	11867
276.337	8692
276.397	5459
276.457	6765
276.517	4827
276.576	4314
276.636	4260
276.696	7721
276.756	18420
276.815	12147
276.875	6205
276.935	7838
276.995	7069
277.055	4346
277.114	5180
277.174	7540
277.234	20976
277.293	8056
277.353	6262
277.413	4676
277.472	6000
277.532	5406
277.592	8457
277.651	28154
277.711	41806
277.771	15643
277.830	53512
277.890	37096
277.950	35534
278.009	83363
278.069	29261
278.128	33722
278.188	42445
278.248	20311
278.307	52599
278.367	28340
278.426	10715
278.486	7592
278.545	5737
278.605	5609
278.664	5531
278.724	7121
278.783	19217
278.843	38885
278.902	12394
278.962	8647
279.021	10609
279.081	20381
279.140	17829
279.199	11723
279.259	11122
279.318	10976
279.378	17838
279.437	31695
279.496	98891
279.556	291367
279.615	203408
279.675	61296
279.734	37477
279.793	54904
279.853	62068
279.912	23747
279.971	15810
280.031	13003
280.090	22361
280.149	35289
280.208	48898
280.268	209893
280.327	178425
280.386	45934
280.445	33045
280.505	26653
280.564	15682
280.623	12206
280.682	16602
280.742	19850
280.801	8328
280.860	6662
280.919	6198
280.978	5966
281.037	5543
281.097	5457
281.156	5227
281.215	4961
281.274	7349
281.333	26900
281.392	17481
281.451	5582
281.510	4890
281.569	4551
281.628	4677
281.688	3749
281.747	5833
281.806	3253
281.865	4327
281.924	2996
281.983	3532
282.042	2383
282.101	4151
282.160	3995
282.219	2475
282.278	3699
282.337	15038
282.396	8700
282.454	5390
282.513	6073
282.572	21591
282.631	10580
282.690	5305
282.749	3602
282.808	5507
282.867	5893
282.926	5912
282.985	3460
283.043	3289
283.102	3233
283.161	5531
283.220	13388
283.279	24330
283.338	7275
283.396	4674
283.455	4416
283.514	5187
283.573	8513
283.631	5892
283.690	4814
283.749	4506
283.808	10402
283.866	11654
283.925	4245
283.984	5205
284.043	7500
284.101	7808
284.160	4779
284.219	7967
284.277	7092
284.336	11625
284.395	30936
284.453	23374
284.512	9776
284.570	14218
284.629	11399
284.688	10865
284.746	12159
284.805	14447
284.863	18306
284.922	22917
284.981	28036
285.039	41922
285.098	74203
285.156	157465
285.215	247170
285.273	229844
285.332	145485
285.390	85124
285.449	54483
285.507	38470
285.566	28561
285.624	21813
285.683	16880
285.741	13713
285.799	11616
285.858	11833
285.916	8984
285.975	7502
286.033	6728
286.091	7289
286.150	5516
286.208	6243
286.267	6578
286.325	7151
286.383	9313
286.442	7616
286.500	5191
286.558	5592
286.616	4713
286.675	6143
286.733	5364
286.791	5624
286.850	6426
286.908	8847
286.966	12363
287.024	6151
287.083	5378
287.141	5272
287.199	5032
287.257	7237
287.315	6254
287.374	6228
287.432	12439
287.490	8640
287.548	5912
287.606	5792
287.664	5897
287.723	8627
287.781	9267
287.839	7174
287.897	8432
287.955	12837
288.013	21605
288.071	52518
288.129	174728
288.187	355318
288.245	170088
288.303	61186
288.361	36882
288.419	27760
288.477	19578
288.535	14744
288.593	10133
288.651	8707
288.709	5149
288.767	6281
288.825	5063
288.883	4904
288.941	5150
288.999	4826
289.057	4212
289.115	4508
289.173	3886
289.231	4939
289.289	4400
289.346	4621
289.404	5294
289.462	8116
289.520	8045
289.578	4231
289.636	2657
289.694	2051
289.751	2921
289.809	3609
289.867	2832
289.925	4562
289.983	4706
290.040	3555
290.098	2521
290.156	4918
290.214	4348
290.271	3142
290.329	2695
290.387	2931
290.444	2883
290.502	3156
290.560	1875
290.617	3130
290.675	2742
290.733	3187
290.790	3601
290.848	2752
290.906	3372
290.963	2743
291.021	4057
291.078	2189
291.136	3224
291.194	11838
291.251	22238
291.309	6374
291.366	2992
291.424	3395
291.481	3944
291.539	3734
291.596	3646
291.654	2156
291.711	2724
291.769	4802
291.826	8121
291.884	4646
291.941	2511
291.999	2955
292.056	3210
292.114	4861
292.171	2212
292.228	3941
292.286	5672
292.343	8594
292.401	10344
292.458	6418
292.515	4198
292.573	5507
292.630	4351
292.687	5852
292.745	4741
292.802	6797
292.859	15438
292.917	26117
292.974	14395
293.031	5299
293.089	4112
293.146	3695
293.203	3102
293.260	3787
293.318	4171
293.375	6113
293.432	3458
293.489	3260
293.546	3668
293.604	7107
293.661	21704
293.718	42811
293.775	18877
293.832	10256
293.889	8754
293.947	7587
294.004	5715
294.061	6391
294.118	12181
294.175	24191
294.232	27349
294.289	11834
294.346	7590
294.403	8229
294.460	6792
294.517	5702
294.574	4403
294.631	4798
294.688	6630
294.745	15512
294.802	47092
294.859	44916
294.916	17471
294.973	10172
295.030	8767
295.087	7349
295.144	6064
295.201	5251
295.258	4642
295.315	6574
295.372	18605
295.429	32761
295.486	14155
295.542	9420
295.599	21082
295.656	32935
295.713	23065
295.770	29059
295.827	11175
295.883	7099
295.940	6469
295.997	10964
296.054	9403
296.111	4853
296.167	3938
296.224	3615
296.281	3104
296.338	3271
296.394	3913
296.451	5565
296.508	15268
296.564	25975
296.621	18221
296.678	40402
296.734	51662
296.791	19242
296.848	10260
296.904	11497
296.961	24010
297.018	35652
297.074	24383
297.131	10949
297.187	8677
297.244	12940
297.301	38969
297.357	59535
297.414	20689
297.470	8591
297.527	7002
297.583	6968
297.640	6033
297.696	5248
297.753	3854
297.809	3557
297.866	2695
297.922	3859
297.979	2742
298.035	4924
298.092	7595
298.148	20964
298.204	18731
298.261	10907
298.317	19525
298.374	46678
298.430	25174
298.486	13982
298.543	10273
298.599	9917
298.656	12362
298.712	20129
298.768	50874
298.824	35434
298.881	12207
298.937	6975
298.993	6873
299.050	7663
299.106	6494
299.162	5718
299.218	5772
299.275	5830
299.331	6483
299.387	13339
299.443	41028
299.500	43275
299.556	19714
299.612	10048
299.668	10258
299.724	14506
299.780	15266
299.837	9826
299.893	12505
299.949	37581
300.005	42528
300.061	37031
300.117	57805
300.173	26846
300.229	13900
300.285	15335
300.341	17050
300.397	9864
300.453	5232
300.510	5843
300.566	6924
300.622	10618
300.678	28383
300.734	45827
300.790	35712
300.845	41137
300.901	28142
300.957	40417
301.013	27357
301.069	12095
301.125	8682
301.181	9660
301.237	7363
301.293	5341
301.349	4803
301.405	4837
301.461	5186
301.516	7287
301.572	6659
301.628	11641
301.684	10324
301.740	15108
301.796	22713
301.851	16999
301.907	26709
301.963	28204
302.019	45883
302.074	111131
302.130	105032
302.186	46510
302.242	20061
302.297	14896
302.353	14406
302.409	24472
302.464	21015
302.520	19450
302.576	41814
302.631	44283
302.687	23338
302.743	11621
302.798	7249
302.854	6796
302.910	6508
302.965	8660
303.021	14867
303.076	14220
303.132	16806
303.187	19296
303.243	10405
303.299	6507
303.354	4777
303.410	5992
303.465	5213
303.521	4967
303.576	4831
303.632	7390
303.687	13832
303.743	36257
303.798	28679
303.853	13319
303.909	7953
303.964	6624
304.020	10229
304.075	14717
304.130	14210
304.186	24166
304.241	23898
304.297	19339
304.352	10287
304.358	9954
304.407	7254
304.449	6694
304.463	6510
304.518	6334
304.539	6395
304.573	6493
304.629	7400
304.630	7478
304.684	11466
304.720	22697
304.739	28346
304.794	41323
304.811	35225
304.850	20181
304.902	10931
304.905	10375
304.960	6963
304.992	8248
305.015	9142
305.071	8704
305.083	8112
305.126	5963
305.173	5248
305.181	5148
305.236	3783
305.264	4565
305.292	5422
305.347	5820
305.354	5950
305.402	6770
305.445	7857
305.457	8160
305.512	9990
305.535	9873
305.567	9643
305.622	10825
305.626	11183
305.678	20351
305.716	38874
305.733	45371
305.788	47499
305.807	41659
305.843	31431
305.897	39248
305.898	39320
305.953	36738
305.988	25467
306.008	19235
306.063	11782
306.078	10541
306.118	8230
306.168	6469
306.173	6339
306.228	5225
306.259	5012
306.283	4868
306.338	4571
306.349	4863
306.393	6635
306.440	7936
306.448	8011
306.503	8432
306.530	8525
306.558	10787
306.613	22550
306.620	24023
306.668	32648
306.711	41375
306.723	42071
306.778	32038
306.801	25253
306.833	17104
306.888	8920
306.892	8499
306.943	5984
306.982	6115
306.997	6231
307.052	6163
307.072	6105
307.107	6831
307.162	9526
307.163	9563
307.217	14138
307.253	16949
307.272	17378
307.327	17802
307.343	16885
307.381	14284
307.434	12661
307.436	13067
307.491	26184
307.524	37695
307.546	40376
307.600	38377
307.614	34957
307.655	22496
307.704	12342
307.710	12124
307.765	14894
307.795	17896
307.819	22286
307.874	37875
307.885	38409
307.929	29614
307.975	22273
307.984	22840
308.038	32525
308.065	41656
308.093	70086
308.148	142449
308.156	157393
308.202	247023
308.246	305248
308.257	294760
308.312	168106
308.336	117843
308.366	90141
308.421	54088
308.426	51234
308.475	34618
308.517	24699
308.530	23046
308.585	19575
308.607	18318
308.639	17920
308.694	19553
308.697	19733
308.748	34285
308.787	49455
308.803	49253
308.857	38969
308.877	34295
308.912	29663
308.967	26772
308.967	26760
309.021	35416
309.058	43742
309.076	54837
309.130	97029
309.148	113545
309.185	201266
309.238	346582
309.239	348023
309.293	388409
309.328	377336
309.348	327531
309.402	169289
309.418	127999
309.457	91705
309.508	55314
309.511	54371
309.566	46412
309.598	43324
309.620	47493
309.674	61778
309.688	65616
309.729	63833
309.778	57193
309.783	55964
309.837	40816
309.868	32918
309.892	35673
309.946	45646
309.959	48990
310.001	63352
310.049	76842
310.055	74352
310.109	45217
310.139	28674
310.163	22977
310.218	14564
310.229	13149
310.272	11261
310.319	9393
310.326	9241
310.381	8732
310.409	8546
310.435	8267
310.489	7532
310.499	7460
310.543	7810
310.589	8204
310.598	8112
310.652	7746
310.679	7391
310.706	6616
310.760	4909
310.769	4669
310.814	4329
310.859	4288
310.868	4326
310.923	4394
310.948	4514
310.977	5415
311.031	7005
311.038	7249
311.085	6718
311.128	5910
311.139	5794
311.193	5492
311.218	5280
311.247	5017
311.301	4557
311.308	4499
311.356	4449
311.398	4449
311.410	4382
311.464	4088
311.488	3953
311.518	3924
311.572	3837
311.578	3836
311.626	5925
311.668	7836
311.680	7802
311.734	7506
311.758	7368
311.788	7484
311.842	7693
311.847	7708
311.896	9076
311.937	10349
311.950	10290
312.004	9932
312.027	9752
312.058	8431
312.112	6088
312.117	5854
312.165	5418
312.207	5052
312.297	6067
312.386	5547
312.476	5248
312.566	13050
312.656	6843
312.745	3972
312.835	4477
312.925	5555
313.015	6516
313.104	8059
313.194	4669
313.284	4943
313.374	5591
313.463	6193
313.553	3649
313.643	3979
313.732	3401
313.822	3195
313.912	4215
314.001	5738
314.091	5503
314.180	7469
314.270	7958
314.360	8373
314.449	7752
314.539	4174
314.628	3806
314.718	5179
314.808	7593
314.897	4305
314.987	4132
315.076	6451
315.166	9240
315.255	8194
315.345	7982
315.434	9429
315.524	8116
315.613	9537
315.703	12924
315.792	21831
315.881	81116
315.971	34438
316.060	17818
316.150	25775
316.239	28524
316.328	11509
316.418	4985
316.507	5695
316.597	7657
316.686	7472
316.775	11395
316.865	30106
316.954	7377
317.043	3599
317.133	5489
317.222	4009
317.311	4271
317.400	4576
317.490	8270
317.579	10260
317.668	8707
317.757	15368
317.847	37503
317.936	147729
318.025	60843
318.114	28424
318.203	17554
318.293	13660
318.382	22636
318.471	18438
318.560	23836
318.649	51008
318.738	13754
318.828	8640
318.917	10787
319.006	12449
319.095	31759
319.184	62819
319.273	39826
319.362	21470
319.451	8467
319.540	7074
319.629	15453
319.718	28709
319.807	12901
319.896	19937
319.985	80585
320.074	36372
320.163	9715
320.252	17918
320.341	11040
320.430	9601
320.519	13734
320.608	8301
320.697	5934
320.786	6641
320.875	9279
320.964	12980
321.053	19549
321.142	27675
321.230	31811
321.319	22168
321.408	48106
321.497	23031
321.586	20183
321.675	25623
321.764	26153
321.852	16203
321.941	27160
322.030	21456
322.119	20050
322.207	52578
322.296	42652
322.385	20003
322.474	21926
322.562	59020
322.651	34591
322.740	22702
322.829	34068
322.917	38829
323.006	21934
323.095	16679
323.183	15339
323.272	22574
323.361	37643
323.449	128087
323.538	47299
323.626	80670
323.715	58318
323.804	19945
323.892	73069
323.981	46060
324.069	13453
324.158	37825
324.246	41926
324.335	11006
324.424	17976
324.512	7587
324.601	7656
324.689	11361
324.778	20762
324.866	29405
324.954	8708
325.043	7390
325.131	15800
325.220	29825
325.308	35852
325.397	24869
325.485	15943
325.574	4958
325.662	3795
325.750	5285
325.839	4387
325.927	4373
326.015	6266
326.104	12247
326.192	22224
326.280	6230
326.369	5089
326.457	7166
326.545	13668
326.634	7194
326.722	3605
326.810	4430
326.898	4023
326.987	5055
327.075	12945
327.163	16838
327.251	8666
327.340	6572
327.428	7946
327.516	4063
327.604	4386
327.692	6191
327.781	6879
327.869	14023
327.957	8829
328.045	7663
328.133	4071
328.221	7033
328.309	5458
328.397	4097
328.485	5866
328.574	9624
328.662	31123
328.750	23727
328.838	9369
328.926	5293
329.014	3281
329.102	6492
329.190	14907
329.278	12292
329.366	3484
329.454	3030
329.542	3328
329.630	3300
329.718	4510
329.806	6332
329.893	5760
329.981	7719
330.069	12396
330.157	43401
330.245	121119
330.333	70419
330.421	14841
330.509	11877
330.597	37386
330.684	29348
330.772	9087
330.860	10099
330.948	13238
331.036	6522
331.123	3182
331.211	3084
331.299	4622
331.387	9612
331.475	20080
331.562	8107
331.650	3570
331.738	5395
331.825	8010
331.913	3884
332.001	4418
332.089	6460
332.176	13954
332.264	36742
332.352	31340
332.439	8059
332.527	5625
332.614	4088
332.702	7472
332.790	5486
332.877	15086
332.965	37826
333.052	10811
333.140	9685
333.228	25806
333.315	8495
333.403	7116
333.490	19990
333.578	20204
333.665	26788
333.753	15367
333.840	6625
333.928	7729
334.015	22095
334.103	31562
334.190	99639
334.278	29062
334.365	11748
334.452	8089
334.540	6293
334.627	7685
334.715	13544
334.802	26444
334.889	141909
334.977	163279
335.064	19718
335.151	8948
335.239	7675
335.326	10243
335.413	35975
335.501	58689
335.588	10197
335.675	6413
335.762	7582
335.850	12655
335.937	12911
336.024	31489
336.111	140523
336.199	62669
336.286	12053
336.373	6374
336.460	4424
336.547	4413
336.635	5926
336.722	5633
336.809	4667
336.896	8241
336.983	23019
337.070	56129
337.157	92171
337.245	89095
337.332	74484
337.419	8554
337.506	5505
337.593	5516
337.680	15076
337.767	50340
337.854	16097
337.941	17657
338.028	29031
338.115	10396
338.202	9887
338.289	20713
338.376	91054
338.463	30132
338.550	27521
338.637	34409
338.724	15221
338.811	28525
338.898	6711
338.984	3894
339.071	5151
339.158	7136
339.245	17796
339.332	12093
339.419	15299
339.506	17856
339.593	3447
339.679	3043
339.766	3044
339.853	5207
339.940	12916
340.027	4567
340.113	4043
340.200	5816
340.287	5659
340.374	6157
340.460	12361
340.547	4029
340.634	8606
340.720	35356
340.807	25021
340.894	3125
340.980	4113
341.067	3789
341.154	4851
341.240	6296
341.327	18334
341.414	5960
341.500	5207
341.587	4642
341.674	3955
341.760	10436
341.847	14712
341.933	5373
342.020	1199
342.106	2578
342.193	4345
342.279	9086
342.366	6512
342.452	11794
342.539	6554
342.625	14281
342.712	40201
342.798	17937
342.885	6386
342.971	2238
343.058	2297
343.144	2741
343.230	3996
343.317	3239
343.403	2388
343.490	2292
343.576	2392
343.662	3951
343.749	4619
343.835	7780
343.921	12776
344.008	66984
344.094	172685
344.180	41683
344.267	13475
344.353	39641
344.439	50701
344.525	20219
344.612	9472
344.698	8147
344.784	6208
344.870	3153
344.957	3155
345.043	6755
345.129	4587
345.215	10146
345.301	6586
345.387	2976
345.474	2278
345.560	3355
345.646	4902
345.732	3344
345.818	4400
345.904	4145
345.990	5250
346.076	4821
346.162	11484
346.249	5050
346.335	3155
346.421	5406
346.507	16898
346.593	63408
346.679	16910
346.765	4431
346.851	4581
346.937	4507
347.023	3331
347.108	4021
347.194	4142
347.280	3429
347.366	4607
347.452	16285
347.538	74843
347.624	54854
347.710	46368
347.796	8643
347.882	3963
347.967	4103
348.053	4678
348.139	4096
348.225	3811
348.311	3066
348.397	3579
348.482	4393
348.568	5219
348.654	2425
348.740	4306
348.825	5859
348.911	8491
348.997	31354
349.083	73992
349.168	14142
349.254	4781
349.340	3639
349.425	3141
349.511	5549
349.597	6454
349.682	11560
349.768	39012
349.854	22411
349.939	4058
350.025	3083
350.110	3085
350.196	2042
350.282	2532
350.367	2774
350.453	8356
350.538	10044
350.624	4928
350.709	5338
350.795	2471
350.880	3712
350.966	4824
351.051	7227
351.137	7090
351.222	3835
351.308	10466
351.393	35874
351.479	10360
351.564	2397
351.649	3772
351.735	3007
351.820	1955
351.906	2505
351.991	5895
352.076	21330
352.162	36118
352.247	8251
352.332	3773
352.418	8314
352.503	11601
352.588	45456
352.673	44728
352.759	10492
352.844	4467
352.929	5390
353.014	7857
353.100	4569
353.185	6370
353.270	12548
353.355	14518
353.441	4869
353.526	6465
353.611	12403
353.696	16197
353.781	8873
353.866	4023
353.952	4241
354.037	11270
354.122	28980
354.207	26624
354.292	10618
354.377	4003
354.462	3757
354.547	4939
354.632	4493
354.717	6160
354.802	7018
354.887	3564
354.972	3200
355.057	2813
355.142	2637
355.227	4964
355.312	7869
355.397	18624
355.482	45843
355.567	25195
355.652	15172
355.737	16445
355.822	48080
355.907	46980
355.991	7577
356.076	3892
356.161	3314
356.246	3898
356.331	4247
356.416	11372
356.501	82728
356.585	102020
356.670	14771
356.755	8730
356.840	12670
356.924	51842
357.009	215171
357.094	91167
357.179	18198
357.263	12032
357.348	10357
357.433	11103
357.517	9152
357.602	8121
357.687	5645
357.771	8879
357.856	27592
357.941	21091
358.025	41964
358.110	204708
358.195	107297
358.279	17021
358.364	9698
358.448	33544
358.533	91109
358.617	70215
358.702	66532
358.787	28300
358.871	14147
358.956	11652
359.040	4818
359.125	3396
359.209	3998
359.294	11654
359.378	23830
359.462	12493
359.547	6944
359.631	5922
359.716	3939
359.800	3719
359.885	6153
359.969	4217
360.053	3970
360.138	4570
360.222	7176
360.306	14006
360.391	10620
360.475	16530
360.559	40158
360.644	38288
360.728	30950
360.812	41193
360.896	136418
360.981	56380
361.065	26782
361.149	8019
361.233	7776
361.318	6278
361.402	7226
361.486	7591
361.570	4634
361.654	7026
361.739	18461
361.823	79909
361.907	142683
361.991	26762
362.075	12063
362.159	28935
362.243	21652
362.327	17533
362.411	20524
362.495	12773
362.580	7856
362.664	5690
362.748	5348
362.832	7053
362.916	11427
363.000	33522
363.084	97632
363.168	165183
363.252	42299
363.336	13448
363.420	16288
363.503	51621
363.587	69622
363.671	14442
363.755	9191
363.839	14330
363.923	7392
364.007	15893
364.091	19092
364.175	23157
364.258	90443
364.342	69240
364.426	64755
364.510	37991
364.594	19395
364.677	22906
364.761	110063
364.845	90983
364.929	24783
365.013	21389
365.096	15867
365.180	21371
365.264	21163
365.347	89241
365.431	42374
365.515	10525
365.598	5872
365.682	5159
365.766	7466
365.849	10599
365.933	6464
366.017	8236
366.100	5748
366.184	3129
366.267	4764
366.351	3547
366.435	3349
366.518	2816
366.602	2214
366.685	3803
366.769	4029
366.852	8167
366.936	15952
367.019	10493
367.103	5778
367.186	10681
367.270	3929
367.353	2967
367.436	3785
367.520	3560
367.603	5107
367.687	8488
367.770	16783
367.853	9761
367.937	26075
368.020	50522
368.104	14118
368.187	11842
368.270	16822
368.353	14179
368.437	21949
368.520	60245
368.603	35849
368.687	33004
368.770	70715
368.853	19311
368.936	13989
369.020	13588
369.103	5514
369.186	4070
369.269	4352
369.352	9498
369.436	15836
369.519	9646
369.602	4543
369.685	5739
369.768	5373
369.851	5000
369.934	3309
370.018	4678
370.101	13246
370.184	10894
370.267	6343
370.350	11138
370.433	18430
370.516	51532
370.599	83942
370.682	29329
370.765	32731
370.848	41246
370.931	86235
371.014	35486
371.097	6974
371.180	5407
371.263	3800
371.346	2055
371.429	3223
371.511	3792
371.594	7639
371.677	12288
371.760	12872
371.843	12362
371.926	60820
372.009	162050
372.091	53185
372.174	29265
372.257	76632
372.340	33192
372.423	18562
372.505	21224
372.588	9785
372.671	22531
372.754	82516
372.836	46222
372.919	22332
373.002	48375
373.085	17002
373.167	12062
373.250	31084
373.332	75319
373.415	99386
373.498	230766
373.580	91904
373.663	110088
373.746	166426
373.828	37649
373.911	13941
373.993	13474
374.076	43454
374.159	49988
374.241	21931
374.324	66927
374.406	50235
374.489	53934
374.571	173164
374.654	77918
374.736	30455
374.819	101508
374.901	152330
374.983	176787
375.066	33269
375.148	9752
375.231	34446
375.313	76111
375.395	29721
375.478	8107
375.560	5476
375.643	8912
375.725	28757
375.807	141393
375.890	126897
375.972	58208
376.054	26515
376.136	48508
376.219	22175
376.301	34590
376.383	124253
376.465	52144
376.548	29213
376.630	32533
376.712	100198
376.794	53491
376.877	6783
376.959	3559
377.041	5355
377.123	7727
377.205	10469
377.287	3338
377.369	2785
377.452	3486
377.534	4210
377.616	4194
377.698	3597
377.780	2836
377.862	3532
377.944	4458
378.026	2659
378.108	3034
378.190	3131
378.272	2700
378.354	2045
378.436	2269
378.518	4904
378.600	19947
378.682	17538
378.764	43752
378.846	39122
378.928	9355
379.010	12326
379.091	7714
379.173	4490
379.255	3114
379.337	6574
379.419	19592
379.501	67349
379.583	29173
379.664	7192
379.746	15198
379.828	41365
379.910	60635
379.991	58201
380.073	10794
380.155	7297
380.237	5809
380.318	3528
380.400	4011
380.482	10025
380.564	17517
380.645	14337
380.727	14310
380.809	9128
380.890	6505
380.972	4535
381.053	4465
381.135	6106
381.217	13557
381.298	46163
381.380	25840
381.461	20034
381.543	94686
381.624	138808
381.706	27318
381.787	11633
381.869	12846
381.951	37712
382.032	168679
382.113	116388
382.195	24653
382.276	13780
382.358	26460
382.439	83630
382.521	97248
382.602	167257
382.684	77813
382.765	130967
382.846	153584
382.928	217005
383.009	133519
383.090	89614
383.172	302583
383.253	494911
383.334	178844
383.416	152368
383.497	88439
383.578	44061
383.659	79509
383.741	268682
383.822	716065
383.903	402986
383.984	122584
384.066	173337
384.147	118851
384.228	27297
384.309	18607
384.390	14291
384.471	9950
384.553	10025
384.634	14466
384.715	15972
384.796	8891
384.877	10470
384.958	38401
385.039	54154
385.120	19885
385.201	9261
385.282	10747
385.363	11405
385.444	11584
385.525	16775
385.606	61537
385.687	62133
385.768	14835
385.849	14294
385.930	66358
386.011	133259
386.092	39181
386.173	9940
386.254	7546
386.335	7128
386.416	7648
386.496	23832
386.577	46123
386.658	17272
386.739	10440
386.820	9027
386.901	7456
386.981	7522
387.062	5872
387.143	10026
387.224	41886
387.304	43612
387.385	15209
387.466	8135
387.547	9897
387.627	7149
387.708	14804
387.789	70168
387.869	101694
387.950	29962
388.031	5236
388.111	4517
388.192	11611
388.273	19814
388.353	12486
388.434	7316
388.514	14071
388.595	71862
388.676	100939
388.756	45994
388.837	40358
388.917	29122
388.998	6091
389.078	5758
389.159	5584
389.239	5871
389.320	8472
389.400	7934
389.480	14210
389.561	43151
389.641	25218
389.722	8084
389.802	13233
389.883	17581
389.963	52014
390.043	39798
390.124	13132
390.204	15061
390.284	50732
390.365	37992
390.445	38714
390.525	146987
390.605	151689
390.686	36861
390.766	11778
390.846	6900
390.927	4319
391.007	4958
391.087	5725
391.167	5348
391.247	5102
391.328	10277
391.408	12053
391.488	8604
391.568	4051
391.648	6917
391.728	9875
391.808	9555
391.888	11436
391.969	22289
392.049	40201
392.129	18700
392.209	18676
392.289	50579
392.369	31260
392.449	21513
392.529	16034
392.609	13761
392.689	16999
392.769	51956
392.849	51110
392.929	32397
393.009	76255
393.089	71792
393.169	71810
393.248	216558
393.328	822395
393.408	960979
393.488	291012
393.568	77742
393.648	38218
393.728	24018
393.807	17289
393.887	15918
393.967	13764
394.047	14198
394.127	18287
394.206	28169
394.286	90760
394.366	412433
394.446	504475
394.525	133912
394.605	32602
394.685	20560
394.764	30060
394.844	50096
394.924	40626
395.003	15321
395.083	11078
395.163	10708
395.242	9373
395.322	10439
395.402	7685
395.481	10292
395.561	20710
395.640	57678
395.720	51337
395.799	65775
395.879	59566
395.958	43097
396.038	134685
396.117	542378
396.197	663631
396.276	214404
396.356	62392
396.435	39465
396.515	30421
396.594	34824
396.673	61655
396.753	225609
396.832	768361
396.912	618240
396.991	149809
397.070	40613
397.150	21454
397.229	14957
397.308	15736
397.388	24769
397.467	15658
397.546	8403
397.625	5677
397.705	9272
397.784	8391
397.863	6098
397.942	4197
398.022	4547
398.101	14571
398.180	50466
398.259	27462
398.338	8472
398.417	5833
398.497	3936
398.576	5118
398.655	2859
398.734	3295
398.813	3284
398.892	12775
398.971	53990
399.050	30908
399.129	3847
399.208	2186
399.287	3135
399.366	2523
399.445	2292
399.524	2029
399.603	2423
399.682	6336
399.761	16528
399.840	57944
399.919	51715
399.998	7870
400.077	1189
400.156	1298
400.235	3858
400.313	2767
400.392	3112
400.471	19778
400.550	39386
400.629	11353
400.708	4093
400.786	2551
400.865	9346
400.944	10959
401.023	6911
401.102	2195
401.180	1526
401.259	2251
401.338	2978
401.416	4417
401.495	3667
401.574	2956
401.652	1889
401.731	3997
401.810	3091
401.888	1824
401.967	244
402.046	1929
402.124	3344
402.203	5505
402.281	2949
402.360	3978
402.438	11643
402.517	9902
402.596	3215
402.674	2895
402.753	1442
402.831	2126
402.910	2025
402.988	7115
403.066	26849
403.145	19504
403.223	9062
403.302	21373
403.380	16234
403.459	14727
403.537	6877
403.615	3724
403.694	435
403.772	1955
403.850	1590
403.929	1052
404.007	1500
404.085	5067
404.164	4190
404.242	2504
404.320	8639
404.398	28639
404.477	39968
404.555	122032
404.633	126140
404.711	32434
404.789	14753
404.868	4480
404.946	2287
405.024	1057
405.102	1202
405.180	1584
405.258	1098
405.336	2081
405.415	678
405.493	5113
405.571	4564
405.649	1730
405.727	477
405.805	4022
405.883	3048
405.961	3391
406.039	3814
406.117	1858
406.195	4860
406.273	22014
406.351	103867
406.429	68767
406.507	9363
406.585	2339
406.663	2975
406.740	4423
406.818	4244
406.896	2348
406.974	2621
407.052	6366
407.130	53168
407.208	92296
407.285	19593
407.363	3261
407.441	2578
407.519	3165
407.596	4048
407.674	14641
407.752	70042
407.830	65365
407.907	14041
407.985	3463
408.063	2489
408.141	1260
408.218	3311
408.296	3261
408.373	2450
408.451	3263
408.529	2823
408.606	1210
408.684	956
408.762	809
408.839	640
408.917	530
408.994	557
409.072	146
409.149	848
409.227	2493
409.304	3317
409.382	2988
409.459	2099
409.537	4650
409.614	5224
409.692	3630
409.769	3276
409.846	5452
409.924	6892
410.001	4785
410.079	4078
410.156	3497
410.233	2592
410.311	2677
410.388	1351
410.465	2583
410.543	1598
410.620	1743
410.697	2914
410.775	2991
410.852	668
410.929	2523
411.006	3529
411.083	1727
411.161	3888
411.238	5392
411.315	2398
411.392	670
411.469	2550
411.547	2883
411.624	274
411.701	870
411.778	2982
411.855	8418
411.932	3803
412.009	1744
412.086	1588
412.163	1658
412.240	2015
412.317	3639
412.394	2013
412.471	1324
412.548	1245
412.625	1018
412.702	2162
412.779	4828
412.856	2919
412.933	474
413.010	1307
413.087	3535
413.164	17310
413.241	30448
413.318	8178
413.395	3363
413.471	5873
413.548	2901
413.625	1609
413.702	2047
413.779	2764
413.855	-28
413.932	229
414.009	100
414.086	481
414.162	958
414.239	2780
414.316	16004
414.393	46918
414.469	19382
414.546	1311
414.623	699
414.699	787
414.776	1105
414.853	1252
414.929	1532
415.006	1273
415.082	1254
415.159	1071
415.236	1510
415.312	900
415.389	4345
415.465	6259
415.542	3270
415.618	1536
415.695	4631
415.771	2167
415.848	2090
415.924	2120
416.000	1414
416.077	1238
416.153	389
416.230	-297
416.306	484
416.383	921
416.459	1809
416.535	519
416.612	364
416.688	-342
416.764	1371
416.841	425
416.917	174
416.993	680
417.069	1893
417.146	2615
417.222	5617
417.298	3285
417.374	1435
417.451	1675
417.527	2467
417.603	3185
417.679	2148
417.755	1344
417.831	270
417.908	571
417.984	379
418.060	-30
418.136	4829
418.212	7233
418.288	2394
418.364	911
418.440	979
418.516	3121
418.592	3391
418.668	7425
418.744	13273
418.820	10727
418.896	2806
418.972	584
419.048	1213
419.124	4704
419.200	4931
419.276	1472
419.352	570
419.428	519
419.504	1094
419.579	2789
419.655	2332
419.731	1350
419.807	7671
419.883	17732
419.959	13805
420.034	3206
420.110	4915
420.186	25587
420.262	25131
420.337	4658
420.413	2711
420.489	1130
420.565	1426
420.640	1041
420.716	2059
420.792	544
420.867	2116
420.943	949
421.019	3883
421.094	3288
421.170	1897
421.245	935
421.321	944
421.397	2716
421.472	8963
421.548	36162
421.623	25982
421.699	6041
421.774	4810
421.850	3574
421.925	6608
422.001	6273
422.076	5329
422.152	5669
422.227	9865
422.302	12234
422.378	17262
422.453	31020
422.529	72202
422.604	220868
422.679	405180
422.755	274856
422.830	100587
422.905	38512
422.981	19951
423.056	13547
423.131	10257
423.207	6664
423.282	6551
423.357	10894
423.432	8019
423.508	6244
423.583	14058
423.658	12595
423.733	4466
423.808	4035
423.883	5813
423.959	4667
424.034	3806
424.109	3247
424.184	701
424.259	1616
424.334	787
424.409	454
424.484	1214
424.559	1370
424.634	2082
424.709	3342
424.784	4360
424.859	1887
424.934	2935
425.009	16993
425.084	33396
425.159	14699
425.234	2583
425.309	574
425.384	4525
425.459	10035
425.534	4225
425.609	1203
425.683	128
425.758	912
425.833	1597
425.908	1932
425.983	8723
426.058	35249
426.132	17713
426.207	2847
426.282	3713
426.357	2938
426.431	1215
426.506	961
426.581	852
426.655	1061
426.730	1432
426.805	996
426.879	1667
426.954	1786
427.029	4363
427.103	26784
427.178	86814
427.253	45840
427.327	6426
427.402	3981
427.476	11723
427.551	6816
427.625	2400
427.700	2342
427.774	438
427.849	2508
427.923	891
427.998	1105
428.072	1179
428.147	5018
428.221	21813
428.296	79890
428.370	51304
428.444	7042
428.519	4627
428.593	8868
428.667	8448
428.742	9631
428.816	10915
428.890	42097
428.965	83821
429.039	29431
429.113	13350
429.188	5228
429.262	1820
429.336	4139
429.410	14575
429.485	10728
429.559	8150
429.633	7889
429.707	3338
429.781	6369
429.855	43807
429.930	83097
430.004	42141
430.078	49001
430.152	50188
430.226	105902
430.300	130129
430.374	25562
430.448	7304
430.522	13457
430.596	48645
430.670	35698
430.744	80080
430.818	145799
430.892	36142
430.966	5351
431.040	3354
431.114	498
431.188	700
431.262	990
431.336	2175
431.410	3263
431.484	12021
431.557	11041
431.631	2019
431.705	2068
431.779	11606
431.853	65711
431.927	59843
432.000	8962
432.074	2509
432.148	2284
432.222	2184
432.295	1238
432.369	1312
432.443	3054
432.516	26127
432.590	87995
432.664	39584
432.737	4734
432.811	210
432.885	-138
432.958	630
433.032	-571
433.106	488
433.179	98
433.253	-243
433.326	743
433.400	-30
433.473	176
433.547	-116
433.620	430
433.694	2303
433.767	3785
433.841	975
433.914	-35
433.988	809
434.061	676
434.134	240
434.208	-245
434.281	-313
434.355	299
434.428	574
434.501	668
434.575	519
434.648	235
434.721	-283
434.795	320
434.868	-609
434.941	-533
435.014	-275
435.088	617
435.161	1800
435.234	3038
435.307	4750
435.381	1875
435.454	1696
435.527	1684
435.600	2171
435.673	2335
435.746	1956
435.819	784
435.892	988
435.966	381
436.039	770
436.112	1167
436.185	655
436.258	251
436.331	-948
436.404	65
436.477	-265
436.550	-766
436.623	-146
436.696	-722
436.769	364
436.842	203
436.915	-208
436.987	1517
437.060	1077
437.133	-2
437.206	97
437.279	811
437.352	321
437.425	-493
437.498	1476
437.570	2589
437.643	3243
437.716	907
437.789	91
437.861	1971
437.934	7536
438.007	4492
438.080	1525
438.152	1410
438.225	4808
438.298	35579
438.370	125955
438.443	61135
438.516	11301
438.588	2663
438.661	299
438.734	560
438.806	1519
438.879	2546
438.951	1428
439.024	4500
439.096	1378
439.169	364
439.241	-57
439.314	139
439.386	2065
439.459	3338
439.531	6608
439.604	2257
439.676	1413
439.749	390
439.821	781
439.893	290
439.966	710
440.038	655
440.110	1857
440.183	858
440.255	313
440.327	2727
440.400	12433
440.472	69137
440.544	58651
440.617	7089
440.689	4141
440.761	3128
440.833	6798
440.905	6165
440.978	906
441.050	43
441.122	530
441.194	106
441.266	1290
441.338	136
441.411	2111
441.483	17177
441.555	34521
441.627	9078
441.699	2860
441.771	2840
441.843	867
441.915	520
441.987	294
442.059	776
442.131	1907
442.203	2434
442.275	3999
442.347	4291
442.419	6446
442.491	27496
442.563	85615
442.635	53401
442.706	18694
442.778	14532
442.850	3408
442.922	2074
442.994	2484
443.066	3973
443.137	4514
443.209	3827
443.281	5066
443.353	11263
443.425	38320
443.496	150304
443.568	178707
443.640	80317
443.711	19944
443.783	5922
443.855	3906
443.926	2154
443.998	1717
444.070	2573
444.141	2793
444.213	4295
444.285	5429
444.356	3967
444.428	4572
444.499	2290
444.571	955
444.642	1191
444.714	1845
444.785	3557
444.857	4620
444.928	9087
445.000	7546
445.071	6920
445.143	9229
445.214	6637
445.285	10297
445.357	29409
445.428	96444
445.500	255348
445.571	186046
445.642	102407
445.714	40826
445.785	23806
445.856	8607
445.928	5880
445.999	5350
446.070	3309
446.141	3439
446.213	4321
446.284	2376
446.355	2936
446.426	2200
446.497	1562
446.569	2818
446.640	4558
446.711	4065
446.782	1163
446.853	3026
446.924	3574
446.995	1488
447.066	1339
447.138	3566
447.209	1969
447.280	681
447.351	380
447.422	45
447.493	640
447.564	2235
447.635	3862
447.706	1560
447.777	571
447.847	200
447.918	835
447.989	1270
448.060	2748
448.131	5889
448.202	6192
448.273	4056
448.344	1887
448.414	619
448.485	771
448.556	1126
448.627	135
448.698	901
448.768	-273
448.839	781
448.910	2896
448.981	3655
449.051	1371
449.122	496
449.193	-565
449.263	847
449.334	1216
449.405	1513
449.475	4747
449.546	4484
449.616	3230
449.687	3547
449.758	1556
449.828	165
449.899	14
449.969	362
450.040	1059
450.110	2020
450.181	2160
450.251	1331
450.322	709
450.392	1477
450.463	-59
450.533	125
450.604	84
450.674	491
450.744	1174
450.815	381
450.885	868
450.955	571
451.026	752
451.096	-91
451.166	1309
451.237	3507
451.307	8858
451.377	5392
451.447	341
451.518	389
451.588	552
451.658	499
451.728	2224
451.799	8511
451.869	12645
451.939	2942
452.009	1336
452.079	387
452.149	791
452.219	1807
452.289	10497
452.360	10644
452.430	2769
452.500	2790
452.570	2873
452.640	4214
452.710	10212
452.780	17208
452.850	13189
452.920	12636
452.990	5298
453.060	2426
453.129	3092
453.199	4145
453.269	10777
453.339	33019
453.409	55314
453.479	44181
453.549	65869
453.619	72259
453.688	34589
453.758	6306
453.828	1506
453.898	1192
453.968	834
454.037	1362
454.087	942
454.107	737
454.168	1167
454.177	1193
454.247	889
454.249	919
454.316	868
454.330	1087
454.386	1818
454.411	3096
454.456	4729
454.492	6971
454.525	8860
454.574	6344
454.595	5271
454.655	1712
454.665	1128
454.734	2140
454.736	2251
454.804	4453
454.817	6071
454.873	11428
454.898	12951
454.943	14969
454.979	11148
455.013	8035
455.060	5185
455.082	4145
455.141	4051
455.152	4023
455.221	10556
455.222	10814
455.291	20868
455.303	21974
455.360	25178
455.384	35040
455.430	48631
455.465	39265
455.499	30769
455.546	19926
455.569	14851
455.627	9967
455.638	9182
455.707	3632
455.708	3656
455.777	1753
455.789	1974
455.846	2631
455.869	2397
455.916	1974
455.950	2357
455.985	2697
456.031	2673
456.054	2540
456.112	2076
456.124	2003
456.193	2388
456.193	2355
456.262	3286
456.274	3309
456.332	3193
456.355	3729
456.401	4237
456.436	3765
456.470	3393
456.516	3057
456.540	2843
456.597	2352
456.609	2259
456.678	2524
456.678	2495
456.747	2343
456.759	2332
456.817	2144
456.840	2250
456.886	2354
456.920	2940
456.955	3591
457.001	3391
457.024	3348
457.082	3866
457.093	3962
457.162	5772
457.163	5820
457.232	7449
457.243	7195
457.301	4969
457.324	4275
457.370	3622
457.405	3962
457.439	4398
457.485	4466
457.508	4436
457.566	5156
457.577	5400
457.646	6832
457.647	6892
457.715	11439
457.727	12403
457.784	20406
457.808	24664
457.853	30514
457.889	36631
457.922	34697
457.969	27987
457.991	29643
458.050	32502
458.060	34013
458.129	51373
458.130	52047
458.198	53667
458.211	52187
458.267	35239
458.292	25777
458.336	19496
458.372	16741
458.405	19122
458.453	24509
458.474	31157
458.533	53337
458.543	55874
458.611	85017
458.614	86163
458.680	61260
458.694	52784
458.749	32231
458.775	22824
458.818	14999
458.855	11396
458.887	9693
458.936	8569
458.955	8186
459.016	7305
459.024	7214
459.093	7662
459.097	7665
459.162	7153
459.177	7143
459.230	7625
459.257	8046
459.299	8447
459.338	8500
459.368	8713
459.418	10160
459.437	9944
459.499	8060
459.505	8068
459.574	8096
459.579	8129
459.643	7523
459.659	7567
459.711	8050
459.740	8142
459.780	8433
459.820	8903
459.849	9145
459.900	9524
459.917	9574
459.981	9659
459.986	9621
460.054	10248
460.061	10262
460.123	10651
460.141	10712
460.191	11782
460.222	12682
460.260	14014
460.302	15806
460.328	15534
460.382	14574
460.397	14618
460.462	14439
460.465	14698
460.534	21541
460.543	22486
460.602	59513
460.623	73163
460.671	119623
460.703	157482
460.739	145717
460.783	131862
460.808	110324
460.864	30438
460.876	26082
460.944	11992
460.945	11850
461.013	10082
461.024	9953
461.081	9763
461.104	9908
461.150	9991
461.184	9738
461.218	9199
461.264	8597
461.286	8704
461.345	8972
461.355	8882
461.423	8651
461.425	8635
461.491	8945
461.505	9181
461.559	12462
461.585	13824
461.628	21033
461.665	27889
461.696	30717
461.745	37512
461.764	33355
461.825	15252
461.832	14957
461.901	10893
461.905	10779
461.969	9827
461.985	9642
462.037	9285
462.065	9063
462.105	9641
462.145	10328
462.173	12752
462.225	17288
462.241	18876
462.305	26298
462.310	25769
462.378	17426
462.385	16195
462.446	11933
462.465	10734
462.514	10085
462.545	10327
462.582	10677
462.625	10581
462.650	10475
462.705	10400
462.718	10462
462.785	10755
462.786	10793
462.854	12911
462.865	13259
462.922	15637
462.945	16825
462.990	14492
463.025	11934
463.058	11148
463.104	10258
463.126	10219
463.184	10379
463.194	10405
463.262	10081
463.264	10082
463.330	10356
463.344	10334
463.398	11241
463.424	11712
463.466	11484
463.504	11448
463.533	11670
463.583	11631
463.601	11840
463.663	12659
463.669	12807
463.737	14383
463.743	14548
463.805	19344
463.823	20648
463.873	28830
463.903	33953
463.940	36802
463.982	40428
464.008	33888
464.062	18765
464.076	17775
464.142	11944
464.144	11929
464.211	11925
464.221	11945
464.279	11359
464.301	11201
464.347	12255
464.381	12849
464.414	13537
464.461	14660
464.482	15532
464.540	17952
464.550	17761
464.617	16076
464.620	15995
464.685	17089
464.699	17291
464.753	19087
464.779	19949
464.820	21652
464.859	23231
464.888	22642
464.938	21802
464.956	21912
465.018	21664
465.023	21473
465.091	18634
465.098	18313
465.158	19063
465.177	19309
465.226	19226
465.257	19143
465.293	19445
465.336	19609
465.361	20616
465.416	22920
465.428	23645
465.495	27447
465.496	27555
465.563	37540
465.575	39221
465.631	47774
465.654	51568
465.698	36962
465.734	24203
465.765	22970
465.813	20885
465.833	20822
465.893	21027
465.900	21014
465.968	20574
465.972	20505
466.035	21003
466.052	21073
466.102	22023
466.131	22610
466.170	22903
466.210	23000
466.237	23563
466.290	24675
466.304	24890
466.369	25505
466.372	25613
466.439	27494
466.449	27699
466.506	28859
466.528	29245
466.573	33682
466.607	36899
466.641	45803
466.687	58072
466.708	63871
466.766	79693
466.775	75418
466.842	42155
466.845	40489
466.909	34788
466.925	33386
466.977	32158
467.004	31477
467.044	32078
467.083	32571
467.111	33994
467.163	36489
467.178	37576
467.242	41726
467.245	41602
467.312	37270
467.321	36619
467.379	36374
467.400	36177
467.446	35915
467.480	35594
467.559	34528
467.638	30799
467.717	29743
467.796	32525
467.875	33553
467.955	32500
468.034	36792
468.113	62028
468.192	90226
468.271	41623
468.350	31986
468.429	35093
468.508	33983
468.588	29973
468.667	28371
468.746	27824
468.825	27715
468.904	23498
468.983	26144
469.062	32812
469.141	38884
469.220	24384
469.299	22719
469.378	24146
469.456	29006
469.535	27335
469.614	25193
469.693	25145
469.772	29258
469.851	34285
469.930	30655
470.009	23301
470.088	24955
470.166	26121
470.245	30161
470.324	36955
470.403	33319
470.482	27117
470.560	25253
470.639	24129
470.718	27205
470.797	23819
470.875	24243
470.954	29732
471.033	33448
471.111	21104
471.190	20579
471.269	18578
471.347	19732
471.426	18889
471.505	22662
471.583	24416
471.662	23407
471.740	21135
471.819	22047
471.898	21194
471.976	20465
472.055	20792
472.133	23581
472.212	28698
472.290	27895
472.369	20276
472.447	19737
472.526	18424
472.604	20759
472.683	20485
472.761	21412
472.839	19655
472.918	20722
472.996	19634
473.075	21779
473.153	20802
473.231	19149
473.310	20966
473.388	22247
473.466	20465
473.545	23818
473.623	27953
473.701	27971
473.780	20851
473.858	20090
473.936	21191
474.014	21342
474.093	21819
474.171	30400
474.249	35501
474.327	27400
474.405	19256
474.484	18921
474.562	19214
474.640	21362
474.718	20874
474.796	23467
474.874	21804
474.952	21582
475.030	21269
475.108	22470
475.187	25260
475.265	27601
475.343	27644
475.421	31335
475.499	22361
475.577	22308
475.655	23346
475.733	36384
475.811	57545
475.889	53188
475.966	41859
476.044	19418
476.122	19412
476.200	23695
476.278	21040
476.356	17459
476.434	18939
476.512	19854
476.590	23822
476.667	23129
476.745	16906
476.823	18525
476.901	16702
476.979	18743
477.056	17998
477.134	17764
477.212	18224
477.290	17571
477.367	16829
477.445	16772
477.523	15371
477.601	15981
477.678	16541
477.756	18962
477.834	20498
477.911	17343
477.989	16512
478.066	15750
478.144	18148
478.222	17703
478.299	23317
478.377	26237
478.454	18416
478.532	15394
478.609	15357
478.687	18694
478.764	15059
478.842	17307
478.919	17859
478.997	18054
479.074	14735
479.152	17353
479.229	20784
479.307	16523
479.384	13895
479.461	14942
479.539	15429
479.616	18131
479.694	16176
479.771	16655
479.848	17605
479.926	20118
480.003	23979
480.080	16722
480.157	14301
480.235	14694
480.312	15404
480.389	17153
480.467	22233
480.544	28395
480.621	19231
480.698	17436
480.775	18750
480.853	18843
480.930	16782
481.007	17275
481.084	21686
481.161	31755
481.238	24692
481.315	15869
481.392	14788
481.470	15847
481.547	15834
481.624	16093
481.701	14524
481.778	16248
481.855	16541
481.932	22688
482.009	30762
482.086	28689
482.163	17217
482.240	19758
482.317	26136
482.393	26040
482.470	17007
482.547	17693
482.624	15882
482.701	17110
482.778	17103
482.855	16400
482.932	15019
483.009	15718
483.085	19071
483.162	26142
483.239	25721
483.316	18366
483.393	17265
483.469	16307
483.546	16238
483.623	18939
483.699	16102
483.776	16875
483.853	17881
483.930	21437
484.006	43839
484.083	77190
484.160	52079
484.236	73664
484.313	59366
484.389	46896
484.466	40892
484.543	40403
484.619	42291
484.696	42346
484.772	40857
484.849	42184
484.925	37649
485.002	36386
485.078	37881
485.155	38881
485.231	36160
485.308	35321
485.384	35775
485.461	38934
485.537	54194
485.614	67124
485.690	37352
485.766	33222
485.843	33192
485.919	42222
485.995	46984
486.072	32446
486.148	31178
486.224	32190
486.301	31041
486.377	35045
486.453	36434
486.530	35602
486.606	44001
486.682	51066
486.758	52997
486.835	61505
486.911	50306
486.987	69587
487.063	76206
487.139	94991
487.215	80033
487.292	50050
487.368	40426
487.444	45699
487.520	53902
487.596	66961
487.672	87084
487.748	187405
487.824	325930
487.900	179771
487.976	70391
488.052	50382
488.128	49068
488.204	42140
488.280	36894
488.356	38987
488.432	57125
488.508	90221
488.584	44970
488.660	31913
488.736	32937
488.812	32492
488.888	39194
488.964	45885
489.039	77097
489.115	124875
489.191	93230
489.267	35936
489.343	31003
489.418	27410
489.494	26801
489.570	25900
489.646	28744
489.722	28055
489.797	28521
489.873	34694
489.949	62268
490.024	63494
490.100	27249
490.176	27442
490.251	28615
490.327	36947
490.403	27190
490.478	25811
490.554	22683
490.629	25191
490.705	22733
490.781	25480
490.856	24471
490.932	28086
491.007	26920
491.083	27747
491.158	25251
491.234	28464
491.309	47958
491.385	54839
491.460	26725
491.536	27023
491.611	25861
491.686	27382
491.762	32015
491.837	52779
491.913	85109
491.988	109221
492.063	157508
492.139	56843
492.214	34296
492.289	22718
492.365	21244
492.440	24108
492.515	23960
492.590	23100
492.666	21074
492.741	25699
492.816	34171
492.891	24165
492.967	22267
493.042	20957
493.117	22711
493.192	24706
493.267	35660
493.342	103096
493.418	168592
493.493	42593
493.568	19523
493.643	20601
493.718	23445
493.793	29813
493.868	34415
493.943	24673
494.018	20853
494.093	18345
494.168	19314
494.243	19201
494.318	18654
494.393	17590
494.468	18287
494.543	18556
494.618	20288
494.693	20045
494.768	18892
494.842	20066
494.917	18257
494.992	19882
495.067	18560
495.142	18950
495.217	20901
495.292	19702
495.366	22378
495.441	26797
495.516	31242
495.591	36735
495.665	90976
495.740	239729
495.815	137169
495.890	32369
495.964	24843
496.039	26997
496.114	27556
496.188	37549
496.263	35904
496.338	25441
496.412	27240
496.487	31877
496.561	31190
496.636	35079
496.710	30924
496.785	32624
496.860	35493
496.934	30819
497.009	31774
497.083	34135
497.158	36638
497.232	40162
497.307	44401
497.381	41306
497.455	46200
497.530	55396
497.604	50034
497.679	52267
497.753	67063
497.827	86107
497.902	88265
497.976	93318
498.050	132025
498.125	383910
498.199	485807
498.273	129268
498.348	102815
498.422	92871
498.496	84636
498.570	79498
498.645	65314
498.719	62705
498.793	61827
498.867	70125
498.941	79920
499.016	150477
499.090	414962
499.164	205346
499.238	42894
499.312	36402
499.386	38235
499.460	36894
499.534	33394
499.609	37660
499.683	45818
499.757	44944
499.831	67211
499.905	240566
499.979	291923
500.053	54313
500.127	48624
500.201	41510
500.275	28891
500.349	28388
500.422	29343
500.496	37740
500.570	66193
500.644	136135
500.718	284427
500.792	88329
500.866	25357
500.940	28397
501.013	26677
501.087	25957
501.161	37128
501.235	46664
501.309	75918
501.382	211693
501.456	231733
501.530	52655
501.603	77423
501.677	41173
501.751	19488
501.825	23104
501.898	32546
501.972	87571
502.046	72477
502.119	23470
502.193	40341
502.266	97469
502.340	59471
502.413	42479
502.487	85048
502.561	57421
502.634	24670
502.708	19549
502.781	18813
502.855	17676
502.928	14449
503.002	16016
503.075	13957
503.149	16940
503.222	15284
503.295	17565
503.369	20423
503.442	25632
503.516	59867
503.589	166898
503.662	128463
503.736	42771
503.809	78788
503.882	79697
503.956	95449
504.029	115109
504.102	104335
504.175	154039
504.249	82749
504.322	40808
504.395	30662
504.468	22427
504.542	18506
504.615	16098
504.688	15029
504.761	14636
504.834	16808
504.907	18823
504.980	27963
505.053	17929
505.127	18298
505.200	22326
505.273	19859
505.346	14777
505.419	12674
505.492	13101
505.565	10922
505.638	10974
505.711	11994
505.784	11177
505.857	10006
505.930	12416
506.003	10567
506.076	13655
506.149	14776
506.221	19477
506.294	17442
506.367	31779
506.440	110890
506.513	79531
506.586	20575
506.659	14056
506.731	12747
506.804	13990
506.877	19736
506.950	17870
507.022	11786
507.095	14371
507.168	18163
507.241	14509
507.313	11335
507.386	12868
507.459	16392
507.531	14027
507.604	10972
507.677	12688
507.749	10494
507.822	14015
507.894	25171
507.967	33024
508.040	21761
508.112	18184
508.185	16166
508.257	16141
508.330	22078
508.402	17198
508.475	16894
508.547	18152
508.620	16440
508.692	22826
508.765	17967
508.837	14492
508.909	13946
508.982	14932
509.054	15391
509.127	15285
509.199	12912
509.271	13437
509.344	13959
509.416	13222
509.488	13681
509.560	14207
509.633	14252
509.705	17566
509.777	17386
509.849	22183
509.922	19024
509.994	17729
510.066	16387
510.138	16479
510.210	29556
510.283	27591
510.355	22609
510.427	20051
510.499	18560
510.571	18704
510.643	18133
510.715	24148
510.787	23056
510.859	19911
510.931	19662
511.003	24471
511.076	24946
511.148	18333
511.219	18118
511.291	24438
511.363	29107
511.435	18940
511.507	15332
511.579	17266
511.651	16630
511.723	16864
511.795	15549
511.867	16303
511.939	17866
512.010	28744
512.082	26673
512.154	16494
512.226	16332
512.298	22693
512.369	32180
512.441	26397
512.513	24876
512.585	20150
512.656	19489
512.728	21622
512.800	19175
512.871	17329
512.943	18224
513.015	16663
513.086	16886
513.158	18732
513.230	18190
513.301	24291
513.373	27597
513.444	19810
513.516	16092
513.588	16330
513.659	16984
513.731	20835
513.802	18694
513.874	29791
513.945	53504
514.016	27448
514.088	16601
514.159	16607
514.231	21654
514.302	30021
514.374	22879
514.445	21149
514.516	32978
514.588	30805
514.659	21185
514.730	31109
514.802	31079
514.873	31070
514.944	35389
515.016	29633
515.087	28487
515.158	29342
515.229	38922
515.301	36488
515.372	50726
515.443	41824
515.514	31177
515.585	24061
515.656	21748
515.728	20130
515.799	19016
515.870	19557
515.941	19076
516.012	20238
516.083	24013
516.154	26177
516.225	28486
516.296	30074
516.367	26864
516.438	31192
516.509	37790
516.580	49353
516.651	108717
516.722	423072
516.793	274405
516.864	56670
516.935	49294
517.006	55491
517.077	68221
517.148	129474
517.219	417476
517.289	914432
517.360	264827
517.431	84308
517.502	31142
517.573	28757
517.643	26632
517.714	29720
517.785	30508
517.856	32020
517.926	38251
517.997	44943
518.068	55188
518.138	73242
518.209	98685
518.280	281855
518.350	1179494
518.421	714960
518.492	95224
518.562	53063
518.633	51187
518.703	57605
518.774	86559
518.845	172170
518.915	183899
518.986	80885
519.056	49892
519.127	55015
519.197	70846
519.268	133619
519.338	103523
519.408	33185
519.479	34199
519.549	29304
519.620	21616
519.690	19008
519.760	17420
519.831	17956
519.901	18138
519.971	17370
520.042	18591
520.112	20606
520.182	21633
520.253	24868
520.323	18712
520.393	23062
520.463	37012
520.534	24745
520.604	46528
520.674	28957
520.744	23945
520.814	49196
520.885	51152
520.955	40204
521.025	140454
521.095	77482
521.165	19355
521.235	18284
521.305	15200
521.375	15353
521.445	17114
521.515	21177
521.585	22797
521.655	22729
521.725	19219
521.795	18464
521.865	13268
521.935	20450
522.005	19056
522.075	15632
522.145	16482
522.215	18356
522.285	22250
522.355	27095
522.424	43011
522.494	43982
522.564	26718
522.634	36821
522.704	105031
522.774	57199
522.843	18844
522.913	17495
522.983	21130
523.053	18890
523.122	17584
523.192	20810
523.262	53000
523.331	70834
523.401	21491
523.471	15010
523.540	15062
523.610	12761
523.680	13906
523.749	15049
523.819	17124
523.888	18028
523.958	14127
524.027	14671
524.097	14913
524.166	14505
524.236	15395
524.305	15900
524.375	13379
524.444	13045
524.514	14695
524.583	14645
524.653	16139
524.722	18931
524.791	15230
524.861	14853
524.930	13069
524.999	13821
525.069	17162
525.138	16321
525.207	18298
525.277	15854
525.346	15385
525.415	16583
525.484	15472
525.554	18646
525.623	21143
525.692	23449
525.761	23868
525.830	26762
525.900	31956
525.969	45215
526.038	73443
526.107	124879
526.176	377990
526.245	373981
526.314	123393
526.383	193071
526.452	302194
526.522	401706
526.591	513115
526.660	132717
526.729	75459
526.797	73053
526.867	107980
526.935	367546
527.004	853122
527.073	654182
527.142	88070
527.211	37918
527.280	28384
527.349	26116
527.418	17567
527.487	16854
527.555	15425
527.624	15028
527.693	12885
527.762	15005
527.831	13190
527.899	13376
527.968	12601
528.037	12012
528.106	15242
528.174	22530
528.243	20553
528.312	23517
528.380	34997
528.449	17000
528.518	12597
528.586	10569
528.655	11642
528.723	11675
528.792	10978
528.861	13303
528.929	12119
528.998	14495
529.066	17815
529.135	28834
529.203	26845
529.272	35691
529.340	45644
529.409	41226
529.477	37646
529.545	39257
529.614	43216
529.682	50022
529.751	56759
529.819	57116
529.887	65357
529.956	57668
530.024	54724
530.092	51339
530.161	51684
530.229	57225
530.297	61095
530.365	55540
530.434	57164
530.502	60764
530.570	53498
530.638	45820
530.707	44608
530.775	44097
530.843	42702
530.911	50300
530.979	47425
531.047	55908
531.115	54542
531.183	50237
531.252	46096
531.320	44523
531.388	44691
531.456	50724
531.524	53062
531.592	55791
531.660	63966
531.728	57476
531.796	53860
531.864	54053
531.932	53615
532.000	52686
532.067	58842
532.135	61853
532.203	64614
532.271	70136
532.339	72970
532.407	96763
532.475	88074
532.542	67981
532.610	64890
532.678	71827
532.746	112950
532.814	252564
532.881	119778
532.949	67675
533.017	60719
533.084	58445
533.152	53980
533.220	55171
533.287	56203
533.355	58442
533.423	56949
533.490	60675
533.558	56743
533.625	56171
533.693	54052
533.761	52589
533.828	52515
533.896	52850
533.963	65598
534.031	70502
534.098	76759
534.166	62102
534.233	52001
534.300	52135
534.368	51525
534.435	49180
534.503	48679
534.570	52734
534.637	53467
534.705	55497
534.772	59440
534.840	69773
534.907	179888
534.974	282327
535.041	65821
535.109	45813
535.176	40615
535.243	40975
535.310	40474
535.378	42065
535.445	36219
535.512	36130
535.579	34431
535.646	32391
535.714	33835
535.781	36149
535.848	37279
535.915	38990
535.982	41386
536.049	40632
536.116	36585
536.183	35017
536.250	33226
536.317	32299
536.384	33193
536.451	36554
536.518	37190
536.585	34384
536.652	38332
536.719	41957
536.786	37623
536.853	33821
536.920	36596
536.987	46539
537.053	43682
537.120	100151
537.187	114211
537.254	31115
537.321	28664
537.388	27740
537.454	24555
537.521	24028
537.588	22681
537.654	24734
537.721	26292
537.788	24987
537.855	24084
537.921	24827
537.988	25849
538.055	25384
538.121	23210
538.188	23800
538.254	27521
538.321	40390
538.388	33821
538.454	23673
538.521	22359
538.587	22736
538.654	22052
538.720	21846
538.787	21285
538.853	21004
538.920	22412
538.986	23265
539.053	19953
539.119	20520
539.185	20576
539.252	22083
539.318	28426
539.385	27356
539.451	23956
539.517	23943
539.583	24019
539.650	34342
539.716	80603
539.782	37585
539.849	20535
539.915	20787
539.981	20629
540.047	22910
540.114	22067
540.180	21440
540.246	20925
540.312	25501
540.378	35928
540.444	40287
540.510	35039
540.576	88387
540.643	43467
540.709	20251
540.775	18966
540.841	18605
540.907	21415
540.973	29552
541.039	27109
541.105	27697
541.171	19964
541.237	19909
541.303	19763
541.369	22419
541.435	23312
541.500	32574
541.566	26134
541.632	18478
541.698	16743
541.764	17717
541.830	16966
541.896	16373
541.961	17294
542.027	17826
542.093	17714
542.159	19363
542.224	19599
542.290	25569
542.356	31712
542.421	36801
542.487	23762
542.553	19857
542.618	19508
542.684	19091
542.750	18026
542.815	19752
542.881	25483
542.947	69248
543.012	66345
543.078	18949
543.143	15725
543.209	18088
543.274	17392
543.340	19143
543.405	29583
543.471	50913
543.536	21903
543.602	17134
543.667	16379
543.732	18074
543.798	15743
543.863	17301
543.928	14785
543.994	15524
544.059	16091
544.124	16464
544.190	15699
544.255	17147
544.320	17494
544.386	17723
544.451	21413
544.516	23969
544.581	22361
544.646	44436
544.712	80667
544.777	27013
544.842	19515
544.907	19346
544.972	17326
545.037	18868
545.102	19826
545.168	20094
545.233	20653
545.298	20931
545.363	22229
545.428	24978
545.493	31958
545.558	63594
545.623	36525
545.688	20501
545.753	20498
545.818	19019
545.883	20730
545.947	20316
546.012	21274
546.077	21358
546.142	22562
546.207	21875
546.272	24659
546.337	27736
546.401	25173
546.466	24508
546.531	23210
546.596	26359
546.661	25981
546.725	26476
546.790	25585
546.855	28340
546.919	27503
546.984	30818
547.049	32449
547.113	38084
547.178	37482
547.243	42411
547.307	47621
547.372	54741
547.436	56147
547.501	53779
547.565	57824
547.630	56860
547.695	56887
547.759	55467
547.823	54734
547.888	52730
547.952	54260
548.017	57243
548.081	64747
548.146	66225
548.210	61498
548.274	61964
548.339	59251
548.403	55442
548.468	51945
548.532	51908
548.596	53994
548.660	53509
548.725	57621
548.789	64950
548.853	64148
548.917	60183
548.982	61075
549.046	58846
549.110	48770
549.174	49282
549.238	54126
549.303	58956
549.367	62949
549.431	60288
549.495	55293
549.559	55438
549.623	62601
549.687	70852
549.751	73006
549.815	80551
549.879	80055
549.943	75416
550.007	79182
550.071	81327
550.135	77177
550.199	71837
550.263	68867
550.327	68317
550.391	72965
550.455	78133
550.519	77049
550.582	82140
550.646	93720
550.710	97563
550.774	90451
550.838	93065
550.901	95757
550.965	101278
551.029	104307
551.093	114384
551.156	125156
551.220	145979
551.284	160479
551.347	122365
551.411	123191
551.475	132067
551.538	100775
551.602	92084
551.666	86678
551.729	82301
551.793	79290
551.856	78845
551.920	76966
551.983	78476
552.047	76779
552.110	77701
552.174	78509
552.237	80632
552.301	75284
552.364	72064
552.428	71214
552.491	72996
552.554	74624
552.618	73265
552.681	77323
552.745	76460
552.808	84026
552.871	101459
552.934	90446
552.998	78820
553.061	76255
553.124	73031
553.187	72354
553.251	76484
553.314	77111
553.377	78671
553.440	88556
553.503	135776
553.567	209227
553.630	98124
553.693	79369
553.756	79628
553.819	76958
553.882	74009
553.945	73636
554.008	74540
554.071	73379
554.134	74047
554.197	70449
554.260	70031
554.323	73064
554.386	72611
554.449	74146
554.512	74814
554.575	71552
554.638	71592
554.701	69810
554.764	70464
554.827	66848
554.889	65260
554.952	61556
555.015	61199
555.078	60695
555.141	62942
555.203	61422
555.266	61821
555.329	61164
555.391	58373
555.454	59952
555.517	57616
555.580	54019
555.642	53333
555.705	52381
555.768	52387
555.830	50341
555.893	47695
555.955	47935
556.018	47087
556.080	46328
556.143	48511
556.206	45566
556.268	46943
556.330	47000
556.393	45572
556.455	44907
556.518	46539
556.580	47709
556.643	41279
556.705	40834
556.767	40398
556.830	39981
556.892	40259
556.955	44986
557.017	43644
557.079	38167
557.142	36387
557.204	38130
557.266	48617
557.328	48344
557.391	34971
557.453	32451
557.515	33201
557.577	34923
557.639	36628
557.701	34299
557.764	32349
557.826	35402
557.888	38218
557.950	37797
558.012	41867
558.074	50331
558.136	93456
558.198	254692
558.260	119736
558.322	45390
558.384	47126
558.446	50654
558.508	57988
558.570	69598
558.632	87917
558.694	121975
558.756	152964
558.818	373904
558.880	1045046
558.942	465796
559.003	281598
559.065	172050
559.127	70481
559.189	65762
559.251	71530
559.312	93034
559.374	187454
559.436	655017
559.498	447292
559.559	85163
559.621	65396
559.683	68450
559.744	102403
559.806	285406
559.868	535531
559.929	137018
559.991	66786
560.052	86935
560.114	230711
560.176	188323
560.237	127232
560.299	241110
560.360	73041
560.422	29458
560.483	25326
560.545	23646
560.606	22715
560.667	21041
560.729	20407
560.790	20573
560.852	21025
560.913	20063
560.974	18844
561.036	19036
561.097	21095
561.158	20372
561.220	20096
561.281	19577
561.342	20541
561.403	21604
561.465	24444
561.526	39035
561.587	58648
561.648	26211
561.709	20705
561.771	19752
561.832	19011
561.893	18641
561.954	18118
562.015	18083
562.076	18466
562.137	17858
562.198	18049
562.259	17824
562.320	18646
562.381	19009
562.442	23895
562.503	22726
562.564	19035
562.625	17012
562.686	18408
562.747	17960
562.808	18676
562.869	17110
562.930	18873
562.991	18729
563.051	18429
563.112	17448
563.173	17927
563.234	16468
563.294	17795
563.355	17984
563.416	18092
563.477	17262
563.537	18755
563.598	19292
563.659	17173
563.720	17118
563.780	17714
563.841	19386
563.901	17563
563.962	18003
564.023	17317
564.083	17401
564.144	18177
564.204	17186
564.265	18994
564.325	19423
564.386	26268
564.446	27161
564.507	19313
564.567	18103
564.628	19770
564.688	17841
564.749	18759
564.809	18579
564.869	20804
564.930	19502
564.990	19864
565.050	18951
565.111	18777
565.171	18495
565.231	18460
565.292	19661
565.352	19042
565.412	19542
565.472	19399
565.532	20951
565.593	21008
565.653	20740
565.713	21459
565.773	21741
565.833	23205
565.893	26557
565.953	22646
566.013	22798
566.074	23737
566.134	25311
566.194	32322
566.254	35059
566.314	29334
566.374	25749
566.434	25870
566.494	26503
566.554	28700
566.614	29862
566.673	30994
566.733	31800
566.793	33335
566.853	35341
566.913	35765
566.973	35417
567.033	36781
567.092	36049
567.152	35144
567.212	35674
567.272	37766
567.331	38799
567.391	39683
567.451	41499
567.511	45849
567.570	46148
567.630	39160
567.690	38019
567.749	40042
567.809	41775
567.868	47148
567.928	51254
567.988	59472
568.047	69472
568.107	83652
568.166	105983
568.226	148134
568.285	204674
568.345	204701
568.404	178528
568.464	160250
568.523	150173
568.582	149606
568.642	158387
568.701	184064
568.761	233461
568.820	332039
568.879	363115
568.939	309518
568.998	249328
569.057	202419
569.116	165017
569.176	137696
569.235	115254
569.294	100546
569.353	86400
569.413	76591
569.472	67725
569.531	61787
569.590	55810
569.649	51277
569.708	47020
569.767	44429
569.827	43024
569.886	40169
569.945	35647
570.004	34308
570.063	33333
570.122	32387
570.181	32003
570.240	30418
570.299	30443
570.358	30583
570.417	27031
570.475	25635
570.534	25417
570.593	26388
570.652	24908
570.711	25384
570.770	25057
570.829	24766
570.887	24323
570.946	25301
571.005	21793
571.064	22038
571.122	23397
571.181	23544
571.240	22060
571.299	20587
571.357	19882
571.416	21689
571.475	19839
571.533	22160
571.592	20304
571.650	20373
571.709	18663
571.768	20111
571.826	19162
571.885	18848
571.943	18843
572.002	18282
572.060	17871
572.119	17517
572.177	17415
572.236	17149
572.294	16067
572.352	17258
572.411	16548
572.469	17126
572.528	16916
572.586	17241
572.644	16682
572.703	20146
572.761	17098
572.819	16849
572.877	15931
572.936	16399
572.994	15939
573.052	15564
573.110	15833
573.169	17284
573.227	15966
573.285	16321
573.343	15291
573.401	16575
573.459	15077
573.517	15403
573.576	15098
573.634	16044
573.692	15669
573.750	17198
573.808	15000
573.866	15768
573.924	17478
573.982	19015
574.040	15729
574.098	16438
574.155	15209
574.213	15600
574.271	15278
574.329	16032
574.387	14616
574.445	14288
574.503	14320
574.560	14327
574.618	13803
574.676	14156
574.734	14598
574.792	14873
574.849	14353
574.907	14196
574.965	13838
575.022	13575
575.080	13270
575.138	14572
575.195	14782
575.253	14942
575.311	15281
575.368	15065
575.426	13640
575.483	14830
575.541	13152
575.598	13460
575.656	14192
575.713	14479
575.771	13884
575.828	14396
575.886	14165
575.943	15633
576.001	14151
576.058	14525
576.115	14903
576.173	16279
576.230	17061
576.287	18323
576.345	17454
576.402	15307
576.459	15681
576.517	15447
576.574	15093
576.631	15634
576.688	14592
576.746	14306
576.803	14779
576.860	14905
576.917	15136
576.974	15434
577.031	14818
577.089	15283
577.146	14718
577.203	14826
577.260	15691
577.317	16007
577.374	16242
577.431	16735
577.488	16550
577.545	15363
577.602	15351
577.659	15443
577.716	16158
577.773	17550
577.830	15718
577.886	16124
577.943	15587
578.000	16458
578.057	17115
578.114	18078
578.171	19058
578.227	25292
578.284	24331
578.341	21514
578.398	18838
578.454	20289
578.511	18430
578.568	19598
578.625	17744
578.681	16883
578.738	15459
578.794	17162
578.851	17674
578.908	16652
578.964	17169
579.021	18064
579.077	16997
579.134	16235
579.190	15913
579.247	16811
579.303	16043
579.360	16392
579.416	16868
579.473	17196
579.529	15689
579.586	17627
579.642	17520
579.698	18253
579.755	17964
579.811	19975
579.867	18433
579.924	20014
579.980	21445
580.036	23333
580.093	25609
580.149	34750
580.205	38355
580.261	32907
580.317	28235
580.374	24815
580.430	24925
580.486	24035
580.542	22902
580.598	21978
580.619	21877
580.654	21730
580.692	21869
580.710	21987
580.765	21630
580.767	21647
580.823	21682
580.838	21550
580.879	21311
580.911	21802
580.935	22204
580.984	20891
580.991	20740
581.047	22661
581.057	22553
581.103	22232
581.130	23122
581.159	24123
581.203	25835
581.215	26312
581.270	25504
581.276	25284
581.326	23451
581.349	23112
581.382	22644
581.422	22783
581.438	22871
581.494	22557
581.494	22537
581.550	22744
581.567	22657
581.606	22511
581.640	22678
581.661	22780
581.713	23210
581.717	23270
581.773	22822
581.786	23035
581.829	23835
581.859	23981
581.885	24099
581.932	24067
581.940	24112
581.996	24404
582.004	24430
582.052	24483
582.077	23948
582.107	23384
582.150	24142
582.163	24416
582.219	24561
582.223	24593
582.274	25110
582.296	25011
582.330	24869
582.368	26092
582.386	26709
582.441	25662
582.441	25672
582.497	25885
582.514	26101
582.552	26844
582.587	27915
582.608	28459
582.659	27446
582.663	27396
582.719	27781
582.732	27702
582.774	27346
582.805	27852
582.830	28335
582.877	28978
582.885	29104
582.941	32111
582.950	32355
582.996	33662
583.023	35413
583.052	37370
583.095	37695
583.107	37784
583.162	39402
583.168	39396
583.218	39334
583.240	38334
583.273	36585
583.313	34457
583.328	33725
583.384	32762
583.385	32687
583.439	30655
583.458	30524
583.494	30172
583.531	29122
583.549	28591
583.603	29049
583.605	29060
583.660	28052
583.676	28171
583.715	28551
583.748	28682
583.770	28797
583.820	28753
583.825	28713
583.881	28072
583.893	28137
583.936	28492
583.965	27925
583.991	27510
584.038	28815
584.046	28996
584.101	29203
584.110	29268
584.156	29390
584.183	29411
584.211	29614
584.255	30230
584.266	30338
584.321	30887
584.328	30867
584.376	30566
584.400	30741
584.431	31095
584.472	31854
584.486	31989
584.541	32175
584.545	32229
584.596	33006
584.617	33028
584.651	33024
584.689	33880
584.706	34225
584.761	33897
584.762	33925
584.816	34587
584.834	34534
584.871	34308
584.906	34864
584.926	35083
584.978	34692
584.980	34656
585.035	36964
585.051	36999
585.090	37231
585.123	38281
585.145	38829
585.195	39692
585.200	39808
585.254	42776
585.267	43764
585.309	47191
585.340	50319
585.364	52386
585.412	54142
585.419	54174
585.473	56787
585.484	57641
585.528	63078
585.556	70467
585.583	81225
585.628	108791
585.637	118309
585.692	208620
585.700	229977
585.747	345123
585.772	326944
585.801	254353
585.845	128000
585.856	104409
585.910	65026
585.917	61933
585.965	55126
585.989	52794
586.019	51013
586.061	48997
586.074	48311
586.128	48158
586.133	48159
586.183	48211
586.205	48505
586.237	48674
586.277	48462
586.292	48138
586.346	47931
586.349	48005
586.401	48504
586.421	48348
586.455	48447
586.493	50047
586.509	51010
586.564	53830
586.565	54067
586.618	64406
586.637	66344
586.672	64754
586.709	60150
586.727	57994
586.781	56919
586.781	56844
586.835	56990
586.853	57329
586.889	57366
586.925	57295
586.944	57548
586.996	59284
586.998	59243
587.052	60901
587.068	61865
587.106	63582
587.140	64832
587.161	65462
587.212	67737
587.215	67742
587.269	70928
587.284	71936
587.323	74375
587.356	75905
587.377	76617
587.427	80908
587.431	81088
587.485	84921
587.499	86152
587.539	89409
587.571	92219
587.593	93816
587.643	99687
587.648	100073
587.702	105873
587.715	107697
587.755	113276
587.786	118258
587.810	121750
587.858	130193
587.864	130860
587.917	141178
587.930	143970
587.971	153933
588.001	162400
588.025	168713
588.073	183219
588.079	184791
588.133	205009
588.145	210124
588.187	227723
588.217	242846
588.241	255616
588.288	282820
588.295	286357
588.348	325772
588.360	335396
588.402	372078
588.431	400579
588.456	425958
588.503	482756
588.510	491330
588.564	572948
588.575	592385
588.617	677686
588.646	741553
588.671	813800
588.718	959766
588.725	989638
588.778	1232283
588.789	1280431
588.832	1524836
588.861	1672515
588.886	1725457
588.932	1772364
588.939	1747860
588.993	1522450
589.004	1509254
589.047	1721700
589.075	1849465
589.100	1782676
589.147	1567932
589.154	1532007
589.207	1226760
589.218	1167250
589.261	1057200
589.290	995616
589.314	995382
589.361	1014994
589.368	1033100
589.421	1212862
589.433	1251554
589.475	1481112
589.504	1626231
589.528	1652121
589.576	1647758
589.582	1640199
589.635	1657303
589.647	1657073
589.689	1482170
589.718	1307991
589.742	1144484
589.790	812881
589.795	790280
589.849	601028
589.861	560747
589.902	478291
589.932	423727
589.955	389776
590.004	326790
590.009	321079
590.062	272888
590.075	263001
590.115	237658
590.146	219431
590.168	207977
590.218	187866
590.222	185788
590.275	167307
590.289	163239
590.328	151979
590.360	144271
590.381	138933
590.431	128594
590.435	127540
590.488	117187
590.503	114891
590.541	110137
590.574	106703
590.594	103231
590.645	96470
590.647	95904
590.700	89262
590.716	87725
590.753	84453
590.787	81956
590.806	80122
590.859	76575
590.859	76257
590.912	72299
590.930	71371
590.965	68891
591.001	66971
591.018	65729
591.071	62861
591.072	63056
591.124	60963
591.143	60456
591.177	59061
591.214	58362
591.230	57826
591.283	56713
591.285	56841
591.336	55048
591.356	54686
591.389	53766
591.427	52771
591.442	51792
591.495	49064
591.498	49010
591.547	46458
591.569	45691
591.600	44792
591.640	43775
591.653	43538
591.706	43235
591.711	43361
591.759	43023
591.782	43070
591.811	43637
591.853	44883
591.864	44221
591.917	41335
591.924	41038
591.969	38543
591.995	37390
592.022	37399
592.066	37828
592.075	37766
592.127	38131
592.137	38338
592.180	40033
592.208	41301
592.233	39448
592.279	36204
592.285	35999
592.338	35302
592.350	35272
592.390	33786
592.421	32861
592.443	32845
592.491	33206
592.495	33058
592.548	32613
592.562	32608
592.600	31746
592.633	31218
592.653	31068
592.704	30822
592.705	30999
592.775	31267
592.846	31575
592.916	31832
592.987	32766
593.058	32723
593.128	29703
593.199	28784
593.270	27398
593.341	29022
593.411	28934
593.482	29467
593.553	28818
593.623	28115
593.694	28358
593.764	29417
593.835	27136
593.906	27437
593.976	27201
594.047	28231
594.117	30805
594.188	31270
594.258	27975
594.329	27024
594.399	27114
594.470	27421
594.540	27317
594.611	27511
594.681	27031
594.751	28481
594.822	29993
594.892	31466
594.963	31394
595.033	29648
595.103	30258
595.174	31348
595.244	36349
595.314	43588
595.384	32785
595.455	30496
595.525	30910
595.595	31160
595.665	31858
595.736	30962
595.806	30752
595.876	30842
595.946	30384
596.016	31989
596.087	32461
596.157	31232
596.227	31828
596.297	33163
596.367	34448
596.437	37132
596.507	40619
596.577	47824
596.647	40162
596.717	37499
596.787	38191
596.857	37557
596.927	38351
596.997	38876
597.067	38554
597.137	42338
597.207	41370
597.277	39807
597.347	38044
597.417	38393
597.487	37716
597.557	38818
597.626	39363
597.696	40979
597.766	43905
597.836	48731
597.906	42078
597.975	37075
598.045	36522
598.115	37333
598.185	39004
598.254	42121
598.324	46747
598.394	47516
598.464	47542
598.533	46626
598.603	44361
598.672	43408
598.742	43592
598.812	43442
598.881	43388
598.951	43654
599.020	43419
599.090	45415
599.159	47084
599.229	45522
599.299	45193
599.368	45821
599.437	46509
599.507	44277
599.576	44775
599.646	43988
599.715	45789
599.785	43264
599.854	44718
599.924	45087
599.993	45311
600.062	43276
600.132	44591
600.201	45507
600.270	51486
600.340	54234
600.409	52226
600.478	51971
600.547	52903
600.617	52704
600.686	47842
600.755	45150
600.824	44202
600.894	44628
600.963	43903
601.032	43957
601.101	42946
601.170	43088
601.239	42756
601.308	44212
601.378	45884
601.447	44741
601.516	46125
601.585	46055
601.654	48350
601.723	49965
601.792	49592
601.861	51716
601.930	55527
601.999	58678
602.068	56363
602.137	55455
602.206	55403
602.275	56410
602.343	58480
602.412	60043
602.481	56321
602.550	56066
602.619	56978
602.688	58612
602.756	58215
602.825	57221
602.894	57662
602.963	57926
603.032	59059
603.100	59358
603.169	58301
603.238	59287
603.307	59001
603.375	57183
603.444	60364
603.513	57541
603.581	57701
603.650	62385
603.719	56535
603.787	52102
603.856	53407
603.924	54947
603.993	56765
604.061	56189
604.130	59291
604.198	60896
604.267	60055
604.335	61920
604.404	62720
604.472	63330
604.541	64442
604.609	65159
604.678	66873
604.746	66177
604.815	69945
604.883	70667
604.951	67889
605.020	68505
605.088	67540
605.156	63352
605.225	64294
605.293	63968
605.361	64942
605.429	63799
605.498	65603
605.566	67191
605.634	68268
605.702	70178
605.771	69772
605.839	71952
605.907	68544
605.975	68164
606.043	66924
606.111	63616
606.180	68245
606.248	67796
606.316	68370
606.384	67183
606.452	64054
606.520	58643
606.588	57155
606.656	53408
606.724	53781
606.792	51211
606.860	47934
606.928	42416
606.996	40777
607.064	40294
607.132	41139
607.200	43256
607.267	45569
607.335	44935
607.403	46760
607.471	45617
607.539	44462
607.607	44277
607.674	40259
607.742	39805
607.810	42086
607.878	41471
607.946	40434
608.013	41432
608.081	42696
608.149	42571
608.216	43846
608.284	45497
608.352	44640
608.419	45680
608.487	47092
608.555	46001
608.622	43925
608.690	44594
608.757	49299
608.825	51103
608.893	50244
608.960	50025
609.028	49551
609.095	51928
609.163	47624
609.230	44498
609.298	39151
609.365	39283
609.432	41401
609.500	44825
609.567	50127
609.635	56406
609.702	61186
609.769	62692
609.837	53139
609.904	47277
609.971	48237
610.039	56682
610.106	79357
610.173	155745
610.241	389028
610.308	456693
610.375	242228
610.442	87667
610.509	55072
610.577	48759
610.644	46695
610.711	45866
610.778	47279
610.845	47580
610.912	49789
610.980	53729
611.047	58962
611.114	56098
611.181	50171
611.248	48876
611.315	51261
611.382	51356
611.449	52085
611.516	54960
611.583	55120
611.650	54701
611.717	55616
611.784	57519
611.851	60011
611.918	67796
611.984	82079
612.051	121368
612.118	262882
612.185	707527
612.252	743244
612.319	154742
612.386	83137
612.452	71763
612.519	67176
612.586	67122
612.653	65470
612.719	64603
612.786	61331
612.853	57576
612.919	54995
612.986	57708
613.053	52662
613.120	49853
613.186	48486
613.253	49116
613.319	48202
613.386	48597
613.453	50540
613.519	52876
613.586	54538
613.652	64825
613.719	59584
613.785	59985
613.852	52172
613.918	52128
613.985	53096
614.051	62006
614.118	91541
614.184	111484
614.250	58389
614.317	52629
614.383	50058
614.449	51030
614.516	51732
614.582	52053
614.648	50198
614.715	49495
614.781	49165
614.847	48950
614.914	49374
614.980	49623
615.046	47385
615.112	50528
615.179	51154
615.245	53360
615.311	60271
615.377	78379
615.443	100175
615.509	75079
615.575	61611
615.642	58921
615.708	59785
615.774	63761
615.840	70270
615.906	84776
615.972	117693
616.038	211686
616.104	414744
616.170	899012
616.236	1192938
616.302	280213
616.368	130779
616.434	93569
616.500	76309
616.565	77769
616.631	98241
616.697	88152
616.763	81929
616.829	112128
616.895	214303
616.961	263297
617.026	130122
617.092	68487
617.158	56940
617.224	55219
617.289	50687
617.355	47822
617.421	47630
617.487	46695
617.552	45134
617.618	42760
617.684	41870
617.749	44786
617.815	41069
617.880	40082
617.946	40426
618.012	41951
618.077	43288
618.143	40804
618.208	40712
618.274	42494
618.339	44953
618.405	38591
618.470	38048
618.536	37493
618.601	38759
618.667	36914
618.732	35372
618.798	34763
618.863	33565
618.928	33625
618.994	34442
619.059	35817
619.124	42125
619.190	40297
619.255	34255
619.320	33049
619.386	33508
619.451	32737
619.516	32494
619.581	32749
619.647	33773
619.712	33577
619.777	32157
619.842	33292
619.907	32454
619.972	33907
620.038	34658
620.103	33517
620.168	32531
620.233	33101
620.298	32651
620.363	32646
620.428	33845
620.493	34031
620.558	34504
620.623	35372
620.688	36338
620.753	34157
620.818	34929
620.883	35423
620.948	34873
621.013	35162
621.078	36006
621.143	34476
621.207	37516
621.272	36808
621.337	37043
621.402	36779
621.467	38630
621.532	41040
621.596	38470
621.661	35486
621.726	34300
621.791	34568
621.855	36036
621.920	37061
621.985	36406
622.049	38520
622.114	39191
622.179	36496
622.243	36965
622.308	37688
622.373	38776
622.437	39652
622.502	36103
622.566	35960
622.631	34810
622.695	37639
622.760	36791
622.824	36324
622.889	37608
622.953	37382
623.018	46415
623.082	53551
623.147	39774
623.211	37243
623.276	39622
623.340	36288
623.404	34174
623.469	35073
623.533	35246
623.597	33833
623.662	34161
623.726	34284
623.790	30928
623.854	30152
623.919	31055
623.983	30289
624.047	32174
624.111	31333
624.176	31597
624.240	32767
624.304	36535
624.368	33188
624.432	31527
624.496	33194
624.560	34690
624.625	39867
624.689	35613
624.753	33841
624.817	33153
624.881	32296
624.945	30660
625.009	29708
625.073	30108
625.137	31131
625.201	35777
625.265	39384
625.329	30813
625.393	32160
625.456	32112
625.520	32399
625.584	34012
625.648	36072
625.712	43590
625.776	71054
625.839	87966
625.903	54450
625.967	30044
626.031	36387
626.095	56749
626.158	38314
626.222	25574
626.286	23086
626.349	22105
626.413	21016
626.477	23142
626.540	21296
626.604	21599
626.668	20909
626.731	19220
626.795	20594
626.858	21394
626.922	19401
626.986	20118
627.049	18969
627.113	20941
627.176	20799
627.240	19412
627.303	18983
627.366	19242
627.430	19632
627.493	19515
627.557	19371
627.620	19355
627.684	19812
627.747	20091
627.810	18111
627.874	18618
627.937	15754
628.000	18393
628.064	16700
628.127	15406
628.190	15392
628.253	15685
628.317	14956
628.380	14276
628.443	14084
628.506	15402
628.569	14186
628.632	12739
628.696	13571
628.759	12883
628.822	13039
628.885	12526
628.948	12436
629.011	12619
629.074	12888
629.137	12248
629.200	11999
629.263	12774
629.326	11844
629.389	11272
629.452	11155
629.515	11742
629.578	12018
629.641	12257
629.704	12405
629.767	12088
629.830	11936
629.892	11572
629.955	10575
630.018	11741
630.081	12252
630.144	17233
630.207	13137
630.269	13515
630.332	12458
630.395	12836
630.458	11045
630.520	10028
630.583	11341
630.646	9824
630.708	10395
630.771	10455
630.834	10830
630.896	10464
630.959	10467
631.021	9550
631.084	10102
631.146	11236
631.209	13456
631.272	10903
631.334	11256
631.397	10367
631.459	10967
631.522	11848
631.584	11753
631.646	12337
631.709	12720
631.771	16449
631.834	15305
631.896	12486
631.958	10336
632.021	11385
632.083	10608
632.145	10964
632.208	10139
632.270	11273
632.332	9905
632.395	8692
632.457	10563
632.519	9763
632.581	9443
632.643	8979
632.706	9821
632.768	9429
632.830	8967
632.892	9374
632.954	9363
633.016	10014
633.078	9615
633.141	8750
633.203	9611
633.265	10206
633.327	9766
633.389	9428
633.451	10429
633.513	11522
633.575	12051
633.637	12651
633.698	12470
633.760	11043
633.822	10345
633.884	11382
633.946	10648
634.008	11708
634.070	12111
634.132	13530
634.193	14957
634.255	14943
634.317	15053
634.379	15383
634.441	13918
634.502	12527
634.564	12914
634.626	11343
634.687	12157
634.749	10269
634.811	9722
634.873	9000
634.934	9542
634.996	9724
635.057	9523
635.119	9076
635.181	10125
635.242	9064
635.304	8486
635.365	11483
635.427	8754
635.488	9832
635.550	9962
635.611	9652
635.673	8754
635.734	11186
635.796	10394
635.857	12866
635.918	12786
635.980	14107
636.041	14893
636.102	16665
636.164	16420
636.225	15981
636.286	14192
636.348	13148
636.409	11502
636.470	9798
636.531	8984
636.593	10683
636.654	10083
636.715	8026
636.776	8119
636.838	8484
636.899	8168
636.960	8180
637.021	7985
637.082	8394
637.143	8871
637.204	7856
637.265	6753
637.326	7743
637.387	7720
637.448	7909
637.509	7832
637.570	7264
637.631	7692
637.692	6860
637.753	6330
637.814	7464
637.875	7285
637.936	8317
637.997	7006
638.058	8378
638.119	7127
638.179	6669
638.240	6431
638.301	6851
638.362	6064
638.423	6768
638.483	7576
638.544	6339
638.605	6720
638.666	6748
638.726	6873
638.787	6686
638.848	6380
638.908	6550
638.969	5624
639.030	6178
639.090	6023
639.151	7280
639.211	7460
639.272	8289
639.332	13343
639.393	11457
639.453	6959
639.514	7027
639.574	7636
639.635	5278
639.695	6266
639.756	6481
639.816	7342
639.877	8227
639.937	12245
639.997	19666
640.058	10295
640.118	6852
640.178	6941
640.239	6697
640.299	5483
640.359	6172
640.420	6494
640.480	7568
640.540	7455
640.600	8814
640.661	8558
640.721	7777
640.781	12007
640.841	12472
640.901	8058
640.961	7099
641.021	7190
641.082	8353
641.142	11171
641.202	10259
641.262	5007
641.322	6776
641.382	5727
641.442	6155
641.502	5002
641.562	6374
641.622	5794
641.682	6169
641.742	7276
641.802	7803
641.861	7204
641.921	7022
641.981	8341
642.041	7710
642.101	8596
642.161	7472
642.221	5310
642.280	4912
642.340	5383
642.400	5047
642.460	5797
642.519	5367
642.579	5499
642.639	6163
642.698	3689
642.758	7840
642.818	6159
642.877	6155
642.937	5840
642.997	7287
643.056	11035
643.116	7623
643.175	6960
643.235	5934
643.294	6135
643.354	7244
643.414	7925
643.473	9985
643.532	12081
643.592	17820
643.651	28524
643.711	53641
643.770	105964
643.830	239868
643.889	690235
643.948	315132
644.008	35639
644.067	16471
644.126	12699
644.186	9264
644.245	8769
644.304	6908
644.363	7967
644.423	5891
644.482	6180
644.541	6925
644.600	5875
644.659	8644
644.719	9596
644.778	15458
644.837	25572
644.896	51859
644.955	139042
645.014	85742
645.073	15487
645.132	8246
645.191	8083
645.250	6138
645.309	7984
645.368	7104
645.427	9850
645.486	13067
645.545	28811
645.604	13475
645.663	7108
645.722	6108
645.781	7649
645.840	8404
645.898	10481
645.957	15824
646.016	25530
646.075	48565
646.134	97825
646.192	232053
646.251	547481
646.310	141316
646.369	21595
646.427	14614
646.486	10096
646.545	8467
646.603	6501
646.662	6173
646.721	6311
646.779	5565
646.838	4810
646.896	7703
646.955	10274
647.014	16229
647.072	27559
647.131	77934
647.189	71556
647.248	9523
647.306	5955
647.365	5768
647.423	2572
647.481	5749
647.540	3583
647.598	4729
647.657	4075
647.715	4791
647.773	3205
647.832	4790
647.890	3226
647.948	3903
648.007	4809
648.065	3430
648.123	3574
648.181	5274
648.240	4924
648.298	6121
648.356	3745
648.414	3478
648.472	3534
648.531	3866
648.589	3120
648.647	3366
648.705	4016
648.763	3262
648.821	3228
648.879	3481
648.937	4975
648.995	6284
649.053	7627
649.111	12071
649.169	21224
649.227	38078
649.285	73630
649.343	228496
649.401	213764
649.459	33901
649.516	23495
649.574	12533
649.632	22068
649.690	36878
649.748	16470
649.806	14093
649.863	28389
649.921	54024
649.979	62701
650.037	10466
650.094	4403
650.152	4263
650.210	3302
650.268	4512
650.325	4323
650.383	5382
650.440	2791
650.498	3587
650.556	3034
650.613	3252
650.671	3361
650.728	2701
650.786	3394
650.843	3687
650.901	2914
650.958	3241
651.016	2718
651.073	2229
651.131	2360
651.188	1260
651.246	3049
651.303	2057
651.360	2770
651.418	1906
651.475	2643
651.532	2185
651.590	3671
651.647	1446
651.704	1742
651.762	2600
651.819	2687
651.876	2801
651.933	1871
651.990	2259
652.048	1237
652.105	1240
652.162	2352
652.219	1931
652.276	1708
652.333	2503
652.390	1710
652.448	1840
652.505	2499
652.562	2595
652.619	2613
652.676	4569
652.733	7675
652.790	3093
652.847	860
652.904	2117
652.961	1192
653.017	1519
653.074	2472
653.131	2365
653.188	1162
653.245	1750
653.302	1595
653.359	1927
653.415	2520
653.472	1694
653.529	2293
653.586	1811
653.642	982
653.699	2346
653.756	949
653.813	1617
653.869	1890
653.926	404
653.983	1261
654.039	1852
654.096	1794
654.152	2762
654.209	1080
654.266	2835
654.322	772
654.379	2061
654.435	1956
654.492	2422
654.548	2969
654.605	7141
654.661	4835
654.717	2175
654.774	1873
654.830	2071
654.887	2285
654.943	1223
655.000	2779
655.056	2607
655.112	1925
655.168	995
655.225	1793
655.281	2240
655.337	2381
655.394	5301
655.450	4875
655.506	3527
655.562	4161
655.618	5837
655.675	2188
655.731	2252
655.787	1461
655.843	1999
655.899	1600
655.955	2638
656.011	2133
656.067	1918
656.123	3161
656.179	2776
656.235	4583
656.291	3168
656.347	3637
656.403	2724
656.459	2127
656.515	2831
656.571	3521
656.627	2492
656.683	1586
656.739	3558
656.795	1941
656.850	2202
656.906	3214
656.962	2885
657.018	937
657.074	2341
657.129	1883
657.185	3861
657.241	6115
657.297	5056
657.352	2704
657.408	1729
657.464	2778
657.519	2229
657.575	994
657.630	1313
657.686	1930
657.742	774
657.797	1202
657.853	1151
657.908	1952
657.964	931
658.019	1952
658.075	2364
658.130	2023
658.186	190
658.241	1900
658.297	789
658.352	1257
658.407	1716
658.463	921
658.518	1905
658.573	1146
658.629	1318
658.684	1089
658.739	2083
658.795	1188
658.850	1271
658.905	1076
658.960	1842
659.016	558
659.071	1647
659.126	1965
659.181	1199
659.236	4674
659.291	5332
659.346	2635
659.401	2522
659.457	3083
659.512	3494
659.567	3306
659.622	1406
659.677	879
659.732	300
659.787	1247
659.842	1347
659.897	1953
659.952	2337
660.007	1243
660.061	2020
660.116	1246
660.171	1030
660.226	468
660.281	2321
660.336	1036
660.391	2471
660.445	158
660.500	1347
660.555	2051
660.610	1230
660.664	2028
660.719	619
660.774	1655
660.828	1621
660.883	1178
660.938	1838
660.992	968
661.047	1614
661.101	402
661.156	1230
661.211	1087
661.265	707
661.320	1480
661.374	773
661.429	1015
661.483	1529
661.538	1027
661.592	1073
661.647	1668
661.701	2089
661.755	1779
661.810	1178
661.864	1032
661.919	988
661.973	1790
662.027	531
662.081	346
662.136	1699
662.190	1230
662.244	1864
662.299	887
662.353	1798
662.407	266
662.461	725
662.515	1015
662.569	1394
662.624	1833
662.678	385
662.732	873
662.786	1328
662.840	994
662.894	1392
662.948	379
663.002	1272
663.056	1248
663.110	1081
663.164	53
663.218	1753
663.272	1765
663.326	1593
663.380	1460
663.434	2042
663.488	781
663.542	1192
663.595	587
663.649	732
663.703	888
663.757	1696
663.811	1401
663.864	726
663.918	1728
663.972	893
664.026	1168
664.079	493
664.133	1576
664.187	844
664.240	773
664.294	1182
664.348	1172
664.401	685
664.455	1571
664.508	614
664.562	878
664.615	767
664.669	905
664.722	1424
664.776	678
664.829	697
664.883	1361
664.936	635
664.990	874
665.043	1416
665.097	1095
665.150	1988
665.203	1237
665.257	1227
665.310	654
665.363	1134
665.417	1539
665.470	1016
665.523	873
665.576	1310
665.630	784
665.683	230
665.736	1574
665.789	1234
665.842	1516
665.895	972
665.949	1192
666.002	1022
666.055	1358
666.108	2301
666.161	1158
666.214	2143
666.267	1505
666.320	1550
666.373	1924
666.426	1476
666.479	1413
666.532	1833
666.585	1755
666.638	2160
666.691	2580
666.744	2497
666.796	2129
666.849	1603
666.902	1873
666.955	1210
667.008	999
667.060	714
667.113	657
667.166	1236
667.219	1421
667.271	1737
667.324	1717
667.377	997
667.430	681
667.482	2030
667.535	1916
667.587	1641
667.640	1632
667.693	2225
667.745	3498
667.798	6185
667.850	1710
667.903	1266
667.955	1550
668.008	1397
668.060	1555
668.113	1413
668.165	2591
668.218	1911
668.270	1390
668.322	1305
668.375	1452
668.427	1652
668.479	1276
668.532	1566
668.584	1505
668.636	1443
668.689	1684
668.741	1502
668.793	1517
668.845	1355
668.898	1560
668.950	1205
669.002	2454
669.054	1568
669.106	990
669.158	2249
669.211	1600
669.263	2293
669.315	2811
669.367	2742
669.419	2598
669.471	3132
669.523	3872
669.575	4678
669.627	4414
669.679	2890
669.731	3166
669.783	3007
669.835	3553
669.886	3757
669.938	3207
669.990	2833
670.042	3097
670.094	3562
670.146	4162
670.197	4712
670.249	5454
670.301	7657
670.353	11907
670.404	15147
670.456	21063
670.508	34618
670.560	58464
670.611	98711
670.663	169633
670.715	347656
670.766	646315
670.818	410196
670.869	90739
670.921	34057
670.972	20770
671.024	15045
671.075	10265
671.127	7494
671.178	5709
671.230	6431
671.281	5158
671.333	4211
671.384	4157
671.436	4419
671.487	5512
671.538	6021
671.590	7363
671.641	12175
671.692	18310
671.744	34460
671.795	37518
671.846	15158
671.897	7659
671.949	5427
672.000	3790
672.051	2456
672.102	3575
672.153	1386
672.204	2871
672.256	2186
672.307	2269
672.358	2132
672.409	2237
672.460	1160
672.511	747
672.562	1737
672.613	1718
672.664	1490
672.715	855
672.766	1447
672.817	1488
672.868	1063
672.919	1236
672.970	1378
673.021	1394
673.071	1799
673.122	1227
673.173	1525
673.224	1515
673.275	1716
673.326	1096
673.376	1421
673.427	224
673.478	1141
673.528	1656
673.579	1509
673.630	1204
673.680	1128
673.731	821
673.782	979
673.832	1197
673.883	1171
673.934	903
673.984	1244
674.035	1206
674.085	754
674.136	1344
674.186	1667
674.237	1416
674.287	3377
674.338	2897
674.388	833
674.438	1264
674.489	1620
674.539	1345
674.589	913
674.640	1684
674.690	1019
674.740	1124
674.791	1108
674.841	673
674.891	1409
674.942	1104
674.992	822
675.042	575
675.092	309
675.142	526
675.193	1247
675.243	535
675.293	667
675.343	1615
675.393	1657
675.443	799
675.493	979
675.543	-382
675.593	1059
675.643	725
675.693	979
675.743	875
675.793	688
675.843	582
675.893	1614
675.943	1451
675.993	1149
676.043	377
676.093	1045
676.142	-469
676.192	999
676.242	937
676.292	296
676.341	579
676.391	1097
676.441	195
676.491	508
676.540	725
676.590	1018
676.640	-178
676.689	668
676.739	359
676.789	911
676.838	975
676.888	1167
676.937	308
676.987	785
677.037	664
677.086	817
677.136	784
677.185	-388
677.235	373
677.284	802
677.333	195
677.383	433
677.432	-143
677.482	426
677.531	1074
677.580	159
677.630	121
677.679	-225
677.728	483
677.778	753
677.827	-280
677.876	987
677.925	674
677.975	-134
678.024	448
678.073	684
678.122	402
678.171	1613
678.220	548
678.269	1138
678.319	933
678.368	1270
678.417	1092
678.466	130
678.515	316
678.564	671
678.613	920
678.662	200
678.711	450
678.760	535
678.809	89
678.857	574
678.906	-30
678.955	46
679.004	304
679.053	848
679.102	766
679.151	656
679.199	745
679.248	683
679.297	735
679.346	1030
679.394	773
679.443	652
679.492	279
679.540	613
679.589	-15
679.638	265
679.686	139
679.735	364
679.784	578
679.832	69
679.881	-180
679.929	788
679.978	-520
680.026	159
680.075	351
680.123	150
680.172	315
680.220	-68
680.268	840
680.317	311
680.365	634
680.414	-217
680.462	453
680.510	483
680.559	704
680.607	-56
680.655	554
680.703	20
680.752	677
680.800	623
680.848	-48
680.896	-36
680.945	911
680.993	-312
681.041	928
681.089	351
681.137	-18
681.185	438
681.233	-533
681.258	-237
681.281	18
681.329	254
681.377	9
681.380	53
681.425	368
681.473	666
681.502	452
681.521	255
681.569	736
681.617	64
681.624	99
681.665	127
681.713	879
681.745	904
681.761	884
681.809	183
681.857	1346
681.867	1343
681.904	1217
681.952	830
681.989	950
682.000	958
682.048	495
682.096	1237
682.111	1197
682.143	1014
682.191	716
682.233	1365
682.239	1437
682.286	1479
682.334	734
682.354	680
682.382	567
682.430	1321
682.476	1141
682.477	1114
682.525	1040
682.572	915
682.598	1475
682.620	1902
682.667	1026
682.715	1783
682.720	1722
682.763	952
682.810	2029
682.841	1868
682.857	1745
682.905	1453
682.952	1416
682.963	1536
683.000	1852
683.047	1972
683.085	2260
683.095	2320
683.142	1950
683.190	2286
683.206	2142
683.237	1801
683.284	2548
683.328	2328
683.332	2293
683.379	3121
683.426	1978
683.449	2309
683.473	2570
683.521	2580
683.568	2556
683.571	2546
683.615	2282
683.662	2820
683.693	3084
683.709	3161
683.757	2943
683.804	3384
683.814	3299
683.851	3016
683.898	3575
683.936	3807
683.945	3820
683.992	3568
684.039	3315
684.057	3349
684.086	3468
684.133	3849
684.179	3756
684.180	3730
684.227	3841
684.274	4458
684.300	4290
684.321	4148
684.368	4144
684.415	4068
684.422	4008
684.462	3489
684.509	3476
684.543	3577
684.556	3606
684.603	4095
684.649	3272
684.665	3562
684.696	4197
684.743	4275
684.786	4851
684.790	4882
684.837	3762
684.883	4005
684.908	4198
684.930	4345
684.977	4595
685.023	4643
685.029	4664
685.070	4702
685.117	4365
685.150	4663
685.164	4790
685.210	4799
685.257	5535
685.272	5604
685.303	5658
685.350	5081
685.393	5110
685.396	5115
685.443	5234
685.490	5420
685.514	5924
685.536	6224
685.583	5356
685.629	5021
685.636	5007
685.675	4802
685.722	5610
685.757	5456
685.768	5447
685.815	5163
685.861	4917
685.878	5315
685.908	5996
685.954	5370
686.000	5891
686.000	5893
686.047	5855
686.093	6090
686.121	6605
686.139	6880
686.185	7076
686.232	6275
686.242	6310
686.278	6281
686.324	5547
686.363	6142
686.370	6241
686.416	5405
686.463	5853
686.484	5532
686.509	5310
686.555	5609
686.601	5937
686.606	5988
686.647	6229
686.693	5893
686.727	5867
686.739	5918
686.785	5647
686.831	6208
686.848	6271
686.877	6263
686.923	6072
686.969	5677
686.969	5674
687.015	5643
687.061	6110
687.090	5953
687.107	5867
687.153	6748
687.199	6547
687.211	6504
687.245	6307
687.291	6133
687.332	6638
687.336	6712
687.382	6740
687.428	6488
687.453	6808
687.474	6896
687.520	6487
687.565	7309
687.574	7087
687.611	6642
687.657	6890
687.695	7680
687.702	7928
687.748	8994
687.794	10461
687.816	11034
687.839	10858
687.885	9717
687.931	9453
687.937	9452
687.976	9150
688.022	7915
688.058	7027
688.067	6980
688.113	7204
688.158	7103
688.179	7113
688.204	7130
688.249	7228
688.295	7673
688.300	7634
688.340	7463
688.386	7542
688.421	7471
688.431	7469
688.477	7576
688.522	8044
688.542	7972
688.567	7952
688.613	8262
688.658	8557
688.663	8581
688.703	8429
688.749	7956
688.784	7756
688.794	7758
688.839	7811
688.884	7854
688.905	7708
688.930	7591
688.975	8204
689.020	7961
689.026	7999
689.065	8420
689.110	8557
689.146	8208
689.155	8107
689.201	8868
689.246	8431
689.267	8535
689.291	8598
689.336	8752
689.381	8731
689.388	8600
689.426	8016
689.471	8290
689.509	8344
689.516	8394
689.561	8550
689.606	8267
689.630	8466
689.651	8603
689.696	8425
689.741	8929
689.750	8909
689.785	8862
689.830	8908
689.871	8671
689.875	8660
689.920	8664
689.965	8644
689.992	8632
690.010	8721
690.054	8529
690.099	8958
690.112	8918
690.144	8881
690.189	9283
690.233	9580
690.233	9595
690.278	9387
690.323	9332
690.354	9461
690.367	9544
690.412	9624
690.457	9595
690.474	9743
690.501	10182
690.546	10389
690.590	10861
690.595	10838
690.635	10952
690.680	11775
690.716	12138
690.724	12329
690.769	13396
690.813	14554
690.836	15052
690.857	16578
690.902	19619
690.946	23034
690.957	23885
690.991	31927
691.035	42788
691.077	53908
691.080	54352
691.124	59271
691.168	62866
691.198	65744
691.213	61656
691.257	49573
691.301	37089
691.318	32495
691.346	29699
691.390	24359
691.434	19232
691.439	18646
691.478	17231
691.522	15969
691.559	14424
691.567	14348
691.611	13940
691.655	13688
691.680	13285
691.699	13098
691.743	12519
691.787	12689
691.800	12500
691.831	12199
691.875	11824
691.919	11926
691.921	11888
691.964	11639
692.008	11702
692.041	11784
692.052	11801
692.096	11754
692.139	11682
692.162	11481
692.183	11385
692.227	11448
692.271	11339
692.282	11306
692.315	11360
692.359	11627
692.402	11779
692.403	11803
692.447	11468
692.490	11378
692.523	11280
692.534	11375
692.578	11828
692.622	11952
692.643	12090
692.666	12080
692.709	11910
692.753	11555
692.763	11514
692.797	11746
692.840	11993
692.884	12120
692.884	12147
692.928	12041
692.971	12165
693.004	12191
693.015	12277
693.059	12706
693.102	12808
693.124	12716
693.146	12847
693.189	13760
693.233	14270
693.245	14438
693.276	14879
693.320	15015
693.363	15535
693.365	15513
693.407	16782
693.450	18525
693.485	19544
693.493	20151
693.537	23099
693.580	26183
693.605	27937
693.624	31073
693.667	38299
693.710	45742
693.725	48324
693.753	64221
693.797	89206
693.840	115666
693.845	118426
693.883	128067
693.926	137531
693.966	146251
693.970	143659
694.013	114186
694.056	84633
694.086	64343
694.099	60950
694.142	49671
694.185	38111
694.206	32655
694.229	30833
694.272	27339
694.315	23664
694.326	22725
694.358	21902
694.401	20341
694.444	19110
694.446	18995
694.487	18429
694.530	17710
694.566	17185
694.573	17076
694.616	16180
694.659	15146
694.686	14502
694.702	14343
694.745	13852
694.787	13193
694.806	12946
694.830	12984
694.873	13032
694.916	12927
694.926	12885
694.959	13040
695.002	13065
695.044	13270
695.046	13246
695.087	13328
695.130	13154
695.166	13229
695.172	13266
695.215	13214
695.258	12959
695.286	12883
695.301	12971
695.343	12962
695.386	13187
695.406	13131
695.428	13065
695.471	13003
695.514	13114
695.526	12991
695.556	12825
695.599	12971
695.641	12819
695.646	12807
695.684	13057
695.726	12970
695.766	12885
695.769	12922
695.811	13087
695.854	13239
695.886	13217
695.896	13240
695.938	13282
695.981	13298
696.005	13317
696.023	13436
696.065	13420
696.108	13678
696.125	13714
696.150	13781
696.192	13761
696.235	13768
696.245	13726
696.277	13517
696.319	13272
696.361	13019
696.365	12960
696.404	13814
696.446	14707
696.485	15486
696.488	15515
696.530	15366
696.572	15202
696.604	15091
696.614	15136
696.656	15064
696.698	15091
696.724	14960
696.740	14802
696.783	14473
696.825	14120
696.844	13880
696.867	13958
696.909	13924
696.951	14119
696.964	14105
696.992	14080
697.034	13989
697.076	14042
697.083	13984
697.118	14354
697.160	14798
697.202	15279
697.203	15249
697.244	14855
697.286	14571
697.323	14115
697.327	14170
697.369	14322
697.411	14508
697.442	14654
697.453	14638
697.494	14372
697.536	14121
697.562	13894
697.578	14120
697.620	14612
697.661	15172
697.682	15347
697.703	15459
697.744	15733
697.786	16028
697.801	16045
697.828	16232
697.869	16508
697.911	16790
697.921	16804
697.952	16240
697.994	15425
698.035	14691
698.040	14551
698.077	14484
698.118	14415
698.160	14359
698.160	14319
698.201	14429
698.243	14468
698.279	14522
698.284	14602
698.325	14937
698.367	15266
698.399	15503
698.408	15497
698.449	15241
698.491	14994
698.518	14787
698.532	14950
698.573	15333
698.614	15677
698.638	15842
698.656	15876
698.697	15869
698.738	15835
698.757	15777
698.779	15845
698.820	15903
698.862	15943
698.877	15916
698.903	16112
698.944	16356
698.985	16597
698.996	16620
699.026	16700
699.067	16747
699.116	16758
699.235	14457
699.354	15110
699.474	15744
699.593	16616
699.713	16266
699.832	15492
699.951	16700
700.070	15236
700.190	14468
700.309	15182
700.428	15758
700.547	15243
700.667	14545
700.786	15773
700.905	15329
701.024	14648
701.143	15224
701.262	13525
701.381	14830
701.500	14605
701.619	15687
701.738	14465
701.857	14351
701.976	13569
702.095	13638
702.214	14998
702.333	15188
702.452	14253
702.571	14902
702.690	14835
702.809	13234
702.928	13565
703.047	13894
703.165	14132
703.284	13097
703.403	13722
703.522	14162
703.640	14610
703.759	14553
703.878	17905
703.997	14210
704.115	13498
704.234	12892
704.353	12792
704.471	12986
704.590	13061
704.708	13117
704.827	12600
704.946	12501
705.064	12550
705.183	12190
705.301	13128
705.420	15739
705.538	15318
705.656	14109
705.775	14209
705.893	22104
706.012	36363
706.130	16046
706.249	14462
706.367	14355
706.485	14466
706.604	14864
706.722	14630
706.840	16691
706.958	23539
707.077	22790
707.195	13852
707.313	13845
707.431	12615
707.549	13096
707.668	12440
707.786	14086
707.904	13222
708.022	12119
708.140	12989
708.258	13555
708.376	13003
708.494	11972
708.612	13647
708.730	15117
708.848	15897
708.966	16164
709.084	14807
709.202	14304
709.320	14236
709.438	13489
709.556	13520
709.674	13902
709.791	13382
709.909	12808
710.027	13266
710.145	13764
710.263	13900
710.380	13109
710.498	14013
710.616	13769
710.733	12924
710.851	13707
710.969	13823
711.086	12975
711.204	12981
711.322	12802
711.439	13324
711.557	13261
711.674	12787
711.792	13059
711.909	13411
712.027	15532
712.144	13687
712.262	12616
712.379	12878
712.497	15798
712.614	16587
712.732	14816
712.849	13525
712.966	14391
713.084	17072
713.201	15401
713.318	15456
713.436	14416
713.553	14483
713.670	15407
713.787	15663
713.905	17121
714.022	15280
714.139	14076
714.256	17904
714.373	23519
714.490	38345
714.608	80463
714.725	345803
714.842	670049
714.959	69397
715.076	23047
715.193	16774
715.310	16546
715.427	13702
715.544	13238
715.661	13517
715.778	12070
715.895	14282
716.011	14002
716.128	13113
716.245	14215
716.362	14228
716.479	15464
716.596	13118
716.713	12911
716.829	12896
716.946	13491
717.063	12226
717.180	11797
717.296	12569
717.413	11860
717.530	11039
717.646	11386
717.763	10644
717.880	10713
717.996	10994
718.113	11388
718.229	11232
718.346	11338
718.462	11133
718.579	12615
718.695	18094
718.812	18313
718.928	14891
719.045	12123
719.161	10534
719.277	10905
719.394	11251
719.510	11341
719.626	11626
719.743	13917
719.859	18231
719.975	29876
720.092	94903
720.208	326959
720.324	78947
720.440	16270
720.557	13605
720.673	16332
720.789	20576
720.905	32506
721.021	21164
721.137	11013
721.253	11093
721.369	10304
721.486	10193
721.602	14005
721.718	10650
721.834	9672
721.950	9337
722.066	9733
722.181	9406
722.297	10090
722.413	10299
722.529	9334
722.645	9895
722.761	9072
722.877	9224
722.993	9469
723.108	10343
723.224	10523
723.340	9087
723.456	9615
723.571	9327
723.687	8485
723.803	8828
723.918	9112
724.034	8769
724.150	8960
724.265	8869
724.381	12675
724.497	21201
724.612	9593
724.728	8347
724.843	8501
724.959	8471
725.074	12790
725.190	19902
725.305	9075
725.421	8671
725.536	8190
725.651	7940
725.767	8689
725.882	7537
725.997	7676
726.113	8315
726.228	7906
726.343	7526
726.459	8081
726.574	8209
726.689	8572
726.804	7746
726.920	7266
727.035	7964
727.150	7698
727.265	7551
727.380	7848
727.495	8755
727.610	7155
727.725	8326
727.841	8754
727.956	13878
728.071	16656
728.186	8154
728.301	7472
728.416	7920
728.531	8092
728.645	7407
728.760	8457
728.875	9597
728.990	8928
729.105	7788
729.220	8400
729.335	7844
729.449	7701
729.564	8097
729.679	6916
729.794	6784
729.908	7608
730.023	8704
730.138	6686
730.253	6641
730.367	6813
730.482	7648
730.596	7212
730.711	7909
730.826	8460
730.940	10483
731.055	8666
731.169	7480
731.284	7103
731.398	7212
731.513	8539
731.627	8558
731.742	9267
731.856	10311
731.970	9181
732.085	11862
732.199	13548
732.313	21764
732.428	47091
732.542	132929
732.656	127650
732.771	27250
732.885	12823
732.999	11759
733.113	10395
733.227	10305
733.342	8128
733.456	8676
733.570	7999
733.684	7725
733.798	8370
733.912	7929
734.026	7375
734.140	7520
734.254	7679
734.368	10009
734.482	13391
734.596	7618
734.710	8049
734.824	7088
734.938	7773
735.052	7542
735.166	8602
735.280	8342
735.393	7622
735.507	7794
735.621	8149
735.735	12611
735.849	9247
735.962	6950
736.076	7438
736.190	6900
736.303	7956
736.417	10781
736.531	7706
736.644	6967
736.758	6500
736.872	6117
736.985	7089
737.099	6348
737.212	6802
737.326	6844
737.439	6391
737.553	7080
737.666	6764
737.780	5772
737.893	7014
738.007	7433
738.120	6077
738.233	6562
738.347	6783
738.460	6080
738.573	7713
738.687	6988
738.800	7352
738.913	7712
739.026	7976
739.140	6376
739.253	7475
739.366	6120
739.479	6618
739.592	6077
739.705	6309
739.818	6996
739.932	5677
740.045	6915
740.158	6418
740.271	6460
740.384	6840
740.497	6088
740.610	7197
740.723	7067
740.836	7580
740.949	7766
741.062	8361
741.174	9596
741.287	6834
741.400	6644
741.513	6860
741.626	7235
741.739	7897
741.851	6605
741.964	6232
742.077	6277
742.189	6985
742.302	8335
742.415	7782
742.527	6601
742.640	6558
742.753	5694
742.865	6329
742.978	5897
743.090	6597
743.203	6290
743.316	6214
743.428	5980
743.541	6010
743.653	5085
743.766	5768
743.878	6642
743.990	6972
744.103	7880
744.215	6219
744.327	6130
744.440	6589
744.552	8517
744.664	6794
744.777	5946
744.889	5575
745.001	5711
745.113	5593
745.226	5675
745.338	6598
745.450	5772
745.562	5263
745.674	5596
745.786	4713
745.898	5736
746.010	5402
746.122	5582
746.234	5608
746.347	5057
746.459	5633
746.570	5685
746.682	5925
746.794	6831
746.906	5761
747.018	5733
747.130	5262
747.242	5438
747.354	4782
747.466	5944
747.577	5707
747.689	5637
747.801	4719
747.913	5848
748.024	5874
748.136	5013
748.248	5099
748.359	4732
748.471	5766
748.583	5106
748.694	5048
748.806	7376
748.918	6345
749.029	5574
749.141	6326
749.252	6959
749.364	5736
749.475	8899
749.587	9433
749.698	4818
749.809	4759
749.921	5257
750.032	5329
750.144	4964
750.255	3855
750.366	5370
750.478	5475
750.589	5131
750.700	5663
750.811	5999
750.923	6639
751.034	9214
751.145	12962
751.256	6369
751.367	5469
751.479	5585
751.590	4838
751.701	4967
751.812	4836
751.923	5502
752.034	4818
752.145	5817
752.256	4508
752.367	5715
752.478	4807
752.589	6460
752.700	5376
752.811	5176
752.922	5589
753.032	5093
753.143	6549
753.254	5817
753.365	5258
753.476	5544
753.586	6007
753.697	5719
753.808	4839
753.919	5958
754.029	4891
754.140	5229
754.251	5297
754.361	4967
754.472	5389
754.582	5774
754.693	5426
754.804	5352
754.914	4946
755.025	4491
755.135	5373
755.246	5574
755.356	5847
755.466	5606
755.577	5307
755.687	5629
755.798	4945
755.908	5022
756.018	5052
756.129	5466
756.239	5155
756.349	5706
756.460	5644
756.570	6555
756.680	5583
756.790	6897
756.900	6356
757.011	6024
757.121	5561
757.231	6792
757.341	5828
757.451	5524
757.561	5427
757.671	6151
757.781	4904
757.891	6040
758.001	6257
758.111	6769
758.221	6027
758.331	6470
758.441	7017
758.551	8188
758.661	8937
758.771	7479
758.880	6188
758.990	7355
759.100	7203
759.210	7152
759.320	7175
759.429	6258
759.539	7302
759.649	8309
759.758	7886
759.868	8626
759.978	8811
760.087	8916
760.197	8706
760.307	9096
760.416	9144
760.526	8906
760.635	9731
760.745	9406
760.854	9508
760.964	10024
761.073	10409
761.182	10721
761.292	10538
761.401	10211
761.511	10392
761.620	10687
761.729	9972
761.839	10042
761.948	10240
762.057	11305
762.166	11418
762.276	10625
762.385	11734
762.494	11055
762.603	12170
762.712	12704
762.822	11904
762.931	12919
763.040	13935
763.149	14499
763.258	14530
763.367	14758
763.476	15597
763.585	16004
763.694	17414
763.803	17613
763.912	19025
764.021	19988
764.130	20427
764.238	22445
764.347	23581
764.456	25948
764.565	26700
764.674	29328
764.783	33049
764.891	35172
765.000	39033
765.109	43549
765.217	50633
765.326	59658
765.435	70217
765.543	84362
765.652	103891
765.761	129780
765.869	171098
765.978	234801
766.086	334728
766.195	482637
766.303	668673
766.412	719149
766.520	579002
766.629	667079
766.737	550765
766.846	384732
766.954	270813
767.062	197516
767.171	148937
767.279	116037
767.387	91327
767.496	76523
767.604	65103
767.712	56216
767.820	50906
767.928	45430
768.037	41649
768.145	40922
768.253	38592
768.361	36837
768.469	37072
768.577	38226
768.685	38502
768.793	39976
768.901	44255
769.009	49689
769.117	59932
769.225	75633
769.333	99026
769.441	144262
769.549	223163
769.657	371627
769.765	598525
769.873	617779
769.981	571890
770.088	461512
770.196	282621
770.304	180532
770.412	127109
770.519	96229
770.627	74558
770.735	61043
770.842	51362
770.950	43463
771.058	38131
771.165	34611
771.273	29547
771.380	27560
771.488	25488
771.595	23987
771.703	21395
771.810	20847
771.918	19210
772.025	18398
772.133	17479
772.240	16849
772.348	15771
772.455	16104
772.562	14764
772.670	14131
772.777	13929
772.884	13205
772.991	13364
773.099	12317
773.206	11019
773.313	11880
773.420	11596
773.528	10696
773.635	9360
773.742	10476
773.849	9891
773.956	9863
774.063	8893
774.170	9364
774.277	9063
774.384	8994
774.491	9294
774.598	10076
774.705	8997
774.812	9564
774.919	8829
775.026	9447
775.133	8171
775.239	7466
775.346	7963
775.453	7145
775.560	6652
775.667	7871
775.773	6667
775.880	7924
775.987	7882
776.093	6721
776.200	7565
776.307	6564
776.413	6463
776.520	5958
776.627	6472
776.733	6480
776.840	5136
776.946	7094
777.053	7557
777.159	8549
777.266	7175
777.372	8191
777.478	8399
777.585	7208
777.691	6280
777.798	5741
777.904	6662
778.010	7723
778.117	7322
778.223	5445
778.329	5147
778.435	5355
778.542	6149
778.648	5519
778.754	4680
778.860	4836
778.966	5620
779.072	4348
779.178	5046
779.284	4855
779.391	5525
779.497	6068
779.603	7665
779.708	10479
779.815	19968
779.920	60142
780.026	170643
780.132	60227
780.238	11008
780.344	7520
780.450	6665
780.556	6758
780.661	5268
780.767	4994
780.873	5186
780.979	3993
781.085	4551
781.190	4022
781.296	3311
781.402	4667
781.507	4496
781.613	4438
781.719	3501
781.824	4315
781.930	4586
782.035	4211
782.141	3622
782.246	3754
782.352	4024
782.457	4258
782.563	4074
782.668	3662
782.773	3616
782.879	3373
782.984	4056
783.090	5338
783.195	5292
783.300	4544
783.405	4701
783.511	3689
783.616	3732
783.721	3843
783.826	3726
783.932	3592
784.037	3392
784.142	3540
784.247	4226
784.352	3401
784.457	3527
784.562	3873
784.667	3269
784.772	3661
784.877	2970
784.982	3455
785.087	2672
785.192	3244
785.297	2798
785.402	2779
785.507	2169
785.611	3731
785.716	2499
785.821	3644
785.926	2842
786.031	3353
786.135	3417
786.240	3229
786.345	2813
786.450	3299
786.554	3286
786.659	2790
786.763	2521
786.868	3150
786.973	3492
787.077	3201
787.182	2997
787.286	3651
787.391	2539
787.495	2871
787.600	2405
787.704	1860
787.809	2517
787.913	3106
788.017	3724
788.122	3320
788.226	2463
788.330	2205
788.435	2391
788.539	2984
788.643	2278
788.747	1787
788.852	2821
788.956	2218
789.060	2986
789.164	2875
789.268	2648
789.372	3029
789.476	2435
789.580	2250
789.684	2526
789.788	2531
789.892	2660
789.996	2444
790.100	2288
790.204	2060
790.308	3204
790.412	3212
790.516	2549
790.620	2402
790.724	2389
790.828	2544
790.931	1605
791.035	3371
791.139	2283
791.242	2391
791.346	3299
791.450	2599
791.554	2092
791.657	2234
791.761	3228
791.864	2927
791.968	2539
792.072	2415
792.175	2538
792.279	2727
792.382	2297
792.486	2435
792.589	2072
792.693	2597
792.796	1815
792.899	3119
793.003	1619
793.106	2168
793.209	2255
793.313	3519
793.416	2103
793.519	2459
793.623	3932
793.726	5227
793.829	3589
793.932	2546
794.035	2347
794.138	3644
794.242	3697
794.345	4068
794.448	6359
794.551	11935
794.654	33928
794.757	99682
794.860	39515
794.963	6331
795.066	3844
795.169	3808
795.272	2706
795.375	2414
795.477	1848
795.580	2895
795.683	1447
795.786	1327
795.889	1955
795.991	3211
796.094	2860
796.197	2047
796.300	1936
796.402	2256
796.505	1795
796.608	1672
796.710	2671
796.813	2597
796.915	2584
797.018	2418
797.120	1600
797.223	1268
797.326	2836
797.428	1992
797.530	1699
797.633	1893
797.735	2304
797.838	2870
797.940	4031
798.042	1516
798.145	2008
798.247	2677
798.349	969
798.452	2717
798.554	1341
798.656	1823
798.758	2186
798.860	1511
798.962	1211
799.065	1845
799.167	1104
799.269	2314
799.371	2659
799.473	2797
799.575	2076
799.677	2245
799.779	3617
799.881	2892
799.983	4212
800.085	1608
800.187	1964
800.289	1667
800.390	2090
800.492	1921
800.594	2399
800.696	1210
800.798	64
800.899	1371
801.001	1035
801.103	1413
801.205	658
801.306	1882
801.408	1733
801.509	1862
801.611	2234
801.713	1338
801.814	1250
801.916	1611
802.017	1432
802.119	1519
802.220	1855
802.322	438
802.423	2824
802.525	2226
802.626	1400
802.727	1154
802.829	1580
802.930	139
803.031	2443
803.133	1775
803.234	647
803.335	1200
803.436	1435
803.538	2116
803.639	692
803.740	797
803.841	1160
803.942	1826
804.043	1546
804.144	1270
804.245	1424
804.346	1660
804.447	1254
804.548	1677
804.649	2935
804.750	1668
804.851	1300
804.952	949
805.053	956
805.154	992
805.255	2405
805.355	2120
805.456	1254
805.557	1214
805.658	696
805.758	2232
805.859	1382
805.960	731
806.061	816
806.161	1113
806.262	1463
806.362	1793
806.463	1504
806.564	1293
806.664	1480
806.765	2142
806.865	1141
806.966	1537
807.066	1063
807.166	1515
807.267	2346
807.367	1523
807.468	1358
807.568	1115
807.668	2034
807.769	1238
807.869	984
807.969	1209
808.069	1514
808.170	1090
808.270	1084
808.370	2628
808.470	2054
808.570	1168
808.670	899
808.770	1223
808.870	1205
808.970	851
809.070	1172
809.170	706
809.271	2057
809.370	1767
809.470	2115
809.570	1743
809.670	1315
809.770	1128
809.870	1745
809.970	1323
810.070	1279
810.169	1846
810.269	754
810.369	2065
810.469	1013
810.568	729
810.668	1072
810.768	801
810.867	1673
810.967	1184
811.066	1393
811.166	1583
811.265	1435
811.365	1752
811.464	870
811.564	1950
811.663	2357
811.763	439
811.862	1602
811.962	2040
812.061	832
812.160	1905
812.260	2417
812.359	2788
812.458	3927
812.557	9081
812.657	20395
812.756	13144
812.855	3863
812.954	2157
813.053	2590
813.153	1925
813.252	1450
813.351	2315
813.450	1979
813.549	2226
813.648	1555
813.747	1848
813.846	2091
813.945	2140
814.044	2256
814.143	1362
814.242	2247
814.341	1826
814.439	2377
814.538	2485
814.637	1774
814.736	2889
814.835	2497
814.933	2364
815.032	2540
815.131	2251
815.229	2852
815.328	3541
815.427	3277
815.525	3508
815.624	4120
815.722	3463
815.821	3574
815.919	3636
816.018	4047
816.116	4886
816.215	4680
816.313	4924
816.412	5269
816.510	4909
816.609	6555
816.707	6529
816.805	7088
816.904	6555
817.002	7924
817.100	7985
817.198	9695
817.296	10773
817.395	11126
817.493	14192
817.591	15436
817.689	20505
817.787	26705
817.885	39167
817.983	63478
818.081	115131
818.179	229154
818.277	472875
818.375	576298
818.473	323304
818.571	149411
818.669	87664
818.767	67849
818.865	60305
818.963	66431
819.061	84105
819.158	121885
819.256	209708
819.354	384100
819.452	652454
819.549	634691
819.647	389770
819.745	203119
819.842	118252
819.940	76801
820.038	54868
820.135	41673
820.233	32327
820.330	25533
820.428	21682
820.525	18525
820.623	15539
820.720	14354
820.818	12015
820.915	11285
821.012	10707
821.110	8321
821.207	8659
821.304	8242
821.402	7622
821.499	7689
821.596	7220
821.693	6095
821.791	6173
821.888	4763
821.985	7594
822.082	7661
822.179	5422
822.276	4069
822.373	4415
822.470	4619
822.567	3956
822.664	3238
822.761	4207
822.858	3566
822.955	3209
823.052	3170
823.149	2762
823.246	1962
823.343	2563
823.440	2829
823.536	2004
823.633	2836
823.730	2367
823.827	2527
823.923	2249
824.020	3171
824.117	2298
824.213	2546
824.310	3670
824.407	2005
824.503	3005
824.600	2263
824.696	2494
824.793	3099
824.889	1877
824.986	2518
825.082	2164
825.179	2517
825.275	1543
825.371	1241
825.468	2038
825.564	1353
825.660	2355
825.757	2641
825.853	2217
825.949	1261
826.045	1374
826.142	1174
826.238	1316
826.334	1961
826.430	1724
826.526	1883
826.622	762
826.718	1781
826.814	1590
826.910	1620
827.006	1377
827.102	288
827.198	1404
827.294	1368
827.390	1582
827.486	1571
827.582	476
827.678	872
827.774	1881
827.869	355
827.965	2557
828.061	1200
828.157	382
828.252	1941
828.348	462
828.444	2129
828.539	1109
828.635	647
828.731	1740
828.826	1281
828.922	1932
829.017	1212
829.113	1443
829.208	1342
829.304	765
829.399	1751
829.495	1073
829.590	1381
829.685	1243
829.781	1026
829.876	781
829.971	1079
830.066	654
830.162	1709
830.257	1642
830.352	926
830.447	1689
830.543	1413
830.638	829
830.733	1283
830.828	992
830.923	1454
831.018	1578
831.113	2296
831.208	103
831.303	1330
831.398	220
831.493	962
831.588	1640
831.683	612
831.778	883
831.873	1343
831.967	1785
832.062	1020
832.157	677
832.252	1756
832.346	954
832.441	1822
832.536	2155
832.631	3195
832.725	3514
832.820	1122
832.914	658
833.009	747
833.104	1104
833.198	1638
833.293	1100
833.387	1032
833.482	1129
833.576	949
833.670	1519
833.765	90
833.859	374
833.954	1521
834.048	466
834.142	847
834.237	1443
834.331	537
834.425	1187
834.519	265
834.613	1032
834.708	681
834.802	491
834.896	659
834.990	502
835.084	1117
835.178	667
835.272	682
835.366	340
835.460	590
835.554	1332
835.648	477
835.742	704
835.836	735
835.930	-104
836.024	1280
836.117	1661
836.211	787
836.305	639
836.399	1963
836.493	639
836.586	1674
836.680	370
836.774	508
836.867	1637
836.961	63
837.055	982
837.148	620
837.242	1323
837.335	274
837.429	716
837.522	467
837.616	395
837.709	2039
837.803	1327
837.896	1191
837.989	556
838.083	1378
838.176	1429
838.269	2911
838.363	2158
838.456	206
838.549	1477
838.642	1903
838.735	3768
838.829	2777
838.922	440
839.015	565
839.108	213
839.201	499
839.294	881
839.387	478
839.480	-159
839.573	588
839.666	1048
839.759	445
839.852	1153
839.945	-64
840.038	978
840.131	593
840.223	135
840.316	615
840.409	671
840.502	-107
840.594	1041
840.687	-375
840.780	1011
840.873	140
840.965	54
841.058	649
841.150	1707
841.243	765
841.336	619
841.428	265
841.521	489
841.613	507
841.706	407
841.798	770
841.890	640
841.983	-82
842.075	1042
842.167	-80
842.260	-288
842.352	867
842.444	1551
842.537	1842
842.629	3439
842.721	440
842.813	1543
842.905	-431
842.997	16
843.090	444
843.182	1436
843.274	1325
843.366	4785
843.458	8538
843.550	8353
843.642	1670
843.734	675
843.826	751
843.918	892
844.009	851
844.101	367
844.193	314
844.285	471
844.377	629
844.469	1474
844.560	894
844.652	1751
844.744	845
844.835	420
844.927	512
845.019	823
845.110	627
845.202	816
845.293	649
845.385	-628
845.476	630
845.568	899
845.659	827
845.751	234
845.842	522
845.934	-265
846.025	-80
846.116	489
846.208	-156
846.299	-409
846.390	662
846.482	161
846.573	821
846.664	703
846.755	441
846.846	2209
846.937	-491
847.029	239
847.120	-375
847.211	517
847.302	634
847.393	-400
847.484	344
847.575	-507
847.666	277
847.757	491
847.847	-323
847.938	851
848.029	-154
848.120	-122
848.211	-9
848.302	316
848.392	149
848.483	554
848.574	-824
848.664	-472
848.755	-20
848.846	459
848.936	-140
849.027	445
849.118	242
849.208	635
849.299	961
849.389	1628
849.480	4901
849.570	9260
849.661	17273
849.751	35626
849.841	20724
849.932	3089
850.022	709
850.112	922
850.203	-4
850.293	469
850.383	-175
850.474	428
850.564	552
850.654	846
850.744	604
850.834	-1010
850.924	-552
851.014	348
851.104	417
851.194	124
851.284	196
851.374	333
851.464	828
851.554	1240
851.644	-145
851.734	1350
851.824	1312
851.914	2293
852.004	4503
852.094	7419
852.183	3469
852.273	1499
852.363	467
852.452	337
852.542	-775
852.632	510
852.721	370
852.811	27
852.901	486
852.990	273
853.080	997
853.169	639
853.259	560
853.348	655
853.438	1836
853.527	3039
853.617	4240
853.706	7351
853.795	13194
853.885	29719
853.974	61145
854.063	105854
854.152	201008
854.242	123655
854.331	25122
854.420	7223
854.509	4916
854.598	3918
854.687	2199
854.777	2279
854.866	1696
854.955	1552
855.044	548
855.133	718
855.222	425
855.311	913
855.400	1001
855.488	974
855.577	431
855.666	460
855.755	77
855.844	664
855.933	414
856.021	681
856.110	1079
856.199	325
856.288	-200
856.376	300
856.465	15
856.554	-91
856.642	-268
856.731	542
856.819	424
856.908	214
856.996	349
857.085	-313
857.173	-193
857.262	210
857.350	755
857.438	-254
857.527	90
857.615	-422
857.703	21
857.792	-432
857.880	-658
857.968	-667
858.056	185
858.145	-654
858.233	-139
858.321	-140
858.409	452
858.497	-758
858.585	-336
858.673	270
858.761	-537
858.849	-407
858.937	-483
859.025	298
859.113	-77
859.201	-1062
859.289	222
859.377	-584
859.465	250
859.552	-634
859.640	-303
859.728	-619
859.816	310
859.903	-215
859.991	-149
860.079	-63
860.166	76
860.254	-70
860.342	-166
860.429	-42
860.517	-202
860.604	-489
860.692	949
860.779	-390
860.867	-667
860.954	-356
861.042	460
861.129	908
861.216	266
861.304	-392
861.391	-448
861.478	-763
861.565	115
861.653	270
861.740	-740
861.827	407
861.914	-46
862.001	340
862.089	467
862.176	-190
862.263	-711
862.350	-209
862.437	254
862.524	-622
862.611	-305
862.698	-147
862.785	34
862.871	656
862.958	-216
863.045	736
863.132	74
863.219	-193
863.306	-768
863.392	692
863.479	-243
863.566	-651
863.652	-549
863.739	-663
863.826	104
863.912	231
863.999	-216
864.086	-45
864.172	-55
864.259	487
864.345	256
864.432	346
864.518	-50
864.604	520
864.691	318
864.777	130
864.863	531
864.950	913
865.036	204
865.122	1882
865.209	1458
865.295	1643
865.381	1682
865.467	1832
865.553	2097
865.639	3521
865.726	6917
865.812	14527
865.898	28715
865.984	47756
866.070	78018
866.156	121532
866.242	51013
866.328	10384
866.414	3293
866.499	2905
866.585	2406
866.671	2251
866.757	1569
866.843	1496
866.928	1268
867.014	604
867.100	1143
867.186	848
867.271	760
867.357	2065
867.442	1166
867.528	1488
867.614	1201
867.699	915
867.785	1422
867.870	232
867.956	1159
868.041	1120
868.127	333
868.212	975
868.297	873
868.383	1189
868.468	1454
868.553	2071
868.639	2878
868.724	3543
868.809	5759
868.894	1432
868.979	719
869.065	807
869.150	-198
869.235	319
869.320	56
869.405	785
869.490	-110
869.575	660
869.660	622
869.745	952
869.830	212
869.915	947
870.000	35
870.085	237
870.169	193
870.254	649
870.339	-161
870.424	215
870.509	515
870.593	1044
870.678	906
870.763	597
870.847	-90
870.932	-331
871.016	736
871.101	13
871.186	389
871.270	240
871.355	-727
871.439	697
871.523	1
871.608	213
871.692	-340
871.777	1214
871.861	285
871.945	-116
872.030	332
872.114	103
872.198	-572
872.282	-533
872.367	-50
872.451	282
872.535	283
872.619	-131
872.703	-374
872.787	270
872.871	107
872.955	412
873.039	-100
873.123	-205
873.207	614
873.291	145
873.375	567
873.459	-263
873.543	527
873.627	-274
873.711	-194
873.794	121
873.878	-322
873.962	-441
874.045	-50
874.129	272
874.137	294
874.213	509
874.245	290
874.296	-64
874.352	-508
874.380	-725
874.460	26
874.464	55
874.547	116
874.568	62
874.631	-94
874.676	-71
874.714	-38
874.784	271
874.798	320
874.881	682
874.892	549
874.965	-268
874.999	33
875.048	397
875.107	400
875.131	409
875.215	344
875.215	344
875.298	-45
875.323	-161
875.381	-389
875.430	240
875.465	684
875.538	-32
875.548	-127
875.631	515
875.646	388
875.714	-280
875.753	-6
875.798	317
875.861	479
875.881	522
875.964	284
875.968	254
876.047	-177
876.076	150
876.130	684
876.183	321
876.213	158
876.291	484
876.296	505
876.379	-300
876.398	-236
876.462	-106
876.506	25
876.545	177
876.613	841
876.628	1009
876.711	187
876.721	276
876.794	795
876.828	507
876.877	136
876.935	634
876.960	835
877.043	-37
877.043	-36
877.125	387
877.150	434
877.208	485
877.258	810
877.291	1011
877.365	339
877.374	272
877.456	625
877.472	620
877.539	516
877.579	425
877.622	415
877.687	659
877.704	722
877.787	870
877.794	826
877.869	207
877.901	348
877.952	650
878.008	390
878.034	241
878.115	145
878.117	146
878.199	475
878.222	523
878.282	697
878.329	569
878.364	364
878.437	381
878.447	413
878.529	329
878.544	362
878.611	414
878.651	476
878.694	642
878.758	730
878.776	714
878.858	474
878.865	453
878.941	235
878.972	123
879.023	-1
879.078	219
879.105	308
879.185	762
879.187	773
879.269	783
879.292	682
879.351	231
879.399	37
879.433	68
879.506	753
879.516	812
879.598	538
879.613	484
879.680	510
879.720	759
879.762	797
879.827	439
879.844	407
879.926	944
879.933	902
880.007	558
880.040	654
880.089	609
880.147	860
880.171	1099
880.253	1923
880.254	1929
880.335	2713
880.360	3008
880.417	4249
880.467	6104
880.499	7424
880.574	10494
880.580	10551
880.662	5594
880.680	4606
880.744	1336
880.787	666
880.825	519
880.893	224
880.907	183
880.989	546
881.000	554
881.070	760
881.106	727
881.152	551
881.213	468
881.233	388
881.315	-164
881.319	-188
881.396	119
881.426	276
881.478	317
881.532	605
881.559	875
881.639	699
881.641	684
881.722	670
881.745	455
881.803	-5
881.852	165
881.885	298
881.958	521
881.966	581
882.047	887
882.064	829
882.129	337
882.171	598
882.210	1187
882.277	2138
882.291	2250
882.372	1605
882.383	1539
882.454	874
882.489	647
882.535	429
882.596	438
882.616	434
882.697	348
882.702	328
882.778	278
882.808	211
882.859	170
882.914	487
882.940	526
883.020	266
883.021	270
883.102	694
883.127	833
883.183	1001
883.233	880
883.264	713
883.339	475
883.345	481
883.426	507
883.445	590
883.507	1021
883.551	1248
883.587	1323
883.657	1178
883.668	1153
883.749	1067
883.763	1016
883.830	508
883.869	457
883.910	690
883.975	914
883.991	919
884.072	640
884.081	658
884.152	1253
884.187	1344
884.233	1187
884.292	1087
884.314	987
884.394	697
884.398	678
884.475	826
884.504	795
884.555	628
884.610	511
884.636	518
884.716	584
884.716	588
884.797	874
884.821	839
884.877	675
884.927	460
884.958	337
885.033	557
885.038	595
885.118	757
885.139	798
885.199	733
885.244	906
885.279	976
885.350	753
885.359	786
885.439	1281
885.456	1287
885.520	826
885.561	737
885.600	718
885.667	491
885.680	553
885.760	849
885.773	956
885.840	1038
885.878	982
885.920	1173
885.984	1300
886.000	1221
886.080	935
886.089	901
886.160	1195
886.195	1311
886.240	990
886.300	518
886.320	598
886.400	1122
886.406	1143
886.480	1033
886.511	996
886.560	1045
886.616	1044
886.640	1014
886.720	789
886.722	782
886.800	636
886.827	618
886.879	855
886.932	989
886.959	946
887.038	838
887.039	844
887.119	989
887.143	1033
887.198	827
887.248	661
887.278	857
887.354	1203
887.358	1206
887.437	1272
887.459	1281
887.517	1459
887.564	1508
887.596	1282
887.669	903
887.676	900
887.755	840
887.774	794
887.835	722
887.880	662
887.914	758
887.985	979
887.994	1040
888.073	1579
888.090	1672
888.153	1534
888.195	1429
888.232	1252
888.300	926
888.311	1021
888.391	1688
888.405	1800
888.470	1207
888.510	816
888.549	1127
888.615	1699
888.628	1655
888.708	1282
888.720	1225
888.787	1240
888.825	1217
888.866	1246
888.930	1339
888.945	1295
889.024	992
889.035	954
889.103	1409
889.140	1607
889.182	1415
889.245	1187
889.261	1246
889.340	1491
889.349	1513
889.419	1570
889.454	1598
889.498	1451
889.559	1256
889.577	1267
889.656	1294
889.664	1296
889.735	1916
889.768	2203
889.814	2081
889.873	1909
889.978	1397
890.083	1630
890.187	951
890.292	1408
890.397	1630
890.501	1147
890.606	770
890.710	907
890.815	1689
890.919	1784
891.024	1588
891.128	1068
891.233	1233
891.337	817
891.442	1586
891.546	1518
891.650	1560
891.755	979
891.859	2417
891.963	1602
892.068	1845
892.172	456
892.276	402
892.380	1078
892.484	1289
892.589	1161
892.693	1313
892.797	2132
892.901	307
893.005	1403
893.109	1259
893.213	1506
893.317	1598
893.421	1451
893.525	926
893.629	735
893.733	1069
893.837	1007
893.941	856
894.045	1709
894.148	2732
894.252	4874
894.356	6037
894.460	2575
894.564	461
894.667	909
894.771	728
894.875	601
894.978	1736
895.082	899
895.186	813
895.289	738
895.393	1216
895.496	1261
895.600	266
895.703	1020
895.807	1361
895.910	1355
896.014	1617
896.117	893
896.221	1742
896.324	1082
896.427	782
896.531	1096
896.634	893
896.737	833
896.840	1224
896.944	642
897.047	960
897.150	974
897.253	1692
897.356	707
897.460	893
897.563	1050
897.666	40
897.769	1680
897.872	425
897.975	440
898.078	823
898.181	391
898.284	436
898.387	710
898.490	1900
898.593	845
898.695	1038
898.798	548
898.901	1048
899.004	2071
899.107	969
899.209	187
899.312	1144
899.415	980
899.518	461
899.620	803
899.723	1104
899.826	826
899.928	1792
900.031	595
900.133	1594
900.236	792
900.338	706
900.441	714
900.543	981
900.646	715
900.748	1506
900.851	1045
900.953	513
901.055	1086
901.158	560
901.260	729
901.362	298
901.465	581
901.567	1054
901.669	1499
901.771	1291
901.873	953
901.976	549
902.078	1085
902.180	722
902.282	563
902.384	841
902.486	1392
902.588	1256
902.690	928
902.792	460
902.894	81
902.996	679
903.098	846
903.200	181
903.302	1324
903.404	936
903.505	88
903.607	1787
903.709	865
903.811	1490
903.913	1561
904.014	385
904.116	955
904.218	891
904.319	694
904.421	1322
904.523	1708
904.624	1321
904.726	148
904.827	1416
904.929	471
905.030	1141
905.132	687
905.233	768
905.335	1084
905.436	325
905.537	297
905.639	853
905.740	1059
905.841	1410
905.943	917
906.044	1239
906.145	1484
906.247	683
906.348	1041
906.449	1065
906.550	569
906.651	1130
906.752	425
906.854	1054
906.955	1280
907.056	589
907.157	136
907.258	802
907.359	699
907.460	422
907.561	883
907.662	1115
907.762	1035
907.863	842
907.964	944
908.065	824
908.166	1876
908.267	473
908.367	-146
908.468	501
908.569	880
908.670	1018
908.770	868
908.871	866
908.971	1272
909.072	1228
909.173	948
909.273	1043
909.374	966
909.474	395
909.575	946
909.675	105
909.776	1133
909.876	1761
909.977	837
910.077	1086
910.177	779
910.278	1054
910.378	630
910.478	918
910.579	496
910.679	1266
910.779	1541
910.879	1885
910.980	1205
911.080	1027
911.180	916
911.280	253
911.380	918
911.480	934
911.580	-124
911.680	424
911.780	575
911.880	738
911.980	642
912.080	1460
912.180	948
912.280	822
912.380	1028
912.480	756
912.580	702
912.679	708
912.779	946
912.879	549
912.979	903
913.078	80
913.178	817
913.278	423
913.377	717
913.477	985
913.577	1267
913.676	377
913.776	711
913.875	2223
913.975	639
914.074	1081
914.174	1580
914.273	214
914.373	2030
914.472	1511
914.572	722
914.671	849
914.770	654
914.870	703
914.969	644
915.068	902
915.167	1921
915.267	297
915.366	1006
915.465	793
915.564	845
915.663	397
915.763	436
915.862	833
915.961	1304
916.060	983
916.159	760
916.258	583
916.357	133
916.456	972
916.555	351
916.654	1090
916.752	648
916.851	664
916.950	599
917.049	846
917.148	237
917.247	805
917.345	694
917.444	554
917.543	1196
917.642	1233
917.740	1008
917.839	1062
917.937	791
918.036	1455
918.135	927
918.233	1000
918.332	697
918.430	1068
918.529	1128
918.627	1279
918.726	490
918.824	836
918.923	1256
919.021	132
919.119	947
919.218	259
919.316	1249
919.414	653
919.512	486
919.611	1050
919.709	1089
919.807	300
919.905	832
920.003	1781
920.102	1344
920.200	1040
920.298	1065
920.396	1200
920.494	650
920.592	248
920.690	1488
920.788	1683
920.886	948
920.984	1555
921.082	173
921.180	1355
921.277	1283
921.375	782
921.473	1711
921.571	1783
921.669	1481
921.766	1488
921.864	1186
921.962	1715
922.060	1258
922.157	1563
922.255	1440
922.352	1139
922.450	2756
922.548	1305
922.645	1522
922.743	1514
922.840	2328
922.938	3052
923.035	2938
923.133	1998
923.230	2996
923.327	2812
923.425	3422
923.522	2300
923.619	2676
923.717	2549
923.814	2443
923.911	2660
924.008	1967
924.106	2185
924.203	2320
924.300	2266
924.397	2263
924.494	3156
924.591	2453
924.688	2644
924.786	2661
924.883	2807
924.979	1969
925.077	3179
925.173	2072
925.270	2391
925.367	1556
925.464	2545
925.561	1920
925.658	2643
925.755	2540
925.852	1976
925.948	3093
926.045	2365
926.142	2774
926.239	2509
926.335	1998
926.432	3618
926.529	3026
926.625	2965
926.722	2653
926.818	2376
926.915	3125
927.011	2711
927.108	2809
927.204	2471
927.301	1819
927.397	2203
927.494	2015
927.590	2508
927.687	1761
927.783	2236
927.879	2171
927.976	1547
928.072	1870
928.168	1956
928.264	2690
928.361	2385
928.457	1849
928.553	2377
928.649	1963
928.745	2578
928.841	1815
928.937	2261
929.033	2506
929.129	2071
929.225	3015
929.321	2489
929.417	1036
929.513	1817
929.609	1748
929.705	2278
929.801	2000
929.897	1918
929.993	2411
930.089	1717
930.184	1176
930.280	2268
930.376	1977
930.471	1840
930.567	1967
930.663	2152
930.758	1586
930.854	2324
930.950	1718
931.045	2257
931.141	1850
931.236	1979
931.332	1946
931.427	2390
931.523	1925
931.618	2033
931.714	1047
931.809	1933
931.905	2189
932.000	1889
932.095	1227
932.191	2030
932.286	1888
932.381	1698
932.476	1206
932.572	1479
932.667	2087
932.762	1096
932.857	2260
932.952	1248
933.047	2580
933.142	1314
933.237	932
933.332	2146
933.427	1425
933.522	1729
933.617	1366
933.712	1148
933.807	2615
933.902	2237
933.997	2818
934.092	1221
934.187	1770
934.282	2216
934.376	2057
934.471	1828
934.566	1504
934.661	1492
934.755	1209
934.850	1993
934.945	2463
935.039	1636
935.134	1390
935.228	1371
935.323	2736
935.417	2253
935.512	1005
935.606	1428
935.701	1090
935.795	2028
935.890	2132
935.984	1100
936.079	1632
936.173	1423
936.267	1975
936.362	931
936.456	1914
936.550	1883
936.644	2040
936.738	1490
936.833	1123
936.927	1958
937.021	1459
937.115	1384
937.209	1315
937.303	1825
937.397	946
937.491	1034
937.585	1930
937.679	1187
937.773	1137
937.867	1038
937.961	1042
938.055	1355
938.149	1902
938.243	1102
938.337	1471
938.430	1306
938.524	955
938.618	701
938.712	1399
938.805	1767
938.899	1600
938.993	1795
939.086	1037
939.180	366
939.274	991
939.367	2011
939.461	2046
939.554	1778
939.648	707
939.741	482
939.835	1165
939.928	1491
940.022	1951
940.115	931
940.208	1650
940.302	1209
940.395	1832
940.488	1247
940.582	1969
940.675	1381
940.768	1653
940.861	1497
940.954	2219
941.048	1205
941.141	1342
941.234	1337
941.327	1178
941.420	3171
941.513	1980
941.606	1618
941.699	1502
941.792	969
941.885	1019
941.978	1827
942.071	2073
942.164	217
942.257	1113
942.349	687
942.442	1477
942.535	1252
942.628	108
942.721	1390
942.813	-96
942.906	1501
942.999	1364
943.091	1431
943.184	281
943.277	487
943.369	1015
943.462	744
943.554	1213
943.647	699
943.739	947
943.832	1380
943.924	983
944.017	274
944.109	18
944.201	1161
944.294	600
944.386	163
944.478	900
944.571	200
944.663	523
944.755	434
944.847	1088
944.940	324
945.032	794
945.124	326
945.216	812
945.308	1182
945.400	1448
945.492	56
945.584	696
945.676	1023
945.768	599
945.860	1032
945.952	1126
946.044	82
946.136	748
946.228	-465
946.320	1150
946.412	1284
946.503	1425
946.595	1743
946.687	308
946.779	581
946.870	738
946.962	634
947.054	1196
947.145	587
947.237	1342
947.329	87
947.420	90
947.512	169
947.603	622
947.695	864
947.786	-153
947.878	-13
947.969	1131
948.061	542
948.152	386
948.243	138
948.335	368
948.426	511
948.517	1164
948.609	394
948.700	972
948.791	313
948.882	213
948.973	-7
949.065	837
949.156	980
949.247	-506
949.338	418
949.429	473
949.520	-414
949.611	365
949.702	425
949.793	250
949.884	424
949.975	151
950.066	56
950.157	53
950.247	248
950.338	90
950.429	20
950.520	170
950.611	-515
950.701	267
950.792	1064
950.883	559
950.973	930
951.064	104
951.155	270
951.245	555
951.336	362
951.427	797
951.517	609
951.608	299
951.698	-213
951.788	508
951.879	-84
951.969	490
952.060	319
952.150	295
952.240	420
952.331	-146
952.421	542
952.511	-42
952.602	-438
952.692	47
952.782	843
952.872	-248
952.962	674
953.052	-192
953.143	90
953.233	705
953.323	403
953.413	87
953.503	917
953.593	-3
953.683	519
953.773	-85
953.863	226
953.953	-73
954.042	190
954.132	361
954.222	307
954.312	691
954.402	38
954.492	1276
954.581	261
954.671	1457
954.761	458
954.850	424
954.940	672
955.030	507
955.119	-187
955.209	-625
955.298	536
955.388	509
955.477	975
955.567	172
955.656	173
955.746	650
955.835	512
955.925	-216
956.014	182
956.103	-477
956.193	275
956.282	1373
956.371	882
956.461	-491
956.550	-253
956.639	-49
956.728	521
956.817	725
956.906	342
956.995	771
957.085	848
957.174	771
957.263	264
957.352	154
957.441	201
957.530	-62
957.619	653
957.708	605
957.796	465
957.885	205
957.974	507
958.063	533
958.152	-54
958.241	1029
958.329	464
958.418	82
958.507	759
958.596	1147
958.684	561
958.773	1794
958.861	428
958.950	596
959.039	1150
959.127	1025
959.216	1412
959.304	882
959.393	1481
959.481	1190
959.570	1436
959.658	352
959.746	884
959.835	988
959.923	1825
960.011	812
960.100	1064
960.188	384
960.276	516
960.365	1040
960.453	821
960.541	741
960.629	336
960.717	753
960.805	482
960.893	587
960.981	729
961.069	265
961.158	619
961.245	664
961.333	967
961.421	372
961.509	797
961.597	963
961.685	335
961.773	182
961.861	70
961.949	638
962.036	553
962.124	1381
962.212	509
962.299	-54
962.387	754
962.475	175
962.562	-73
962.650	956
962.738	-130
962.825	387
962.913	723
963.000	-77
963.088	121
963.175	671
963.263	109
963.350	-299
963.438	0
963.525	-44
963.612	1884
963.700	981
963.787	4476
963.874	3953
963.962	1122
964.049	319
964.136	-80
964.223	549
964.310	250
964.398	-92
964.485	40
964.572	396
964.659	1222
964.746	592
964.833	700
964.920	375
965.007	375
965.094	490
965.181	31
965.268	396
965.355	562
965.441	-33
965.528	-18
965.615	873
965.702	-669
965.789	133
965.875	200
965.962	259
966.049	824
966.136	615
966.222	614
966.309	248
966.395	742
966.482	772
966.569	447
966.655	418
966.742	187
966.828	985
966.915	-78
967.001	660
967.087	231
967.174	415
967.260	-97
967.347	932
967.433	759
967.519	3235
967.605	1925
967.692	713
967.778	-306
967.864	150
967.950	570
968.036	9
968.123	166
968.209	414
968.295	-412
968.381	1290
968.467	58
968.553	96
968.639	68
968.725	600
968.811	797
968.897	1377
968.983	-129
969.069	-237
969.154	270
969.240	389
969.326	55
969.412	180
969.497	-516
969.583	298
969.669	534
969.755	539
969.840	934
969.926	929
970.012	305
970.097	1024
970.183	1022
970.268	948
970.354	659
970.439	568
970.525	3043
970.610	1332
970.696	1014
970.781	621
970.866	-132
970.952	702
971.037	-28
971.122	-210
971.208	435
971.293	-254
971.378	-762
971.463	-269
971.549	483
971.634	149
971.719	303
971.804	271
971.889	763
971.974	420
972.059	-672
972.144	179
972.229	552
972.314	-96
972.399	-698
972.484	59
972.569	1079
972.654	-622
972.739	1135
972.824	1432
972.908	1250
972.993	98
973.078	688
973.163	-460
973.247	215
973.332	162
973.417	280
973.501	-685
973.586	-139
973.671	-60
973.755	131
973.840	737
973.924	1274
974.009	368
974.093	123
974.178	1450
974.262	1166
974.346	1637
974.431	334
974.515	240
974.600	-59
974.684	859
974.768	-61
974.852	995
974.937	-313
975.021	202
975.105	404
975.189	204
975.273	17
975.358	94
975.442	-20
975.526	482
975.610	-477
975.694	-64
975.778	335
975.862	719
975.946	-1073
976.030	1240
976.114	139
976.198	-348
976.281	-439
976.365	870
976.449	-427
976.533	781
976.617	-256
976.700	40
976.784	153
976.868	111
976.951	434
977.035	411
977.119	-216
977.202	458
977.286	-329
977.369	277
977.453	1374
977.536	448
977.620	368
977.703	750
977.787	-376
977.870	1085
977.953	457
978.037	-215
978.120	282
978.203	-157
978.287	974
978.370	348
978.453	259
978.536	-485
978.620	479
978.703	807
978.786	95
978.869	-108
978.952	-408
979.035	944
979.118	-355
979.201	-161
979.284	311
979.367	783
979.450	-22
979.533	-632
979.616	145
979.699	75
979.782	-780
979.865	487
979.948	606
980.030	-158
980.113	-316
980.196	-526
980.279	389
980.361	205
980.444	-904
980.526	-654
980.609	527
980.692	639
980.774	-104
980.857	517
980.939	226
981.022	-367
981.104	624
981.187	-390
981.269	584
981.352	67
981.434	-261
981.516	81
981.599	195
981.681	-200
981.763	-164
981.846	-24
981.928	-674
982.010	-396
982.092	-96
982.174	-5
982.256	-831
982.339	261
982.421	-83
982.503	407
982.585	-797
982.667	-322
982.749	-336
982.831	-299
982.913	-1068
982.995	232
983.077	-178
983.158	1065
983.240	-780
983.322	679
983.404	369
983.486	305
983.568	-6
983.649	453
983.731	495
983.813	-240
983.894	703
983.976	-819
984.058	-530
984.139	137
984.221	-643
984.302	-18
984.384	47
984.465	-743
984.547	270
984.628	-334
984.710	-53
984.791	250
984.872	-414
984.954	-85
985.035	219
985.116	-721
985.198	-1011
985.279	563
985.360	-56
985.441	-522
985.522	357
985.604	-562
985.685	-715
985.766	956
985.847	-115
985.928	-136
986.009	-1201
986.090	-448
986.171	253
986.252	-534
986.333	-281
986.414	-711
986.495	667
986.576	-228
986.656	-35
986.737	-92
986.818	-482
986.899	-163
986.980	-349
987.060	814
987.141	-168
987.222	363
987.302	95
987.383	288
987.464	-352
987.544	765
987.625	-412
987.705	163
987.786	-86
987.866	-187
987.947	108
988.027	-131
988.108	-72
988.188	-328
988.268	-154
988.349	811
988.429	331
988.509	-589
988.589	-733
988.670	-874
988.750	600
988.830	-664
988.910	-1016
988.990	0
989.070	-492
989.151	-660
989.231	-482
989.311	216
989.391	-623
989.471	-333
989.551	-220
989.631	-771
989.711	226
989.791	119
989.870	-570
989.950	608
990.030	-252
990.110	-161
990.190	-798
990.269	-369
990.349	205
990.429	191
990.509	282
990.588	-711
990.668	-315
990.747	-154
990.827	-267
990.907	-144
990.986	-537
991.066	-154
991.145	-882
991.225	77
991.304	-1047
991.383	118
991.463	346
991.542	47
991.622	-144
991.701	-332
991.780	-278
991.859	-775
991.939	-823
992.018	-319
992.097	-153
992.176	1
992.256	-460
992.335	-78
992.414	13
992.493	-916
992.572	-703
992.651	435
992.730	32
992.809	-473
992.888	-965
992.967	-848
993.046	-260
993.125	-1448
993.203	-1268
993.282	-746
993.361	-113
993.440	-330
993.519	-1346
993.597	83
993.676	-928
993.755	-277
993.834	-1539
993.912	-568
993.991	-410
994.069	-911
994.148	-605
994.226	-596
994.305	-622
994.384	-752
994.462	121
994.540	-444
994.619	-1381
994.697	-584
994.776	-1294
994.854	201
994.932	-407
995.011	-910
995.089	-1420
995.167	-918
995.245	-789
995.324	-1422
995.402	-889
995.480	-1497
995.558	-345
995.636	-1310
995.714	-718
995.792	-406
995.870	-794
995.948	-540
996.026	-606
996.104	-1447
996.182	-558
996.260	-484
996.338	-376
996.416	-1107
996.494	-1107
996.572	568
996.649	-1666
996.727	-1288
996.805	-850
996.883	-591
996.960	-1176
997.038	-958
997.116	-1066
997.193	-814
997.271	-432
997.348	-845
997.426	-264
997.504	-1703
997.581	573
997.658	22
997.736	-903
997.813	-1469
997.891	-433
997.968	-934
998.046	-1016
998.123	-1111
998.200	-438
998.277	-950
998.355	-738
998.432	-1483
998.509	-1463
998.586	-637
998.663	-355
998.741	-812
998.818	-658
998.895	-764
998.972	-1081
999.049	-1725
999.126	-859
999.203	-347
999.280	-843
999.357	-886
999.434	-1445
999.511	-700
999.587	-306
999.664	-1487
999.741	-894
999.818	-1176
999.895	-1307
999.971	-1510
1000.048	-932
1000.125	-183
1000.202	-1134
1000.278	-1107
1000.355	-549
1000.431	-725
1000.508	-1500
1000.584	-761
1000.661	-662
1000.738	-759
1000.814	-1040
1000.890	-662
1000.967	-1077
1001.043	-711
1001.120	-1693
1001.196	-1389
1001.272	-1217
1001.349	-556
1001.425	-571
1001.501	-574
1001.577	-1743
1001.654	-778
1001.730	-2185
1001.806	-258
1001.882	-1263
1001.958	-999
1002.034	-509
1002.110	-1033
1002.186	-1688
1002.262	-1228
1002.338	-1854
1002.414	-147
1002.490	-626
1002.566	-1828
1002.642	-1479
1002.718	-89
1002.794	-1484
1002.870	-1618
1002.945	-1355
1003.021	-1679
1003.097	-569
1003.173	-231
1003.248	-1040
1003.324	-1043
1003.400	-1218
1003.475	-2043
1003.551	-1236
1003.626	-886
1003.702	-984
1003.777	-1370
1003.853	-1794
1003.928	-523
1004.004	-674
1004.079	179
1004.155	-1151
1004.230	-1436
1004.305	-741
1004.381	-1735
1004.456	-1089
1004.531	-1137
1004.607	-1229
1004.682	-1215
1004.757	-854
1004.832	-1636
1004.907	-1296
1004.982	-416
1005.057	-1042
1005.133	-1383
1005.208	-916
1005.283	-2094
1005.358	-460
1005.433	-956
1005.508	-727
1005.583	-1791
1005.657	-1035
1005.732	-497
1005.807	-1255
1005.882	-1016
1005.957	-1021
1006.032	-870
1006.106	-1278
1006.181	-1636
1006.256	-1173
1006.331	-1046
1006.405	-942
1006.480	-1397
1006.554	-1386
1006.629	-1212
1006.704	-1901
1006.778	-1779
1006.853	-1169
1006.927	-1226
1007.002	-1226
1007.076	-1226
1007.150	-1246
1007.225	-1541
1007.299	-1688
1007.373	-980
1007.448	-1013
1007.522	-703
1007.596	-903
1007.671	-1567
1007.745	-1011
1007.819	-1015
1007.893	-2290
1007.967	-1130
1008.041	-2083
1008.115	-640
1008.190	-2051
1008.264	-1226
1008.338	-1809
1008.412	-1389
1008.486	-1524
1008.560	-1581
1008.633	-1698
1008.707	-867
1008.781	-1049
1008.855	-1379
1008.929	-1525
1009.003	-1380
1009.076	-879
1009.150	-787
1009.224	-1434
1009.298	-710
1009.371	-2149
1009.445	-594
1009.519	-1644
1009.592	-1705
1009.666	-2119
1009.739	-816
1009.813	-2384
1009.886	-1121
1009.960	-2234
1010.033	-438
1010.107	-1663
1010.180	-2350
1010.253	-1456
1010.327	-1947
1010.400	-1751
1010.473	-1411
1010.547	147
1010.620	-1593
1010.693	-1343
1010.766	-1700
1010.840	-563
1010.913	-1627
1010.986	-1607
1011.059	-1916
1011.132	-1889
1011.205	-2036
1011.278	-1806
1011.351	-848
1011.424	-630
1011.497	-1524
1011.570	-1973
1011.643	-1460
1011.716	-1601
1011.789	-1320
1011.862	-1055
1011.934	-1890
1012.007	-2686
1012.080	-705
1012.153	-1505
1012.225	-1904
1012.298	-1677
1012.371	-2153
1012.443	-761
1012.516	-1614
1012.588	-1836
1012.661	-1781
1012.733	-2209
1012.806	-1321
1012.879	-1721
1012.951	-1759
1013.023	-1603
1013.096	-1946
1013.168	-2134
1013.241	-810
1013.313	-1816
1013.385	-1877
1013.458	-1824
1013.530	-837
1013.602	-2089
1013.674	-1950
1013.746	-2240
1013.819	-2496
1013.891	-1671
1013.963	-2300
1014.035	-1812
1014.107	-1581
1014.179	-1522
1014.251	-1558
1014.323	-1502
1014.395	-1335
1014.467	-2127
1014.539	-1464
1014.611	-1597
1014.683	-1651
1014.754	-1610
1014.826	-2535
1014.898	-1551
1014.970	-2123
1015.042	-1663
1015.113	-1825
1015.185	-1761
1015.257	-2220
1015.328	-1598
1015.400	-2253
1015.471	-1954
1015.543	-1826
1015.615	-1061
1015.686	-1562
1015.757	-1119
1015.829	-1068
1015.901	-2126
1015.972	-1259
1016.043	-2082
1016.115	-1218
1016.186	-1591
1016.257	-2514
1016.328	-1237
1016.400	-1388
1016.471	-1389
1016.542	-1953
1016.613	-2171
1016.685	-1524
1016.756	-1769
1016.827	-1779
1016.898	-2146
1016.969	-1476
1017.040	-2679
1017.111	-1414
1017.182	-1605
1017.253	-2028
1017.324	-1254
1017.395	-2307
1017.466	-1689
1017.537	-2070
1017.608	-1681
1017.678	-1820
1017.749	-1321
1017.820	-1668
1017.891	-2618
1017.961	-1485
1018.032	-2000
1018.103	-1514
1018.173	-1786
1018.244	-1743
1018.315	-1953
1018.385	-1344
1018.456	-2861
1018.526	-2097
1018.597	-1745
1018.667	-1440
1018.738	-1704
1018.808	-1887
1018.878	-2029
1018.949	-2062
1019.019	-1962
1019.089	-1682
1019.160	-1625
1019.230	-2953
1019.300	-1358
1019.371	-2243
1019.441	-1673
1019.511	-1030
1019.581	-2187
1019.651	-2428
1019.721	-1954
1019.791	-2173
1019.861	-1754
1019.931	-1958
1020.001	-2379
1020.071	-2068
1020.141	-2518
1020.211	-1597
1020.281	-1990
1020.351	-2026
1020.421	-1764
1020.491	-1966
1020.560	-2666
1020.630	-1959
1020.700	-1618
1020.770	-1879
1020.839	-2635
1020.909	-986
1020.979	-1697
1021.048	-1824
1021.118	-2185
1021.187	-2013
1021.257	-1905
1021.326	-1612
1021.396	-2095
1021.465	-1804
1021.535	-1339
1021.604	-2224
1021.674	-1769
1021.743	-2086
1021.812	-2565
1021.882	-1844
1021.951	-1692
1022.020	-1988
1022.089	-2319
1022.159	-2293
1022.228	-1287
1022.297	-1815
1022.366	-1869
1022.435	-2216
1022.504	-1799
1022.573	-1927
1022.642	-1418
1022.711	-2038
1022.781	-1396
1022.849	-1463
1022.918	-2089
1022.987	-2143
1023.056	-1344
1023.125	-1611
1023.194	-2178
1023.263	-1137
1023.331	-2222
1023.400	-2971
1023.469	-2739
1023.538	-1183
1023.606	-2276
1023.675	-1413
1023.744	-2242
1023.812	-1640
1023.881	-2399
1023.949	-2283
1024.018	-1909
1024.086	-2144
1024.155	-1679
1024.223	-1827
1024.292	-2000
1024.360	-1237
1024.429	-2134
1024.497	-2361
1024.565	-1256
1024.634	-1744
1024.702	-1524
1024.770	-1755
1024.838	-1488
1024.907	-1269
1024.975	-2473
1025.043	-1931
1025.111	-2834
1025.179	-1522
1025.247	-2116
1025.315	-1576
1025.383	-1757
1025.451	-2249
1025.519	-1936
1025.587	-2275
1025.655	-1503
1025.723	-2392
1025.791	-1369
1025.859	-1576
1025.927	-1204
1025.995	-2813
1026.062	-1736
1026.130	-1774
1026.198	-1360
1026.266	-2289
1026.333	-2239
1026.401	-1745
1026.469	-2247
1026.536	-2303
1026.604	-1402
1026.671	-2013
1026.739	-1366
1026.806	-2326
1026.874	-1602
1026.941	-2795
1027.009	-2089
1027.076	-2190
1027.144	-1043
1027.211	-1902
1027.278	-2039
1027.345	-1259
1027.413	-1569
1027.480	-1980
1027.547	-2439
1027.614	-2446
1027.682	-1462
1027.749	-2351
1027.816	-2356
1027.883	-2397
1027.950	-1503
1028.017	-2424
1028.084	-1150
1028.151	-2244
1028.218	-1716
1028.285	-2070
1028.352	-1890
1028.419	-2651
1028.486	-1950
1028.553	-1672
1028.619	-2037
1028.686	-2461
1028.753	-2734
1028.820	-2474
1028.886	-1510
1028.953	-1671
1029.020	-1907
1029.086	-1179
1029.153	-1831
1029.220	-2198
1029.286	-2267
1029.353	-881
1029.419	-2245
1029.486	-1846
1029.552	-1792
1029.619	-1647
1029.685	-1837
1029.751	-2192
1029.818	-2035
1029.884	-1835
1029.951	-1207
1030.017	-2718
1030.083	-2501
1030.149	-1741
1030.216	-2021
1030.282	-1035
1030.348	-2160
1030.414	-1799
1030.480	-1906
1030.546	-1637
1030.612	-2751
1030.678	-2223
1030.744	-2145
1030.810	-2544
1030.876	-2234
1030.942	-1625
1031.008	-1688
1031.074	-2188
1031.140	-2284
1031.206	-1082
1031.272	-2139
1031.337	-2338
1031.403	-874
1031.469	-2133
1031.534	-2393
1031.600	-2024
1031.666	-1946
1031.731	-1980
1031.797	-1572
1031.863	-1806
1031.928	-1684
1031.994	-2399
1032.059	-2581
1032.125	-1421
1032.190	-1957
1032.256	-1603
1032.321	-2272
1032.386	-1708
1032.452	-1317
1032.517	-1598
1032.582	-1984
1032.647	-1198
1032.713	-1848
1032.778	-2098
1032.843	-2237
1032.908	-1870
1032.974	-1470
1033.039	-2282
1033.104	-1902
1033.169	-2543
1033.234	-1665
1033.299	-1582
1033.364	-1853
1033.429	-999
1033.494	-846
1033.559	-2137
1033.624	-1735
1033.688	-1272
1033.753	-2548
1033.818	-1939
1033.883	-1641
1033.948	-1324
1034.013	-1039
1034.077	-1509
1034.142	-1553
1034.207	-962
1034.271	-1106
1034.336	-932
1034.400	-55
1034.465	-499
1034.530	-637
1034.594	-859
1034.658	-1462
1034.723	-1756
1034.787	-1869
1034.852	-1416
1034.916	-1409
1034.981	-1482
1035.045	-1497
1035.109	-1416
1035.173	-1404
1035.238	-1584
1035.302	-1662
1035.366	-2022
1035.430	-1099
1035.495	-2508
1035.559	-1112
1035.623	-1915
1035.687	-2820
1035.751	-1649
1035.815	-2082
1035.879	-1875
1035.943	-1738
1036.007	-1916
1036.071	-1930
1036.135	-1963
1036.198	-1895
1036.262	-1824
1036.326	-1674
1036.390	-2109
1036.454	-2108
1036.517	-2163
1036.581	-2147
1036.645	-1081
1036.709	-757
1036.772	-1754
1036.836	-1492
1036.900	-1528
1036.963	-1599
1037.026	-1796
1037.090	-1427
1037.154	-1859
1037.217	-2122
1037.280	-1879
1037.344	-1554
1037.407	-2272
1037.471	-2130
1037.534	-1517
1037.597	-1420
1037.661	-2744
1037.724	-1238
1037.787	-2514
1037.850	-2191
1037.913	-1983
1037.977	-1725
1038.040	-2203
1038.103	-1403
1038.166	-1945
1038.229	-2630
1038.292	-1495
1038.355	-1330
1038.418	-2386
1038.481	-1824
1038.544	-1822
1038.607	-1809
1038.670	-2464
1038.732	-1496
1038.795	-1850
1038.858	-2002
1038.921	-2131
1038.984	-2091
1039.046	-2454
1039.109	-2512
1039.172	-2228
1039.234	-2308
1039.297	-1901
1039.360	-2102
1039.422	-1630
1039.485	-1827
1039.547	-1898
1039.610	-1830
1039.672	-1464
1039.734	-1842
1039.797	-1544
1039.859	-968
1039.922	-2182
1039.984	-1708
1040.046	-1820
1040.109	-2077
1040.171	-2201
1040.233	-1909
1040.295	-2357
1040.358	-1998
1040.420	-2000
1040.482	-1808
1040.544	-2081
1040.606	-2003
1040.668	-2147
1040.730	-2077
1040.792	-2088
1040.854	-1907
1040.916	-2108
1040.978	-2107
1041.040	-1687
1041.102	-1921
1041.164	-2624
1041.225	-1983
1041.287	-2220
1041.349	-1775
1041.411	-2882
1041.472	-2412
1041.534	-1977
1041.596	-2306
1041.657	-1890
1041.719	-1804
1041.781	-1863
1041.842	-1952
1041.904	-2531
1041.965	-1846
1042.027	-2059
1042.088	-1795
1042.150	-1559
1042.211	-2259
1042.272	-1791
1042.334	-1298
1042.395	-2472
1042.456	-2508
1042.518	-1625
1042.579	-1729
1042.640	-2015
1042.701	-2014
1042.763	-2625
1042.824	-2597
1042.885	-1788
1042.946	-1631
1043.007	-1588
1043.068	-1386
1043.129	-2703
1043.190	-1587
1043.251	-1281
1043.312	-2350
1043.373	-2203
1043.434	-1919
1043.495	-1483
1043.556	-1073
1043.616	-1766
1043.677	-1414
1043.738	-2191
1043.799	-1866
1043.859	-1327
1043.920	-2164
1043.981	-1179
1044.041	-1820
1044.102	-2302
1044.162	-1775
1044.223	-2520
1044.284	-1709
1044.344	-2617
1044.405	-2727
1044.465	-1804
1044.525	-1612
1044.586	-2481
1044.646	-2400
1044.707	-1942
1044.767	-1641
1044.827	-1879
1044.887	-1869
1044.948	-1937
1045.008	-1812
1045.068	-2020
1045.128	-2451
1045.188	-2371
1045.249	-1472
1045.309	-2531
1045.369	-2272
1045.429	-2148
1045.489	-1831
1045.549	-1606
1045.609	-1526
1045.669	-2788
1045.729	-2108
1045.789	-1557
1045.848	-2444
1045.908	-1960
1045.968	-1897
1046.028	-1286
1046.088	-2011
1046.147	-1541
1046.207	-2254
1046.267	-1850
1046.326	-1344
1046.386	-1539
1046.446	-1699
1046.505	-905
1046.565	-927
1046.624	-1068
1046.684	-1084
1046.743	-1008
1046.803	-1033
1046.862	54
1046.922	0
