'Start Wavelength	183.907
'End Wavelength	1046.922
'Gate Delay	5.000
'Gate Width (ms)	1.050
'Laser Output Level	0.000
'X Position	0.000
'Y Position	0.000
'Z Position	0.000
'Grid Point Number	1.000
'Shot Number	100.000
183.907	378.000
183.977	-65.000
184.047	52
184.116	871
184.186	-184
184.256	344
184.325	-290
184.395	-317
184.465	-373
184.534	799
184.604	-387
184.674	90
184.743	-38
184.813	535
184.883	596
184.952	-50
185.022	44
185.092	-10
185.161	-365
185.231	188
185.301	174
185.370	1050
185.440	-270
185.509	80
185.579	-249
185.649	924
185.718	-427
185.788	323
185.857	-529
185.927	8
185.996	-545
186.066	-8
186.136	58
186.205	576
186.275	-179
186.344	-189
186.414	36
186.483	507
186.553	1327
186.622	787
186.692	-103
186.761	515
186.831	-140
186.900	190
186.970	306
187.039	123
187.109	613
187.178	391
187.248	-139
187.317	1151
187.387	377
187.456	166
187.526	114
187.595	1778
187.664	-106
187.734	170
187.803	509
187.873	684
187.942	214
188.012	893
188.081	-388
188.150	1240
188.220	-670
188.289	443
188.358	-743
188.428	914
188.497	-61
188.567	582
188.636	-503
188.705	154
188.775	210
188.844	-161
188.913	132
188.983	-466
189.052	-755
189.121	1092
189.191	-140
189.260	323
189.329	-123
189.399	143
189.468	742
189.537	-73
189.606	66
189.676	1327
189.745	-213
189.814	546
189.883	-151
189.953	337
190.022	-172
190.091	304
190.161	249
190.230	530
190.299	-610
190.368	-285
190.437	-554
190.507	575
190.576	-112
190.645	205
190.714	52
190.783	-281
190.853	-265
190.922	718
190.991	407
191.060	145
191.129	-373
191.198	-108
191.268	-94
191.337	367
191.406	-344
191.475	587
191.544	12
191.613	634
191.682	-148
191.752	949
191.821	-188
191.890	-161
191.959	-138
192.028	896
192.097	59
192.166	260
192.235	-671
192.304	872
192.373	-210
192.442	393
192.511	158
192.580	497
192.650	-47
192.719	1070
192.788	537
192.857	895
192.926	-264
192.995	-182
193.064	57
193.133	157
193.202	433
193.271	806
193.340	566
193.409	980
193.478	383
193.547	867
193.615	-106
193.684	941
193.753	-335
193.822	754
193.891	-330
193.960	865
194.029	-630
194.098	694
194.167	428
194.236	627
194.305	836
194.374	527
194.443	10
194.512	1150
194.580	-44
194.649	450
194.718	-79
194.787	1122
194.856	15
194.925	658
194.994	-447
195.062	74
195.131	-530
195.200	873
195.269	402
195.338	649
195.407	-197
195.475	277
195.544	512
195.613	595
195.682	-179
195.751	-196
195.819	584
195.888	1000
195.957	1623
196.026	1043
196.094	541
196.163	1081
196.232	349
196.301	163
196.369	741
196.438	706
196.507	761
196.576	456
196.644	294
196.713	1093
196.782	-488
196.850	756
196.919	-298
196.988	1184
197.056	-311
197.125	907
197.194	-80
197.262	263
197.331	-377
197.400	776
197.468	425
197.537	532
197.606	173
197.674	1761
197.743	380
197.812	107
197.880	204
197.949	1084
198.017	336
198.086	918
198.155	594
198.223	983
198.292	20
198.360	131
198.429	-179
198.497	593
198.566	617
198.635	1708
198.703	1276
198.772	1057
198.840	190
198.909	1433
198.977	-98
199.046	550
199.114	461
199.183	1179
199.251	-204
199.320	505
199.388	-375
199.457	33
199.525	15
199.594	519
199.662	118
199.731	38
199.799	-152
199.867	838
199.936	602
200.004	290
200.073	1006
200.141	728
200.210	-231
200.278	295
200.346	932
200.415	582
200.483	585
200.552	731
200.620	140
200.688	994
200.757	662
200.825	675
200.893	-274
200.962	896
201.030	164
201.098	-259
201.167	285
201.235	660
201.303	413
201.372	913
201.440	60
201.508	977
201.577	214
201.645	477
201.713	467
201.781	1178
201.850	516
201.918	486
201.986	358
202.055	910
202.123	270
202.191	478
202.259	259
202.327	764
202.396	130
202.464	761
202.532	317
202.600	1044
202.669	-49
202.737	1425
202.805	-408
202.873	511
202.941	382
203.009	215
203.078	-359
203.146	-158
203.214	186
203.282	705
203.350	213
203.418	448
203.487	360
203.555	579
203.623	648
203.691	1121
203.759	-41
203.827	409
203.895	384
203.963	149
204.031	-23
204.099	881
204.168	286
204.236	1175
204.304	500
204.372	1113
204.440	881
204.508	246
204.576	-140
204.644	495
204.712	159
204.780	479
204.848	-65
204.916	779
204.984	-375
205.052	575
205.120	20
205.188	1816
205.256	118
205.324	1032
205.392	297
205.460	321
205.528	-500
205.596	1180
205.664	435
205.732	1089
205.799	771
205.867	1116
205.935	-296
206.003	827
206.071	541
206.139	1179
206.207	-291
206.275	444
206.343	894
206.411	297
206.478	244
206.546	999
206.614	221
206.682	1292
206.750	769
206.818	1331
206.885	469
206.953	1130
207.021	744
207.089	822
207.157	114
207.225	894
207.292	193
207.360	744
207.428	187
207.496	139
207.563	73
207.631	982
207.699	218
207.767	702
207.834	-73
207.902	927
207.970	340
208.038	872
208.105	202
208.173	827
208.241	490
208.309	1721
208.376	941
208.444	688
208.512	237
208.579	986
208.647	88
208.715	875
208.782	441
208.850	417
208.918	207
208.985	499
209.053	1001
209.120	1110
209.188	-329
209.256	152
209.323	419
209.391	1094
209.459	934
209.526	662
209.594	269
209.661	850
209.729	-14
209.796	1024
209.864	196
209.932	451
209.999	726
210.067	1120
210.134	592
210.202	983
210.269	1593
210.337	1274
210.404	378
210.472	1425
210.539	202
210.607	490
210.674	434
210.742	726
210.809	153
210.877	934
210.944	522
211.012	292
211.079	1237
211.146	1125
211.214	414
211.281	820
211.349	940
211.416	1066
211.484	410
211.551	927
211.618	265
211.686	1668
211.753	-81
211.821	1727
211.888	443
211.955	743
212.023	652
212.090	1511
212.157	1283
212.225	1329
212.292	1523
212.359	1807
212.427	3960
212.494	2450
212.561	1651
212.629	1674
212.696	1060
212.763	1780
212.831	1087
212.898	1553
212.965	1034
213.032	720
213.100	593
213.167	1403
213.234	1500
213.301	1605
213.369	973
213.436	959
213.503	319
213.570	1017
213.638	1070
213.705	1300
213.772	356
213.839	1049
213.906	767
213.973	1428
214.041	500
214.108	1349
214.175	884
214.242	946
214.309	947
214.376	1994
214.444	682
214.511	1978
214.578	642
214.645	1346
214.712	1358
214.779	1735
214.846	174
214.913	2200
214.980	1240
215.048	1715
215.115	975
215.182	1496
215.249	1293
215.316	1606
215.383	1229
215.450	1879
215.517	1189
215.584	1943
215.651	708
215.718	655
215.785	1290
215.852	751
215.919	1524
215.986	1158
216.053	1206
216.120	1005
216.187	1302
216.254	1206
216.321	744
216.388	929
216.455	427
216.522	2146
216.589	1125
216.656	1699
216.722	1754
216.789	2854
216.856	1231
216.923	1767
216.990	1607
217.057	1921
217.124	1907
217.191	1169
217.258	1781
217.324	1922
217.391	1593
217.458	1707
217.525	1699
217.592	1468
217.659	1232
217.725	2087
217.792	1559
217.859	1308
217.926	1407
217.993	1239
218.059	1196
218.126	961
218.193	724
218.260	1690
218.327	352
218.393	1574
218.460	699
218.527	657
218.594	562
218.660	1147
218.727	1844
218.794	926
218.860	934
218.927	1287
218.994	967
219.061	2082
219.127	1577
219.194	1595
219.261	343
219.327	545
219.394	1004
219.461	739
219.527	790
219.594	1635
219.661	461
219.727	1037
219.794	1355
219.860	287
219.927	987
219.994	1602
220.060	1974
220.127	1373
220.193	1301
220.260	1859
220.326	2221
220.393	2796
220.460	3175
220.526	2013
220.593	1964
220.659	2749
220.726	1719
220.792	3931
220.859	3377
220.925	5359
220.992	4675
221.058	4286
221.125	4402
221.191	3446
221.258	1894
221.324	1791
221.391	890
221.457	1764
221.524	743
221.590	1873
221.657	3847
221.723	2164
221.789	2880
221.856	2810
221.922	1014
221.989	1727
222.055	952
222.121	747
222.188	1900
222.254	1830
222.321	958
222.387	1379
222.453	1028
222.520	1454
222.586	785
222.652	1142
222.719	578
222.785	1496
222.851	778
222.918	1499
222.984	1418
223.050	1348
223.116	41
223.183	1696
223.249	513
223.315	1422
223.382	836
223.448	866
223.514	666
223.580	996
223.647	349
223.713	199
223.779	847
223.845	474
223.911	556
223.978	295
224.044	770
224.110	685
224.176	1488
224.242	1296
224.309	238
224.375	1480
224.441	1388
224.507	887
224.573	448
224.639	1511
224.705	-321
224.772	1352
224.838	382
224.904	1902
224.970	1482
225.036	1161
225.102	531
225.168	1212
225.234	1311
225.300	1076
225.366	885
225.432	1617
225.499	508
225.565	1360
225.631	315
225.697	1381
225.763	1485
225.829	1881
225.895	1736
225.961	2990
226.027	1898
226.093	2528
226.159	2666
226.225	3751
226.291	6165
226.357	8712
226.423	4486
226.489	4060
226.554	1853
226.620	3279
226.686	2430
226.752	4354
226.818	5733
226.884	10999
226.950	9122
227.016	4824
227.082	3040
227.148	3342
227.214	2529
227.279	2821
227.345	1737
227.411	2550
227.477	2115
227.543	3521
227.609	3128
227.674	2792
227.740	1873
227.806	1393
227.872	1093
227.938	2332
228.003	2027
228.069	1414
228.135	664
228.201	1740
228.267	720
228.332	1602
228.398	880
228.464	1928
228.530	35
228.595	1249
228.661	195
228.727	1394
228.792	1225
228.858	598
228.924	56
228.990	2369
229.055	858
229.121	2674
229.187	594
229.252	2058
229.318	511
229.384	1482
229.449	914
229.515	50
229.581	-146
229.646	1986
229.712	1088
229.777	2255
229.843	936
229.909	2243
229.974	1873
230.040	1784
230.105	2355
230.171	2330
230.236	1690
230.302	3264
230.368	2102
230.433	1973
230.499	1328
230.564	2699
230.630	829
230.695	2339
230.761	1497
230.826	995
230.892	2562
230.957	880
231.023	1022
231.088	1683
231.154	1546
231.219	2110
231.284	1582
231.350	2494
231.415	628
231.481	1417
231.546	1638
231.612	1868
231.677	1504
231.742	438
231.808	1666
231.873	386
231.939	-186
232.004	2506
232.069	1668
232.135	1578
232.200	1536
232.265	1775
232.331	1273
232.396	1396
232.461	99
232.527	1372
232.592	426
232.657	1815
232.723	911
232.788	1581
232.853	1026
232.918	1668
232.984	66
233.049	1315
233.114	581
233.179	1591
233.245	2066
233.310	1461
233.375	366
233.440	1703
233.506	978
233.571	1561
233.636	682
233.701	1332
233.766	1565
233.832	2341
233.897	418
233.962	1046
234.027	1276
234.092	1663
234.157	529
234.222	1942
234.288	1131
234.353	3398
234.418	3537
234.483	3016
234.548	2429
234.613	2240
234.678	2165
234.743	2049
234.808	3825
234.873	3148
234.938	2581
235.004	1802
235.069	1751
235.134	1681
235.199	1986
235.264	1750
235.329	410
235.394	2232
235.459	2135
235.524	2074
235.589	1271
235.654	1847
235.719	486
235.784	2426
235.849	1315
235.913	2772
235.978	2311
236.043	2852
236.108	2079
236.173	1477
236.238	1715
236.303	2514
236.368	1392
236.433	2198
236.498	2035
236.563	3839
236.627	6482
236.692	15524
236.757	11269
236.822	6353
236.887	4249
236.952	4095
237.017	2911
237.081	5033
237.146	4512
237.211	9404
237.276	15546
237.341	20411
237.405	11449
237.470	6042
237.535	3927
237.600	3731
237.664	3061
237.729	2470
237.794	2651
237.859	6236
237.923	3511
237.988	2828
238.053	2132
238.118	2902
238.182	4894
238.247	4824
238.312	1529
238.376	2811
238.441	374
238.506	3107
238.570	669
238.635	3094
238.700	1925
238.764	880
238.829	2525
238.893	2383
238.958	1742
239.023	2619
239.087	1953
239.152	1970
239.216	1226
239.281	1844
239.346	1349
239.410	1944
239.475	1620
239.539	5064
239.604	1990
239.668	2423
239.733	2553
239.797	2848
239.862	5658
239.926	5335
239.991	1588
240.055	1673
240.120	1614
240.184	1980
240.249	379
240.313	2145
240.378	1614
240.442	3279
240.507	3576
240.571	2337
240.635	1661
240.700	3814
240.764	1585
240.829	1747
240.893	380
240.957	1690
241.022	3836
241.086	4398
241.151	1987
241.215	821
241.279	2365
241.344	2617
241.408	2230
241.472	1622
241.537	2663
241.601	2697
241.665	1254
241.730	1682
241.794	2526
241.858	2523
241.922	1473
241.987	2730
242.051	2110
242.115	1439
242.179	2040
242.244	1913
242.308	1884
242.372	2796
242.436	2841
242.501	2391
242.565	1785
242.629	1032
242.693	1351
242.757	1761
242.822	1339
242.886	2086
242.950	1928
243.014	1642
243.078	1494
243.142	2288
243.206	839
243.271	2670
243.335	1727
243.399	3155
243.463	8341
243.527	17149
243.591	4468
243.655	2310
243.719	1979
243.783	3017
243.847	2962
243.911	4218
243.975	4067
244.040	1856
244.104	2126
244.168	2759
244.232	2469
244.296	3298
244.360	3655
244.424	2332
244.488	1888
244.552	2441
244.615	1067
244.679	2731
244.743	1563
244.807	1019
244.871	1739
244.935	1861
244.999	69
245.063	1694
245.127	2536
245.191	2756
245.255	2302
245.319	3032
245.383	546
245.446	3177
245.510	856
245.574	1901
245.638	1091
245.702	1719
245.766	3056
245.829	3450
245.893	928
245.957	2423
246.021	2147
246.085	1516
246.149	2110
246.212	5745
246.276	6234
246.340	3083
246.404	2440
246.467	2618
246.531	1989
246.595	3642
246.659	2888
246.722	2361
246.786	2710
246.850	3268
246.913	3990
246.977	2472
247.041	2282
247.104	2656
247.168	2425
247.232	5484
247.295	8399
247.359	4902
247.423	2777
247.486	4435
247.550	2859
247.614	2971
247.677	2124
247.741	2560
247.804	2111
247.868	3499
247.932	4472
247.995	9219
248.059	2776
248.122	2277
248.186	3172
248.249	5913
248.313	13875
248.376	14167
248.440	8426
248.503	2849
248.567	4627
248.630	4515
248.694	5847
248.757	9844
248.821	14777
248.884	9455
248.948	8621
249.011	13419
249.075	16733
249.138	14274
249.202	6088
249.265	4792
249.328	5260
249.392	4399
249.455	3611
249.519	3330
249.582	4107
249.645	6652
249.709	4200
249.772	4892
249.835	3319
249.899	3819
249.962	3700
250.025	3034
250.089	6988
250.152	8460
250.215	3882
250.279	3451
250.342	3851
250.405	3685
250.468	2970
250.532	4786
250.595	6869
250.658	19432
250.721	24984
250.785	10262
250.848	7025
250.911	4239
250.974	4080
251.038	6472
251.101	9364
251.164	5264
251.227	5991
251.290	5740
251.354	8326
251.417	27050
251.480	21807
251.543	19697
251.606	42704
251.669	28774
251.732	13957
251.795	14302
251.859	15233
251.922	29022
251.985	14312
252.048	8449
252.111	5294
252.174	5510
252.237	9909
252.300	18194
252.363	20286
252.426	33400
252.489	12711
252.552	8281
252.615	5133
252.678	7273
252.741	14992
252.804	19712
252.867	35261
252.930	20496
252.993	10624
253.056	7680
253.119	5624
253.182	4571
253.245	6569
253.308	5766
253.371	3282
253.434	4995
253.497	4398
253.559	8751
253.622	5350
253.685	7047
253.748	6178
253.811	3654
253.874	4337
253.937	3504
254.000	3745
254.062	6697
254.125	7279
254.188	8692
254.251	5488
254.314	4113
254.376	6226
254.439	6498
254.502	4958
254.565	6470
254.628	10473
254.690	6269
254.753	2795
254.816	3199
254.878	3336
254.941	7256
255.004	5801
255.067	3398
255.129	1651
255.192	1727
255.255	692
255.317	2067
255.380	1733
255.443	1577
255.505	1185
255.568	1672
255.631	1039
255.693	2197
255.756	1292
255.819	1865
255.881	1543
255.944	2143
256.006	613
256.069	2136
256.132	1191
256.194	2597
256.257	3657
256.319	3324
256.382	2640
256.444	3671
256.507	2343
256.569	2779
256.632	2064
256.694	4051
256.757	12138
256.819	27928
256.882	10238
256.944	5666
257.007	4682
257.069	3383
257.132	2544
257.194	2759
257.257	2108
257.319	2062
257.381	3284
257.444	10896
257.506	31814
257.569	29185
257.631	12489
257.693	7522
257.756	3703
257.818	4195
257.880	2887
257.943	2800
258.005	1705
258.067	2697
258.130	2347
258.192	3151
258.254	3653
258.317	2521
258.379	1982
258.441	5228
258.503	4750
258.566	4872
258.628	5267
258.690	2079
258.753	2589
258.815	5101
258.877	2284
258.939	3294
259.001	2337
259.064	2317
259.126	2378
259.188	3409
259.250	3009
259.312	3312
259.375	4350
259.437	3139
259.499	1965
259.561	2877
259.623	2082
259.685	1773
259.747	2123
259.809	6030
259.872	6953
259.934	13337
259.996	10799
260.058	4872
260.120	2559
260.182	2515
260.244	1697
260.306	1174
260.368	1828
260.430	1926
260.492	3760
260.554	5945
260.616	3108
260.678	7781
260.740	5095
260.802	2485
260.864	2899
260.926	1884
260.988	2087
261.050	2569
261.112	5004
261.174	10801
261.236	5172
261.298	2875
261.359	3775
261.421	4630
261.483	1284
261.545	3051
261.607	1013
261.669	2818
261.731	2497
261.793	5436
261.854	1406
261.916	2064
261.978	1572
262.040	2312
262.102	1256
262.164	2172
262.225	1512
262.287	2806
262.349	4228
262.411	2989
262.472	870
262.534	2781
262.596	3817
262.658	2552
262.719	222
262.781	2593
262.843	3075
262.904	2303
262.966	2129
263.028	2585
263.090	12048
263.151	21814
263.213	7502
263.275	4534
263.336	2526
263.398	2747
263.459	1078
263.521	1559
263.583	4000
263.644	2931
263.706	608
263.767	728
263.829	1084
263.891	1540
263.952	758
264.014	683
264.075	2113
264.137	5251
264.198	2421
264.260	1294
264.321	2076
264.383	4493
264.444	7955
264.506	2682
264.567	1589
264.629	5275
264.690	6320
264.752	3052
264.813	2226
264.875	1396
264.936	2105
264.998	1220
265.059	761
265.120	2465
265.182	3079
265.243	17613
265.305	13730
265.366	4342
265.427	1499
265.489	2748
265.550	362
265.611	2208
265.673	839
265.734	1859
265.795	419
265.857	1179
265.918	620
265.979	6615
266.040	26790
266.102	17152
266.163	6545
266.224	4519
266.286	1979
266.347	1897
266.408	2079
266.469	1387
266.530	575
266.592	1025
266.653	2839
266.714	3948
266.775	894
266.836	1813
266.898	866
266.959	2328
267.020	1027
267.081	2702
267.142	1053
267.203	1053
267.264	1101
267.326	2559
267.387	451
267.448	793
267.509	1578
267.570	1516
267.631	1135
267.692	575
267.753	996
267.814	1333
267.875	3596
267.936	6205
267.997	4252
268.058	4022
268.119	2043
268.180	2671
268.241	940
268.302	1429
268.363	870
268.424	1649
268.485	1701
268.546	671
268.607	1293
268.668	719
268.729	558
268.790	1131
268.851	1563
268.912	4412
268.972	3076
269.033	1796
269.094	630
269.155	2383
269.216	579
269.277	1384
269.338	1485
269.398	1925
269.459	774
269.520	1664
269.581	2088
269.642	2275
269.702	2533
269.763	2602
269.824	1818
269.885	2572
269.945	2840
270.006	1633
270.067	1167
270.128	1259
270.188	790
270.249	2029
270.310	879
270.370	1688
270.431	964
270.492	1252
270.553	1621
270.613	3173
270.674	5610
270.734	1979
270.795	744
270.856	2206
270.916	787
270.977	2300
271.038	1587
271.098	1763
271.159	2285
271.219	2652
271.280	1228
271.340	984
271.401	801
271.462	2738
271.522	1527
271.583	1669
271.643	762
271.704	1939
271.764	2385
271.825	5242
271.885	14637
271.946	16370
272.006	5926
272.066	9597
272.127	11809
272.187	4705
272.248	3086
272.308	3775
272.369	9167
272.429	5393
272.489	3803
272.550	3232
272.610	4973
272.671	3162
272.731	2239
272.791	3401
272.852	2069
272.912	2953
272.972	1312
273.033	2145
273.093	1458
273.153	3125
273.214	1434
273.274	2350
273.334	8064
273.394	11739
273.455	4583
273.515	6530
273.575	10231
273.635	4689
273.696	7288
273.756	11088
273.816	3936
273.876	3844
273.936	5166
273.997	7128
274.057	2229
274.117	2501
274.177	4905
274.237	17153
274.297	10161
274.358	8125
274.418	10601
274.478	7854
274.538	2801
274.598	2173
274.658	6127
274.718	6456
274.778	2563
274.838	1781
274.898	3130
274.958	8765
275.018	11928
275.078	7458
275.138	2835
275.198	1995
275.258	2430
275.318	2631
275.378	3925
275.438	4214
275.498	2933
275.558	5895
275.618	10468
275.678	7243
275.738	5816
275.798	3776
275.858	1916
275.918	1357
275.978	1847
276.038	2348
276.098	1052
276.157	4537
276.217	8840
276.277	4781
276.337	2209
276.397	2209
276.457	1758
276.517	1788
276.576	1502
276.636	1507
276.696	2532
276.756	5835
276.815	3092
276.875	2043
276.935	2436
276.995	2075
277.055	1195
277.114	1973
277.174	2757
277.234	7796
277.293	3257
277.353	2537
277.413	1605
277.472	2463
277.532	1382
277.592	2658
277.651	8134
277.711	10888
277.771	4349
277.830	15542
277.890	9619
277.950	9474
278.009	20330
278.069	7804
278.128	10081
278.188	11492
278.248	5803
278.307	13930
278.367	7056
278.426	3666
278.486	1324
278.545	2340
278.605	1630
278.664	2117
278.724	2651
278.783	7035
278.843	11745
278.902	4398
278.962	2117
279.021	3431
279.081	4189
279.140	5129
279.199	3869
279.259	4174
279.318	3738
279.378	6814
279.437	9825
279.496	25379
279.556	56183
279.615	33542
279.675	11140
279.734	8810
279.793	11842
279.853	15679
279.912	7232
279.971	5206
280.031	4829
280.090	8782
280.149	10878
280.208	11120
280.268	36890
280.327	29699
280.386	7897
280.445	8089
280.505	5548
280.564	4522
280.623	3369
280.682	5502
280.742	6533
280.801	2940
280.860	1571
280.919	2254
280.978	1325
281.037	1582
281.097	948
281.156	2114
281.215	1224
281.274	3023
281.333	9206
281.392	5663
281.451	1566
281.510	1672
281.569	290
281.628	1454
281.688	993
281.747	2700
281.806	989
281.865	1722
281.924	-162
281.983	1409
282.042	445
282.101	834
282.160	1135
282.219	1474
282.278	897
282.337	5300
282.396	2626
282.454	2090
282.513	2608
282.572	7616
282.631	4280
282.690	1788
282.749	579
282.808	2105
282.867	1631
282.926	1953
282.985	1041
283.043	785
283.102	757
283.161	1762
283.220	5102
283.279	7821
283.338	2243
283.396	1899
283.455	1476
283.514	2576
283.573	3367
283.631	2724
283.690	2090
283.749	2208
283.808	4336
283.866	4529
283.925	570
283.984	2035
284.043	2885
284.101	3516
284.160	1481
284.219	2963
284.277	1684
284.336	4917
284.395	11000
284.453	8058
284.512	3645
284.570	4747
284.629	4843
284.688	4810
284.746	4015
284.805	6080
284.863	7662
284.922	9247
284.981	12734
285.039	18828
285.098	31370
285.156	58422
285.215	67492
285.273	69770
285.332	54342
285.390	33963
285.449	20590
285.507	14815
285.566	11092
285.624	9117
285.683	7347
285.741	6147
285.799	4182
285.858	4262
285.916	4647
285.975	2926
286.033	2730
286.091	3712
286.150	1752
286.208	2585
286.267	2214
286.325	2495
286.383	3693
286.442	3531
286.500	1850
286.558	1615
286.616	732
286.675	2488
286.733	2090
286.791	2410
286.850	2055
286.908	3508
286.966	3844
287.024	2046
287.083	1073
287.141	2014
287.199	2006
287.257	3013
287.315	1618
287.374	1908
287.432	5638
287.490	3328
287.548	1936
287.606	2236
287.664	1578
287.723	2298
287.781	2355
287.839	2259
287.897	1149
287.955	3079
288.013	4569
288.071	13435
288.129	41285
288.187	81421
288.245	37344
288.303	14812
288.361	7691
288.419	5823
288.477	3794
288.535	3419
288.593	1806
288.651	1571
288.709	691
288.767	2143
288.825	820
288.883	1771
288.941	366
288.999	1599
289.057	687
289.115	426
289.173	779
289.231	1707
289.289	456
289.346	1083
289.404	2048
289.462	3129
289.520	1609
289.578	1680
289.636	542
289.694	1742
289.751	596
289.809	1359
289.867	779
289.925	1966
289.983	1146
290.040	2092
290.098	1005
290.156	1329
290.214	1411
290.271	1022
290.329	716
290.387	1175
290.444	570
290.502	1669
290.560	436
290.617	303
290.675	583
290.733	680
290.790	1272
290.848	1387
290.906	1009
290.963	1350
291.021	1478
291.078	1642
291.136	925
291.194	4989
291.251	7215
291.309	2912
291.366	693
291.424	948
291.481	1075
291.539	1644
291.596	875
291.654	699
291.711	604
291.769	278
291.826	1955
291.884	1792
291.941	806
291.999	1123
292.056	919
292.114	877
292.171	747
292.228	1803
292.286	1035
292.343	2578
292.401	2507
292.458	1276
292.515	515
292.573	1692
292.630	968
292.687	2582
292.745	853
292.802	2426
292.859	5115
292.917	8545
292.974	5100
293.031	2276
293.089	848
293.146	1673
293.203	472
293.260	779
293.318	607
293.375	2176
293.432	548
293.489	1175
293.546	906
293.604	2124
293.661	6678
293.718	14954
293.775	6371
293.832	3694
293.889	2096
293.947	2878
294.004	1843
294.061	2597
294.118	4949
294.175	10253
294.232	11400
294.289	4926
294.346	3069
294.403	3494
294.460	1772
294.517	1486
294.574	1228
294.631	2287
294.688	1933
294.745	5827
294.802	18170
294.859	17755
294.916	6339
294.973	2577
295.030	2757
295.087	2253
295.144	2776
295.201	2336
295.258	1511
295.315	2982
295.372	7283
295.429	11677
295.486	4921
295.542	4510
295.599	8998
295.656	13301
295.713	9916
295.770	10728
295.827	4384
295.883	3680
295.940	1781
295.997	3832
296.054	3225
296.111	1917
296.167	1332
296.224	1578
296.281	1302
296.338	2125
296.394	1521
296.451	2370
296.508	5954
296.564	9745
296.621	7513
296.678	15733
296.734	18601
296.791	8066
296.848	4375
296.904	5067
296.961	9714
297.018	14581
297.074	9359
297.131	4611
297.187	3829
297.244	5005
297.301	15009
297.357	21803
297.414	7856
297.470	4554
297.527	2353
297.583	1928
297.640	2489
297.696	1431
297.753	1137
297.809	1577
297.866	723
297.922	2054
297.979	1000
298.035	1404
298.092	3232
298.148	9301
298.204	7464
298.261	4591
298.317	7570
298.374	16494
298.430	9458
298.486	4239
298.543	2618
298.599	4567
298.656	4091
298.712	7302
298.768	13058
298.824	8711
298.881	3749
298.937	2541
298.993	1877
299.050	2901
299.106	2630
299.162	2658
299.218	1979
299.275	2844
299.331	2038
299.387	6872
299.443	15958
299.500	15812
299.556	6851
299.612	3961
299.668	3031
299.724	5058
299.780	5102
299.837	3136
299.893	4932
299.949	14373
300.005	14431
300.061	14379
300.117	20797
300.173	9956
300.229	4668
300.285	5493
300.341	5323
300.397	3774
300.453	1764
300.510	2323
300.566	1320
300.622	3618
300.678	9826
300.734	15893
300.790	13243
300.845	15462
300.901	10661
300.957	14626
301.013	9927
301.069	5008
301.125	3340
301.181	3216
301.237	2135
301.293	1310
301.349	1538
301.405	2304
301.461	2015
301.516	3069
301.572	2365
301.628	5623
301.684	3447
301.740	6615
301.796	8750
301.851	7119
301.907	10331
301.963	11752
302.019	18667
302.074	40613
302.130	38996
302.186	20212
302.242	8099
302.297	5838
302.353	6076
302.409	10720
302.464	9543
302.520	8051
302.576	15718
302.631	18052
302.687	9739
302.743	5780
302.798	2747
302.854	3157
302.910	2722
302.965	3495
303.021	5443
303.076	5547
303.132	6624
303.187	8147
303.243	4466
303.299	2957
303.354	1782
303.410	2856
303.465	1636
303.521	1915
303.576	1850
303.632	3814
303.687	5495
303.743	14048
303.798	10678
303.853	5224
303.909	2854
303.964	3555
304.020	4383
304.075	6433
304.130	5450
304.186	10421
304.241	9112
304.297	8586
304.352	3731
304.358	3675
304.407	3215
304.449	2861
304.463	2744
304.518	3194
304.539	2682
304.573	1850
304.629	2849
304.630	2893
304.684	5124
304.720	9405
304.739	11516
304.794	14913
304.811	13288
304.850	9145
304.902	3935
304.905	3612
304.960	2871
304.992	2430
305.015	2135
305.071	3412
305.083	3187
305.126	2258
305.173	2648
305.181	2734
305.236	1357
305.264	1835
305.292	2377
305.347	2622
305.354	2747
305.402	3424
305.445	3269
305.457	3237
305.512	4048
305.535	3785
305.567	3413
305.622	4932
305.626	5048
305.678	8637
305.716	15307
305.733	17414
305.788	17996
305.807	15994
305.843	12798
305.897	16674
305.898	16708
305.953	14739
305.988	9981
306.008	7483
306.063	6078
306.078	5236
306.118	3282
306.168	2965
306.173	2956
306.228	2329
306.259	2038
306.283	1950
306.338	1616
306.349	1861
306.393	2894
306.440	3062
306.448	3053
306.503	3910
306.530	3902
306.558	4791
306.613	8734
306.620	9308
306.668	13617
306.711	18348
306.723	18516
306.778	14087
306.801	11117
306.833	7903
306.888	4132
306.892	3996
306.943	3423
306.982	2732
306.997	2624
307.052	2656
307.072	2591
307.107	2695
307.162	3294
307.163	3304
307.217	4712
307.253	5150
307.272	5297
307.327	5592
307.343	5651
307.381	5560
307.434	5230
307.436	5404
307.491	10304
307.524	14508
307.546	15570
307.600	17418
307.614	16184
307.655	10295
307.704	5424
307.710	5345
307.765	6367
307.795	7326
307.819	8702
307.874	12580
307.885	12982
307.929	11963
307.975	11198
307.984	11893
308.038	17892
308.065	22049
308.093	36927
308.148	74016
308.156	80729
308.202	116353
308.246	140209
308.257	134678
308.312	81910
308.336	59170
308.366	45955
308.421	26947
308.426	25376
308.475	17612
308.517	11931
308.530	11120
308.585	10036
308.607	9331
308.639	8784
308.694	8681
308.697	8688
308.748	13124
308.787	17416
308.803	17298
308.857	14713
308.877	13833
308.912	13649
308.967	13634
308.967	13631
309.021	20095
309.058	25376
309.076	32315
309.130	56341
309.148	65162
309.185	105882
309.238	170467
309.239	171134
309.293	181713
309.328	177113
309.348	155812
309.402	86980
309.418	68384
309.457	49945
309.508	29706
309.511	29333
309.566	25327
309.598	23638
309.620	26085
309.674	32961
309.688	34863
309.729	33528
309.778	29958
309.783	29389
309.837	22293
309.868	18198
309.892	20876
309.946	28399
309.959	30592
310.001	39232
310.049	47387
310.055	45641
310.109	27085
310.139	16512
310.163	13464
310.218	8530
310.229	7578
310.272	6276
310.319	5167
310.326	5059
310.381	4130
310.409	3764
310.435	3662
310.489	3328
310.499	3325
310.543	3667
310.589	3891
310.598	3866
310.652	3719
310.679	3528
310.706	3338
310.760	3085
310.769	3035
310.814	2752
310.859	2582
310.868	2602
310.923	2602
310.948	2602
310.977	2785
311.031	3100
311.038	3164
311.085	3187
311.128	2955
311.139	2985
311.193	3301
311.218	3394
311.247	3295
311.301	3174
311.308	3131
311.356	3330
311.398	3628
311.410	3536
311.464	2968
311.488	2720
311.518	2796
311.572	2913
311.578	2928
311.626	4459
311.668	5688
311.680	5629
311.734	5348
311.758	5181
311.788	4872
311.842	4340
311.847	4272
311.896	5284
311.937	6173
311.950	6222
312.004	6358
312.027	6406
312.058	5410
312.112	3598
312.117	3413
312.165	3386
312.207	3360
312.297	4488
312.386	4410
312.476	4606
312.566	9029
312.656	5018
312.745	2946
312.835	3757
312.925	4274
313.015	3613
313.104	2721
313.194	3833
313.284	3535
313.374	4753
313.463	5041
313.553	2760
313.643	2941
313.732	2584
313.822	2407
313.912	3517
314.001	3788
314.091	3863
314.180	5248
314.270	6127
314.360	5128
314.449	4358
314.539	3484
314.628	2902
314.718	3177
314.808	4294
314.897	3149
314.987	3441
315.076	3987
315.166	5211
315.255	4745
315.345	4906
315.434	4897
315.524	4245
315.613	5489
315.703	6163
315.792	7414
315.881	13354
315.971	7081
316.060	8880
316.150	10584
316.239	9815
316.328	4606
316.418	3238
316.507	2922
316.597	4456
316.686	4706
316.775	5272
316.865	10524
316.954	2976
317.043	2364
317.133	3446
317.222	2741
317.311	2663
317.400	2347
317.490	5536
317.579	5098
317.668	4164
317.757	5088
317.847	9383
317.936	24061
318.025	16548
318.114	8751
318.203	6312
318.293	10551
318.382	22268
318.471	16026
318.560	20768
318.649	34319
318.738	8506
318.828	5463
318.917	6768
319.006	6651
319.095	14860
319.184	43882
319.273	28471
319.362	16098
319.451	5349
319.540	5222
319.629	10173
319.718	20423
319.807	8879
319.896	15896
319.985	55302
320.074	23713
320.163	5645
320.252	8272
320.341	7031
320.430	6275
320.519	8965
320.608	5472
320.697	4622
320.786	4448
320.875	6209
320.964	7676
321.053	12695
321.142	19259
321.230	20242
321.319	13287
321.408	33047
321.497	13428
321.586	13027
321.675	12053
321.764	13293
321.852	8524
321.941	18381
322.030	12481
322.119	12281
322.207	33259
322.296	18006
322.385	8973
322.474	12343
322.562	40140
322.651	21721
322.740	13070
322.829	18129
322.917	15457
323.006	11175
323.095	9927
323.183	7366
323.272	12567
323.361	17552
323.449	45479
323.538	16364
323.626	29199
323.715	19227
323.804	7960
323.892	26058
323.981	18201
324.069	5537
324.158	13763
324.246	14049
324.335	7237
324.424	11938
324.512	4959
324.601	6728
324.689	9948
324.778	17349
324.866	11727
324.954	4247
325.043	4137
325.131	7069
325.220	11059
325.308	11429
325.397	9506
325.485	7071
325.574	3024
325.662	2270
325.750	3013
325.839	2539
325.927	1957
326.015	3311
326.104	4534
326.192	6830
326.280	3979
326.369	3331
326.457	5231
326.545	10193
326.634	4321
326.722	2284
326.810	2494
326.898	2557
326.987	3431
327.075	8618
327.163	7765
327.251	3874
327.340	5170
327.428	8754
327.516	2742
327.604	2626
327.692	2949
327.781	3325
327.869	5246
327.957	3872
328.045	3628
328.133	1833
328.221	3475
328.309	3009
328.397	2662
328.485	4268
328.574	6613
328.662	21019
328.750	11642
328.838	3542
328.926	2916
329.014	2348
329.102	4597
329.190	10803
329.278	8409
329.366	2749
329.454	2977
329.542	2756
329.630	2638
329.718	3565
329.806	5425
329.893	6025
329.981	8764
330.069	19021
330.157	65034
330.245	154189
330.333	95984
330.421	20433
330.509	11697
330.597	28821
330.684	18691
330.772	6157
330.860	5930
330.948	8128
331.036	4488
331.123	2747
331.211	2282
331.299	3246
331.387	5907
331.475	13263
331.562	4264
331.650	1982
331.738	2100
331.825	2947
331.913	2580
332.001	2112
332.089	3036
332.176	5465
332.264	12448
332.352	10627
332.439	4055
332.527	3085
332.614	2399
332.702	2948
332.790	2818
332.877	6139
332.965	12488
333.052	5741
333.140	4473
333.228	13162
333.315	4249
333.403	2673
333.490	6869
333.578	8189
333.665	16442
333.753	8713
333.840	1915
333.928	3358
334.015	7892
334.103	15551
334.190	50837
334.278	14137
334.365	4879
334.452	3217
334.540	2167
334.627	3681
334.715	4456
334.802	9980
334.889	45955
334.977	51113
335.064	6965
335.151	3650
335.239	3929
335.326	6574
335.413	26350
335.501	38448
335.588	5996
335.675	3306
335.762	3855
335.850	7572
335.937	5480
336.024	13826
336.111	52822
336.199	22745
336.286	4447
336.373	3204
336.460	2425
336.547	1406
336.635	3720
336.722	3447
336.809	2649
336.896	5385
336.983	16078
337.070	39653
337.157	57249
337.245	34351
337.332	23711
337.419	3353
337.506	2767
337.593	3240
337.680	11630
337.767	36348
337.854	11431
337.941	10511
338.028	11357
338.115	4129
338.202	5422
338.289	9400
338.376	31211
338.463	12443
338.550	20501
338.637	22828
338.724	6510
338.811	9303
338.898	1866
338.984	1684
339.071	2223
339.158	3797
339.245	11161
339.332	7604
339.419	6953
339.506	6627
339.593	1734
339.679	2585
339.766	2144
339.853	3599
339.940	8746
340.027	2878
340.113	2272
340.200	5355
340.287	2737
340.374	3619
340.460	7380
340.547	2845
340.634	5718
340.720	25458
340.807	16209
340.894	3030
340.980	2029
341.067	2249
341.154	3138
341.240	4539
341.327	13333
341.414	4760
341.500	3829
341.587	2786
341.674	2220
341.760	7581
341.847	9430
341.933	3242
342.020	1072
342.106	903
342.193	2994
342.279	6981
342.366	4518
342.452	9010
342.539	5360
342.625	11120
342.712	29287
342.798	11876
342.885	4650
342.971	1588
343.058	1159
343.144	1252
343.230	2397
343.317	1844
343.403	2115
343.490	1365
343.576	1577
343.662	2286
343.749	2993
343.835	3646
343.921	8398
344.008	44723
344.094	104841
344.180	26189
344.267	9574
344.353	28462
344.439	30712
344.525	14654
344.612	11014
344.698	12006
344.784	7307
344.870	3105
344.957	2348
345.043	5272
345.129	2932
345.215	8825
345.301	4320
345.387	2590
345.474	1228
345.560	1637
345.646	2113
345.732	1623
345.818	3101
345.904	3160
345.990	3078
346.076	3065
346.162	5166
346.249	3333
346.335	2082
346.421	2924
346.507	11271
346.593	41758
346.679	10602
346.765	3577
346.851	2115
346.937	2855
347.023	2576
347.108	3829
347.194	2229
347.280	2400
347.366	2810
347.452	12309
347.538	49418
347.624	38209
347.710	30533
347.796	4397
347.882	2882
347.967	2080
348.053	2539
348.139	2543
348.225	1898
348.311	2626
348.397	1787
348.482	3680
348.568	4479
348.654	1558
348.740	1932
348.825	3343
348.911	5048
348.997	22714
349.083	45357
349.168	7776
349.254	2994
349.340	3502
349.425	2419
349.511	2967
349.597	4297
349.682	9073
349.768	30682
349.854	15565
349.939	2595
350.025	2811
350.110	2363
350.196	1653
350.282	1483
350.367	2610
350.453	3096
350.538	3913
350.624	2751
350.709	3458
350.795	2261
350.880	2736
350.966	2921
351.051	4078
351.137	2721
351.222	3355
351.308	9758
351.393	29905
351.479	8028
351.564	2758
351.649	2740
351.735	2158
351.820	2049
351.906	2527
351.991	3713
352.076	17152
352.162	28659
352.247	6511
352.332	4102
352.418	7964
352.503	10380
352.588	40326
352.673	35513
352.759	7231
352.844	4162
352.929	4075
353.014	5548
353.100	3848
353.185	5355
353.270	8782
353.355	10892
353.441	3802
353.526	3432
353.611	8230
353.696	11220
353.781	6665
353.866	3532
353.952	3645
354.037	9209
354.122	20636
354.207	18209
354.292	7481
354.377	3046
354.462	3090
354.547	4724
354.632	4537
354.717	4897
354.802	5848
354.887	3472
354.972	1562
355.057	2137
355.142	2484
355.227	3697
355.312	6529
355.397	13417
355.482	32668
355.567	17515
355.652	10563
355.737	13093
355.822	36421
355.907	33013
355.991	6040
356.076	3471
356.161	3620
356.246	2767
356.331	3985
356.416	9132
356.501	54117
356.585	60388
356.670	10324
356.755	7004
356.840	8459
356.924	38078
357.009	132942
357.094	56338
357.179	12632
357.263	8542
357.348	8325
357.433	8513
357.517	7650
357.602	6644
357.687	5606
357.771	8893
357.856	29865
357.941	20821
358.025	32075
358.110	128556
358.195	68874
358.279	12609
358.364	8940
358.448	27086
358.533	72320
358.617	54702
358.702	51401
358.787	20799
358.871	10782
358.956	10834
359.040	4216
359.125	2727
359.209	3909
359.294	14374
359.378	26444
359.462	9828
359.547	5005
359.631	3274
359.716	2699
359.800	3652
359.885	4964
359.969	3954
360.053	4227
360.138	3247
360.222	4874
360.306	10965
360.391	9031
360.475	16519
360.559	37679
360.644	27996
360.728	20480
360.812	30058
360.896	85527
360.981	36660
361.065	19301
361.149	5827
361.233	5335
361.318	4694
361.402	4909
361.486	4293
361.570	3815
361.654	6184
361.739	14250
361.823	54178
361.907	86881
361.991	18924
362.075	10422
362.159	20347
362.243	15160
362.327	11848
362.411	13156
362.495	8040
362.580	4923
362.664	3632
362.748	4139
362.832	5159
362.916	7557
363.000	20169
363.084	59861
363.168	98714
363.252	26932
363.336	8841
363.420	12841
363.503	40250
363.587	48675
363.671	11192
363.755	7515
363.839	10633
363.923	5370
364.007	11311
364.091	12968
364.175	16453
364.258	65199
364.342	45353
364.426	35677
364.510	20343
364.594	13755
364.677	17639
364.761	73597
364.845	55367
364.929	19854
365.013	16288
365.096	12943
365.180	15881
365.264	18589
365.347	65805
365.431	29312
365.515	7892
365.598	5619
365.682	4921
365.766	6936
365.849	8787
365.933	5457
366.017	6500
366.100	4838
366.184	2552
366.267	4208
366.351	3549
366.435	3044
366.518	2661
366.602	2566
366.685	3195
366.769	4389
366.852	6670
366.936	11656
367.019	8038
367.103	5457
367.186	9395
367.270	3835
367.353	2430
367.436	4078
367.520	2662
367.603	3926
367.687	6893
367.770	12056
367.853	8081
367.937	22425
368.020	39174
368.104	10662
368.187	9412
368.270	14460
368.353	12750
368.437	12521
368.520	21792
368.603	17492
368.687	27181
368.770	53501
368.853	14990
368.936	12011
369.020	11456
369.103	6039
369.186	3948
369.269	5021
369.352	8404
369.436	11878
369.519	8202
369.602	4204
369.685	5410
369.768	5464
369.851	4637
369.934	3905
370.018	5254
370.101	10078
370.184	9157
370.267	6255
370.350	11899
370.433	16264
370.516	40063
370.599	47917
370.682	14523
370.765	29602
370.848	35670
370.931	62913
371.014	26210
371.097	6169
371.180	5090
371.263	4512
371.346	3226
371.429	3860
371.511	4241
371.594	8124
371.677	11606
371.760	11979
371.843	12127
371.926	49713
372.009	114805
372.091	43129
372.174	25006
372.257	56711
372.340	24927
372.423	16620
372.505	17700
372.588	9637
372.671	19652
372.754	63298
372.836	33399
372.919	20157
373.002	38700
373.085	14638
373.167	12212
373.250	27536
373.332	58452
373.415	74572
373.498	149541
373.580	60676
373.663	65562
373.746	95059
373.828	25557
373.911	11606
373.993	11770
374.076	36334
374.159	34999
374.241	18176
374.324	53678
374.406	38274
374.489	42741
374.571	121200
374.654	55143
374.736	24979
374.819	73211
374.901	105215
374.983	110904
375.066	23722
375.148	9083
375.231	29234
375.313	58812
375.395	22576
375.478	6265
375.560	5946
375.643	7674
375.725	22286
375.807	92288
375.890	69799
375.972	24306
376.054	15358
376.136	19293
376.219	10641
376.301	26402
376.383	82990
376.465	33822
376.548	20170
376.630	25634
376.712	70344
376.794	36040
376.877	5391
376.959	3765
377.041	5094
377.123	7915
377.205	9807
377.287	3726
377.369	3676
377.452	4367
377.534	4337
377.616	4471
377.698	4059
377.780	3011
377.862	4356
377.944	4881
378.026	2675
378.108	3531
378.190	3839
378.272	3624
378.354	3170
378.436	3665
378.518	5148
378.600	17509
378.682	16637
378.764	38830
378.846	32938
378.928	9591
379.010	12308
379.091	9109
379.173	4769
379.255	3929
379.337	6789
379.419	17884
379.501	54518
379.583	24345
379.664	7469
379.746	13845
379.828	38134
379.910	52536
379.991	47082
380.073	10452
380.155	6049
380.237	5497
380.318	4158
380.400	4748
380.482	9130
380.564	13727
380.645	12527
380.727	11671
380.809	8624
380.890	7008
380.972	5620
381.053	5666
381.135	6528
381.217	13640
381.298	41179
381.380	22167
381.461	16977
381.543	70262
381.624	90807
381.706	19906
381.787	10729
381.869	11753
381.951	30157
382.032	112040
382.113	77508
382.195	18780
382.276	13623
382.358	23194
382.439	63027
382.521	71216
382.602	108749
382.684	55438
382.765	93951
382.846	109449
382.928	146438
383.009	87677
383.090	63859
383.172	207738
383.253	309369
383.334	117198
383.416	102632
383.497	60628
383.578	31293
383.659	57199
383.741	186135
383.822	446356
383.903	243485
383.984	87282
384.066	128365
384.147	84389
384.228	21311
384.309	14628
384.390	12211
384.471	9190
384.553	10079
384.634	12495
384.715	13412
384.796	8335
384.877	10650
384.958	34805
385.039	45010
385.120	18124
385.201	9398
385.282	9944
385.363	9933
385.444	9558
385.525	16909
385.606	50768
385.687	46102
385.768	12964
385.849	14985
385.930	54663
386.011	97255
386.092	30704
386.173	9124
386.254	5732
386.335	7791
386.416	7783
386.496	23362
386.577	40047
386.658	15265
386.739	9900
386.820	8695
386.901	6925
386.981	6875
387.062	5061
387.143	10129
387.224	36853
387.304	36667
387.385	12980
387.466	8636
387.547	9946
387.627	7383
387.708	14802
387.789	64093
387.869	80584
387.950	23609
388.031	6486
388.111	4811
388.192	10812
388.273	14440
388.353	10607
388.434	8036
388.514	13809
388.595	55208
388.676	77469
388.756	40469
388.837	37283
388.917	24530
388.998	6269
389.078	7148
389.159	6090
389.239	5363
389.320	8212
389.400	7289
389.480	14755
389.561	38909
389.641	22896
389.722	8323
389.802	12910
389.883	17443
389.963	45452
390.043	29176
390.124	9137
390.204	14888
390.284	44922
390.365	30253
390.445	29336
390.525	81358
390.605	81572
390.686	28579
390.766	10813
390.846	6229
390.927	4423
391.007	5678
391.087	6301
391.167	6501
391.247	4901
391.328	7369
391.408	9768
391.488	8610
391.568	4548
391.648	6789
391.728	10024
391.808	9686
391.888	10433
391.969	22036
392.049	37539
392.129	17104
392.209	17789
392.289	46764
392.369	26216
392.449	17329
392.529	12726
392.609	11087
392.689	14445
392.769	42699
392.849	37793
392.929	23284
393.009	57010
393.089	42904
393.169	28488
393.248	81209
393.328	331414
393.408	368969
393.488	95145
393.568	27128
393.648	15251
393.728	11894
393.807	9082
393.887	9953
393.967	8414
394.047	12159
394.127	15473
394.206	25084
394.286	79653
394.366	300791
394.446	341043
394.525	102547
394.605	29311
394.685	19417
394.764	26508
394.844	42457
394.924	31657
395.003	14157
395.083	9897
395.163	9481
395.242	9097
395.322	9362
395.402	6769
395.481	10327
395.561	18999
395.640	48386
395.720	39945
395.799	53427
395.879	47893
395.958	39782
396.038	120547
396.117	384218
396.197	437754
396.276	164480
396.356	55507
396.435	33742
396.515	22606
396.594	21126
396.673	30933
396.753	95969
396.832	318907
396.912	252172
396.991	66405
397.070	19129
397.150	10811
397.229	9712
397.308	10094
397.388	14785
397.467	10397
397.546	7448
397.625	5206
397.705	9163
397.784	8931
397.863	5609
397.942	5027
398.022	6107
398.101	14958
398.180	41522
398.259	23579
398.338	8709
398.417	6594
398.497	4891
398.576	5950
398.655	4117
398.734	4389
398.813	4658
398.892	14950
398.971	45355
399.050	24336
399.129	5440
399.208	4358
399.287	5158
399.366	4056
399.445	4500
399.524	4514
399.603	3883
399.682	7425
399.761	18070
399.840	49494
399.919	39653
399.998	7577
400.077	4115
400.156	3343
400.235	5988
400.313	4374
400.392	4707
400.471	20597
400.550	35290
400.629	10930
400.708	5616
400.786	5451
400.865	10306
400.944	11014
401.023	8296
401.102	3717
401.180	4208
401.259	4185
401.338	4901
401.416	5360
401.495	4956
401.574	5010
401.652	4258
401.731	5844
401.810	5363
401.888	4121
401.967	3659
402.046	3850
402.124	6034
402.203	7006
402.281	4938
402.360	6028
402.438	12849
402.517	9478
402.596	4956
402.674	4759
402.753	4127
402.831	3766
402.910	4766
402.988	12016
403.066	35928
403.145	23365
403.223	13201
403.302	31242
403.380	23750
403.459	21793
403.537	9859
403.615	4598
403.694	3057
403.772	4240
403.850	3941
403.929	4136
404.007	3950
404.085	7755
404.164	6601
404.242	7143
404.320	19678
404.398	60693
404.477	64951
404.555	97761
404.633	92427
404.711	52342
404.789	32608
404.868	9674
404.946	4959
405.024	3973
405.102	3957
405.180	4111
405.258	2861
405.336	4971
405.415	3286
405.493	6354
405.571	6127
405.649	3586
405.727	2696
405.805	5821
405.883	4633
405.961	5220
406.039	6479
406.117	3791
406.195	7280
406.273	20194
406.351	78190
406.429	50942
406.507	9761
406.585	4504
406.663	4959
406.740	6658
406.818	5635
406.896	4097
406.974	5550
407.052	7837
407.130	44651
407.208	69760
407.285	17044
407.363	4903
407.441	4414
407.519	4811
407.596	5783
407.674	10727
407.752	30656
407.830	28661
407.907	10386
407.985	4920
408.063	4093
408.141	3943
408.218	5067
408.296	4521
408.373	4067
408.451	5890
408.529	5019
408.606	3855
408.684	3804
408.762	3861
408.839	2706
408.917	3215
408.994	3617
409.072	2777
409.149	3056
409.227	4958
409.304	5828
409.382	4678
409.459	3979
409.537	5967
409.614	5561
409.692	4941
409.769	4264
409.846	5498
409.924	7931
410.001	6191
410.079	5178
410.156	5012
410.233	5114
410.311	4141
410.388	3572
410.465	4877
410.543	5831
410.620	4346
410.697	4274
410.775	5056
410.852	3113
410.929	4952
411.006	6255
411.083	4305
411.161	8855
411.238	9446
411.315	5011
411.392	3961
411.469	5637
411.547	6708
411.624	3856
411.701	4046
411.778	5812
411.855	7880
411.932	5611
412.009	3724
412.086	3744
412.163	4132
412.240	4624
412.317	5985
412.394	4747
412.471	3750
412.548	3565
412.625	3215
412.702	4743
412.779	6405
412.856	5607
412.933	3362
413.010	4056
413.087	5591
413.164	19045
413.241	30688
413.318	9013
413.395	6126
413.471	9088
413.548	5413
413.625	3897
413.702	3561
413.779	4176
413.855	3016
413.932	3152
414.009	1852
414.086	2783
414.162	3299
414.239	5434
414.316	17401
414.393	43495
414.469	18585
414.546	3708
414.623	3940
414.699	3529
414.776	4693
414.853	3021
414.929	4003
415.006	3590
415.082	4010
415.159	3578
415.236	3775
415.312	4939
415.389	5828
415.465	7365
415.542	5046
415.618	3589
415.695	6007
415.771	4445
415.848	4396
415.924	4044
416.000	4091
416.077	3766
416.153	2664
416.230	1675
416.306	2630
416.383	2958
416.459	2558
416.535	2515
416.612	2585
416.688	3221
416.764	2810
416.841	2507
416.917	3280
416.993	3167
417.069	4433
417.146	6304
417.222	9656
417.298	5595
417.374	3407
417.451	3919
417.527	4316
417.603	4795
417.679	4049
417.755	3782
417.831	2845
417.908	3016
417.984	2553
418.060	2120
418.136	5522
418.212	8789
418.288	4752
418.364	3707
418.440	2640
418.516	5190
418.592	5332
418.668	9107
418.744	14003
418.820	11832
418.896	4934
418.972	2848
419.048	4034
419.124	7547
419.200	6626
419.276	3144
419.352	2767
419.428	3066
419.504	3039
419.579	4507
419.655	3988
419.731	3445
419.807	9197
419.883	15908
419.959	12507
420.034	5313
420.110	7924
420.186	26880
420.262	23022
420.337	6251
420.413	4230
420.489	3780
420.565	4242
420.640	3793
420.716	3909
420.792	2573
420.867	3537
420.943	3204
421.019	5261
421.094	5004
421.170	4162
421.245	3048
421.321	4121
421.397	4160
421.472	7527
421.548	17558
421.623	14729
421.699	5742
421.774	5575
421.850	4805
421.925	7422
422.001	7259
422.076	6163
422.152	6688
422.227	9956
422.302	12377
422.378	15736
422.453	25821
422.529	62301
422.604	183863
422.679	313061
422.755	210037
422.830	75411
422.905	29407
422.981	16260
423.056	11988
423.131	9312
423.207	7357
423.282	7306
423.357	11187
423.432	7784
423.508	7436
423.583	13961
423.658	12382
423.733	5583
423.808	4884
423.883	5752
423.959	5268
424.034	4719
424.109	4355
424.184	2739
424.259	3683
424.334	3397
424.409	2444
424.484	1931
424.559	3746
424.634	2940
424.709	4379
424.784	5226
424.859	4023
424.934	5049
425.009	17063
425.084	31448
425.159	13910
425.234	4131
425.309	3948
425.384	9202
425.459	15645
425.534	6215
425.609	3273
425.683	2712
425.758	2847
425.833	3548
425.908	4118
425.983	9799
426.058	31119
426.132	15939
426.207	4027
426.282	5495
426.357	3876
426.431	3299
426.506	2917
426.581	2845
426.655	2541
426.730	3182
426.805	2265
426.879	4005
426.954	3096
427.029	5547
427.103	25790
427.178	69950
427.253	35005
427.327	6032
427.402	6002
427.476	15878
427.551	9186
427.625	4015
427.700	3667
427.774	2462
427.849	3204
427.923	2493
427.998	3067
428.072	3283
428.147	5160
428.221	19198
428.296	53300
428.370	30590
428.444	5536
428.519	5445
428.593	9058
428.667	9241
428.742	9637
428.816	9583
428.890	33494
428.965	55983
429.039	21782
429.113	11528
429.188	5392
429.262	3436
429.336	5261
429.410	14701
429.485	10379
429.559	7835
429.633	6839
429.707	4020
429.781	7075
429.855	33886
429.930	54797
430.004	29509
430.078	38782
430.152	39452
430.226	73546
430.300	79820
430.374	15750
430.448	6340
430.522	13435
430.596	40017
430.670	27731
430.744	61755
430.818	100191
430.892	24867
430.966	5341
431.040	3434
431.114	1913
431.188	1405
431.262	1984
431.336	2172
431.410	5272
431.484	11098
431.557	9941
431.631	2843
431.705	3584
431.779	10764
431.853	43755
431.927	35377
432.000	6492
432.074	2073
432.148	2601
432.222	2172
432.295	2793
432.369	2025
432.443	4112
432.516	23659
432.590	69566
432.664	30120
432.737	5126
432.811	2021
432.885	1666
432.958	2268
433.032	2021
433.106	1569
433.179	1601
433.253	1598
433.326	1640
433.400	2132
433.473	1966
433.547	1520
433.620	1918
433.694	3805
433.767	4210
433.841	2011
433.914	1772
433.988	2055
434.061	2324
434.134	677
434.208	1835
434.281	1597
434.355	1627
434.428	1806
434.501	1352
434.575	1873
434.648	1538
434.721	1438
434.795	1711
434.868	1466
434.941	441
435.014	1072
435.088	1158
435.161	2261
435.234	4002
435.307	4820
435.381	3034
435.454	2212
435.527	2345
435.600	2550
435.673	2595
435.746	2614
435.819	1032
435.892	1508
435.966	2230
436.039	1854
436.112	1903
436.185	917
436.258	1380
436.331	1265
436.404	1266
436.477	821
436.550	1237
436.623	1578
436.696	1400
436.769	2457
436.842	1812
436.915	1903
436.987	1937
437.060	1841
437.133	1515
437.206	271
437.279	1355
437.352	1550
437.425	1620
437.498	1972
437.570	4920
437.643	5803
437.716	1533
437.789	1852
437.861	3778
437.934	10757
438.007	6055
438.080	2060
438.152	3002
438.225	5381
438.298	30749
438.370	94211
438.443	45318
438.516	11724
438.588	4272
438.661	1902
438.734	2140
438.806	2241
438.879	2178
438.951	2792
439.024	5859
439.096	1994
439.169	1826
439.241	1322
439.314	1277
439.386	2547
439.459	3263
439.531	5281
439.604	3039
439.676	2023
439.749	945
439.821	797
439.893	1639
439.966	2112
440.038	2207
440.110	3408
440.183	1947
440.255	967
440.327	3342
440.400	12664
440.472	57510
440.544	43429
440.617	7434
440.689	5045
440.761	5382
440.833	8262
440.905	6099
440.978	1116
441.050	1357
441.122	2169
441.194	956
441.266	1127
441.338	1174
441.411	3759
441.483	17480
441.555	29408
441.627	8188
441.699	3310
441.771	3459
441.843	1019
441.915	1280
441.987	1932
442.059	1261
442.131	2370
442.203	3522
442.275	3808
442.347	4109
442.419	4741
442.491	18306
442.563	46489
442.635	26523
442.706	13131
442.778	11552
442.850	3367
442.922	1921
442.994	2064
443.066	3591
443.137	2917
443.209	2985
443.281	4223
443.353	7427
443.425	24554
443.496	88732
443.568	93618
443.640	38530
443.711	9411
443.783	4192
443.855	3148
443.926	2077
443.998	1818
444.070	2518
444.141	2629
444.213	3668
444.285	4564
444.356	2977
444.428	3287
444.499	1908
444.571	673
444.642	1586
444.714	1777
444.785	2901
444.857	3601
444.928	7472
445.000	4998
445.071	4727
445.143	6676
445.214	5142
445.285	6734
445.357	18826
445.428	61753
445.500	149250
445.571	100827
445.642	49746
445.714	20083
445.785	15700
445.856	5709
445.928	4774
445.999	4326
446.070	4058
446.141	2853
446.213	4567
446.284	2298
446.355	2644
446.426	1268
446.497	2165
446.569	2358
446.640	3772
446.711	3979
446.782	1488
446.853	1400
446.924	2330
446.995	1400
447.066	1450
447.138	2966
447.209	2395
447.280	1114
447.351	1017
447.422	536
447.493	1147
447.564	2835
447.635	3369
447.706	1400
447.777	1301
447.847	437
447.918	437
447.989	1214
448.060	2625
448.131	5219
448.202	5476
448.273	4491
448.344	2318
448.414	1329
448.485	1297
448.556	1273
448.627	546
448.698	1659
448.768	477
448.839	847
448.910	2777
448.981	3794
449.051	1005
449.122	1243
449.193	1017
449.263	1318
449.334	838
449.405	1657
449.475	5197
449.546	4640
449.616	3226
449.687	4075
449.758	1994
449.828	1377
449.899	1229
449.969	1402
450.040	1148
450.110	1596
450.181	1433
450.251	1103
450.322	1618
450.392	1980
450.463	1308
450.533	954
450.604	1332
450.674	797
450.744	1441
450.815	848
450.885	1589
450.955	1049
451.026	757
451.096	983
451.166	1295
451.237	2445
451.307	7314
451.377	3976
451.447	1078
451.518	627
451.588	1067
451.658	1148
451.728	1421
451.799	7704
451.869	10002
451.939	2306
452.009	1171
452.079	379
452.149	1646
452.219	2382
452.289	7971
452.360	7891
452.430	2102
452.500	1063
452.570	1695
452.640	2779
452.710	6110
452.780	11031
452.850	9359
452.920	9360
452.990	3843
453.060	2026
453.129	2621
453.199	3207
453.269	9484
453.339	24609
453.409	39778
453.479	33582
453.549	50983
453.619	53270
453.688	25310
453.758	5042
453.828	1810
453.898	818
453.968	1248
454.037	955
454.087	776
454.107	690
454.168	524
454.177	480
454.247	89
454.249	124
454.316	569
454.330	651
454.386	906
454.411	2203
454.456	4135
454.492	6046
454.525	7739
454.574	4529
454.595	3117
454.655	1715
454.665	1510
454.734	1667
454.736	1734
454.804	3136
454.817	4131
454.873	7627
454.898	8849
454.943	10817
454.979	7354
455.013	4265
455.060	2249
455.082	1534
455.141	2407
455.152	2511
455.221	7115
455.222	7250
455.291	13641
455.303	14323
455.360	16297
455.384	22748
455.430	32696
455.465	26556
455.499	20950
455.546	13478
455.569	9934
455.627	7026
455.638	6558
455.707	2122
455.708	2133
455.777	1004
455.789	1124
455.846	1543
455.869	1560
455.916	1660
455.950	1624
455.985	1492
456.031	1497
456.054	1500
456.112	1289
456.124	1228
456.193	1526
456.193	1512
456.262	1383
456.274	1561
456.332	2212
456.355	2191
456.401	2002
456.436	1769
456.470	1597
456.516	1107
456.540	824
456.597	1105
456.609	1170
456.678	598
456.678	581
456.747	800
456.759	818
456.817	806
456.840	702
456.886	632
456.920	619
456.955	603
457.001	1181
457.024	1445
457.082	1744
457.093	1798
457.162	1854
457.163	1875
457.232	2515
457.243	2461
457.301	1718
457.324	1576
457.370	1643
457.405	1777
457.439	1805
457.485	1676
457.508	1687
457.566	2038
457.577	2126
457.646	2840
457.647	2861
457.715	4350
457.727	4687
457.784	6360
457.808	7243
457.853	8521
457.889	10512
457.922	10666
457.969	8471
457.991	8732
458.050	9693
458.060	9979
458.129	14065
458.130	14247
458.198	15644
458.211	14946
458.267	10037
458.292	7205
458.336	4787
458.372	4423
458.405	5456
458.453	6756
458.474	8229
458.533	14193
458.543	14841
458.611	24371
458.614	24667
458.680	18464
458.694	15621
458.749	9122
458.775	6679
458.818	4191
458.855	3373
458.887	2851
458.936	2542
458.955	2480
459.016	2137
459.024	2137
459.093	2833
459.097	2856
459.162	2635
459.177	2697
459.230	3079
459.257	3219
459.299	3693
459.338	4200
459.368	4295
459.418	4500
459.437	4361
459.499	3821
459.505	3808
459.574	2953
459.579	2937
459.643	2650
459.659	2586
459.711	2832
459.740	3208
459.780	3363
459.820	3071
459.849	3142
459.900	3961
459.917	4127
459.981	4172
459.986	4164
460.054	4019
460.061	4050
460.123	4329
460.141	4438
460.191	5113
460.222	5517
460.260	6272
460.302	7366
460.328	7077
460.382	6552
460.397	6638
460.462	5491
460.465	5570
460.534	8733
460.543	9191
460.602	26197
460.623	32580
460.671	51405
460.703	69469
460.739	68970
460.783	64388
460.808	54558
460.864	14014
460.876	11030
460.944	4128
460.945	4059
461.013	4261
461.024	4261
461.081	3804
461.104	3671
461.150	3560
461.184	3277
461.218	3154
461.264	3148
461.286	3168
461.345	3375
461.355	3433
461.423	3974
461.425	3975
461.491	3028
461.505	3054
461.559	5369
461.585	6266
461.628	9551
461.665	12659
461.696	14250
461.745	18258
461.764	16311
461.825	6963
461.832	6772
461.901	3988
461.905	3921
461.969	4198
461.985	4323
462.037	3892
462.065	3565
462.105	3682
462.145	4029
462.173	5577
462.225	8475
462.241	8972
462.305	11097
462.310	10891
462.378	8036
462.385	7560
462.446	4884
462.465	4004
462.514	3659
462.545	3832
462.582	3787
462.625	3853
462.650	3818
462.705	3323
462.718	3357
462.785	3810
462.786	3842
462.854	5533
462.865	5765
462.922	6435
462.945	7039
462.990	6315
463.025	5083
463.058	4631
463.104	4220
463.126	4081
463.184	3860
463.194	3890
463.262	3872
463.264	3879
463.330	4269
463.344	4305
463.398	4479
463.424	4621
463.466	4553
463.504	4467
463.533	4638
463.583	4905
463.601	5021
463.663	5173
463.669	5175
463.737	5290
463.743	5316
463.805	8318
463.823	9216
463.873	13470
463.903	16051
463.940	17410
463.982	19293
464.008	16063
464.062	8042
464.076	7589
464.142	5085
464.144	5075
464.211	5070
464.221	5116
464.279	4821
464.301	4608
464.347	4461
464.381	4495
464.414	4781
464.461	5195
464.482	5898
464.540	7615
464.550	7483
464.617	6482
464.620	6440
464.685	6984
464.699	7067
464.753	8951
464.779	9954
464.820	10909
464.859	11830
464.888	11387
464.938	10435
464.956	10504
465.018	10621
465.023	10552
465.091	9608
465.098	9460
465.158	9235
465.177	9222
465.226	9337
465.257	9465
465.293	9456
465.336	9127
465.361	9655
465.416	11178
465.428	11541
465.495	13293
465.496	13352
465.563	19271
465.575	20298
465.631	24908
465.654	26937
465.698	19256
465.734	12511
465.765	11678
465.813	10201
465.833	10195
465.893	10538
465.900	10454
465.968	9547
465.972	9463
466.035	9091
466.052	9009
466.102	9756
466.131	10176
466.170	9808
466.210	9259
466.237	10088
466.290	11769
466.304	11794
466.369	11806
466.372	11828
466.439	11892
466.449	11868
466.506	12651
466.528	12940
466.573	15566
466.607	17461
466.641	22335
466.687	29132
466.708	32367
466.766	41176
466.775	38822
466.842	20614
466.845	19708
466.909	16579
466.925	15823
466.977	15403
467.004	15201
467.044	15602
467.083	15952
467.111	16817
467.163	18356
467.178	18943
467.242	21237
467.245	21139
467.312	18352
467.321	17952
467.379	17268
467.400	16974
467.446	18024
467.480	18726
467.559	16459
467.638	15418
467.717	14591
467.796	15118
467.875	15537
467.955	15639
468.034	17932
468.113	33342
468.192	47077
468.271	20292
468.350	13522
468.429	15108
468.508	14548
468.588	13147
468.667	12580
468.746	13231
468.825	12021
468.904	11081
468.983	12471
469.062	15970
469.141	19084
469.220	11175
469.299	10706
469.378	11953
469.456	15394
469.535	14890
469.614	12862
469.693	13269
469.772	15597
469.851	17618
469.930	16647
470.009	12543
470.088	11433
470.166	14278
470.245	15729
470.324	18430
470.403	14489
470.482	12530
470.560	10911
470.639	11640
470.718	13281
470.797	10728
470.875	12426
470.954	15349
471.033	16113
471.111	10438
471.190	10408
471.269	9269
471.347	9226
471.426	10554
471.505	11324
471.583	13585
471.662	13293
471.740	11247
471.819	12756
471.898	10752
471.976	10677
472.055	10934
472.133	11900
472.212	14074
472.290	13496
472.369	10948
472.447	9610
472.526	8964
472.604	10301
472.683	10273
472.761	10628
472.839	9865
472.918	9698
472.996	9529
473.075	10583
473.153	10377
473.231	9854
473.310	10136
473.388	10654
473.466	9524
473.545	11368
473.623	13956
473.701	13287
473.780	10989
473.858	9355
473.936	10668
474.014	9579
474.093	10695
474.171	13413
474.249	15703
474.327	12510
474.405	9986
474.484	9221
474.562	10149
474.640	9570
474.718	10448
474.796	10695
474.874	10582
474.952	9462
475.030	10324
475.108	10898
475.187	12493
475.265	13127
475.343	14257
475.421	14700
475.499	11604
475.577	9946
475.655	12398
475.733	17169
475.811	27453
475.889	25646
475.966	21175
476.044	9400
476.122	9668
476.200	11753
476.278	10132
476.356	8863
476.434	8980
476.512	10403
476.590	9897
476.667	11499
476.745	7864
476.823	9167
476.901	8614
476.979	8528
477.056	9224
477.134	8558
477.212	9124
477.290	8542
477.367	7967
477.445	7180
477.523	7682
477.601	7381
477.678	8099
477.756	8876
477.834	10107
477.911	7955
477.989	7961
478.066	7486
478.144	8958
478.222	9246
478.299	10337
478.377	12998
478.454	8816
478.532	6551
478.609	6952
478.687	9241
478.764	6786
478.842	7627
478.919	8057
478.997	7619
479.074	6614
479.152	7769
479.229	9069
479.307	7393
479.384	6102
479.461	6635
479.539	6759
479.616	8907
479.694	6908
479.771	7296
479.848	7764
479.926	8844
480.003	11584
480.080	7639
480.157	7041
480.235	6597
480.312	7745
480.389	7160
480.467	10354
480.544	12988
480.621	9051
480.698	7714
480.775	8476
480.853	8519
480.930	7885
481.007	7734
481.084	10258
481.161	11671
481.238	10483
481.315	6328
481.392	6968
481.470	6708
481.547	6774
481.624	6531
481.701	7399
481.778	6136
481.855	7556
481.932	10284
482.009	15155
482.086	13938
482.163	7524
482.240	8724
482.317	12592
482.393	12567
482.470	6893
482.547	7729
482.624	6894
482.701	7681
482.778	6686
482.855	5721
482.932	5826
483.009	6593
483.085	7640
483.162	9956
483.239	10817
483.316	6362
483.393	6932
483.469	6353
483.546	8220
483.623	7874
483.699	8030
483.776	6935
483.853	8589
483.930	11052
484.006	23073
484.083	39996
484.160	34256
484.236	49000
484.313	40942
484.389	30655
484.466	26314
484.543	24150
484.619	25712
484.696	26114
484.772	25730
484.849	26505
484.925	23671
485.002	23135
485.078	23703
485.155	24077
485.231	21757
485.308	21579
485.384	21786
485.461	23470
485.537	31742
485.614	38147
485.690	22629
485.766	20706
485.843	21259
485.919	25290
485.995	27969
486.072	19870
486.148	19165
486.224	18937
486.301	19266
486.377	20755
486.453	21735
486.530	21858
486.606	28704
486.682	33354
486.758	32401
486.835	35587
486.911	28905
486.987	38037
487.063	43998
487.139	50298
487.215	43552
487.292	28978
487.368	23518
487.444	24483
487.520	28303
487.596	29476
487.672	33460
487.748	61606
487.824	96258
487.900	53551
487.976	26611
488.052	23447
488.128	26093
488.204	24007
488.280	21068
488.356	21626
488.432	31658
488.508	47110
488.584	25828
488.660	17189
488.736	18570
488.812	19422
488.888	23084
488.964	26361
489.039	41083
489.115	66104
489.191	51604
489.267	20671
489.343	18092
489.418	17758
489.494	16597
489.570	15216
489.646	17148
489.722	16714
489.797	16375
489.873	20481
489.949	34230
490.024	35640
490.100	16324
490.176	16525
490.251	17343
490.327	20606
490.403	16415
490.478	15321
490.554	12876
490.629	13838
490.705	13610
490.781	14829
490.856	14406
490.932	15909
491.007	15419
491.083	15501
491.158	14157
491.234	16285
491.309	26465
491.385	31524
491.460	15550
491.536	15110
491.611	14759
491.686	13766
491.762	17024
491.837	26844
491.913	46078
491.988	57759
492.063	82391
492.139	33733
492.214	19185
492.289	13160
492.365	11792
492.440	13310
492.515	12889
492.590	13462
492.666	11439
492.741	13304
492.816	17905
492.891	13741
492.967	12819
493.042	11612
493.117	12964
493.192	13632
493.267	19646
493.342	56813
493.418	93285
493.493	23718
493.568	11641
493.643	10768
493.718	11982
493.793	15094
493.868	18407
493.943	14374
494.018	11986
494.093	10656
494.168	10862
494.243	10029
494.318	10358
494.393	10242
494.468	10470
494.543	9189
494.618	10896
494.693	11504
494.768	9902
494.842	10262
494.917	9291
494.992	10546
495.067	10408
495.142	10065
495.217	11235
495.292	10386
495.366	11557
495.441	14300
495.516	16582
495.591	20105
495.665	48413
495.740	122546
495.815	82637
495.890	18468
495.964	13365
496.039	15259
496.114	14576
496.188	16662
496.263	18205
496.338	14105
496.412	14330
496.487	17151
496.561	17246
496.636	18615
496.710	16631
496.785	17447
496.860	18900
496.934	17905
497.009	16811
497.083	18350
497.158	20413
497.232	22013
497.307	23274
497.381	23961
497.455	24973
497.530	30296
497.604	27458
497.679	28139
497.753	35579
497.827	46036
497.902	47989
497.976	51190
498.050	73479
498.125	215021
498.199	288602
498.273	77004
498.348	55809
498.422	51842
498.496	45786
498.570	43069
498.645	36605
498.719	32911
498.793	34293
498.867	37061
498.941	43749
499.016	84899
499.090	236543
499.164	135317
499.238	24486
499.312	19819
499.386	21802
499.460	21409
499.534	19151
499.609	19778
499.683	25756
499.757	24303
499.831	36303
499.905	138172
499.979	179183
500.053	32943
500.127	26517
500.201	21521
500.275	16386
500.349	15096
500.422	15721
500.496	20697
500.570	34901
500.644	79449
500.718	164585
500.792	61913
500.866	14994
500.940	16469
501.013	14684
501.087	13162
501.161	21417
501.235	28481
501.309	42100
501.382	121455
501.456	148254
501.530	32951
501.603	43563
501.677	27431
501.751	10438
501.825	13163
501.898	17932
501.972	49628
502.046	44687
502.119	12820
502.193	22394
502.266	55353
502.340	39183
502.413	24257
502.487	49942
502.561	34825
502.634	15434
502.708	10271
502.781	9797
502.855	9256
502.928	7649
503.002	7155
503.075	8016
503.149	8348
503.222	8655
503.295	9920
503.369	11148
503.442	12777
503.516	33092
503.589	92633
503.662	77807
503.736	25341
503.809	42495
503.882	45261
503.956	51690
504.029	63778
504.102	38112
504.175	50189
504.249	26458
504.322	14466
504.395	12679
504.468	9679
504.542	8261
504.615	8339
504.688	8281
504.761	6164
504.834	9199
504.907	9809
504.980	16081
505.053	10709
505.127	9829
505.200	15312
505.273	10593
505.346	8952
505.419	6569
505.492	7293
505.565	6962
505.638	6032
505.711	5628
505.784	6182
505.857	5485
505.930	6945
506.003	6129
506.076	8604
506.149	7890
506.221	10749
506.294	10629
506.367	18114
506.440	67503
506.513	56115
506.586	11636
506.659	8211
506.731	7523
506.804	7828
506.877	10585
506.950	9632
507.022	6838
507.095	7969
507.168	10151
507.241	8018
507.313	6436
507.386	7141
507.459	9536
507.531	7612
507.604	7268
507.677	6740
507.749	5682
507.822	8639
507.894	15184
507.967	24159
508.040	16497
508.112	12709
508.185	12263
508.257	11735
508.330	14611
508.402	12445
508.475	11207
508.547	11146
508.620	11339
508.692	14159
508.765	12530
508.837	9275
508.909	10136
508.982	9745
509.054	10635
509.127	9775
509.199	8200
509.271	8555
509.344	8499
509.416	7544
509.488	8795
509.560	9068
509.633	9965
509.705	10500
509.777	12073
509.849	12753
509.922	12509
509.994	11537
510.066	11825
510.138	11510
510.210	21349
510.283	22577
510.355	18049
510.427	15241
510.499	14652
510.571	13628
510.643	13415
510.715	16958
510.787	17512
510.859	14433
510.931	14193
511.003	17111
511.076	18591
511.148	12252
511.219	12998
511.291	16572
511.363	18872
511.435	14043
511.507	11972
511.579	12447
511.651	12709
511.723	11018
511.795	11499
511.867	10241
511.939	12524
512.010	17225
512.082	18552
512.154	11276
512.226	11687
512.298	15669
512.369	24721
512.441	19611
512.513	17726
512.585	14506
512.656	15563
512.728	14872
512.800	13170
512.871	12822
512.943	12877
513.015	11584
513.086	13661
513.158	13946
513.230	12187
513.301	14491
513.373	17963
513.444	13047
513.516	11529
513.588	10765
513.659	13090
513.731	14493
513.802	13223
513.874	18850
513.945	31942
514.016	18621
514.088	11944
514.159	12076
514.231	16393
514.302	22101
514.374	18287
514.445	15230
514.516	22954
514.588	20403
514.659	15780
514.730	21120
514.802	22102
514.873	18641
514.944	25310
515.016	20867
515.087	19357
515.158	20505
515.229	26072
515.301	22517
515.372	32459
515.443	27517
515.514	21408
515.585	16263
515.656	15245
515.728	13949
515.799	12431
515.870	13086
515.941	13592
516.012	12842
516.083	17120
516.154	18181
516.225	19127
516.296	20339
516.367	18358
516.438	18562
516.509	21657
516.580	27522
516.651	61809
516.722	229626
516.793	177634
516.864	36063
516.935	31813
517.006	31976
517.077	39356
517.148	71491
517.219	224973
517.289	489130
517.360	170735
517.431	60966
517.502	19652
517.573	17812
517.643	17685
517.714	18942
517.785	20232
517.856	18938
517.926	23548
517.997	25720
518.068	30345
518.138	40787
518.209	51658
518.280	146338
518.350	609939
518.421	407807
518.492	57554
518.562	28123
518.633	23888
518.703	21817
518.774	30864
518.845	55847
518.915	61631
518.986	30426
519.056	23421
519.127	29478
519.197	41330
519.268	81925
519.338	76531
519.408	21400
519.479	21761
519.549	19247
519.620	14256
519.690	12658
519.760	12215
519.831	12324
519.901	12885
519.971	11110
520.042	11563
520.112	13419
520.182	13638
520.253	16506
520.323	13202
520.393	15906
520.463	27679
520.534	18037
520.604	34391
520.674	23138
520.744	16125
520.814	31779
520.885	39948
520.955	26863
521.025	92559
521.095	62249
521.165	14871
521.235	12132
521.305	11379
521.375	11281
521.445	11644
521.515	13320
521.585	15438
521.655	15643
521.725	13075
521.795	13348
521.865	9848
521.935	13955
522.005	14808
522.075	10344
522.145	11498
522.215	11246
522.285	13953
522.355	16355
522.424	26697
522.494	27177
522.564	17861
522.634	22140
522.704	65799
522.774	45704
522.843	12495
522.913	11437
522.983	12655
523.053	11412
523.122	11768
523.192	12748
523.262	30420
523.331	44303
523.401	14836
523.471	9957
523.540	11159
523.610	7845
523.680	9016
523.749	9389
523.819	10662
523.888	11830
523.958	9586
524.027	9779
524.097	10879
524.166	8998
524.236	9767
524.305	10954
524.375	9892
524.444	8741
524.514	10756
524.583	8850
524.653	10608
524.722	12084
524.791	11269
524.861	10334
524.930	8933
524.999	9014
525.069	12167
525.138	10392
525.207	12066
525.277	10529
525.346	9810
525.415	10023
525.484	10280
525.554	10190
525.623	12378
525.692	12021
525.761	11641
525.830	12580
525.900	13633
525.969	18543
526.038	26137
526.107	38051
526.176	112338
526.245	120625
526.314	45584
526.383	60739
526.452	95184
526.522	126234
526.591	177420
526.660	60660
526.729	35125
526.797	32107
526.867	49181
526.935	194450
527.004	367988
527.073	265399
527.142	39218
527.211	17040
527.280	14048
527.349	13941
527.418	9483
527.487	10511
527.555	8430
527.624	8871
527.693	7642
527.762	10195
527.831	8176
527.899	8590
527.968	9658
528.037	8601
528.106	10412
528.174	14377
528.243	13662
528.312	14450
528.380	20524
528.449	11648
528.518	10334
528.586	7113
528.655	9409
528.723	8083
528.792	8138
528.861	8236
528.929	8088
528.998	9306
529.066	8696
529.135	11263
529.203	11006
529.272	10630
529.340	14170
529.409	15081
529.477	12730
529.545	12772
529.614	15935
529.682	15708
529.751	18948
529.819	19489
529.887	19412
529.956	17141
530.024	17107
530.092	14958
530.161	15976
530.229	18346
530.297	17594
530.365	16100
530.434	15850
530.502	16173
530.570	16149
530.638	13142
530.707	14687
530.775	15447
530.843	13546
530.911	14526
530.979	14713
531.047	15579
531.115	17011
531.183	13891
531.252	14263
531.320	14027
531.388	13581
531.456	15064
531.524	13983
531.592	15605
531.660	18206
531.728	17130
531.796	15181
531.864	15841
531.932	16223
532.000	15372
532.067	16502
532.135	18863
532.203	20335
532.271	20563
532.339	23955
532.407	38820
532.475	37249
532.542	24052
532.610	22792
532.678	24641
532.746	52813
532.814	163403
532.881	74921
532.949	23238
533.017	18847
533.084	17595
533.152	17153
533.220	17728
533.287	17623
533.355	17776
533.423	17494
533.490	17264
533.558	17872
533.625	16987
533.693	18910
533.761	18230
533.828	18555
533.896	17962
533.963	24941
534.031	30338
534.098	34865
534.166	27479
534.233	19888
534.300	21482
534.368	20377
534.435	18654
534.503	18505
534.570	19809
534.637	20140
534.705	18654
534.772	21167
534.840	22480
534.907	54555
534.974	93454
535.041	27467
535.109	17224
535.176	15563
535.243	15651
535.310	14851
535.378	15331
535.445	14330
535.512	14298
535.579	14528
535.646	13389
535.714	14255
535.781	16684
535.848	17087
535.915	18929
535.982	20010
536.049	20353
536.116	19813
536.183	16920
536.250	16379
536.317	14685
536.384	16588
536.451	18588
536.518	18986
536.585	16514
536.652	18662
536.719	20749
536.786	18742
536.853	16263
536.920	19558
536.987	24148
537.053	24874
537.120	64850
537.187	95374
537.254	18961
537.321	14273
537.388	14413
537.454	11961
537.521	11753
537.588	11943
537.654	13001
537.721	15621
537.788	15893
537.855	12909
537.921	13544
537.988	14118
538.055	13627
538.121	12321
538.188	13244
538.254	15175
538.321	21706
538.388	19030
538.454	12869
538.521	12524
538.587	12617
538.654	12381
538.720	11958
538.787	13468
538.853	11778
538.920	12691
538.986	13103
539.053	13053
539.119	13589
539.185	13175
539.252	14405
539.318	17181
539.385	17578
539.451	16420
539.517	16555
539.583	17492
539.650	22623
539.716	62431
539.782	33542
539.849	13011
539.915	13079
539.981	13173
540.047	13920
540.114	13779
540.180	14387
540.246	13824
540.312	15002
540.378	21688
540.444	24806
540.510	23152
540.576	66845
540.643	41437
540.709	13171
540.775	13819
540.841	12740
540.907	14516
540.973	21469
541.039	19841
541.105	18904
541.171	14843
541.237	13115
541.303	14699
541.369	15299
541.435	15612
541.500	20682
541.566	17359
541.632	12975
541.698	12213
541.764	12978
541.830	12118
541.896	11247
541.961	12979
542.027	12800
542.093	12040
542.159	13828
542.224	12927
542.290	17744
542.356	20792
542.421	23473
542.487	17286
542.553	14653
542.618	14869
542.684	13149
542.750	13632
542.815	14623
542.881	18294
542.947	50408
543.012	64317
543.078	16384
543.143	13770
543.209	13188
543.274	14000
543.340	15443
543.405	22160
543.471	45115
543.536	19788
543.602	14308
543.667	12208
543.732	13089
543.798	11653
543.863	13059
543.928	11517
543.994	10592
544.059	12577
544.124	12416
544.190	12860
544.255	13377
544.320	13298
544.386	13959
544.451	15445
544.516	17049
544.581	17557
544.646	31496
544.712	71449
544.777	26012
544.842	15691
544.907	16148
544.972	14556
545.037	15033
545.102	14690
545.168	15474
545.233	16432
545.298	17056
545.363	17571
545.428	18084
545.493	24397
545.558	50044
545.623	35453
545.688	16095
545.753	15145
545.818	15792
545.883	16753
545.947	15268
546.012	16317
546.077	16302
546.142	18087
546.207	15660
546.272	17780
546.337	17518
546.401	18331
546.466	17727
546.531	16359
546.596	17645
546.661	17016
546.725	18021
546.790	16412
546.855	17769
546.919	17490
546.984	18190
547.049	19776
547.113	21943
547.178	21700
547.243	23552
547.307	25309
547.372	27542
547.436	29106
547.501	25982
547.565	27850
547.630	28988
547.695	28955
547.759	28588
547.823	27776
547.888	27708
547.952	27050
548.017	27739
548.081	32750
548.146	32283
548.210	32078
548.274	29852
548.339	29142
548.403	28779
548.468	25780
548.532	25868
548.596	27223
548.660	26805
548.725	28761
548.789	31753
548.853	32431
548.917	29050
548.982	30603
549.046	31519
549.110	25608
549.174	25437
549.238	26439
549.303	27740
549.367	30935
549.431	28494
549.495	28183
549.559	26826
549.623	29854
549.687	33119
549.751	37330
549.815	38734
549.879	37711
549.943	34763
550.007	37241
550.071	37196
550.135	38338
550.199	36213
550.263	33851
550.327	33394
550.391	36249
550.455	36899
550.519	35821
550.582	38283
550.646	44143
550.710	48701
550.774	43017
550.838	41306
550.901	42086
550.965	45378
551.029	45645
551.093	49389
551.156	54389
551.220	65489
551.284	75969
551.347	54036
551.411	59806
551.475	69764
551.538	47916
551.602	42107
551.666	39972
551.729	38797
551.793	37859
551.856	36771
551.920	37382
551.983	37809
552.047	36329
552.110	37433
552.174	36903
552.237	38462
552.301	36638
552.364	34418
552.428	34204
552.491	33560
552.554	35804
552.618	36577
552.681	37163
552.745	36296
552.808	40176
552.871	50442
552.934	43513
552.998	38712
553.061	38521
553.124	37432
553.187	37733
553.251	38370
553.314	39962
553.377	40507
553.440	48797
553.503	87922
553.567	187003
553.630	73854
553.693	40614
553.756	38508
553.819	36387
553.882	36401
553.945	36435
554.008	34690
554.071	34458
554.134	35867
554.197	34752
554.260	33500
554.323	35640
554.386	35571
554.449	36020
554.512	35654
554.575	34164
554.638	34300
554.701	34423
554.764	34015
554.827	32160
554.889	32819
554.952	30883
555.015	29622
555.078	29859
555.141	31282
555.203	29762
555.266	29324
555.329	29010
555.391	29002
555.454	28890
555.517	29667
555.580	28211
555.642	26919
555.705	26046
555.768	27238
555.830	27055
555.893	25517
555.955	26334
556.018	24457
556.080	25678
556.143	25422
556.206	24883
556.268	24763
556.330	25313
556.393	25005
556.455	24635
556.518	26794
556.580	28539
556.643	23262
556.705	23885
556.767	22135
556.830	22533
556.892	23454
556.955	26568
557.017	26282
557.079	23240
557.142	22634
557.204	22563
557.266	28796
557.328	30855
557.391	21313
557.453	20252
557.515	20605
557.577	21415
557.639	22456
557.701	19838
557.764	18843
557.826	19873
557.888	21726
557.950	22217
558.012	21720
558.074	25406
558.136	38611
558.198	95596
558.260	58406
558.322	24408
558.384	25720
558.446	27349
558.508	29033
558.570	34470
558.632	44225
558.694	61090
558.756	64611
558.818	147561
558.880	460185
558.942	231617
559.003	108395
559.065	78130
559.127	33911
559.189	31124
559.251	33241
559.312	39393
559.374	74074
559.436	256399
559.498	210203
559.559	42081
559.621	31961
559.683	32974
559.744	43997
559.806	107526
559.868	222248
559.929	70391
559.991	32817
560.052	38026
560.114	84750
560.176	80545
560.237	51660
560.299	96275
560.360	40717
560.422	19604
560.483	19855
560.545	16890
560.606	17530
560.667	17317
560.729	16175
560.790	16615
560.852	15581
560.913	16154
560.974	15743
561.036	16760
561.097	15799
561.158	15838
561.220	16913
561.281	16357
561.342	16282
561.403	18675
561.465	18272
561.526	29083
561.587	42859
561.648	22058
561.709	16395
561.771	16093
561.832	16035
561.893	15684
561.954	16755
562.015	15659
562.076	15304
562.137	15880
562.198	16671
562.259	15714
562.320	16101
562.381	16658
562.442	18882
562.503	19348
562.564	15238
562.625	16195
562.686	15935
562.747	16263
562.808	17048
562.869	16226
562.930	17997
562.991	17819
563.051	16465
563.112	16535
563.173	16584
563.234	16018
563.294	15839
563.355	15631
563.416	15559
563.477	16160
563.537	16173
563.598	16865
563.659	16080
563.720	15474
563.780	16449
563.841	16240
563.901	15905
563.962	15408
564.023	15220
564.083	16398
564.144	15714
564.204	16038
564.265	16261
564.325	17008
564.386	21812
564.446	24119
564.507	16696
564.567	16288
564.628	16819
564.688	16430
564.749	16288
564.809	17468
564.869	17635
564.930	17323
564.990	18267
565.050	16256
565.111	17843
565.171	16805
565.231	16792
565.292	17998
565.352	16829
565.412	18004
565.472	16743
565.532	18371
565.593	19142
565.653	18109
565.713	18645
565.773	19195
565.833	20025
565.893	23825
565.953	20399
566.013	20021
566.074	20563
566.134	23082
566.194	26428
566.254	29330
566.314	25860
566.374	23676
566.434	23585
566.494	24439
566.554	24851
566.614	26450
566.673	26265
566.733	28163
566.793	29456
566.853	30451
566.913	30955
566.973	31593
567.033	32447
567.092	32428
567.152	30269
567.212	31631
567.272	31729
567.331	34159
567.391	34965
567.451	36996
567.511	38398
567.570	40222
567.630	34179
567.690	32663
567.749	33894
567.809	36334
567.868	38936
567.928	43822
567.988	49235
568.047	57783
568.107	67909
568.166	85135
568.226	118263
568.285	167252
568.345	172069
568.404	154018
568.464	138027
568.523	128503
568.582	126052
568.642	132419
568.701	149427
568.761	189050
568.820	267324
568.879	304464
568.939	264176
568.998	215806
569.057	177735
569.116	146746
569.176	119464
569.235	102897
569.294	86816
569.353	75912
569.413	66900
569.472	61117
569.531	54629
569.590	48828
569.649	44023
569.708	40504
569.767	38420
569.827	38813
569.886	35107
569.945	31893
570.004	30543
570.063	28783
570.122	28432
570.181	26354
570.240	25799
570.299	26723
570.358	25778
570.417	23921
570.475	22105
570.534	21795
570.593	21891
570.652	21049
570.711	20930
570.770	20894
570.829	20512
570.887	19107
570.946	20611
571.005	17872
571.064	18173
571.122	18261
571.181	18768
571.240	18032
571.299	17199
571.357	17737
571.416	18258
571.475	17554
571.533	18089
571.592	16342
571.650	17413
571.709	15867
571.768	15927
571.826	16854
571.885	15407
571.943	15157
572.002	14994
572.060	16400
572.119	14810
572.177	15378
572.236	14498
572.294	14035
572.352	15133
572.411	14527
572.469	14171
572.528	15670
572.586	14771
572.644	14994
572.703	17661
572.761	16202
572.819	15015
572.877	14283
572.936	13758
572.994	13661
573.052	13600
573.110	14632
573.169	15097
573.227	13751
573.285	14089
573.343	13864
573.401	13958
573.459	12791
573.517	13765
573.576	13362
573.634	13546
573.692	13598
573.750	14535
573.808	12964
573.866	13819
573.924	15250
573.982	15128
574.040	13248
574.098	13514
574.155	13329
574.213	13043
574.271	12617
574.329	13710
574.387	12633
574.445	11985
574.503	12616
574.560	12924
574.618	11780
574.676	12640
574.734	12037
574.792	12920
574.849	12373
574.907	12208
574.965	12942
575.022	11054
575.080	12451
575.138	12714
575.195	12198
575.253	12279
575.311	12874
575.368	12191
575.426	12156
575.483	12696
575.541	12150
575.598	11566
575.656	12361
575.713	12685
575.771	12159
575.828	12440
575.886	11198
575.943	11947
576.001	12848
576.058	12809
576.115	12746
576.173	12782
576.230	14219
576.287	15090
576.345	14832
576.402	12703
576.459	12881
576.517	12837
576.574	13467
576.631	13318
576.688	13288
576.746	12349
576.803	13008
576.860	12323
576.917	13936
576.974	13222
577.031	11856
577.089	13258
577.146	11994
577.203	12085
577.260	13679
577.317	12334
577.374	14342
577.431	13769
577.488	14067
577.545	13697
577.602	14001
577.659	13865
577.716	13876
577.773	15130
577.830	14357
577.886	14182
577.943	13878
578.000	14387
578.057	15021
578.114	16218
578.171	17210
578.227	20809
578.284	23158
578.341	21569
578.398	18323
578.454	16496
578.511	17344
578.568	16379
578.625	14546
578.681	13571
578.738	14736
578.794	14522
578.851	13871
578.908	15049
578.964	14954
579.021	15598
579.077	13983
579.134	13301
579.190	14053
579.247	13617
579.303	14684
579.360	13643
579.416	13596
579.473	12557
579.529	13311
579.586	13932
579.642	15539
579.698	14539
579.755	15688
579.811	14623
579.867	16337
579.924	15936
579.980	16230
580.036	19363
580.093	21553
580.149	27850
580.205	35211
580.261	30298
580.317	25421
580.374	22328
580.430	21370
580.486	19821
580.542	18332
580.598	17905
580.619	17375
580.654	16473
580.692	16494
580.710	16531
580.765	15907
580.767	15903
580.823	17025
580.838	16899
580.879	16638
580.911	17017
580.935	17326
580.984	16615
580.991	16535
581.047	16519
581.057	16581
581.103	16965
581.130	17443
581.159	17980
581.203	19177
581.215	19504
581.270	20493
581.276	20352
581.326	19192
581.349	18822
581.382	18268
581.422	17851
581.438	17698
581.494	17101
581.494	17091
581.550	17353
581.567	17485
581.606	17726
581.640	17920
581.661	18066
581.713	17838
581.717	17833
581.773	17110
581.786	17244
581.829	17733
581.859	17282
581.885	16941
581.932	17548
581.940	17664
581.996	17673
582.004	17691
582.052	17731
582.077	17770
582.107	17899
582.150	17754
582.163	17692
582.219	17921
582.223	17876
582.274	17658
582.296	17764
582.330	17788
582.368	18562
582.386	18954
582.441	18630
582.441	18634
582.497	18561
582.514	18906
582.552	19784
582.587	20062
582.608	20183
582.659	20092
582.663	20076
582.719	19942
582.732	20152
582.774	21092
582.805	20351
582.830	19675
582.877	20505
582.885	20647
582.941	21122
582.950	21277
582.996	22109
583.023	22950
583.052	24062
583.095	25696
583.107	26155
583.162	28419
583.168	28655
583.218	30357
583.240	29497
583.273	28019
583.313	26598
583.328	26146
583.384	25526
583.385	25510
583.439	24800
583.458	24351
583.494	23606
583.531	22856
583.549	22593
583.603	23377
583.605	23391
583.660	23165
583.676	23080
583.715	22970
583.748	23191
583.770	23366
583.820	23005
583.825	22937
583.881	23203
583.893	23195
583.936	23592
583.965	23557
583.991	23272
584.038	23315
584.046	23384
584.101	23891
584.110	24071
584.156	24892
584.183	24869
584.211	24779
584.255	25192
584.266	25298
584.321	24791
584.328	24810
584.376	25111
584.400	25332
584.431	25490
584.472	25991
584.486	26223
584.541	27212
584.545	27214
584.596	26942
584.617	27011
584.651	27506
584.689	27986
584.706	27989
584.761	29028
584.762	29029
584.816	29226
584.834	29540
584.871	29994
584.906	30137
584.926	30167
584.978	30532
584.980	30563
585.035	31263
585.051	31772
585.090	32881
585.123	33265
585.145	33575
585.195	33960
585.200	34008
585.254	35158
585.267	35599
585.309	37355
585.340	38869
585.364	39824
585.412	40773
585.419	40847
585.473	41378
585.484	41797
585.528	44216
585.556	46280
585.583	49561
585.628	59036
585.637	62553
585.692	93497
585.700	101008
585.747	140638
585.772	135170
585.801	110464
585.845	68097
585.856	60610
585.910	48309
585.917	47327
585.965	45406
585.989	45149
586.019	45424
586.061	45130
586.074	45141
586.128	46472
586.133	46598
586.183	47772
586.205	48161
586.237	48487
586.277	48681
586.292	48880
586.346	50077
586.349	50107
586.401	50430
586.421	50690
586.455	51528
586.493	53542
586.509	54629
586.564	57473
586.565	57582
586.618	64641
586.637	66519
586.672	66489
586.709	64115
586.727	63056
586.781	62354
586.781	62361
586.835	64303
586.853	65117
586.889	66504
586.925	67768
586.944	68582
586.996	70690
586.998	70749
587.052	73854
587.068	74460
587.106	76653
587.140	79279
587.161	80603
587.212	82530
587.215	82661
587.269	86765
587.284	87675
587.323	90866
587.356	94393
587.377	96479
587.427	101187
587.431	101614
587.485	107080
587.499	108830
587.539	113669
587.571	117605
587.593	120895
587.643	127565
587.648	128274
587.702	137402
587.715	139739
587.755	148211
587.786	154754
587.810	159638
587.858	169597
587.864	171002
587.917	186377
587.930	190130
587.971	204624
588.001	215679
588.025	224752
588.073	243475
588.079	246304
588.133	272794
588.145	279038
588.187	305150
588.217	324567
588.241	342442
588.288	379452
588.295	385374
588.348	436556
588.360	448111
588.402	498017
588.431	535376
588.456	573868
588.503	650228
588.510	663850
588.564	777575
588.575	802816
588.617	926352
588.646	1014104
588.671	1111807
588.718	1301534
588.725	1334946
588.778	1586723
588.789	1632576
588.832	1768222
588.861	1829810
588.886	1761289
588.932	1559176
588.939	1523182
588.993	1241430
589.004	1216434
589.047	1549255
589.075	1775788
589.100	1836066
589.147	1865724
589.154	1845066
589.207	1622788
589.218	1574832
589.261	1460240
589.290	1389139
589.314	1391076
589.361	1408732
589.368	1426938
589.421	1582148
589.433	1612623
589.475	1718836
589.504	1762991
589.528	1669163
589.576	1423782
589.582	1427910
589.635	1572244
589.647	1605558
589.689	1655779
589.718	1639713
589.742	1501326
589.790	1194377
589.795	1168760
589.849	923067
589.861	867492
589.902	745776
589.932	658094
589.955	610698
590.004	515180
590.009	508431
590.062	437397
590.075	420508
590.115	381537
590.146	352022
590.168	335906
590.218	301091
590.222	298900
590.275	270670
590.289	263291
590.328	245949
590.360	232274
590.381	224738
590.431	207492
590.435	206654
590.488	190929
590.503	186555
590.541	177332
590.574	169487
590.594	165468
590.645	155343
590.647	155080
590.700	145965
590.716	143309
590.753	137836
590.787	132479
590.806	130276
590.859	124427
590.859	124409
590.912	118396
590.930	116437
590.965	113392
591.001	110160
591.018	108764
591.071	104452
591.072	104333
591.124	100728
591.143	99245
591.177	97038
591.214	94589
591.230	93712
591.283	90655
591.285	90458
591.336	89424
591.356	88883
591.389	86752
591.427	84064
591.442	83119
591.495	79154
591.498	78811
591.547	77242
591.569	76381
591.600	74879
591.640	72723
591.653	72610
591.706	71936
591.711	71790
591.759	70183
591.782	69262
591.811	69000
591.853	68538
591.864	68163
591.917	65720
591.924	65309
591.969	64741
591.995	64333
592.022	63468
592.066	61846
592.075	61861
592.127	61501
592.137	61392
592.180	61757
592.208	61842
592.233	60783
592.279	58451
592.285	58274
592.338	56302
592.350	55785
592.390	55594
592.421	55342
592.443	55146
592.491	54499
592.495	54486
592.548	53414
592.562	53058
592.600	51875
592.633	50753
592.653	50470
592.704	49323
592.705	49606
592.775	49646
592.846	48860
592.916	48267
592.987	48302
593.058	47390
593.128	46667
593.199	44901
593.270	44371
593.341	43470
593.411	43223
593.482	43254
593.553	41865
593.623	41561
593.694	41978
593.764	41290
593.835	40750
593.906	39711
593.976	40352
594.047	39653
594.117	41781
594.188	40681
594.258	38907
594.329	38023
594.399	38457
594.470	37485
594.540	37789
594.611	37031
594.681	36145
594.751	37472
594.822	36768
594.892	37288
594.963	37411
595.033	37094
595.103	37120
595.174	37447
595.244	41459
595.314	44786
595.384	38286
595.455	36744
595.525	37381
595.595	36690
595.665	38775
595.736	36722
595.806	36735
595.876	36623
595.946	36525
596.016	35169
596.087	35919
596.157	35093
596.227	36501
596.297	36810
596.367	37512
596.437	39982
596.507	40950
596.577	44815
596.647	40145
596.717	39727
596.787	39382
596.857	39331
596.927	40658
596.997	39704
597.067	40908
597.137	42265
597.207	41268
597.277	39660
597.347	39696
597.417	40143
597.487	39160
597.557	39867
597.626	40279
597.696	41099
597.766	42403
597.836	43842
597.906	40908
597.975	38434
598.045	38035
598.115	37506
598.185	39686
598.254	41670
598.324	44120
598.394	44747
598.464	43594
598.533	43203
598.603	42310
598.672	41874
598.742	42047
598.812	41701
598.881	42462
598.951	42720
599.020	42231
599.090	42934
599.159	45053
599.229	44004
599.299	43437
599.368	42764
599.437	43654
599.507	41954
599.576	42978
599.646	43911
599.715	45323
599.785	42576
599.854	42793
599.924	42350
599.993	43317
600.062	41878
600.132	43758
600.201	45159
600.270	48281
600.340	50606
600.409	48709
600.478	48956
600.547	49837
600.617	50275
600.686	45114
600.755	44236
600.824	44740
600.894	45362
600.963	44585
601.032	44188
601.101	43739
601.170	44442
601.239	44602
601.308	46191
601.378	45895
601.447	46858
601.516	46630
601.585	47722
601.654	49619
601.723	49547
601.792	52116
601.861	51747
601.930	57567
601.999	58136
602.068	55848
602.137	56737
602.206	58513
602.275	56872
602.343	59574
602.412	60371
602.481	57688
602.550	56435
602.619	58310
602.688	59294
602.756	59399
602.825	58287
602.894	60842
602.963	59659
603.032	59916
603.100	60322
603.169	59648
603.238	61460
603.307	59297
603.375	58355
603.444	60887
603.513	58201
603.581	58530
603.650	62133
603.719	54964
603.787	49991
603.856	52494
603.924	53129
603.993	54865
604.061	55130
604.130	55230
604.198	57297
604.267	58539
604.335	59824
604.404	58297
604.472	60231
604.541	60108
604.609	62247
604.678	64296
604.746	64645
604.815	66394
604.883	66132
604.951	64060
605.020	64287
605.088	61568
605.156	57777
605.225	58036
605.293	57988
605.361	59474
605.429	58372
605.498	59077
605.566	58787
605.634	60784
605.702	61139
605.771	60650
605.839	63179
605.907	58687
605.975	59549
606.043	60929
606.111	56017
606.180	61080
606.248	60604
606.316	59698
606.384	61281
606.452	55006
606.520	46084
606.588	45069
606.656	42270
606.724	42834
606.792	40705
606.860	37106
606.928	34767
606.996	34962
607.064	34110
607.132	34491
607.200	35401
607.267	37328
607.335	36494
607.403	36621
607.471	36486
607.539	36103
607.607	36511
607.674	33208
607.742	32630
607.810	32824
607.878	33574
607.946	33955
608.013	34279
608.081	34993
608.149	34869
608.216	34753
608.284	36143
608.352	36013
608.419	36920
608.487	37652
608.555	35661
608.622	35677
608.690	36794
608.757	37921
608.825	38832
608.893	37975
608.960	38863
609.028	39616
609.095	39667
609.163	36419
609.230	34380
609.298	30512
609.365	31679
609.432	33930
609.500	36296
609.567	41288
609.635	45157
609.702	48195
609.769	47245
609.837	41749
609.904	37158
609.971	38572
610.039	44393
610.106	58346
610.173	98323
610.241	212699
610.308	283040
610.375	192228
610.442	69587
610.509	43903
610.577	37935
610.644	37353
610.711	36759
610.778	37380
610.845	36639
610.912	39677
610.980	41635
611.047	47772
611.114	44808
611.181	39136
611.248	37476
611.315	39103
611.382	38966
611.449	40656
611.516	40853
611.583	41095
611.650	40628
611.717	42415
611.784	43979
611.851	44622
611.918	49393
611.984	56074
612.051	73640
612.118	131579
612.185	316581
612.252	308866
612.319	80307
612.386	55003
612.452	50058
612.519	47490
612.586	49020
612.653	47834
612.719	47471
612.786	46450
612.853	42243
612.919	42523
612.986	41969
613.053	39620
613.120	37599
613.186	36961
613.253	38349
613.319	37717
613.386	37433
613.453	38382
613.519	40587
613.586	40967
613.652	48542
613.719	44627
613.785	43373
613.852	39479
613.918	38581
613.985	41726
614.051	46826
614.118	63899
614.184	73124
614.250	42785
614.317	39584
614.383	38255
614.449	39040
614.516	38682
614.582	39187
614.648	39639
614.715	38362
614.781	37765
614.847	39359
614.914	38902
614.980	38719
615.046	38327
615.112	39435
615.179	41241
615.245	44573
615.311	50372
615.377	70259
615.443	90406
615.509	63374
615.575	49547
615.642	45377
615.708	46694
615.774	48292
615.840	55374
615.906	66246
615.972	90389
616.038	157537
616.104	261698
616.170	431881
616.236	509673
616.302	132197
616.368	71751
616.434	57965
616.500	51079
616.565	51048
616.631	57991
616.697	54745
616.763	52290
616.829	62957
616.895	97602
616.961	113017
617.026	67861
617.092	45642
617.158	41069
617.224	41290
617.289	39066
617.355	37693
617.421	37314
617.487	37454
617.552	35403
617.618	35263
617.684	34325
617.749	35746
617.815	33217
617.880	32917
617.946	33807
618.012	34180
618.077	34725
618.143	33529
618.208	35327
618.274	35691
618.339	37942
618.405	32294
618.470	31767
618.536	32593
618.601	32185
618.667	31526
618.732	29919
618.798	30151
618.863	29681
618.928	29399
618.994	30633
619.059	32514
619.124	34984
619.190	32366
619.255	29453
619.320	29977
619.386	30750
619.451	29066
619.516	29443
619.581	29575
619.647	29728
619.712	29501
619.777	28976
619.842	29372
619.907	29505
619.972	29894
620.038	30626
620.103	29438
620.168	28861
620.233	30171
620.298	29190
620.363	28597
620.428	29939
620.493	30032
620.558	31404
620.623	30896
620.688	30024
620.753	30056
620.818	31849
620.883	31450
620.948	31397
621.013	30728
621.078	31735
621.143	30289
621.207	33478
621.272	32225
621.337	32767
621.402	31947
621.467	33893
621.532	34526
621.596	33542
621.661	31812
621.726	30511
621.791	31569
621.855	32523
621.920	32417
621.985	32100
622.049	33432
622.114	33541
622.179	32967
622.243	33168
622.308	32709
622.373	35104
622.437	35436
622.502	32760
622.566	32197
622.631	32073
622.695	33849
622.760	34151
622.824	32778
622.889	33535
622.953	35032
623.018	40532
623.082	43688
623.147	35742
623.211	33908
623.276	35088
623.340	31747
623.404	32954
623.469	31534
623.533	32679
623.597	31580
623.662	31419
623.726	29755
623.790	29146
623.854	28705
623.919	29750
623.983	28924
624.047	29630
624.111	28426
624.176	30091
624.240	30812
624.304	32835
624.368	30168
624.432	30091
624.496	29138
624.560	32229
624.625	33867
624.689	30575
624.753	31162
624.817	30469
624.881	29313
624.945	28521
625.009	28077
625.073	28318
625.137	29815
625.201	31913
625.265	33001
625.329	28790
625.393	28657
625.456	28608
625.520	29167
625.584	31062
625.648	32191
625.712	36238
625.776	51318
625.839	59626
625.903	39414
625.967	25834
626.031	31271
626.095	41928
626.158	30266
626.222	23663
626.286	22113
626.349	20860
626.413	21369
626.477	21822
626.540	20161
626.604	20101
626.668	20856
626.731	20260
626.795	19253
626.858	20480
626.922	19730
626.986	19900
627.049	18300
627.113	19932
627.176	19003
627.240	18632
627.303	19389
627.366	18091
627.430	18942
627.493	19051
627.557	17903
627.620	19585
627.684	18714
627.747	18217
627.810	16915
627.874	17276
627.937	15486
628.000	17545
628.064	17135
628.127	15730
628.190	14845
628.253	15841
628.317	15055
628.380	14368
628.443	14777
628.506	15595
628.569	14772
628.632	13395
628.696	12866
628.759	13239
628.822	12077
628.885	12027
628.948	13281
629.011	13578
629.074	11808
629.137	12639
629.200	12447
629.263	14037
629.326	12180
629.389	11709
629.452	12054
629.515	13443
629.578	11743
629.641	13403
629.704	12744
629.767	13164
629.830	11773
629.892	12373
629.955	11305
630.018	12687
630.081	12750
630.144	14376
630.207	12597
630.269	12988
630.332	12041
630.395	12308
630.458	11144
630.520	10453
630.583	11512
630.646	11660
630.708	11078
630.771	11239
630.834	11874
630.896	11040
630.959	10027
631.021	10084
631.084	10302
631.146	11050
631.209	11023
631.272	10506
631.334	11034
631.397	10413
631.459	10234
631.522	10818
631.584	11117
631.646	10705
631.709	11886
631.771	12970
631.834	11575
631.896	11247
631.958	10017
632.021	10599
632.083	9190
632.145	10250
632.208	10157
632.270	10901
632.332	9757
632.395	9573
632.457	10575
632.519	10138
632.581	10860
632.643	9547
632.706	10627
632.768	8683
632.830	9551
632.892	9737
632.954	9457
633.016	10252
633.078	9267
633.141	9796
633.203	9055
633.265	9516
633.327	9272
633.389	8799
633.451	10504
633.513	11206
633.575	10461
633.637	10798
633.698	11030
633.760	9909
633.822	10207
633.884	10474
633.946	9610
634.008	10043
634.070	10482
634.132	11818
634.193	11497
634.255	11493
634.317	10431
634.379	11014
634.441	10077
634.502	9490
634.564	9780
634.626	9972
634.687	9817
634.749	8951
634.811	8811
634.873	8791
634.934	9477
634.996	9911
635.057	8743
635.119	8337
635.181	8802
635.242	10273
635.304	8038
635.365	10169
635.427	8573
635.488	8991
635.550	8739
635.611	8928
635.673	6858
635.734	9406
635.796	8607
635.857	10006
635.918	9813
635.980	11094
636.041	9760
636.102	9930
636.164	10310
636.225	11083
636.286	8529
636.348	10367
636.409	8921
636.470	8565
636.531	8822
636.593	8887
636.654	9694
636.715	8054
636.776	7757
636.838	7658
636.899	8281
636.960	7690
637.021	7096
637.082	7856
637.143	8328
637.204	6357
637.265	7370
637.326	8576
637.387	7773
637.448	6642
637.509	8373
637.570	7616
637.631	7564
637.692	6462
637.753	5651
637.814	7209
637.875	6870
637.936	7943
637.997	7034
638.058	7401
638.119	7875
638.179	7779
638.240	6284
638.301	6948
638.362	7339
638.423	7146
638.483	8167
638.544	6358
638.605	7715
638.666	6999
638.726	7041
638.787	7809
638.848	7452
638.908	6540
638.969	7555
639.030	7016
639.090	6462
639.151	6780
639.211	7855
639.272	7887
639.332	10840
639.393	9466
639.453	6617
639.514	6784
639.574	7242
639.635	6428
639.695	7105
639.756	5875
639.816	6536
639.877	7362
639.937	9860
639.997	13993
640.058	7916
640.118	6459
640.178	6684
640.239	5738
640.299	5879
640.359	6055
640.420	6707
640.480	6388
640.540	7330
640.600	6418
640.661	7427
640.721	6610
640.781	9663
640.841	7415
640.901	7659
640.961	6950
641.021	7194
641.082	6394
641.142	8993
641.202	8408
641.262	5256
641.322	6538
641.382	5561
641.442	5930
641.502	5726
641.562	7035
641.622	5513
641.682	5592
641.742	6440
641.802	7442
641.861	6422
641.921	5946
641.981	7324
642.041	6963
642.101	7848
642.161	6381
642.221	5962
642.280	5810
642.340	5442
642.400	5266
642.460	6844
642.519	6417
642.579	5493
642.639	6230
642.698	3542
642.758	6853
642.818	6821
642.877	5453
642.937	6210
642.997	6355
643.056	8972
643.116	6606
643.175	7059
643.235	6257
643.294	5873
643.354	6398
643.414	7209
643.473	7812
643.532	9326
643.592	12277
643.651	17406
643.711	28401
643.770	49627
643.830	106392
643.889	286764
643.948	126449
644.008	18408
644.067	9281
644.126	7704
644.186	7656
644.245	7060
644.304	5535
644.363	7876
644.423	5501
644.482	5249
644.541	5982
644.600	4492
644.659	6746
644.719	6801
644.778	9594
644.837	12897
644.896	22451
644.955	54681
645.014	34986
645.073	10289
645.132	6619
645.191	6618
645.250	6009
645.309	6889
645.368	5846
645.427	7354
645.486	7245
645.545	13734
645.604	7396
645.663	5773
645.722	5600
645.781	6309
645.840	6657
645.898	8338
645.957	11894
646.016	13966
646.075	25099
646.134	43938
646.192	99445
646.251	220218
646.310	58012
646.369	11833
646.427	8419
646.486	5715
646.545	5897
646.603	6459
646.662	5849
646.721	5032
646.779	4279
646.838	4375
646.896	5885
646.955	6791
647.014	8893
647.072	13152
647.131	32211
647.189	28255
647.248	6334
647.306	5636
647.365	5028
647.423	3597
647.481	5628
647.540	3520
647.598	3993
647.657	3669
647.715	4752
647.773	3022
647.832	5277
647.890	3631
647.948	4479
648.007	4988
648.065	3249
648.123	4359
648.181	6334
648.240	4847
648.298	5621
648.356	4356
648.414	4899
648.472	4367
648.531	4869
648.589	3860
648.647	3744
648.705	3280
648.763	5175
648.821	4249
648.879	4081
648.937	4756
648.995	5271
649.053	5802
649.111	8247
649.169	11484
649.227	18260
649.285	31942
649.343	93001
649.401	82885
649.459	19129
649.516	14701
649.574	8439
649.632	15073
649.690	24183
649.748	11095
649.806	9836
649.863	19006
649.921	24366
649.979	24654
650.037	6492
650.094	2596
650.152	4254
650.210	3856
650.268	4337
650.325	4456
650.383	4672
650.440	3086
650.498	3943
650.556	3302
650.613	3070
650.671	3520
650.728	3736
650.786	3247
650.843	3219
650.901	2647
650.958	3497
651.016	3139
651.073	3420
651.131	2728
651.188	1886
651.246	2925
651.303	1145
651.360	4009
651.418	2949
651.475	3743
651.532	2056
651.590	2547
651.647	2663
651.704	2790
651.762	3192
651.819	3103
651.876	2527
651.933	3216
651.990	3621
652.048	2018
652.105	2620
652.162	3142
652.219	2389
652.276	3089
652.333	2754
652.390	1404
652.448	2412
652.505	3134
652.562	3182
652.619	3332
652.676	5233
652.733	8047
652.790	3128
652.847	1407
652.904	3151
652.961	1963
653.017	1790
653.074	3075
653.131	2624
653.188	1947
653.245	2345
653.302	2408
653.359	2951
653.415	3506
653.472	2168
653.529	3178
653.586	1999
653.642	1648
653.699	2976
653.756	2297
653.813	1335
653.869	2387
653.926	2240
653.983	1286
654.039	2769
654.096	1623
654.152	3159
654.209	1312
654.266	3250
654.322	1965
654.379	2908
654.435	2946
654.492	2905
654.548	3707
654.605	5561
654.661	5118
654.717	2719
654.774	2826
654.830	2843
654.887	2887
654.943	2075
655.000	3447
655.056	1910
655.112	3024
655.168	1472
655.225	2214
655.281	3097
655.337	2286
655.394	3838
655.450	4372
655.506	3066
655.562	4179
655.618	5107
655.675	1895
655.731	2877
655.787	2766
655.843	2726
655.899	1450
655.955	3243
656.011	2754
656.067	1555
656.123	3033
656.179	3446
656.235	4304
656.291	2502
656.347	4688
656.403	3390
656.459	3441
656.515	3200
656.571	2515
656.627	3255
656.683	2142
656.739	2633
656.795	1932
656.850	2866
656.906	3012
656.962	3581
657.018	1666
657.074	2186
657.129	2802
657.185	3034
657.241	4055
657.297	3964
657.352	2983
657.408	2295
657.464	2860
657.519	2670
657.575	1589
657.630	3147
657.686	2078
657.742	777
657.797	1662
657.853	1511
657.908	3103
657.964	1413
658.019	1694
658.075	2737
658.130	2698
658.186	1506
658.241	2403
658.297	1377
658.352	1996
658.407	3145
658.463	906
658.518	2151
658.573	2200
658.629	1171
658.684	2183
658.739	1954
658.795	1161
658.850	1898
658.905	1447
658.960	2521
659.016	1184
659.071	2086
659.126	1729
659.181	1696
659.236	3518
659.291	4787
659.346	2756
659.401	3119
659.457	3603
659.512	4340
659.567	4269
659.622	1931
659.677	2396
659.732	988
659.787	1120
659.842	2068
659.897	2529
659.952	2343
660.007	2041
660.061	2720
660.116	1728
660.171	1057
660.226	1443
660.281	3566
660.336	1193
660.391	3275
660.445	1899
660.500	1899
660.555	1491
660.610	1624
660.664	2525
660.719	985
660.774	2381
660.828	1875
660.883	2617
660.938	1822
660.992	1226
661.047	2067
661.101	2006
661.156	998
661.211	912
661.265	2104
661.320	2172
661.374	2057
661.429	1164
661.483	1641
661.538	1501
661.592	2087
661.647	1570
661.701	2603
661.755	1547
661.810	2448
661.864	537
661.919	1407
661.973	2074
662.027	1805
662.081	369
662.136	1876
662.190	1814
662.244	2413
662.299	2067
662.353	2799
662.407	1936
662.461	1215
662.515	2111
662.569	1262
662.624	2351
662.678	1480
662.732	1863
662.786	1436
662.840	1866
662.894	2041
662.948	1299
663.002	2287
663.056	2237
663.110	1663
663.164	2295
663.218	2507
663.272	1327
663.326	1949
663.380	2344
663.434	1745
663.488	882
663.542	2386
663.595	1870
663.649	1217
663.703	1419
663.757	2385
663.811	761
663.864	962
663.918	1684
663.972	1178
664.026	1427
664.079	1029
664.133	2528
664.187	1648
664.240	1857
664.294	1641
664.348	1901
664.401	1979
664.455	2401
664.508	1009
664.562	1758
664.615	2327
664.669	1420
664.722	1599
664.776	2446
664.829	1402
664.883	1574
664.936	1684
664.990	1735
665.043	2218
665.097	1466
665.150	2764
665.203	1048
665.257	1724
665.310	1685
665.363	2404
665.417	1507
665.470	2626
665.523	2434
665.576	1871
665.630	1737
665.683	1903
665.736	1752
665.789	1741
665.842	1214
665.895	2148
665.949	2290
666.002	1453
666.055	2172
666.108	2333
666.161	2394
666.214	2117
666.267	1905
666.320	2632
666.373	2613
666.426	1113
666.479	1812
666.532	2125
666.585	2064
666.638	3228
666.691	1643
666.744	2587
666.796	1588
666.849	2066
666.902	2168
666.955	2031
667.008	1292
667.060	1635
667.113	1406
667.166	1832
667.219	1669
667.271	1548
667.324	1644
667.377	1614
667.430	2443
667.482	2613
667.535	2815
667.587	2089
667.640	1997
667.693	1827
667.745	3240
667.798	4883
667.850	2483
667.903	2654
667.955	2075
668.008	2262
668.060	2182
668.113	2536
668.165	1669
668.218	1640
668.270	1688
668.322	1713
668.375	1521
668.427	2671
668.479	655
668.532	2556
668.584	2424
668.636	1648
668.689	1820
668.741	1489
668.793	1757
668.845	1663
668.898	1382
668.950	2525
669.002	2727
669.054	2179
669.106	1771
669.158	2918
669.211	2445
669.263	3296
669.315	3626
669.367	4085
669.419	2293
669.471	3817
669.523	3354
669.575	4792
669.627	3989
669.679	3342
669.731	2376
669.783	3198
669.835	3355
669.886	3544
669.938	3952
669.990	3406
670.042	3250
670.094	4477
670.146	5251
670.197	7408
670.249	8339
670.301	11318
670.353	15867
670.404	24324
670.456	34805
670.508	51927
670.560	78090
670.611	120070
670.663	195928
670.715	376018
670.766	631733
670.818	439105
670.869	118451
670.921	42596
670.972	26020
671.024	17679
671.075	12213
671.127	9712
671.178	7483
671.230	7566
671.281	6674
671.333	5579
671.384	4451
671.436	4684
671.487	5650
671.538	5136
671.590	5302
671.641	7017
671.692	8225
671.744	14024
671.795	16310
671.846	7607
671.897	4006
671.949	2632
672.000	2758
672.051	2992
672.102	2810
672.153	1755
672.204	1934
672.256	2947
672.307	2639
672.358	2496
672.409	2185
672.460	1977
672.511	980
672.562	1495
672.613	2188
672.664	2016
672.715	1963
672.766	2586
672.817	1532
672.868	1845
672.919	1004
672.970	1687
673.021	1663
673.071	1241
673.122	1832
673.173	1707
673.224	1519
673.275	1632
673.326	1371
673.376	1728
673.427	881
673.478	1173
673.528	1967
673.579	631
673.630	1443
673.680	1547
673.731	1170
673.782	2095
673.832	1307
673.883	1507
673.934	1287
673.984	1097
674.035	1383
674.085	1424
674.136	1139
674.186	2080
674.237	1546
674.287	1801
674.338	2147
674.388	901
674.438	1549
674.489	1434
674.539	896
674.589	1819
674.640	1166
674.690	1519
674.740	855
674.791	1171
674.841	1482
674.891	1559
674.942	1047
674.992	1698
675.042	1155
675.092	905
675.142	511
675.193	1438
675.243	553
675.293	788
675.343	859
675.393	755
675.443	708
675.493	1318
675.543	215
675.593	1428
675.643	1258
675.693	1301
675.743	307
675.793	1258
675.843	363
675.893	1458
675.943	686
675.993	993
676.043	681
676.093	1255
676.142	367
676.192	763
676.242	426
676.292	876
676.341	783
676.391	618
676.441	1644
676.491	1057
676.540	781
676.590	1966
676.640	511
676.689	987
676.739	249
676.789	963
676.838	-102
676.888	961
676.937	713
676.987	1696
677.037	1141
677.086	529
677.136	532
677.185	488
677.235	639
677.284	1405
677.333	-102
677.383	280
677.432	421
677.482	405
677.531	645
677.580	179
677.630	662
677.679	255
677.728	309
677.778	1115
677.827	602
677.876	181
677.925	948
677.975	717
678.024	1061
678.073	329
678.122	1027
678.171	551
678.220	399
678.269	1048
678.319	279
678.368	608
678.417	1375
678.466	1774
678.515	595
678.564	818
678.613	1192
678.662	57
678.711	986
678.760	405
678.809	1353
678.857	1110
678.906	-246
678.955	-65
679.004	764
679.053	1108
679.102	607
679.151	-34
679.199	1089
679.248	973
679.297	217
679.346	244
679.394	963
679.443	1498
679.492	1124
679.540	-136
679.589	20
679.638	328
679.686	975
679.735	705
679.784	-103
679.832	784
679.881	145
679.929	663
679.978	468
680.026	509
680.075	291
680.123	1089
680.172	375
680.220	671
680.268	-134
680.317	467
680.365	164
680.414	152
680.462	-125
680.510	198
680.559	-171
680.607	368
680.655	231
680.703	175
680.752	410
680.800	1364
680.848	138
680.896	1068
680.945	-309
680.993	437
681.041	315
681.089	391
681.137	-33
681.185	-38
681.233	-297
681.258	82
681.281	425
681.329	582
681.377	896
681.380	904
681.425	778
681.473	1122
681.502	428
681.521	-83
681.569	808
681.617	-306
681.624	-204
681.665	344
681.713	1013
681.745	727
681.761	569
681.809	366
681.857	744
681.867	833
681.904	1081
681.952	526
681.989	670
682.000	688
682.048	1082
682.096	511
682.111	492
682.143	406
682.191	482
682.233	1333
682.239	1446
682.286	1147
682.334	937
682.354	1049
682.382	1189
682.430	1308
682.476	1200
682.477	1183
682.525	1576
682.572	644
682.598	930
682.620	1172
682.667	1612
682.715	654
682.720	748
682.763	1480
682.810	1142
682.841	1414
682.857	1527
682.905	698
682.952	1010
682.963	1086
683.000	1320
683.047	1587
683.085	1866
683.095	1926
683.142	957
683.190	1508
683.206	1266
683.237	776
683.284	1518
683.328	1446
683.332	1430
683.379	1500
683.426	1564
683.449	2008
683.473	2434
683.521	2083
683.568	1446
683.571	1492
683.615	1903
683.662	1409
683.693	1251
683.709	1153
683.757	1884
683.804	1730
683.814	1760
683.851	1872
683.898	1796
683.936	2045
683.945	2086
683.992	1994
684.039	1889
684.057	2243
684.086	2759
684.133	1828
684.179	1448
684.180	1428
684.227	2499
684.274	2351
684.300	2481
684.321	2544
684.368	2122
684.415	1948
684.422	1962
684.462	1962
684.509	2018
684.543	2052
684.556	2079
684.603	1773
684.649	2225
684.665	2141
684.696	1898
684.743	2352
684.786	2123
684.790	2099
684.837	2497
684.883	2584
684.908	2661
684.930	2717
684.977	2843
685.023	3155
685.029	3106
685.070	2635
685.117	2729
685.150	2820
685.164	2865
685.210	2626
685.257	3375
685.272	3232
685.303	2872
685.350	3255
685.393	3193
685.396	3187
685.443	3097
685.490	3748
685.514	3585
685.536	3400
685.583	3234
685.629	2921
685.636	2956
685.675	3065
685.722	3013
685.757	3548
685.768	3744
685.815	3479
685.861	3775
685.878	3613
685.908	3310
685.954	3128
686.000	3342
686.000	3343
686.047	3486
686.093	3390
686.121	3675
686.139	3824
686.185	3934
686.232	3033
686.242	3326
686.278	4187
686.324	3239
686.363	3151
686.370	3158
686.416	3802
686.463	3985
686.484	3850
686.509	3665
686.555	3474
686.601	3519
686.606	3548
686.647	3842
686.693	3401
686.727	3837
686.739	3961
686.785	3595
686.831	3525
686.848	3663
686.877	4063
686.923	3568
686.969	4064
686.969	4064
687.015	3589
687.061	3312
687.090	3657
687.107	3875
687.153	4081
687.199	3714
687.211	3759
687.245	3851
687.291	3672
687.332	3622
687.336	3631
687.382	3765
687.428	3581
687.453	3944
687.474	4173
687.520	4180
687.565	4282
687.574	4248
687.611	4227
687.657	3958
687.695	4506
687.702	4652
687.748	5019
687.794	5516
687.816	5814
687.839	5793
687.885	4904
687.931	5066
687.937	5025
687.976	4825
688.022	4224
688.058	4614
688.067	4734
688.113	4084
688.158	3976
688.179	3908
688.204	3972
688.249	4362
688.295	4552
688.300	4561
688.340	4485
688.386	4852
688.421	4677
688.431	4664
688.477	4526
688.522	4841
688.542	4889
688.567	4837
688.613	4506
688.658	4499
688.663	4492
688.703	4595
688.749	4278
688.784	4323
688.794	4332
688.839	4392
688.884	4763
688.905	4687
688.930	4602
688.975	4646
689.020	4293
689.026	4336
689.065	4845
689.110	4849
689.146	4771
689.155	4746
689.201	5082
689.246	5292
689.267	5325
689.291	5228
689.336	5073
689.381	4900
689.388	4899
689.426	5129
689.471	4981
689.509	4898
689.516	4885
689.561	5283
689.606	4909
689.630	4873
689.651	4817
689.696	5260
689.741	5307
689.750	5259
689.785	5181
689.830	5106
689.871	4996
689.875	4996
689.920	5090
689.965	5456
689.992	5270
690.010	5107
690.054	5498
690.099	4933
690.112	4950
690.144	5186
690.189	5397
690.233	5663
690.233	5672
690.278	5357
690.323	5728
690.354	5393
690.367	5356
690.412	5779
690.457	5675
690.474	6001
690.501	6264
690.546	5910
690.590	5438
690.595	5432
690.635	6209
690.680	6658
690.716	7262
690.724	7436
690.769	8428
690.813	9599
690.836	9873
690.857	10772
690.902	12893
690.946	15622
690.957	16295
690.991	22554
691.035	31379
691.077	40314
691.080	40508
691.124	40874
691.168	39022
691.198	38569
691.213	35538
691.257	26943
691.301	18474
691.318	15254
691.346	13800
691.390	11290
691.434	9123
691.439	8806
691.478	8138
691.522	8213
691.559	7608
691.567	7537
691.611	7539
691.655	7122
691.680	7265
691.699	7444
691.743	6915
691.787	6916
691.800	6848
691.831	6746
691.875	6656
691.919	6498
691.921	6486
691.964	6728
692.008	6812
692.041	6918
692.052	6935
692.096	6832
692.139	6701
692.162	6608
692.183	6543
692.227	6841
692.271	6469
692.282	6448
692.315	6607
692.359	6786
692.402	7016
692.403	7032
692.447	7209
692.490	7147
692.523	7094
692.534	7073
692.578	7092
692.622	7050
692.643	7078
692.666	7068
692.709	6727
692.753	6519
692.763	6558
692.797	7033
692.840	7197
692.884	7186
692.884	7201
692.928	7391
692.971	7616
693.004	7680
693.015	7616
693.059	7499
693.102	6890
693.124	6985
693.146	7443
693.189	7696
693.233	8171
693.245	8276
693.276	8729
693.320	9406
693.363	9997
693.365	10000
693.407	10487
693.450	10754
693.485	11419
693.493	11922
693.537	14093
693.580	16238
693.605	17636
693.624	20063
693.667	25342
693.710	31321
693.725	33345
693.753	45538
693.797	65268
693.840	86140
693.845	88293
693.883	88927
693.926	86557
693.966	85275
693.970	83363
694.013	62439
694.056	41941
694.086	27822
694.099	26290
694.142	21268
694.185	16388
694.206	14130
694.229	13653
694.272	12374
694.315	11147
694.326	10882
694.358	10781
694.401	10165
694.444	9973
694.446	9924
694.487	9662
694.530	9344
694.566	9378
694.573	9326
694.616	8483
694.659	7786
694.686	7342
694.702	7365
694.745	7261
694.787	7194
694.806	7185
694.830	7204
694.873	7194
694.916	7302
694.926	7242
694.959	7290
695.002	7442
695.044	7640
695.046	7635
695.087	7822
695.130	7618
695.166	7573
695.172	7618
695.215	7707
695.258	8056
695.286	7980
695.301	7909
695.343	8041
695.386	7898
695.406	7922
695.428	8011
695.471	7993
695.514	7821
695.526	7806
695.556	8028
695.599	8564
695.641	8517
695.646	8552
695.684	8624
695.726	8203
695.766	8006
695.769	8007
695.811	7651
695.854	7410
695.886	7174
695.896	7274
695.938	7521
695.981	7704
696.005	7922
696.023	8064
696.065	8195
696.108	8278
696.125	8312
696.150	8295
696.192	8381
696.235	8343
696.245	8317
696.277	8441
696.319	8533
696.361	8732
696.365	8708
696.404	8921
696.446	9333
696.485	9499
696.488	9518
696.530	9620
696.572	9585
696.604	9634
696.614	9628
696.656	9280
696.698	9254
696.724	9034
696.740	8960
696.783	8718
696.825	8693
696.844	8580
696.867	8544
696.909	8469
696.951	8273
696.964	8249
696.992	8315
697.034	8385
697.076	8285
697.083	8258
697.118	8510
697.160	8808
697.202	9041
697.203	9024
697.244	9017
697.286	9024
697.323	8829
697.327	8842
697.369	8839
697.411	8850
697.442	8866
697.453	8900
697.494	8835
697.536	8779
697.562	8810
697.578	8985
697.620	9275
697.661	9565
697.682	9651
697.703	9645
697.744	9706
697.786	9762
697.801	9733
697.828	9887
697.869	10112
697.911	10222
697.921	10255
697.952	9783
697.994	9058
698.035	8305
698.040	8197
698.077	8621
698.118	9016
698.160	9520
698.160	9496
698.201	9363
698.243	9230
698.279	9098
698.284	9150
698.325	9348
698.367	9602
698.399	9756
698.408	9731
698.449	9466
698.491	9241
698.518	9040
698.532	9104
698.573	9230
698.614	9365
698.638	9398
698.656	9458
698.697	9567
698.738	9654
698.757	9678
698.779	9646
698.820	9519
698.862	9388
698.877	9315
698.903	9531
698.944	9834
698.985	10135
698.996	10191
699.026	10125
699.067	9993
699.116	9808
699.235	9608
699.354	9120
699.474	9136
699.593	9375
699.713	10248
699.832	9113
699.951	9757
700.070	9518
700.190	8999
700.309	9573
700.428	9252
700.547	8383
700.667	8901
700.786	9233
700.905	9260
701.024	8794
701.143	9372
701.262	8353
701.381	8049
701.500	9136
701.619	9360
701.738	8884
701.857	8534
701.976	8179
702.095	7875
702.214	9013
702.333	8511
702.452	9285
702.571	8253
702.690	9760
702.809	8025
702.928	8830
703.047	8073
703.165	7946
703.284	8671
703.403	7939
703.522	8542
703.640	8319
703.759	9262
703.878	12075
703.997	8070
704.115	7946
704.234	7442
704.353	7305
704.471	7409
704.590	7937
704.708	7920
704.827	7825
704.946	6835
705.064	7420
705.183	7599
705.301	8117
705.420	11267
705.538	10361
705.656	9510
705.775	9563
705.893	16294
706.012	25456
706.130	9921
706.249	9036
706.367	8742
706.485	9081
706.604	9422
706.722	8396
706.840	9920
706.958	13307
707.077	11954
707.195	8569
707.313	9210
707.431	9086
707.549	8027
707.668	8038
707.786	8755
707.904	8140
708.022	8598
708.140	8012
708.258	7648
708.376	8340
708.494	7888
708.612	8086
708.730	10419
708.848	10648
708.966	10119
709.084	9828
709.202	10147
709.320	9306
709.438	8530
709.556	9143
709.674	8551
709.791	9377
709.909	8614
710.027	9124
710.145	9097
710.263	9508
710.380	9152
710.498	8811
710.616	8883
710.733	8161
710.851	8557
710.969	9512
711.086	9147
711.204	8872
711.322	8666
711.439	8398
711.557	9152
711.674	7761
711.792	8278
711.909	9717
712.027	11113
712.144	8736
712.262	8874
712.379	9015
712.497	11002
712.614	12099
712.732	9865
712.849	9264
712.966	10587
713.084	11324
713.201	10066
713.318	10177
713.436	10047
713.553	9715
713.670	10157
713.787	10395
713.905	10953
714.022	9519
714.139	9813
714.256	11469
714.373	12935
714.490	18001
714.608	35385
714.725	139504
714.842	231178
714.959	23630
715.076	12095
715.193	9685
715.310	9287
715.427	9624
715.544	9035
715.661	9661
715.778	9047
715.895	9620
716.011	9354
716.128	8701
716.245	7981
716.362	9106
716.479	10145
716.596	8864
716.713	8779
716.829	9048
716.946	8205
717.063	7902
717.180	8051
717.296	7847
717.413	7938
717.530	7273
717.646	7330
717.763	9167
717.880	7658
717.996	7699
718.113	7999
718.229	6666
718.346	6788
718.462	6935
718.579	7930
718.695	11948
718.812	10996
718.928	9584
719.045	8359
719.161	6939
719.277	6712
719.394	6959
719.510	8430
719.626	7403
719.743	8714
719.859	9304
719.975	13495
720.092	38102
720.208	112168
720.324	25487
720.440	8244
720.557	8415
720.673	10213
720.789	12624
720.905	20146
721.021	11900
721.137	6867
721.253	8020
721.369	6680
721.486	8074
721.602	9624
721.718	6983
721.834	5403
721.950	6832
722.066	6374
722.181	6349
722.297	7110
722.413	6608
722.529	6419
722.645	6492
722.761	5773
722.877	6168
722.993	5373
723.108	6587
723.224	5643
723.340	6190
723.456	5812
723.571	5975
723.687	5576
723.803	6040
723.918	5677
724.034	5573
724.150	6151
724.265	6281
724.381	8476
724.497	12258
724.612	6230
724.728	5338
724.843	5949
724.959	6388
725.074	8635
725.190	12352
725.305	6618
725.421	5367
725.536	4858
725.651	6272
725.767	4898
725.882	4999
725.997	5100
726.113	5582
726.228	5769
726.343	5244
726.459	5813
726.574	5675
726.689	5230
726.804	5080
726.920	4954
727.035	5843
727.150	4862
727.265	5262
727.380	5286
727.495	6322
727.610	4592
727.725	5123
727.841	6473
727.956	10624
728.071	11461
728.186	5536
728.301	4486
728.416	4881
728.531	5279
728.645	5028
728.760	5663
728.875	5504
728.990	5338
729.105	5652
729.220	4857
729.335	5051
729.449	5068
729.564	4821
729.679	4135
729.794	5084
729.908	4520
730.023	5654
730.138	4497
730.253	4337
730.367	4152
730.482	4374
730.596	4963
730.711	5435
730.826	5631
730.940	5822
731.055	5186
731.169	4646
731.284	4497
731.398	5499
731.513	5323
731.627	5331
731.742	5826
731.856	6561
731.970	5277
732.085	5858
732.199	6403
732.313	9508
732.428	17118
732.542	46373
732.656	39958
732.771	10065
732.885	6177
732.999	6225
733.113	6109
733.227	5875
733.342	5746
733.456	5611
733.570	4604
733.684	4985
733.798	5010
733.912	4495
734.026	4294
734.140	4724
734.254	5208
734.368	6844
734.482	8409
734.596	5696
734.710	5011
734.824	4909
734.938	3781
735.052	5278
735.166	5477
735.280	5803
735.393	4569
735.507	4867
735.621	5737
735.735	7112
735.849	4992
735.962	5314
736.076	4980
736.190	5045
736.303	5944
736.417	7299
736.531	5022
736.644	4260
736.758	5248
736.872	4762
736.985	4588
737.099	4990
737.212	4626
737.326	5098
737.439	5090
737.553	4901
737.666	4463
737.780	4312
737.893	5002
738.007	4174
738.120	4295
738.233	4289
738.347	4906
738.460	4759
738.573	4915
738.687	5175
738.800	4297
738.913	5907
739.026	4338
739.140	4046
739.253	4962
739.366	4376
739.479	4379
739.592	3658
739.705	3699
739.818	4798
739.932	4343
740.045	4143
740.158	5962
740.271	3646
740.384	3624
740.497	4441
740.610	4672
740.723	5407
740.836	5841
740.949	5002
741.062	5529
741.174	6513
741.287	4209
741.400	4236
741.513	4238
741.626	4555
741.739	4934
741.851	4926
741.964	4632
742.077	3730
742.189	4486
742.302	5257
742.415	5466
742.527	4446
742.640	3481
742.753	4769
742.865	4008
742.978	4189
743.090	4029
743.203	4409
743.316	4339
743.428	3848
743.541	3759
743.653	3748
743.766	3188
743.878	4487
743.990	3640
744.103	5718
744.215	5579
744.327	4386
744.440	4330
744.552	6396
744.664	4485
744.777	3921
744.889	3955
745.001	4144
745.113	4347
745.226	4237
745.338	3817
745.450	3690
745.562	3807
745.674	3981
745.786	3821
745.898	3393
746.010	4323
746.122	4325
746.234	3681
746.347	4090
746.459	3691
746.570	4170
746.682	4027
746.794	6494
746.906	4311
747.018	4417
747.130	3938
747.242	4159
747.354	3252
747.466	3803
747.577	3797
747.689	4198
747.801	4112
747.913	3575
748.024	3609
748.136	3090
748.248	3702
748.359	2872
748.471	4599
748.583	3530
748.694	4081
748.806	5749
748.918	4507
749.029	3741
749.141	3934
749.252	4583
749.364	3306
749.475	5330
749.587	4657
749.698	3854
749.809	3724
749.921	3203
750.032	4383
750.144	3292
750.255	2964
750.366	4368
750.478	3214
750.589	4066
750.700	4862
750.811	3627
750.923	5262
751.034	6852
751.145	8920
751.256	4120
751.367	3836
751.479	4498
751.590	3674
751.701	3864
751.812	3350
751.923	4208
752.034	4289
752.145	4272
752.256	3897
752.367	4350
752.478	3404
752.589	4276
752.700	3668
752.811	3471
752.922	3345
753.032	3688
753.143	4259
753.254	4781
753.365	4283
753.476	3612
753.586	3588
753.697	4136
753.808	3235
753.919	3590
754.029	3745
754.140	4110
754.251	3697
754.361	4016
754.472	4392
754.582	3802
754.693	3986
754.804	4875
754.914	3217
755.025	3207
755.135	3131
755.246	4153
755.356	3694
755.466	3776
755.577	3707
755.687	4306
755.798	4004
755.908	4705
756.018	4262
756.129	4397
756.239	4664
756.349	4780
756.460	3858
756.570	4907
756.680	4460
756.790	4385
756.900	4185
757.011	4463
757.121	4499
757.231	5187
757.341	4626
757.451	5019
757.561	4695
757.671	4662
757.781	5040
757.891	5061
758.001	4891
758.111	5190
758.221	5009
758.331	4808
758.441	5439
758.551	5621
758.661	6484
758.771	5312
758.880	5054
758.990	4795
759.100	5227
759.210	5273
759.320	6163
759.429	6593
759.539	6027
759.649	5510
759.758	6348
759.868	6292
759.978	6105
760.087	7040
760.197	6002
760.307	6372
760.416	6052
760.526	5956
760.635	7353
760.745	7141
760.854	6954
760.964	7268
761.073	7819
761.182	7633
761.292	8350
761.401	8853
761.511	7740
761.620	8071
761.729	8823
761.839	8230
761.948	8919
762.057	9501
762.166	8630
762.276	9537
762.385	9770
762.494	9714
762.603	9475
762.712	10071
762.822	10453
762.931	11994
763.040	10878
763.149	11509
763.258	12525
763.367	13393
763.476	13895
763.585	14015
763.694	15177
763.803	17272
763.912	16062
764.021	18221
764.130	19047
764.238	19092
764.347	20945
764.456	22742
764.565	25561
764.674	26590
764.783	29850
764.891	32760
765.000	35829
765.109	41945
765.217	46688
765.326	55547
765.435	67676
765.543	80536
765.652	102090
765.761	135601
765.869	182951
765.978	262902
766.086	400239
766.195	630687
766.303	928702
766.412	892818
766.520	816824
766.629	914314
766.737	623429
766.846	393789
766.954	265830
767.062	191187
767.171	144349
767.279	110625
767.387	88188
767.496	73921
767.604	62047
767.712	55240
767.820	48502
767.928	44868
768.037	39712
768.145	38881
768.253	37154
768.361	35778
768.469	35447
768.577	35502
768.685	37083
768.793	39035
768.901	43746
769.009	49956
769.117	60254
769.225	77569
769.333	106743
769.441	162910
769.549	270417
769.657	491257
769.765	817956
769.873	796896
769.981	789313
770.088	507704
770.196	277244
770.304	174299
770.412	121423
770.519	89985
770.627	70209
770.735	56748
770.842	46349
770.950	40478
771.058	35578
771.165	31372
771.273	27749
771.380	25967
771.488	23410
771.595	20559
771.703	20244
771.810	18542
771.918	17933
772.025	16446
772.133	15399
772.240	14671
772.348	13845
772.455	14180
772.562	11607
772.670	12706
772.777	11950
772.884	10955
772.991	10973
773.099	10035
773.206	9777
773.313	10283
773.420	9685
773.528	8849
773.635	8764
773.742	9543
773.849	8581
773.956	8176
774.063	7642
774.170	7932
774.277	8137
774.384	7832
774.491	7302
774.598	7394
774.705	7144
774.812	7193
774.919	7121
775.026	7313
775.133	6273
775.239	6528
775.346	6662
775.453	6781
775.560	5805
775.667	6004
775.773	6277
775.880	6180
775.987	5232
776.093	5602
776.200	4975
776.307	5472
776.413	5332
776.520	5431
776.627	5834
776.733	5454
776.840	4681
776.946	5827
777.053	6247
777.159	9091
777.266	6406
777.372	8043
777.478	7571
777.585	6427
777.691	4856
777.798	4608
777.904	4974
778.010	5484
778.117	5537
778.223	4469
778.329	3985
778.435	3349
778.542	4482
778.648	3408
778.754	3539
778.860	4436
778.966	3773
779.072	4016
779.178	4577
779.284	3579
779.391	3964
779.497	4906
779.603	8022
779.708	12022
779.815	26175
779.920	93537
780.026	202282
780.132	42175
780.238	7824
780.344	6038
780.450	5368
780.556	4337
780.661	3904
780.767	4442
780.873	3870
780.979	2985
781.085	3309
781.190	3744
781.296	3176
781.402	3017
781.507	2934
781.613	3216
781.719	3005
781.824	2983
781.930	3088
782.035	3366
782.141	2794
782.246	2557
782.352	2643
782.457	3198
782.563	2186
782.668	2186
782.773	2636
782.879	2427
782.984	2685
783.090	3428
783.195	3880
783.300	3611
783.405	2306
783.511	2718
783.616	2516
783.721	2342
783.826	2281
783.932	2786
784.037	2765
784.142	3121
784.247	2241
784.352	2183
784.457	2172
784.562	2825
784.667	1676
784.772	2994
784.877	2350
784.982	3089
785.087	1981
785.192	2543
785.297	1714
785.402	2414
785.507	1950
785.611	2330
785.716	1419
785.821	2404
785.926	1496
786.031	1904
786.135	1684
786.240	2456
786.345	1988
786.450	2592
786.554	1732
786.659	1726
786.763	1152
786.868	1550
786.973	2644
787.077	2376
787.182	1882
787.286	2239
787.391	1312
787.495	1969
787.600	1240
787.704	1459
787.809	1826
787.913	1172
788.017	1744
788.122	2466
788.226	1903
788.330	1099
788.435	1699
788.539	1680
788.643	1205
788.747	2294
788.852	1475
788.956	1728
789.060	2589
789.164	2132
789.268	915
789.372	2460
789.476	2183
789.580	1569
789.684	895
789.788	1347
789.892	1086
789.996	2265
790.100	1636
790.204	1460
790.308	1452
790.412	1522
790.516	2032
790.620	2121
790.724	2170
790.828	719
790.931	1273
791.035	2549
791.139	2780
791.242	1269
791.346	1590
791.450	2025
791.554	1462
791.657	717
791.761	2522
791.864	2178
791.968	1392
792.072	1800
792.175	1600
792.279	1106
792.382	1578
792.486	1262
792.589	1464
792.693	1946
792.796	1013
792.899	2757
793.003	1585
793.106	1057
793.209	1185
793.313	2239
793.416	920
793.519	2360
793.623	2186
793.726	2933
793.829	1684
793.932	1879
794.035	574
794.138	2366
794.242	2694
794.345	3816
794.448	5273
794.551	14928
794.654	51367
794.757	116506
794.860	27631
794.963	5136
795.066	2354
795.169	1801
795.272	890
795.375	1628
795.477	1003
795.580	1598
795.683	258
795.786	971
795.889	494
795.991	1699
796.094	1319
796.197	1045
796.300	1830
796.402	1088
796.505	1136
796.608	1734
796.710	1706
796.813	1414
796.915	852
797.018	1179
797.120	858
797.223	859
797.326	1871
797.428	1156
797.530	865
797.633	1328
797.735	1301
797.838	1328
797.940	1781
798.042	224
798.145	1379
798.247	1481
798.349	225
798.452	1113
798.554	920
798.656	833
798.758	1374
798.860	1164
798.962	587
799.065	330
799.167	213
799.269	823
799.371	881
799.473	1657
799.575	957
799.677	390
799.779	2469
799.881	1489
799.983	1180
800.085	1003
800.187	1134
800.289	669
800.390	1258
800.492	952
800.594	764
800.696	704
800.798	386
800.899	130
801.001	1382
801.103	1550
801.205	835
801.306	1058
801.408	1392
801.509	108
801.611	298
801.713	814
801.814	287
801.916	1147
802.017	-39
802.119	460
802.220	1457
802.322	-416
802.423	2476
802.525	367
802.626	850
802.727	692
802.829	1468
802.930	-318
803.031	1271
803.133	1158
803.234	763
803.335	-2
803.436	-6
803.538	884
803.639	35
803.740	1053
803.841	-119
803.942	1292
804.043	40
804.144	123
804.245	702
804.346	1019
804.447	201
804.548	1111
804.649	1491
804.750	982
804.851	565
804.952	668
805.053	498
805.154	-622
805.255	282
805.355	-404
805.456	380
805.557	359
805.658	-165
805.758	1363
805.859	1090
805.960	729
806.061	650
806.161	1211
806.262	474
806.362	232
806.463	317
806.564	173
806.664	729
806.765	479
806.865	117
806.966	797
807.066	419
807.166	721
807.267	553
807.367	437
807.468	875
807.568	-370
807.668	1157
807.769	1071
807.869	192
807.969	827
808.069	180
808.170	-270
808.270	-282
808.370	653
808.470	758
808.570	298
808.670	377
808.770	263
808.870	-358
808.970	940
809.070	-595
809.170	316
809.271	-475
809.370	596
809.470	-229
809.570	-126
809.670	-435
809.770	767
809.870	479
809.970	368
810.070	-73
810.169	686
810.269	-812
810.369	1164
810.469	496
810.568	289
810.668	63
810.768	450
810.867	423
810.967	-481
811.066	49
811.166	1087
811.265	841
811.365	138
811.464	362
811.564	577
811.663	254
811.763	-455
811.862	708
811.962	1234
812.061	666
812.160	-123
812.260	23
812.359	1521
812.458	1557
812.557	6211
812.657	10955
812.756	5261
812.855	1550
812.954	1160
813.053	1229
813.153	464
813.252	538
813.351	496
813.450	919
813.549	715
813.648	1486
813.747	232
813.846	981
813.945	473
814.044	754
814.143	1144
814.242	1314
814.341	643
814.439	830
814.538	1555
814.637	559
814.736	1236
814.835	1395
814.933	616
815.032	1308
815.131	567
815.229	755
815.328	1622
815.427	1437
815.525	1477
815.624	2026
815.722	2127
815.821	1839
815.919	959
816.018	1071
816.116	3681
816.215	2245
816.313	2377
816.412	2224
816.510	1849
816.609	3661
816.707	2543
816.805	2167
816.904	2538
817.002	3233
817.100	4693
817.198	3721
817.296	4728
817.395	6108
817.493	7068
817.591	7229
817.689	10440
817.787	14857
817.885	23028
817.983	39745
818.081	78557
818.179	170415
818.277	375030
818.375	390681
818.473	166088
818.571	66228
818.669	39310
818.767	32289
818.865	30943
818.963	35715
819.061	46861
819.158	77123
819.256	144506
819.354	290130
819.452	528557
819.549	437000
819.647	207451
819.745	91994
819.842	51770
819.940	34956
820.038	25047
820.135	18720
820.233	15926
820.330	10726
820.428	9115
820.525	8901
820.623	8255
820.720	6669
820.818	6573
820.915	5234
821.012	5073
821.110	4258
821.207	3742
821.304	2901
821.402	3567
821.499	3678
821.596	3956
821.693	3685
821.791	3009
821.888	2852
821.985	3794
822.082	3242
822.179	2959
822.276	2389
822.373	2682
822.470	1822
822.567	1703
822.664	556
822.761	1681
822.858	405
822.955	860
823.052	1984
823.149	1162
823.246	42
823.343	542
823.440	1767
823.536	881
823.633	1809
823.730	1309
823.827	1259
823.923	895
824.020	1893
824.117	1425
824.213	284
824.310	1757
824.407	734
824.503	338
824.600	722
824.696	464
824.793	997
824.889	1169
824.986	983
825.082	1172
825.179	1000
825.275	897
825.371	907
825.468	640
825.564	142
825.660	465
825.757	1236
825.853	964
825.949	119
826.045	706
826.142	217
826.238	450
826.334	348
826.430	-288
826.526	536
826.622	168
826.718	94
826.814	86
826.910	1130
827.006	-19
827.102	-278
827.198	327
827.294	862
827.390	64
827.486	328
827.582	-680
827.678	-458
827.774	750
827.869	-463
827.965	1192
828.061	3
828.157	24
828.252	226
828.348	-467
828.444	253
828.539	-385
828.635	-229
828.731	954
828.826	-615
828.922	184
829.017	-317
829.113	1087
829.208	-97
829.304	209
829.399	656
829.495	328
829.590	400
829.685	-96
829.781	21
829.876	40
829.971	-498
830.066	-68
830.162	-576
830.257	-281
830.352	601
830.447	1772
830.543	334
830.638	-293
830.733	481
830.828	229
830.923	-255
831.018	97
831.113	-78
831.208	142
831.303	-402
831.398	-32
831.493	-560
831.588	475
831.683	-454
831.778	-108
831.873	-600
831.967	-276
832.062	-415
832.157	-627
832.252	11
832.346	-565
832.441	980
832.536	1102
832.631	1874
832.725	2042
832.820	-160
832.914	-603
833.009	-1149
833.104	-216
833.198	98
833.293	-583
833.387	224
833.482	740
833.576	-693
833.670	275
833.765	-289
833.859	-320
833.954	-68
834.048	236
834.142	110
834.237	-189
834.331	-388
834.425	56
834.519	-266
834.613	1279
834.708	-750
834.802	-302
834.896	-207
834.990	-85
835.084	474
835.178	-22
835.272	-624
835.366	70
835.460	-625
835.554	272
835.648	-287
835.742	-335
835.836	-460
835.930	-501
836.024	144
836.117	297
836.211	-61
836.305	477
836.399	691
836.493	-884
836.586	628
836.680	-163
836.774	-589
836.867	274
836.961	-893
837.055	-349
837.148	-85
837.242	-573
837.335	-296
837.429	154
837.522	-1062
837.616	158
837.709	676
837.803	-388
837.896	-303
837.989	-284
838.083	314
838.176	535
838.269	585
838.363	-49
838.456	-701
838.549	231
838.642	328
838.735	1666
838.829	1584
838.922	-196
839.015	151
839.108	-24
839.201	-250
839.294	-138
839.387	-30
839.480	-365
839.573	84
839.666	10
839.759	-1043
839.852	-50
839.945	774
840.038	-382
840.131	-821
840.223	-90
840.316	-44
840.409	-321
840.502	-745
840.594	942
840.687	-1124
840.780	-231
840.873	-162
840.965	-122
841.058	-364
841.150	450
841.243	-713
841.336	441
841.428	-885
841.521	-1255
841.613	-1809
841.706	-174
841.798	-613
841.890	-244
841.983	-803
842.075	129
842.167	-924
842.260	-112
842.352	81
842.444	146
842.537	140
842.629	1870
842.721	48
842.813	-784
842.905	-2537
842.997	20
843.090	-698
843.182	-102
843.274	-282
843.366	2455
843.458	5032
843.550	3686
843.642	339
843.734	-819
843.826	-949
843.918	-151
844.009	-42
844.101	-1190
844.193	-243
844.285	-561
844.377	237
844.469	76
844.560	-137
844.652	293
844.744	-23
844.835	-354
844.927	-478
845.019	-954
845.110	357
845.202	-139
845.293	-393
845.385	-123
845.476	-437
845.568	788
845.659	-1163
845.751	-189
845.842	-86
845.934	-842
846.025	-760
846.116	-465
846.208	-1459
846.299	-373
846.390	-644
846.482	161
846.573	-69
846.664	-338
846.755	16
846.846	-65
846.937	-1722
847.029	-87
847.120	-32
847.211	-785
847.302	-126
847.393	-1062
847.484	191
847.575	-953
847.666	-1101
847.757	-152
847.847	-459
847.938	-247
848.029	-872
848.120	-153
848.211	-976
848.302	-855
848.392	-594
848.483	474
848.574	-557
848.664	-1546
848.755	-578
848.846	-200
848.936	-707
849.027	-265
849.118	-556
849.208	-1171
849.299	642
849.389	252
849.480	545
849.570	1857
849.661	4058
849.751	8619
849.841	4717
849.932	-662
850.022	-209
850.112	-336
850.203	-426
850.293	-1169
850.383	-1808
850.474	-1456
850.564	-561
850.654	-262
850.744	-319
850.834	-961
850.924	-318
851.014	-499
851.104	-117
851.194	-132
851.284	-420
851.374	664
851.464	-919
851.554	-239
851.644	-313
851.734	52
851.824	483
851.914	1272
852.004	4799
852.094	3671
852.183	-437
852.273	-330
852.363	-403
852.452	-72
852.542	-479
852.632	-864
852.721	-1036
852.811	-1608
852.901	-801
852.990	-404
853.080	-903
853.169	-1012
853.259	-1070
853.348	-371
853.438	-538
853.527	-441
853.617	-476
853.706	941
853.795	2557
853.885	8301
853.974	17790
854.063	33118
854.152	63684
854.242	34199
854.331	4209
854.420	219
854.509	-536
854.598	273
854.687	-545
854.777	-381
854.866	-1080
854.955	244
855.044	-1092
855.133	-291
855.222	-1201
855.311	-968
855.400	-133
855.488	-1357
855.577	-322
855.666	-333
855.755	-111
855.844	-87
855.933	-752
856.021	-17
856.110	-480
856.199	-741
856.288	-726
856.376	-1335
856.465	-1422
856.554	-290
856.642	-837
856.731	-301
856.819	-1302
856.908	-937
856.996	-808
857.085	-197
857.173	-800
857.262	-122
857.350	271
857.438	-1106
857.527	131
857.615	-1134
857.703	-895
857.792	-473
857.880	-1090
857.968	-508
858.056	-314
858.145	19
858.233	-642
858.321	-253
858.409	-440
858.497	-820
858.585	-1749
858.673	-725
858.761	-1329
858.849	-836
858.937	-960
859.025	-945
859.113	-488
859.201	-1616
859.289	-647
859.377	-654
859.465	-452
859.552	-371
859.640	-1996
859.728	-480
859.816	-809
859.903	-331
859.991	-928
860.079	-667
860.166	-799
860.254	-703
860.342	-602
860.429	-1450
860.517	-999
860.604	-297
860.692	-480
860.779	-643
860.867	-1454
860.954	-1078
861.042	-817
861.129	-570
861.216	-489
861.304	-1696
861.391	-1283
861.478	-910
861.565	-615
861.653	474
861.740	-1329
861.827	-1193
861.914	381
862.001	-918
862.089	-627
862.176	-1029
862.263	-948
862.350	-665
862.437	-1385
862.524	-481
862.611	-951
862.698	-628
862.785	-488
862.871	-982
862.958	-1353
863.045	-970
863.132	-526
863.219	-765
863.306	-1646
863.392	-685
863.479	-586
863.566	-289
863.652	-138
863.739	-844
863.826	-454
863.912	-799
863.999	-1899
864.086	-620
864.172	-653
864.259	-1378
864.345	-1027
864.432	-493
864.518	-1179
864.604	33
864.691	-1394
864.777	-165
864.863	168
864.950	-148
865.036	-125
865.122	-158
865.209	-319
865.295	-141
865.381	-40
865.467	279
865.553	-36
865.639	192
865.726	1726
865.812	3675
865.898	9050
865.984	13096
866.070	23309
866.156	35607
866.242	12154
866.328	1014
866.414	106
866.499	100
866.585	-254
866.671	644
866.757	-612
866.843	468
866.928	-47
867.014	-170
867.100	-362
867.186	212
867.271	-243
867.357	84
867.442	-400
867.528	690
867.614	-468
867.699	245
867.785	603
867.870	480
867.956	791
868.041	833
868.127	-397
868.212	163
868.297	312
868.383	-140
868.468	423
868.553	1104
868.639	785
868.724	1324
868.809	2204
868.894	-272
868.979	41
869.065	-131
869.150	-946
869.235	-234
869.320	-1099
869.405	-79
869.490	-999
869.575	-757
869.660	-370
869.745	-736
869.830	-1089
869.915	-1026
870.000	-168
870.085	-760
870.169	-710
870.254	437
870.339	-747
870.424	-1320
870.509	-582
870.593	-913
870.678	-223
870.763	-405
870.847	-20
870.932	-1293
871.016	-507
871.101	-133
871.186	-1493
871.270	241
871.355	-984
871.439	-802
871.523	-368
871.608	-405
871.692	-437
871.777	-142
871.861	-485
871.945	-793
872.030	-341
872.114	-1181
872.198	-770
872.282	-832
872.367	-726
872.451	-766
872.535	-954
872.619	-1041
872.703	-1142
872.787	-766
872.871	-113
872.955	-819
873.039	-687
873.123	-690
873.207	-98
873.291	-1077
873.375	-1588
873.459	-771
873.543	-638
873.627	-1214
873.711	-781
873.794	-410
873.878	-866
873.962	-598
874.045	-354
874.129	-411
874.137	-436
874.213	-685
874.245	-711
874.296	-751
874.352	-866
874.380	-926
874.460	95
874.464	136
874.547	-1107
874.568	-908
874.631	-326
874.676	-358
874.714	-394
874.784	-84
874.798	-18
874.881	-409
874.892	-575
874.965	-1732
874.999	-1267
875.048	-666
875.107	-235
875.131	-27
875.215	264
875.215	264
875.298	-125
875.323	-414
875.381	-1127
875.430	-506
875.465	-52
875.538	-479
875.548	-534
875.631	-828
875.646	-722
875.714	-292
875.753	-297
875.798	-292
875.861	-1130
875.881	-1381
875.964	-415
875.968	-432
876.047	-727
876.076	-572
876.130	-257
876.183	-457
876.213	-600
876.291	-215
876.296	-184
876.379	-626
876.398	-509
876.462	-144
876.506	-98
876.545	-56
876.613	127
876.628	153
876.711	-648
876.721	-578
876.794	130
876.828	-171
876.877	-777
876.935	-401
876.960	-118
877.043	-73
877.043	-71
877.125	182
877.150	116
877.208	116
877.258	44
877.291	-96
877.365	64
877.374	107
877.456	448
877.472	519
877.539	696
877.579	442
877.622	260
877.687	52
877.704	-25
877.787	488
877.794	432
877.869	-243
877.901	-146
877.952	70
878.008	306
878.034	452
878.115	13
878.117	3
878.199	130
878.222	118
878.282	312
878.329	523
878.364	554
878.437	146
878.447	116
878.529	-10
878.544	67
878.611	118
878.651	-309
878.694	-481
878.758	384
878.776	552
878.858	544
878.865	525
878.941	261
878.972	-18
879.023	-360
879.078	6
879.105	241
879.185	690
879.187	692
879.269	156
879.292	103
879.351	223
879.399	-146
879.433	-344
879.506	280
879.516	358
879.598	574
879.613	543
879.680	38
879.720	211
879.762	650
879.827	245
879.844	83
879.926	116
879.933	69
880.007	-331
880.040	-346
880.089	-236
880.147	-10
880.171	136
880.253	1119
880.254	1120
880.335	1515
880.360	1637
880.417	2748
880.467	3750
880.499	4243
880.574	6503
880.580	6534
880.662	2666
880.680	2075
880.744	702
880.787	589
880.825	753
880.893	541
880.907	465
880.989	530
881.000	486
881.070	463
881.106	286
881.152	62
881.213	-85
881.233	-106
881.315	155
881.319	177
881.396	726
881.426	756
881.478	548
881.532	580
881.559	743
881.639	725
881.641	723
881.722	648
881.745	636
881.803	614
881.852	575
881.885	658
881.958	510
881.966	462
882.047	393
882.064	390
882.129	670
882.171	730
882.210	947
882.277	1413
882.291	1463
882.372	1538
882.383	1450
882.454	573
882.489	607
882.535	757
882.596	442
882.616	369
882.697	547
882.702	531
882.778	586
882.808	671
882.859	673
882.914	683
882.940	632
883.020	334
883.021	343
883.102	645
883.127	820
883.183	769
883.233	679
883.264	670
883.339	541
883.345	547
883.426	378
883.445	460
883.507	988
883.551	1006
883.587	833
883.657	772
883.668	825
883.749	1249
883.763	1215
883.830	632
883.869	655
883.910	802
883.975	957
883.991	1060
884.072	691
884.081	721
884.152	620
884.187	516
884.233	632
884.292	956
884.314	1026
884.394	814
884.398	802
884.475	658
884.504	689
884.555	1045
884.610	1287
884.636	1216
884.716	686
884.716	694
884.797	1210
884.821	1242
884.877	1020
884.927	754
884.958	699
885.033	778
885.038	788
885.118	816
885.139	786
885.199	780
885.244	893
885.279	1161
885.350	1499
885.359	1463
885.439	1097
885.456	1027
885.520	1166
885.561	1127
885.600	987
885.667	1033
885.680	1006
885.760	681
885.773	616
885.840	767
885.878	825
885.920	1044
885.984	1312
886.000	1345
886.080	1508
886.089	1522
886.160	1550
886.195	1579
886.240	1610
886.300	1664
886.320	1770
886.400	1918
886.406	1923
886.480	1552
886.511	1466
886.560	1841
886.616	2062
886.640	1893
886.720	1248
886.722	1226
886.800	1394
886.827	1448
886.879	1402
886.932	1216
886.959	1227
887.038	1426
887.039	1438
887.119	1535
887.143	1627
887.198	1761
887.248	1692
887.278	1600
887.354	1494
887.358	1519
887.437	1728
887.459	1816
887.517	1657
887.564	1507
887.596	1623
887.669	1748
887.676	1713
887.755	1108
887.774	1032
887.835	1502
887.880	1736
887.914	1696
887.985	1521
887.994	1547
888.073	1754
888.090	1806
888.153	1671
888.195	1519
888.232	1427
888.300	1208
888.311	1289
888.391	1918
888.405	2012
888.470	1869
888.510	1734
888.549	1789
888.615	1929
888.628	1893
888.708	1588
888.720	1535
888.787	1922
888.825	2104
888.866	1979
888.930	1848
888.945	1880
889.024	1945
889.035	1943
889.103	2272
889.140	2448
889.182	2206
889.245	1806
889.261	1885
889.340	2228
889.349	2257
889.419	2443
889.454	2533
889.498	2096
889.559	1445
889.577	1629
889.656	2420
889.664	2490
889.735	2859
889.768	3018
889.814	2827
889.873	2549
889.978	1751
890.083	1502
890.187	2435
890.292	3062
890.397	2048
890.501	3070
890.606	1544
890.710	2088
890.815	1783
890.919	2102
891.024	2613
891.128	2678
891.233	2451
891.337	2723
891.442	2773
891.546	2202
891.650	2205
891.755	2399
891.859	2457
891.963	2249
892.068	1771
892.172	1567
892.276	1816
892.380	2155
892.484	1517
892.589	1819
892.693	2553
892.797	1391
892.901	1069
893.005	1462
893.109	1468
893.213	1808
893.317	2450
893.421	1679
893.525	2284
893.629	1324
893.733	2078
893.837	1617
893.941	2077
894.045	2448
894.148	3452
894.252	8916
894.356	6409
894.460	1766
894.564	2282
894.667	1078
894.771	1561
894.875	1621
894.978	2577
895.082	1234
895.186	1765
895.289	2043
895.393	1598
895.496	1457
895.600	733
895.703	1267
895.807	1445
895.910	1890
896.014	756
896.117	1965
896.221	2068
896.324	1678
896.427	1272
896.531	1291
896.634	1498
896.737	240
896.840	1771
896.944	1787
897.047	1804
897.150	1545
897.253	1388
897.356	1595
897.460	1471
897.563	1784
897.666	1665
897.769	2406
897.872	2205
897.975	1199
898.078	1427
898.181	1831
898.284	1198
898.387	1944
898.490	1849
898.593	1026
898.695	1662
898.798	1313
898.901	1535
899.004	1706
899.107	1693
899.209	1021
899.312	1151
899.415	1310
899.518	1558
899.620	1255
899.723	1603
899.826	1970
899.928	2257
900.031	1757
900.133	1454
900.236	1750
900.338	1610
900.441	1274
900.543	1628
900.646	867
900.748	1645
900.851	2012
900.953	1493
901.055	1270
901.158	1514
901.260	896
901.362	1415
901.465	1856
901.567	1632
901.669	1277
901.771	1656
901.873	956
901.976	2228
902.078	1346
902.180	1057
902.282	864
902.384	1839
902.486	1779
902.588	1464
902.690	1678
902.792	1621
902.894	1483
902.996	624
903.098	1310
903.200	1683
903.302	1447
903.404	1341
903.505	803
903.607	378
903.709	1026
903.811	1665
903.913	1260
904.014	1339
904.116	1170
904.218	1322
904.319	1572
904.421	1746
904.523	1428
904.624	1624
904.726	1086
904.827	1291
904.929	1715
905.030	1739
905.132	1027
905.233	1897
905.335	711
905.436	1313
905.537	717
905.639	1488
905.740	634
905.841	1214
905.943	1399
906.044	925
906.145	954
906.247	1456
906.348	1183
906.449	1831
906.550	873
906.651	1309
906.752	1612
906.854	1669
906.955	1666
907.056	1268
907.157	1203
907.258	1622
907.359	1098
907.460	1499
907.561	492
907.662	791
907.762	1202
907.863	774
907.964	1231
908.065	1182
908.166	1489
908.267	1274
908.367	966
908.468	1304
908.569	838
908.670	1794
908.770	1631
908.871	1877
908.971	2007
909.072	997
909.173	385
909.273	1763
909.374	1066
909.474	2073
909.575	998
909.675	619
909.776	2208
909.876	1352
909.977	971
910.077	1887
910.177	1102
910.278	1299
910.378	1119
910.478	1382
910.579	1330
910.679	502
910.779	1354
910.879	1357
910.980	1455
911.080	1212
911.180	853
911.280	927
911.380	378
911.480	473
911.580	967
911.680	1099
911.780	1105
911.880	1328
911.980	1039
912.080	1353
912.180	1084
912.280	1686
912.380	1224
912.480	1823
912.580	1048
912.679	799
912.779	1343
912.879	1188
912.979	934
913.078	772
913.178	1075
913.278	1379
913.377	84
913.477	1329
913.577	384
913.676	1421
913.776	1298
913.875	1634
913.975	788
914.074	804
914.174	854
914.273	353
914.373	840
914.472	1672
914.572	395
914.671	1876
914.770	752
914.870	1040
914.969	1082
915.068	1317
915.167	1195
915.267	1418
915.366	819
915.465	494
915.564	800
915.663	1313
915.763	931
915.862	1344
915.961	593
916.060	1287
916.159	525
916.258	1109
916.357	622
916.456	824
916.555	798
916.654	691
916.752	954
916.851	1507
916.950	1600
917.049	504
917.148	1280
917.247	2264
917.345	589
917.444	991
917.543	710
917.642	1210
917.740	1402
917.839	1353
917.937	1281
918.036	1085
918.135	1094
918.233	1137
918.332	569
918.430	1519
918.529	977
918.627	668
918.726	411
918.824	1078
918.923	1100
919.021	680
919.119	629
919.218	1191
919.316	405
919.414	947
919.512	1185
919.611	1012
919.709	1244
919.807	1710
919.905	827
920.003	1556
920.102	753
920.200	1404
920.298	787
920.396	657
920.494	1176
920.592	1518
920.690	1322
920.788	1312
920.886	678
920.984	816
921.082	1086
921.180	894
921.277	1167
921.375	1336
921.473	947
921.571	1201
921.669	1112
921.766	1942
921.864	1495
921.962	1828
922.060	1401
922.157	1593
922.255	2263
922.352	1576
922.450	1287
922.548	1847
922.645	1360
922.743	1470
922.840	2065
922.938	3217
923.035	2746
923.133	2533
923.230	2250
923.327	3313
923.425	3425
923.522	3367
923.619	2467
923.717	3079
923.814	2392
923.911	2582
924.008	3210
924.106	2213
924.203	2643
924.300	2367
924.397	1827
924.494	2126
924.591	2278
924.688	3003
924.786	2296
924.883	2106
924.979	3308
925.077	2398
925.173	1976
925.270	2855
925.367	1673
925.464	2330
925.561	2726
925.658	3326
925.755	1694
925.852	3355
925.948	1929
926.045	3250
926.142	1919
926.239	2276
926.335	2479
926.432	3254
926.529	1772
926.625	3028
926.722	2469
926.818	2137
926.915	2476
927.011	2107
927.108	1593
927.204	2539
927.301	2006
927.397	2020
927.494	1207
927.590	2087
927.687	1939
927.783	2106
927.879	2524
927.976	1652
928.072	1559
928.168	2293
928.264	1920
928.361	1564
928.457	3073
928.553	1842
928.649	1486
928.745	2250
928.841	2277
928.937	2110
929.033	1892
929.129	1549
929.225	1140
929.321	2300
929.417	1685
929.513	2196
929.609	2228
929.705	1668
929.801	2233
929.897	2370
929.993	2179
930.089	2388
930.184	1391
930.280	1768
930.376	2960
930.471	2138
930.567	2166
930.663	1961
930.758	1536
930.854	1422
930.950	877
931.045	2085
931.141	1626
931.236	2363
931.332	2836
931.427	1981
931.523	1916
931.618	1825
931.714	1358
931.809	2822
931.905	1493
932.000	1177
932.095	1581
932.191	2464
932.286	2445
932.381	2308
932.476	954
932.572	1228
932.667	2256
932.762	1536
932.857	1298
932.952	2023
933.047	2164
933.142	1156
933.237	1378
933.332	1653
933.427	1459
933.522	1828
933.617	1277
933.712	1998
933.807	1849
933.902	1405
933.997	1792
934.092	1992
934.187	319
934.282	1986
934.376	1524
934.471	1742
934.566	2086
934.661	1408
934.755	1318
934.850	2147
934.945	2384
935.039	1590
935.134	2508
935.228	1147
935.323	1807
935.417	2256
935.512	1483
935.606	1597
935.701	1194
935.795	1650
935.890	1863
935.984	2155
936.079	678
936.173	2570
936.267	1718
936.362	1657
936.456	1832
936.550	1688
936.644	1116
936.738	1563
936.833	1984
936.927	1580
937.021	1854
937.115	1699
937.209	929
937.303	1388
937.397	1063
937.491	1615
937.585	1814
937.679	1837
937.773	1128
937.867	998
937.961	1808
938.055	1032
938.149	2104
938.243	1552
938.337	1271
938.430	1416
938.524	1874
938.618	2113
938.712	1845
938.805	2146
938.899	1832
938.993	1571
939.086	1421
939.180	1882
939.274	2523
939.367	1751
939.461	1600
939.554	821
939.648	1048
939.741	2021
939.835	1845
939.928	1677
940.022	2155
940.115	1113
940.208	1858
940.302	1533
940.395	1385
940.488	921
940.582	1594
940.675	293
940.768	1295
940.861	377
940.954	1773
941.048	877
941.141	1017
941.234	1195
941.327	1596
941.420	1717
941.513	1150
941.606	1317
941.699	977
941.792	864
941.885	978
941.978	1552
942.071	1810
942.164	1653
942.257	237
942.349	1969
942.442	1256
942.535	1098
942.628	1367
942.721	1643
942.813	762
942.906	1526
942.999	370
943.091	1009
943.184	1524
943.277	275
943.369	1755
943.462	595
943.554	907
943.647	1454
943.739	744
943.832	1631
943.924	861
944.017	1260
944.109	698
944.201	1336
944.294	957
944.386	1378
944.478	1417
944.571	778
944.663	1216
944.755	1538
944.847	1000
944.940	1600
945.032	1161
945.124	276
945.216	1116
945.308	1480
945.400	1242
945.492	892
945.584	1290
945.676	1494
945.768	895
945.860	1355
945.952	1213
946.044	1507
946.136	747
946.228	522
946.320	1619
946.412	761
946.503	1041
946.595	1992
946.687	1502
946.779	1206
946.870	560
946.962	1127
947.054	1045
947.145	1143
947.237	850
947.329	956
947.420	946
947.512	949
947.603	636
947.695	603
947.786	459
947.878	962
947.969	57
948.061	489
948.152	570
948.243	956
948.335	548
948.426	1521
948.517	401
948.609	1620
948.700	1449
948.791	1310
948.882	-290
948.973	268
949.065	817
949.156	1484
949.247	265
949.338	870
949.429	313
949.520	1184
949.611	880
949.702	720
949.793	756
949.884	1329
949.975	28
950.066	551
950.157	1454
950.247	650
950.338	701
950.429	1054
950.520	1087
950.611	845
950.701	720
950.792	1140
950.883	1690
950.973	1450
951.064	825
951.155	311
951.245	691
951.336	770
951.427	155
951.517	998
951.608	608
951.698	460
951.788	1356
951.879	1216
951.969	352
952.060	882
952.150	691
952.240	731
952.331	86
952.421	2233
952.511	-75
952.602	833
952.692	32
952.782	378
952.872	251
952.962	1675
953.052	493
953.143	1118
953.233	699
953.323	928
953.413	386
953.503	868
953.593	664
953.683	668
953.773	152
953.863	725
953.953	692
954.042	1489
954.132	1215
954.222	396
954.312	426
954.402	627
954.492	850
954.581	962
954.671	551
954.761	660
954.850	1768
954.940	806
955.030	1017
955.119	-130
955.209	514
955.298	288
955.388	1000
955.477	1196
955.567	12
955.656	547
955.746	1044
955.835	1288
955.925	428
956.014	230
956.103	478
956.193	1543
956.282	1359
956.371	1927
956.461	898
956.550	521
956.639	942
956.728	559
956.817	86
956.906	876
956.995	1331
957.085	509
957.174	420
957.263	612
957.352	326
957.441	867
957.530	638
957.619	988
957.708	386
957.796	1793
957.885	1393
957.974	517
958.063	224
958.152	884
958.241	1017
958.329	1042
958.418	817
958.507	1243
958.596	1221
958.684	748
958.773	1369
958.861	1235
958.950	916
959.039	1710
959.127	1370
959.216	2218
959.304	1599
959.393	1388
959.481	776
959.570	907
959.658	1757
959.746	2218
959.835	753
959.923	1896
960.011	1225
960.100	1402
960.188	1372
960.276	1065
960.365	749
960.453	601
960.541	645
960.629	1780
960.717	1648
960.805	983
960.893	864
960.981	768
961.069	1193
961.158	815
961.245	1097
961.333	49
961.421	140
961.509	1205
961.597	805
961.685	279
961.773	366
961.861	396
961.949	505
962.036	900
962.124	384
962.212	-373
962.299	455
962.387	212
962.475	488
962.562	1412
962.650	473
962.738	453
962.825	824
962.913	325
963.000	-356
963.088	204
963.175	455
963.263	339
963.350	457
963.438	-535
963.525	1014
963.612	1768
963.700	2313
963.787	4310
963.874	1858
963.962	439
964.049	420
964.136	687
964.223	-57
964.310	353
964.398	481
964.485	424
964.572	-263
964.659	1424
964.746	744
964.833	185
964.920	193
965.007	1261
965.094	134
965.181	-70
965.268	-247
965.355	833
965.441	-457
965.528	318
965.615	282
965.702	875
965.789	298
965.875	373
965.962	352
966.049	326
966.136	400
966.222	222
966.309	-258
966.395	260
966.482	998
966.569	-256
966.655	514
966.742	559
966.828	-137
966.915	-582
967.001	609
967.087	-378
967.174	384
967.260	862
967.347	1059
967.433	1504
967.519	2229
967.605	1167
967.692	-496
967.778	1236
967.864	-17
967.950	231
968.036	-485
968.123	291
968.209	-198
968.295	277
968.381	858
968.467	779
968.553	-552
968.639	980
968.725	-259
968.811	297
968.897	792
968.983	-190
969.069	-572
969.154	128
969.240	185
969.326	7
969.412	-71
969.497	-537
969.583	66
969.669	334
969.755	-396
969.840	-16
969.926	1079
970.012	195
970.097	1005
970.183	609
970.268	-163
970.354	194
970.439	667
970.525	1709
970.610	-384
970.696	550
970.781	-604
970.866	-414
970.952	-423
971.037	769
971.122	-437
971.208	572
971.293	905
971.378	-159
971.463	-327
971.549	214
971.634	-27
971.719	379
971.804	287
971.889	872
971.974	-85
972.059	-419
972.144	324
972.229	254
972.314	-154
972.399	379
972.484	-40
972.569	1796
972.654	-323
972.739	781
972.824	313
972.908	86
972.993	-311
973.078	80
973.163	-218
973.247	209
973.332	-1651
973.417	130
973.501	-20
973.586	97
973.671	-363
973.755	196
973.840	-330
973.924	171
974.009	-406
974.093	254
974.178	863
974.262	-392
974.346	1016
974.431	583
974.515	488
974.600	256
974.684	317
974.768	-530
974.852	202
974.937	-610
975.021	648
975.105	-89
975.189	39
975.273	787
975.358	-895
975.442	-513
975.526	175
975.610	-353
975.694	-621
975.778	485
975.862	260
975.946	-1347
976.030	274
976.114	-383
976.198	-758
976.281	-141
976.365	476
976.449	-319
976.533	-80
976.617	-885
976.700	170
976.784	-234
976.868	-1160
976.951	674
977.035	19
977.119	48
977.202	114
977.286	209
977.369	642
977.453	917
977.536	-370
977.620	-299
977.703	123
977.787	-657
977.870	739
977.953	856
978.037	-581
978.120	174
978.203	257
978.287	428
978.370	-209
978.453	324
978.536	5
978.620	917
978.703	767
978.786	-87
978.869	-687
978.952	-519
979.035	752
979.118	-735
979.201	-768
979.284	394
979.367	-635
979.450	210
979.533	-766
979.616	-752
979.699	-790
979.782	600
979.865	-1126
979.948	76
980.030	-815
980.113	442
980.196	-1363
980.279	4
980.361	-39
980.444	-559
980.526	239
980.609	-285
980.692	-218
980.774	-215
980.857	-1447
980.939	339
981.022	-81
981.104	-211
981.187	-932
981.269	-435
981.352	212
981.434	-402
981.516	92
981.599	347
981.681	-510
981.763	-1059
981.846	-581
981.928	-935
982.010	-439
982.092	-732
982.174	-551
982.256	-165
982.339	125
982.421	-333
982.503	-241
982.585	-239
982.667	-466
982.749	-170
982.831	-26
982.913	-95
982.995	-103
983.077	-387
983.158	-31
983.240	-825
983.322	-155
983.404	240
983.486	-400
983.568	96
983.649	-566
983.731	46
983.813	-1038
983.894	356
983.976	-762
984.058	37
984.139	-43
984.221	-985
984.302	-302
984.384	-409
984.465	-901
984.547	178
984.628	-1257
984.710	-584
984.791	107
984.872	-326
984.954	-574
985.035	-749
985.116	-352
985.198	56
985.279	-377
985.360	-290
985.441	-446
985.522	-249
985.604	-568
985.685	-795
985.766	48
985.847	-494
985.928	-517
986.009	100
986.090	-95
986.171	-281
986.252	-326
986.333	-927
986.414	-138
986.495	594
986.576	-757
986.656	-650
986.737	344
986.818	-667
986.899	-356
986.980	-1009
987.060	-148
987.141	-663
987.222	-220
987.302	339
987.383	-104
987.464	-108
987.544	-55
987.625	-333
987.705	-552
987.786	53
987.866	-949
987.947	203
988.027	-504
988.108	-247
988.188	-521
988.268	-103
988.349	-28
988.429	275
988.509	72
988.589	-953
988.670	-1292
988.750	8
988.830	-1021
988.910	-304
988.990	-693
989.070	-530
989.151	-791
989.231	-25
989.311	-602
989.391	198
989.471	72
989.551	-507
989.631	-332
989.711	596
989.791	-839
989.870	69
989.950	-152
990.030	-218
990.110	-493
990.190	-305
990.269	9
990.349	-200
990.429	-479
990.509	311
990.588	-372
990.668	-27
990.747	-429
990.827	-134
990.907	-681
990.986	-743
991.066	-26
991.145	-554
991.225	487
991.304	-512
991.383	-296
991.463	-447
991.542	-74
991.622	2
991.701	-404
991.780	-692
991.859	-80
991.939	-264
992.018	-411
992.097	-312
992.176	-1050
992.256	-1209
992.335	-1178
992.414	323
992.493	-940
992.572	-793
992.651	-484
992.730	-133
992.809	-608
992.888	-964
992.967	-738
993.046	161
993.125	-732
993.203	-465
993.282	-806
993.361	-445
993.440	-503
993.519	-397
993.597	-1310
993.676	-883
993.755	-223
993.834	-403
993.912	-770
993.991	27
994.069	-478
994.148	-1152
994.226	-379
994.305	-940
994.384	-1195
994.462	-188
994.540	-355
994.619	-37
994.697	-121
994.776	98
994.854	-302
994.932	-1104
995.011	-989
995.089	-186
995.167	-924
995.245	-102
995.324	-1013
995.402	-899
995.480	-1424
995.558	-1086
995.636	-1271
995.714	-827
995.792	-135
995.870	-745
995.948	-1166
996.026	-139
996.104	-1021
996.182	-154
996.260	-781
996.338	55
996.416	-1393
996.494	-1924
996.572	-399
996.649	-262
996.727	-1475
996.805	-257
996.883	-592
996.960	-896
997.038	-623
997.116	234
997.193	-1830
997.271	-862
997.348	-736
997.426	-950
997.504	-1373
997.581	-397
997.658	-577
997.736	-1037
997.813	-1376
997.891	-859
997.968	-532
998.046	-571
998.123	-685
998.200	-274
998.277	-676
998.355	540
998.432	-1845
998.509	-1041
998.586	-218
998.663	-348
998.741	-712
998.818	-543
998.895	-776
998.972	-396
999.049	-1266
999.126	-699
999.203	-527
999.280	-1176
999.357	-1251
999.434	-919
999.511	-525
999.587	-73
999.664	-1767
999.741	-356
999.818	-602
999.895	-1335
999.971	-1007
1000.048	-586
1000.125	-707
1000.202	-716
1000.278	-862
1000.355	-1124
1000.431	-437
1000.508	-988
1000.584	-1026
1000.661	-647
1000.738	-759
1000.814	-1324
1000.890	-183
1000.967	-669
1001.043	-364
1001.120	-1335
1001.196	-585
1001.272	-893
1001.349	-528
1001.425	-858
1001.501	-1309
1001.577	-685
1001.654	-1011
1001.730	-993
1001.806	-326
1001.882	-1678
1001.958	-712
1002.034	-1310
1002.110	-459
1002.186	-849
1002.262	-484
1002.338	-1469
1002.414	-1151
1002.490	-1069
1002.566	-1290
1002.642	-791
1002.718	-764
1002.794	-1403
1002.870	-236
1002.945	-854
1003.021	-1311
1003.097	-688
1003.173	-426
1003.248	-1124
1003.324	-449
1003.400	-483
1003.475	-1603
1003.551	-492
1003.626	-1075
1003.702	-829
1003.777	-823
1003.853	-1746
1003.928	-1544
1004.004	-633
1004.079	-484
1004.155	-1074
1004.230	-1339
1004.305	-841
1004.381	-951
1004.456	-1040
1004.531	-1289
1004.607	-645
1004.682	-1150
1004.757	-647
1004.832	-668
1004.907	-380
1004.982	-1543
1005.057	-568
1005.133	-1491
1005.208	-1002
1005.283	-774
1005.358	-553
1005.433	-1455
1005.508	-1442
1005.583	-1895
1005.657	-1201
1005.732	-884
1005.807	-1349
1005.882	-1048
1005.957	-788
1006.032	-1533
1006.106	-1618
1006.181	-960
1006.256	-1711
1006.331	-1512
1006.405	-1591
1006.480	-1277
1006.554	-1847
1006.629	-1470
1006.704	-547
1006.778	-1033
1006.853	-848
1006.927	-1144
1007.002	-821
1007.076	-1213
1007.150	-1191
1007.225	-1730
1007.299	-763
1007.373	-2216
1007.448	-761
1007.522	-1135
1007.596	-869
1007.671	-1570
1007.745	-1193
1007.819	-2144
1007.893	-1513
1007.967	-1196
1008.041	-2182
1008.115	-462
1008.190	-976
1008.264	-1397
1008.338	-1353
1008.412	-1274
1008.486	-413
1008.560	-1939
1008.633	-983
1008.707	-1137
1008.781	-1440
1008.855	-1407
1008.929	-765
1009.003	-1629
1009.076	-1322
1009.150	-1638
1009.224	-36
1009.298	-1367
1009.371	-547
1009.445	-935
1009.519	-1374
1009.592	-1727
1009.666	-1629
1009.739	-1337
1009.813	-1959
1009.886	-1315
1009.960	-1952
1010.033	-932
1010.107	-1013
1010.180	-2050
1010.253	-1244
1010.327	-1140
1010.400	-1544
1010.473	-1746
1010.547	-773
1010.620	-1619
1010.693	-882
1010.766	-875
1010.840	-1258
1010.913	-1641
1010.986	-1462
1011.059	-1845
1011.132	-1362
1011.205	-1348
1011.278	-1265
1011.351	-1831
1011.424	-1549
1011.497	-1318
1011.570	-1588
1011.643	-1261
1011.716	-1343
1011.789	-856
1011.862	-907
1011.934	-1269
1012.007	-2009
1012.080	-1208
1012.153	-556
1012.225	-661
1012.298	-1205
1012.371	-1608
1012.443	-1122
1012.516	-1195
1012.588	-1304
1012.661	-1541
1012.733	-1826
1012.806	-1270
1012.879	-1253
1012.951	-1213
1013.023	-932
1013.096	-1753
1013.168	-1818
1013.241	-800
1013.313	-1844
1013.385	-2122
1013.458	-1515
1013.530	-1274
1013.602	-1490
1013.674	-1651
1013.746	-1418
1013.819	-2030
1013.891	-1158
1013.963	-2348
1014.035	-1098
1014.107	-1634
1014.179	-1301
1014.251	-2091
1014.323	-840
1014.395	-1300
1014.467	-1381
1014.539	-1511
1014.611	-2161
1014.683	-1370
1014.754	-1542
1014.826	-1742
1014.898	-1876
1014.970	-2078
1015.042	-720
1015.113	-1834
1015.185	-1301
1015.257	-2054
1015.328	-1991
1015.400	-1626
1015.471	-1848
1015.543	-3172
1015.615	-1621
1015.686	-2024
1015.757	-820
1015.829	-1349
1015.901	-1401
1015.972	-1803
1016.043	-1517
1016.115	-1773
1016.186	-970
1016.257	-2145
1016.328	-1666
1016.400	-1237
1016.471	-1977
1016.542	-1674
1016.613	-875
1016.685	-1302
1016.756	-1228
1016.827	-1448
1016.898	-2706
1016.969	-1367
1017.040	-2351
1017.111	-2031
1017.182	-1844
1017.253	-2544
1017.324	-1853
1017.395	-1200
1017.466	-1762
1017.537	-1727
1017.608	-1683
1017.678	-1858
1017.749	-1696
1017.820	-2200
1017.891	-2436
1017.961	-1711
1018.032	-1545
1018.103	-1526
1018.173	-1095
1018.244	-2115
1018.315	-1527
1018.385	-1835
1018.456	-1721
1018.526	-2099
1018.597	-1482
1018.667	-1767
1018.738	-1828
1018.808	-1871
1018.878	-2051
1018.949	-1666
1019.019	-1449
1019.089	-2140
1019.160	-1490
1019.230	-2252
1019.300	-1486
1019.371	-2017
1019.441	-1711
1019.511	-1679
1019.581	-1684
1019.651	-736
1019.721	-1971
1019.791	-1634
1019.861	-1712
1019.931	-1174
1020.001	-1485
1020.071	-2012
1020.141	-2172
1020.211	-1340
1020.281	-2018
1020.351	-2661
1020.421	-1411
1020.491	-2018
1020.560	-2221
1020.630	-2993
1020.700	-957
1020.770	-2259
1020.839	-1613
1020.909	-2073
1020.979	-1760
1021.048	-1983
1021.118	-1906
1021.187	-1305
1021.257	-1943
1021.326	-1310
1021.396	-1845
1021.465	-1989
1021.535	-1520
1021.604	-2442
1021.674	-1741
1021.743	-1889
1021.812	-1649
1021.882	-1555
1021.951	-1066
1022.020	-1568
1022.089	-1671
1022.159	-2554
1022.228	-1180
1022.297	-1716
1022.366	-1553
1022.435	-1556
1022.504	-1992
1022.573	-1764
1022.642	-1484
1022.711	-2043
1022.781	-1641
1022.849	-1654
1022.918	-2075
1022.987	-2220
1023.056	-2371
1023.125	-1371
1023.194	-1719
1023.263	-1513
1023.331	-1898
1023.400	-2072
1023.469	-2122
1023.538	-1719
1023.606	-1897
1023.675	-1972
1023.744	-1105
1023.812	-2093
1023.881	-1490
1023.949	-2248
1024.018	-1413
1024.086	-1803
1024.155	-1677
1024.223	-1693
1024.292	-1324
1024.360	-2022
1024.429	-1559
1024.497	-2381
1024.565	-1478
1024.634	-1412
1024.702	-1224
1024.770	-2040
1024.838	-1716
1024.907	-987
1024.975	-1830
1025.043	-1769
1025.111	-1988
1025.179	-1686
1025.247	-2455
1025.315	-1960
1025.383	-1941
1025.451	-1235
1025.519	-1701
1025.587	-1833
1025.655	-2070
1025.723	-2450
1025.791	-1262
1025.859	-2027
1025.927	-1589
1025.995	-1947
1026.062	-1709
1026.130	-1689
1026.198	-2196
1026.266	-2408
1026.333	-1551
1026.401	-1395
1026.469	-1857
1026.536	-1171
1026.604	-1022
1026.671	-1596
1026.739	-1375
1026.806	-1640
1026.874	-940
1026.941	-2024
1027.009	-1552
1027.076	-1420
1027.144	-1174
1027.211	-2033
1027.278	-2138
1027.345	-1939
1027.413	-1364
1027.480	-2087
1027.547	-1519
1027.614	-2024
1027.682	-1020
1027.749	-1365
1027.816	-1357
1027.883	-2037
1027.950	-1186
1028.017	-2154
1028.084	-1330
1028.151	-1689
1028.218	-1917
1028.285	-1538
1028.352	-1857
1028.419	-1489
1028.486	-1389
1028.553	-1894
1028.619	-1599
1028.686	-1667
1028.753	-1103
1028.820	-2853
1028.886	-2076
1028.953	-1897
1029.020	-1685
1029.086	-2966
1029.153	-2122
1029.220	-1478
1029.286	-1420
1029.353	-1447
1029.419	-2054
1029.486	-1613
1029.552	-1454
1029.619	-1211
1029.685	-1074
1029.751	-2510
1029.818	-1499
1029.884	-2112
1029.951	-972
1030.017	-1639
1030.083	-1745
1030.149	-1114
1030.216	-1692
1030.282	-1448
1030.348	-1842
1030.414	-2314
1030.480	-2081
1030.546	-1506
1030.612	-702
1030.678	-1713
1030.744	-2185
1030.810	-1749
1030.876	-1517
1030.942	-2301
1031.008	-1066
1031.074	-1977
1031.140	-1084
1031.206	-142
1031.272	-1005
1031.337	-1012
1031.403	-1569
1031.469	-1838
1031.534	-1038
1031.600	-1196
1031.666	-1304
1031.731	-2425
1031.797	-1951
1031.863	-1682
1031.928	-272
1031.994	-1928
1032.059	-2043
1032.125	-1630
1032.190	-1452
1032.256	-2023
1032.321	-1723
1032.386	-1534
1032.452	-234
1032.517	-2146
1032.582	-1436
1032.647	-1588
1032.713	-1233
1032.778	-1508
1032.843	-1614
1032.908	-1443
1032.974	-1755
1033.039	-1823
1033.104	-679
1033.169	-1639
1033.234	-1084
1033.299	-1958
1033.364	-1076
1033.429	-2017
1033.494	-1278
1033.559	-2228
1033.624	-1763
1033.688	-1038
1033.753	-1436
1033.818	-2352
1033.883	-770
1033.948	-1677
1034.013	-1077
1034.077	-2004
1034.142	-1692
1034.207	-1216
1034.271	-431
1034.336	-878
1034.400	-418
1034.465	-1323
1034.530	-721
1034.594	-1408
1034.658	-1842
1034.723	-2029
1034.787	-1662
1034.852	-1837
1034.916	-1555
1034.981	-1862
1035.045	-1265
1035.109	-1442
1035.173	-1435
1035.238	-2105
1035.302	-1001
1035.366	-1125
1035.430	-1414
1035.495	-2118
1035.559	-1670
1035.623	-2459
1035.687	-1812
1035.751	-1664
1035.815	-1635
1035.879	-2196
1035.943	-1286
1036.007	-1886
1036.071	-1828
1036.135	-1460
1036.198	-1183
1036.262	-2273
1036.326	-1625
1036.390	-2006
1036.454	-1049
1036.517	-1651
1036.581	-1830
1036.645	-1056
1036.709	-1302
1036.772	-1390
1036.836	-706
1036.900	-1515
1036.963	-2044
1037.026	-2207
1037.090	-1839
1037.154	-1426
1037.217	-2135
1037.280	-2034
1037.344	-1545
1037.407	-1613
1037.471	-1927
1037.534	-2952
1037.597	-1918
1037.661	-1691
1037.724	-1134
1037.787	-2109
1037.850	-1797
1037.913	-1520
1037.977	-1515
1038.040	-1631
1038.103	-2112
1038.166	-2198
1038.229	-1597
1038.292	-2527
1038.355	-1767
1038.418	-2061
1038.481	-541
1038.544	-1758
1038.607	-1157
1038.670	-1923
1038.732	-1586
1038.795	-2662
1038.858	-1294
1038.921	-2173
1038.984	-1538
1039.046	-2372
1039.109	-2149
1039.172	-1087
1039.234	-1963
1039.297	-1946
1039.360	-2187
1039.422	-1424
1039.485	-1273
1039.547	-1881
1039.610	-1811
1039.672	-1919
1039.734	-1250
1039.797	-1600
1039.859	-1505
1039.922	-1507
1039.984	-1345
1040.046	-2162
1040.109	-2313
1040.171	-1369
1040.233	-1668
1040.295	-2895
1040.358	-1857
1040.420	-1360
1040.482	-1453
1040.544	-1905
1040.606	-2478
1040.668	-2275
1040.730	-2305
1040.792	-2377
1040.854	-1436
1040.916	-1592
1040.978	-1336
1041.040	-1304
1041.102	-1348
1041.164	-2233
1041.225	-1637
1041.287	-2423
1041.349	-2062
1041.411	-2617
1041.472	-1215
1041.534	-2044
1041.596	-2147
1041.657	-2176
1041.719	-1705
1041.781	-2720
1041.842	-1503
1041.904	-2428
1041.965	-1315
1042.027	-2032
1042.088	-1597
1042.150	-2193
1042.211	-1206
1042.272	-1785
1042.334	-1970
1042.395	-2034
1042.456	-2213
1042.518	-1513
1042.579	-1278
1042.640	-2017
1042.701	-2342
1042.763	-2488
1042.824	-1255
1042.885	-1554
1042.946	-1795
1043.007	-1741
1043.068	-1586
1043.129	-1665
1043.190	-1106
1043.251	-2039
1043.312	-1222
1043.373	-2135
1043.434	-2486
1043.495	-2052
1043.556	-945
1043.616	-2166
1043.677	-2114
1043.738	-1242
1043.799	-2465
1043.859	-1311
1043.920	-2251
1043.981	-1792
1044.041	-1832
1044.102	-2132
1044.162	-1827
1044.223	-2268
1044.284	-1600
1044.344	-2032
1044.405	-1649
1044.465	-1818
1044.525	-2082
1044.586	-2439
1044.646	-960
1044.707	-1575
1044.767	-1686
1044.827	-1846
1044.887	-2167
1044.948	-1768
1045.008	-1761
1045.068	-1499
1045.128	-1480
1045.188	-2077
1045.249	-1790
1045.309	-1579
1045.369	-1740
1045.429	-2701
1045.489	-2040
1045.549	-1760
1045.609	-981
1045.669	-2339
1045.729	-1314
1045.789	-1818
1045.848	-1909
1045.908	-1850
1045.968	-1409
1046.028	-1257
1046.088	-844
1046.147	-2140
1046.207	-1573
1046.267	-1654
1046.326	-1076
1046.386	-1194
1046.446	-979
1046.505	-1474
1046.565	-962
1046.624	-1455
1046.684	-782
1046.743	-1549
1046.803	-348
1046.862	-500
1046.922	0
