'Start Wavelength	183.907
'End Wavelength	1046.922
'Gate Delay	5.000
'Gate Width (ms)	1.050
'Laser Output Level	0.000
'X Position	0.000
'Y Position	0.000
'Z Position	0.000
'Grid Point Number	1.000
'Shot Number	100.000
183.907	872.000
183.977	10.000
184.047	382
184.116	81
184.186	-89
184.256	848
184.325	43
184.395	-106
184.465	-82
184.534	472
184.604	496
184.674	98
184.743	209
184.813	424
184.883	-88
184.952	23
185.022	512
185.092	-264
185.161	204
185.231	284
185.301	-89
185.370	442
185.440	310
185.509	-354
185.579	776
185.649	855
185.718	639
185.788	-16
185.857	-60
185.927	-359
185.996	18
186.066	307
186.136	266
186.205	658
186.275	667
186.344	18
186.414	208
186.483	-662
186.553	504
186.622	1296
186.692	317
186.761	-16
186.831	301
186.900	488
186.970	234
187.039	-393
187.109	772
187.178	1
187.248	421
187.317	180
187.387	-285
187.456	754
187.526	-270
187.595	541
187.664	935
187.734	-406
187.803	-606
187.873	202
187.942	738
188.012	173
188.081	338
188.150	482
188.220	1275
188.289	328
188.358	529
188.428	-247
188.497	118
188.567	-124
188.636	-230
188.705	115
188.775	680
188.844	-372
188.913	592
188.983	319
189.052	116
189.121	304
189.191	-195
189.260	752
189.329	419
189.399	89
189.468	-208
189.537	341
189.606	2
189.676	206
189.745	988
189.814	1072
189.883	441
189.953	274
190.022	966
190.091	1419
190.161	1549
190.230	803
190.299	446
190.368	-160
190.437	449
190.507	31
190.576	412
190.645	-292
190.714	-148
190.783	128
190.853	163
190.922	830
190.991	600
191.060	244
191.129	769
191.198	-198
191.268	-19
191.337	-118
191.406	587
191.475	166
191.544	618
191.613	346
191.682	409
191.752	603
191.821	-107
191.890	-365
191.959	634
192.028	479
192.097	380
192.166	219
192.235	755
192.304	444
192.373	33
192.442	598
192.511	364
192.580	-45
192.650	347
192.719	66
192.788	775
192.857	327
192.926	227
192.995	467
193.064	1930
193.133	1485
193.202	1207
193.271	1619
193.340	1357
193.409	940
193.478	1237
193.547	1414
193.615	1539
193.684	1695
193.753	1096
193.822	1262
193.891	1430
193.960	643
194.029	-62
194.098	728
194.167	1071
194.236	-236
194.305	502
194.374	76
194.443	-51
194.512	650
194.580	823
194.649	-142
194.718	452
194.787	763
194.856	272
194.925	431
194.994	532
195.062	587
195.131	109
195.200	688
195.269	1252
195.338	569
195.407	1327
195.475	225
195.544	778
195.613	836
195.682	890
195.751	266
195.819	496
195.888	885
195.957	1365
196.026	784
196.094	917
196.163	1071
196.232	1168
196.301	248
196.369	1318
196.438	1331
196.507	845
196.576	305
196.644	792
196.713	722
196.782	399
196.850	770
196.919	1079
196.988	623
197.056	563
197.125	593
197.194	-121
197.262	696
197.331	1236
197.400	173
197.468	387
197.537	234
197.606	730
197.674	1106
197.743	3166
197.812	1453
197.880	3033
197.949	931
198.017	2309
198.086	1639
198.155	1217
198.223	1123
198.292	3064
198.360	1366
198.429	675
198.497	1274
198.566	2525
198.635	3238
198.703	2054
198.772	1631
198.840	3433
198.909	3228
198.977	1407
199.046	1296
199.114	401
199.183	717
199.251	854
199.320	727
199.388	1281
199.457	71
199.525	1170
199.594	870
199.662	288
199.731	476
199.799	633
199.867	967
199.936	790
200.004	856
200.073	1345
200.141	399
200.210	540
200.278	510
200.346	1251
200.415	1492
200.483	528
200.552	1367
200.620	1107
200.688	-270
200.757	974
200.825	710
200.893	354
200.962	733
201.030	453
201.098	281
201.167	541
201.235	206
201.303	855
201.372	563
201.440	1028
201.508	1031
201.577	252
201.645	347
201.713	900
201.781	607
201.850	1242
201.918	470
201.986	606
202.055	546
202.123	697
202.191	378
202.259	425
202.327	307
202.396	1248
202.464	279
202.532	1417
202.600	3137
202.669	1024
202.737	577
202.805	512
202.873	362
202.941	1624
203.009	-304
203.078	1233
203.146	455
203.214	583
203.282	-153
203.350	929
203.418	486
203.487	1103
203.555	874
203.623	671
203.691	772
203.759	229
203.827	312
203.895	1270
203.963	-150
204.031	606
204.099	737
204.168	713
204.236	518
204.304	1289
204.372	760
204.440	853
204.508	832
204.576	519
204.644	535
204.712	-207
204.780	504
204.848	686
204.916	373
204.984	472
205.052	437
205.120	1029
205.188	687
205.256	1173
205.324	235
205.392	286
205.460	1459
205.528	486
205.596	371
205.664	981
205.732	194
205.799	3262
205.867	4159
205.935	1349
206.003	985
206.071	605
206.139	532
206.207	1135
206.275	1233
206.343	1371
206.411	826
206.478	1042
206.546	143
206.614	818
206.682	1711
206.750	144
206.818	1000
206.885	1805
206.953	168
207.021	935
207.089	1371
207.157	1062
207.225	1658
207.292	1143
207.360	422
207.428	1931
207.496	657
207.563	904
207.631	965
207.699	806
207.767	478
207.834	311
207.902	1551
207.970	1365
208.038	900
208.105	1378
208.173	867
208.241	979
208.309	2112
208.376	1578
208.444	1938
208.512	1163
208.579	182
208.647	2468
208.715	1205
208.782	948
208.850	1060
208.918	331
208.985	1016
209.053	878
209.120	542
209.188	741
209.256	1288
209.323	1416
209.391	1141
209.459	2109
209.526	575
209.594	751
209.661	910
209.729	1339
209.796	1570
209.864	1133
209.932	337
209.999	1291
210.067	1080
210.134	1314
210.202	1120
210.269	2390
210.337	1746
210.404	1762
210.472	1282
210.539	1302
210.607	1043
210.674	1585
210.742	1408
210.809	1048
210.877	1620
210.944	1855
211.012	1321
211.079	2102
211.146	1509
211.214	1704
211.281	2481
211.349	1779
211.416	1104
211.484	1495
211.551	1347
211.618	1343
211.686	1617
211.753	1658
211.821	1486
211.888	1604
211.955	1108
212.023	1432
212.090	2005
212.157	1497
212.225	2446
212.292	3171
212.359	7913
212.427	21131
212.494	8133
212.561	3752
212.629	1276
212.696	2417
212.763	1615
212.831	1692
212.898	1776
212.965	1410
213.032	1102
213.100	2079
213.167	1770
213.234	2215
213.301	1149
213.369	1063
213.436	1472
213.503	1002
213.570	1307
213.638	1809
213.705	1682
213.772	1600
213.839	1846
213.906	2151
213.973	1946
214.041	2141
214.108	1725
214.175	1488
214.242	1387
214.309	1764
214.376	1963
214.444	1387
214.511	1522
214.578	1971
214.645	2138
214.712	2079
214.779	1462
214.846	1541
214.913	2381
214.980	1725
215.048	1896
215.115	1869
215.182	1936
215.249	2083
215.316	1557
215.383	1895
215.450	1482
215.517	2325
215.584	2350
215.651	1874
215.718	1660
215.785	2077
215.852	1023
215.919	1944
215.986	1520
216.053	1588
216.120	1213
216.187	1451
216.254	1787
216.321	1723
216.388	1538
216.455	1359
216.522	1709
216.589	2686
216.656	2789
216.722	3523
216.789	2346
216.856	2295
216.923	1913
216.990	2212
217.057	2107
217.124	1768
217.191	2417
217.258	2633
217.324	2855
217.391	3058
217.458	1827
217.525	1337
217.592	1945
217.659	1807
217.725	1871
217.792	3410
217.859	2597
217.926	880
217.993	1140
218.059	2060
218.126	1614
218.193	1688
218.260	1246
218.327	1194
218.393	1228
218.460	1404
218.527	978
218.594	2171
218.660	2801
218.727	3718
218.794	1387
218.860	1213
218.927	1118
218.994	632
219.061	1513
219.127	1916
219.194	3226
219.261	1795
219.327	1146
219.394	1729
219.461	1288
219.527	1659
219.594	2216
219.661	1144
219.727	1108
219.794	1712
219.860	952
219.927	1544
219.994	2846
220.060	3625
220.127	2637
220.193	2580
220.260	2252
220.326	3542
220.393	4522
220.460	5283
220.526	3220
220.593	2840
220.659	3776
220.726	4140
220.792	8806
220.859	7167
220.925	7589
220.992	8623
221.058	11441
221.125	11730
221.191	8133
221.258	3532
221.324	3404
221.391	3108
221.457	1862
221.524	2457
221.590	3345
221.657	13120
221.723	7137
221.789	7371
221.856	5432
221.922	2915
221.989	2616
222.055	2352
222.121	1745
222.188	3608
222.254	1600
222.321	2373
222.387	1075
222.453	1623
222.520	1542
222.586	1147
222.652	1256
222.719	1297
222.785	368
222.851	1437
222.918	1430
222.984	1143
223.050	1405
223.116	928
223.183	1916
223.249	558
223.315	1312
223.382	1292
223.448	1033
223.514	784
223.580	714
223.647	1092
223.713	1230
223.779	418
223.845	935
223.911	1391
223.978	671
224.044	782
224.110	1635
224.176	849
224.242	1695
224.309	691
224.375	773
224.441	1425
224.507	840
224.573	918
224.639	681
224.705	835
224.772	904
224.838	1574
224.904	1467
224.970	758
225.036	1490
225.102	1231
225.168	1366
225.234	1328
225.300	863
225.366	1665
225.432	817
225.499	1247
225.565	1492
225.631	1798
225.697	1633
225.763	2324
225.829	1358
225.895	2194
225.961	3205
226.027	3047
226.093	2360
226.159	4519
226.225	6462
226.291	10937
226.357	13644
226.423	8600
226.489	5288
226.554	4656
226.620	4362
226.686	4928
226.752	7260
226.818	12067
226.884	18921
226.950	15512
227.016	8349
227.082	5867
227.148	4298
227.214	3622
227.279	3482
227.345	2519
227.411	2305
227.477	3437
227.543	5790
227.609	5916
227.674	3813
227.740	2749
227.806	1793
227.872	2002
227.938	2157
228.003	2404
228.069	1638
228.135	1766
228.201	1512
228.267	2215
228.332	1683
228.398	2308
228.464	1668
228.530	1470
228.595	1712
228.661	1457
228.727	1425
228.792	2095
228.858	667
228.924	801
228.990	2915
229.055	843
229.121	2028
229.187	625
229.252	1705
229.318	949
229.384	962
229.449	1607
229.515	136
229.581	-299
229.646	2302
229.712	1337
229.777	3417
229.843	3386
229.909	2733
229.974	3129
230.040	1862
230.105	2037
230.171	2083
230.236	3303
230.302	4552
230.368	2546
230.433	2060
230.499	1774
230.564	2263
230.630	1634
230.695	1260
230.761	1503
230.826	811
230.892	3124
230.957	1319
231.023	2055
231.088	1009
231.154	2009
231.219	1490
231.284	1494
231.350	2136
231.415	856
231.481	1426
231.546	1672
231.612	1410
231.677	335
231.742	759
231.808	1789
231.873	775
231.939	812
232.004	2351
232.069	1808
232.135	1996
232.200	1946
232.265	1369
232.331	1082
232.396	220
232.461	1076
232.527	1071
232.592	1682
232.657	1497
232.723	2655
232.788	1793
232.853	2272
232.918	1124
232.984	1042
233.049	788
233.114	2491
233.179	1861
233.245	4383
233.310	4368
233.375	1131
233.440	738
233.506	1891
233.571	1082
233.636	2085
233.701	1405
233.766	3338
233.832	2352
233.897	1549
233.962	1691
234.027	2234
234.092	1693
234.157	2326
234.222	1533
234.288	4285
234.353	10035
234.418	7649
234.483	4262
234.548	3063
234.613	2945
234.678	2239
234.743	2777
234.808	10374
234.873	5153
234.938	3855
235.004	1879
235.069	2351
235.134	1796
235.199	2356
235.264	2033
235.329	1050
235.394	1591
235.459	2780
235.524	2008
235.589	1865
235.654	1545
235.719	1454
235.784	2471
235.849	2644
235.913	5325
235.978	5888
236.043	5646
236.108	3071
236.173	2726
236.238	2745
236.303	1590
236.368	2078
236.433	4307
236.498	6816
236.563	5043
236.627	12133
236.692	30896
236.757	23260
236.822	10967
236.887	8311
236.952	7310
237.017	5540
237.081	6111
237.146	8396
237.211	17202
237.276	32435
237.341	44655
237.405	22977
237.470	11938
237.535	8250
237.600	5472
237.664	5697
237.729	3289
237.794	4924
237.859	8398
237.923	6480
237.988	3195
238.053	5128
238.118	6142
238.182	16405
238.247	11978
238.312	4841
238.376	4612
238.441	2417
238.506	3564
238.570	2182
238.635	2982
238.700	2912
238.764	2593
238.829	6487
238.893	5763
238.958	3589
239.023	2939
239.087	2721
239.152	2309
239.216	1592
239.281	2447
239.346	2557
239.410	1973
239.475	3444
239.539	15442
239.604	10278
239.668	4470
239.733	3303
239.797	5597
239.862	12731
239.926	13305
239.991	5158
240.055	3247
240.120	3366
240.184	2357
240.249	2093
240.313	2225
240.378	2206
240.442	8878
240.507	11364
240.571	4266
240.635	5541
240.700	6476
240.764	2930
240.829	2291
240.893	1579
240.957	1923
241.022	7643
241.086	10892
241.151	4253
241.215	1435
241.279	4019
241.344	5416
241.408	3143
241.472	1696
241.537	3017
241.601	2977
241.665	2164
241.730	2625
241.794	3395
241.858	2307
241.922	1971
241.987	2536
242.051	2167
242.115	1934
242.179	2570
242.244	1816
242.308	2229
242.372	2581
242.436	2944
242.501	2087
242.565	2246
242.629	1156
242.693	2241
242.757	2195
242.822	2186
242.886	2325
242.950	3105
243.014	2254
243.078	3056
243.142	1666
243.206	3160
243.271	3129
243.335	2792
243.399	5759
243.463	21828
243.527	42359
243.591	11720
243.655	5343
243.719	2891
243.783	4293
243.847	5898
243.911	6196
243.975	6745
244.040	3626
244.104	4262
244.168	2799
244.232	2898
244.296	4660
244.360	5474
244.424	2196
244.488	3251
244.552	2649
244.615	1386
244.679	2605
244.743	2984
244.807	2449
244.871	2389
244.935	2679
244.999	1253
245.063	2657
245.127	3124
245.191	3839
245.255	3279
245.319	2799
245.383	1898
245.446	2980
245.510	2046
245.574	2292
245.638	2398
245.702	2390
245.766	5061
245.829	3616
245.893	3105
245.957	2337
246.021	2754
246.085	2070
246.149	3729
246.212	9311
246.276	11966
246.340	5357
246.404	3794
246.467	4768
246.531	4375
246.595	4496
246.659	3666
246.722	2497
246.786	4555
246.850	4561
246.913	4815
246.977	2034
247.041	3078
247.104	3098
247.168	3871
247.232	8376
247.295	17981
247.359	7842
247.423	4074
247.486	5807
247.550	4616
247.614	3017
247.677	4176
247.741	3674
247.804	2967
247.868	5052
247.932	8732
247.995	16244
248.059	5574
248.122	2472
248.186	5085
248.249	9185
248.313	33108
248.376	26975
248.440	16393
248.503	5247
248.567	7257
248.630	7778
248.694	9323
248.757	14557
248.821	33460
248.884	16140
248.948	16810
249.011	23867
249.075	38171
249.138	27394
249.202	10506
249.265	7576
249.328	11302
249.392	7133
249.455	5384
249.519	5082
249.582	5459
249.645	8899
249.709	6972
249.772	6284
249.835	5682
249.899	6237
249.962	6238
250.025	4921
250.089	13436
250.152	13040
250.215	7108
250.279	5695
250.342	7123
250.405	6613
250.468	5341
250.532	8126
250.595	14683
250.658	56357
250.721	73820
250.785	21491
250.848	14528
250.911	9450
250.974	9544
251.038	12697
251.101	19602
251.164	10687
251.227	10539
251.290	10705
251.354	19586
251.417	74979
251.480	59143
251.543	48924
251.606	133359
251.669	81117
251.732	31557
251.795	30373
251.859	34830
251.922	79381
251.985	38042
252.048	15414
252.111	12520
252.174	12014
252.237	21055
252.300	39262
252.363	48051
252.426	93829
252.489	33634
252.552	17119
252.615	13158
252.678	15049
252.741	32423
252.804	48698
252.867	99560
252.930	46228
252.993	22080
253.056	15024
253.119	10821
253.182	9468
253.245	13889
253.308	10806
253.371	9731
253.434	8344
253.497	9003
253.559	15764
253.622	10343
253.685	12852
253.748	10325
253.811	6650
253.874	10054
253.937	8140
254.000	6333
254.062	12051
254.125	15674
254.188	14056
254.251	10029
254.314	6569
254.376	10430
254.439	10006
254.502	8325
254.565	11912
254.628	17717
254.690	8561
254.753	5371
254.816	4737
254.878	6303
254.941	12863
255.004	11201
255.067	5639
255.129	5033
255.192	3469
255.255	2556
255.317	4265
255.380	3047
255.443	2523
255.505	2434
255.568	2745
255.631	2652
255.693	2803
255.756	2140
255.819	3205
255.881	2576
255.944	2194
256.006	2815
256.069	2726
256.132	2345
256.194	4080
256.257	9712
256.319	7294
256.382	6320
256.444	4822
256.507	3150
256.569	3790
256.632	4723
256.694	7118
256.757	21784
256.819	45531
256.882	18697
256.944	8830
257.007	6547
257.069	6263
257.132	5045
257.194	3577
257.257	4299
257.319	3384
257.381	5974
257.444	17916
257.506	58777
257.569	51739
257.631	23898
257.693	12281
257.756	7956
257.818	5946
257.880	4602
257.943	4254
258.005	3863
258.067	3120
258.130	3910
258.192	4262
258.254	6557
258.317	4160
258.379	4296
258.441	8704
258.503	7751
258.566	13744
258.628	14032
258.690	3625
258.753	4847
258.815	6077
258.877	3947
258.939	3175
259.001	3434
259.064	2608
259.126	3879
259.188	3924
259.250	4329
259.312	4642
259.375	8931
259.437	4692
259.499	3256
259.561	3239
259.623	3731
259.685	3040
259.747	3980
259.809	13651
259.872	20567
259.934	37334
259.996	24614
260.058	7034
260.120	3935
260.182	3617
260.244	3466
260.306	1454
260.368	3195
260.430	1919
260.492	7024
260.554	10318
260.616	6839
260.678	16589
260.740	17101
260.802	4415
260.864	4298
260.926	2950
260.988	4293
261.050	4644
261.112	9715
261.174	23846
261.236	15301
261.298	4922
261.359	10183
261.421	11075
261.483	4381
261.545	4113
261.607	2238
261.669	3513
261.731	6728
261.793	11433
261.854	4770
261.916	4025
261.978	4106
262.040	4217
262.102	3215
262.164	5372
262.225	4339
262.287	3259
262.349	6480
262.411	4660
262.472	3723
262.534	6789
262.596	11365
262.658	4167
262.719	2519
262.781	5230
262.843	10677
262.904	5600
262.966	4557
263.028	6622
263.090	32121
263.151	56481
263.213	16709
263.275	8613
263.336	4795
263.398	4041
263.459	2554
263.521	3022
263.583	6670
263.644	3908
263.706	2374
263.767	1353
263.829	1980
263.891	2285
263.952	2267
264.014	2012
264.075	4796
264.137	7903
264.198	4516
264.260	1867
264.321	2465
264.383	5973
264.444	12849
264.506	3014
264.567	2571
264.629	7446
264.690	9592
264.752	4006
264.813	2239
264.875	2021
264.936	3311
264.998	1926
265.059	3082
265.120	3203
265.182	6420
265.243	25737
265.305	21662
265.366	5990
265.427	3595
265.489	3514
265.550	2114
265.611	3423
265.673	2804
265.734	2779
265.795	1908
265.857	1821
265.918	2938
265.979	9105
266.040	41318
266.102	28303
266.163	9919
266.224	6261
266.286	4083
266.347	2365
266.408	2765
266.469	3316
266.530	1948
266.592	1527
266.653	4197
266.714	5096
266.775	2096
266.836	1626
266.898	2546
266.959	2874
267.020	2184
267.081	1969
267.142	1827
267.203	1461
267.264	441
267.326	2981
267.387	1751
267.448	1257
267.509	2560
267.570	1673
267.631	1440
267.692	1020
267.753	2774
267.814	1657
267.875	4527
267.936	6642
267.997	4367
268.058	3122
268.119	2409
268.180	2493
268.241	760
268.302	1066
268.363	1602
268.424	1829
268.485	2219
268.546	505
268.607	1244
268.668	1392
268.729	1036
268.790	1072
268.851	1695
268.912	5240
268.972	4683
269.033	2148
269.094	1511
269.155	1477
269.216	1715
269.277	1718
269.338	1664
269.398	2083
269.459	1747
269.520	2480
269.581	3384
269.642	2831
269.702	1957
269.763	1589
269.824	2385
269.885	2301
269.945	4303
270.006	1269
270.067	2013
270.128	1320
270.188	809
270.249	1190
270.310	801
270.370	2275
270.431	2027
270.492	364
270.553	2087
270.613	3665
270.674	7283
270.734	2514
270.795	1991
270.856	3516
270.916	2021
270.977	1880
271.038	2047
271.098	2049
271.159	3478
271.219	2458
271.280	1722
271.340	1644
271.401	2582
271.462	6065
271.522	3214
271.583	2245
271.643	2517
271.704	1796
271.764	3283
271.825	7549
271.885	27520
271.946	29724
272.006	9713
272.066	17259
272.127	23962
272.187	7567
272.248	5317
272.308	6007
272.369	16889
272.429	8124
272.489	6580
272.550	4761
272.610	6669
272.671	4414
272.731	6424
272.791	7439
272.852	3894
272.912	3621
272.972	2296
273.033	2448
273.093	3936
273.153	3820
273.214	3354
273.274	3707
273.334	13542
273.394	18923
273.455	6794
273.515	8802
273.575	15304
273.635	6877
273.696	12542
273.756	19655
273.816	8151
273.876	5078
273.936	14475
273.997	20534
274.057	5601
274.117	4418
274.177	7708
274.237	27701
274.297	20723
274.358	16246
274.418	15679
274.478	10388
274.538	5478
274.598	6069
274.658	19260
274.718	19933
274.778	7547
274.838	4692
274.898	12107
274.958	29133
275.018	25440
275.078	12599
275.138	5504
275.198	4410
275.258	3410
275.318	3551
275.378	6329
275.438	6057
275.498	6100
275.558	16164
275.618	27305
275.678	12438
275.738	9702
275.798	6691
275.858	3640
275.918	2452
275.978	3146
276.038	3175
276.098	3332
276.157	5848
276.217	12172
276.277	6210
276.337	3980
276.397	2684
276.457	3697
276.517	1936
276.576	2155
276.636	2033
276.696	4769
276.756	9411
276.815	5567
276.875	3063
276.935	3956
276.995	3624
277.055	2220
277.114	2312
277.174	4658
277.234	8944
277.293	4377
277.353	2743
277.413	2540
277.472	3010
277.532	2853
277.592	4014
277.651	11152
277.711	14186
277.771	6617
277.830	20268
277.890	14177
277.950	16198
278.009	37465
278.069	12530
278.128	14314
278.188	14898
278.248	8661
278.307	18517
278.367	10133
278.426	4614
278.486	3712
278.545	3876
278.605	3561
278.664	3177
278.724	4458
278.783	11665
278.843	21854
278.902	7072
278.962	4392
279.021	4725
279.081	10135
279.140	8004
279.199	6289
279.259	5823
279.318	7551
279.378	9261
279.437	17694
279.496	53205
279.556	156145
279.615	101323
279.675	27845
279.734	18135
279.793	25463
279.853	32425
279.912	13325
279.971	9593
280.031	7282
280.090	14556
280.149	20713
280.208	24806
280.268	112043
280.327	90225
280.386	21973
280.445	15960
280.505	12304
280.564	8036
280.623	6779
280.682	8900
280.742	9605
280.801	3852
280.860	3648
280.919	3627
280.978	3330
281.037	3860
281.097	2108
281.156	3532
281.215	3906
281.274	4252
281.333	14197
281.392	8823
281.451	3988
281.510	2860
281.569	2865
281.628	2002
281.688	2905
281.747	3475
281.806	2979
281.865	2031
281.924	2827
281.983	2670
282.042	2595
282.101	1717
282.160	2644
282.219	2278
282.278	2584
282.337	7124
282.396	4583
282.454	2666
282.513	4122
282.572	9402
282.631	4705
282.690	2683
282.749	2384
282.808	2775
282.867	2978
282.926	2436
282.985	1841
283.043	1418
283.102	2753
283.161	2408
283.220	7662
283.279	10749
283.338	4194
283.396	2488
283.455	3144
283.514	2593
283.573	4115
283.631	3168
283.690	2753
283.749	3188
283.808	5520
283.866	5353
283.925	2623
283.984	2313
284.043	4166
284.101	3750
284.160	2941
284.219	3592
284.277	3126
284.336	5874
284.395	14785
284.453	10221
284.512	5274
284.570	6244
284.629	5526
284.688	4404
284.746	5049
284.805	5295
284.863	7291
284.922	8452
284.981	10942
285.039	17245
285.098	32140
285.156	77484
285.215	181597
285.273	158671
285.332	68111
285.390	36189
285.449	22984
285.507	17148
285.566	13188
285.624	10403
285.683	8093
285.741	5913
285.799	5252
285.858	5067
285.916	4785
285.975	3770
286.033	2937
286.091	3527
286.150	3055
286.208	3401
286.267	4063
286.325	3670
286.383	4546
286.442	4306
286.500	3718
286.558	2501
286.616	2625
286.675	3440
286.733	2801
286.791	3541
286.850	3663
286.908	4139
286.966	6325
287.024	2745
287.083	3341
287.141	2930
287.199	3018
287.257	3068
287.315	4032
287.374	4518
287.432	6519
287.490	4800
287.548	3566
287.606	2843
287.664	3665
287.723	3741
287.781	5348
287.839	4085
287.897	4519
287.955	6454
288.013	13316
288.071	31106
288.129	109615
288.187	241948
288.245	105656
288.303	36704
288.361	20450
288.419	15613
288.477	12103
288.535	9481
288.593	7358
288.651	4760
288.709	3447
288.767	4152
288.825	3056
288.883	2418
288.941	2425
288.999	1987
289.057	2837
289.115	2452
289.173	2790
289.231	2842
289.289	1909
289.346	3163
289.404	3141
289.462	3870
289.520	4256
289.578	1549
289.636	2354
289.694	2235
289.751	1901
289.809	2109
289.867	2895
289.925	3927
289.983	3074
290.040	2352
290.098	2370
290.156	2151
290.214	2947
290.271	2071
290.329	1869
290.387	1883
290.444	1619
290.502	805
290.560	1027
290.617	1707
290.675	1877
290.733	2087
290.790	2389
290.848	1804
290.906	2318
290.963	2063
291.021	2194
291.078	1861
291.136	2400
291.194	7180
291.251	11745
291.309	3603
291.366	2273
291.424	2231
291.481	1913
291.539	1707
291.596	1902
291.654	1378
291.711	2216
291.769	1946
291.826	3812
291.884	1882
291.941	1266
291.999	1570
292.056	1604
292.114	1813
292.171	2125
292.228	2114
292.286	1898
292.343	4441
292.401	4655
292.458	2652
292.515	2516
292.573	2851
292.630	2733
292.687	2802
292.745	2718
292.802	3570
292.859	9547
292.917	13299
292.974	6881
293.031	2482
293.089	2328
293.146	1970
293.203	2320
293.260	2218
293.318	3046
293.375	3813
293.432	2467
293.489	2028
293.546	2999
293.604	4298
293.661	12615
293.718	27340
293.775	12775
293.832	5712
293.889	4625
293.947	5150
294.004	3919
294.061	3557
294.118	7233
294.175	13825
294.232	16093
294.289	6033
294.346	4469
294.403	4241
294.460	2730
294.517	2672
294.574	2802
294.631	3417
294.688	4121
294.745	9734
294.802	30084
294.859	28359
294.916	11057
294.973	6655
295.030	4883
295.087	4841
295.144	2829
295.201	3935
295.258	2977
295.315	3824
295.372	12301
295.429	19188
295.486	9198
295.542	6110
295.599	15334
295.656	19962
295.713	14793
295.770	16673
295.827	7485
295.883	3267
295.940	3989
295.997	5898
296.054	5389
296.111	2972
296.167	3013
296.224	2627
296.281	2558
296.338	2340
296.394	3272
296.451	3350
296.508	8566
296.564	14851
296.621	12628
296.678	27431
296.734	36130
296.791	13127
296.848	7412
296.904	7208
296.961	13283
297.018	20691
297.074	15495
297.131	6846
297.187	5066
297.244	8497
297.301	26120
297.357	40809
297.414	16203
297.470	6310
297.527	4332
297.583	3281
297.640	4133
297.696	2674
297.753	2436
297.809	2749
297.866	1940
297.922	2401
297.979	2805
298.035	2919
298.092	5709
298.148	11500
298.204	11508
298.261	7119
298.317	13541
298.374	30471
298.430	18243
298.486	8584
298.543	6396
298.599	6467
298.656	6764
298.712	11104
298.768	22917
298.824	17670
298.881	6105
298.937	3962
298.993	4243
299.050	4336
299.106	3830
299.162	3051
299.218	4594
299.275	3521
299.331	5082
299.387	9371
299.443	28565
299.500	32046
299.556	14289
299.612	7579
299.668	7206
299.724	10617
299.780	11559
299.837	7100
299.893	8748
299.949	22802
300.005	26084
300.061	25186
300.117	38673
300.173	19559
300.229	9117
300.285	9205
300.341	9514
300.397	5526
300.453	4062
300.510	2925
300.566	5681
300.622	7529
300.678	22238
300.734	29574
300.790	23612
300.845	26830
300.901	20112
300.957	24562
301.013	15830
301.069	7994
301.125	5383
301.181	5677
301.237	4484
301.293	2808
301.349	2699
301.405	2725
301.461	3303
301.516	4154
301.572	4835
301.628	5301
301.684	5385
301.740	8455
301.796	12039
301.851	9611
301.907	14791
301.963	17487
302.019	33179
302.074	80802
302.130	78440
302.186	36122
302.242	14742
302.297	9728
302.353	8895
302.409	13413
302.464	13484
302.520	12083
302.576	25022
302.631	26973
302.687	15011
302.743	6811
302.798	4508
302.854	4910
302.910	4813
302.965	6638
303.021	9000
303.076	7476
303.132	8536
303.187	9172
303.243	5738
303.299	3659
303.354	3921
303.410	3595
303.465	3522
303.521	2980
303.576	3489
303.632	4913
303.687	10004
303.743	24940
303.798	20851
303.853	9521
303.909	5676
303.964	4163
304.020	6113
304.075	7329
304.130	7872
304.186	11852
304.241	11992
304.297	9929
304.352	5874
304.358	5606
304.407	3423
304.449	4207
304.463	4476
304.518	3249
304.539	3865
304.573	4829
304.629	5542
304.630	5607
304.684	8927
304.720	16744
304.739	20655
304.794	30088
304.811	26206
304.850	16191
304.902	8364
304.905	7912
304.960	5378
304.992	6077
305.015	6537
305.071	6289
305.083	6026
305.126	4951
305.173	3182
305.181	2920
305.236	2498
305.264	3182
305.292	3934
305.347	4124
305.354	4228
305.402	4881
305.445	6135
305.457	6495
305.512	6897
305.535	6880
305.567	6629
305.622	7544
305.626	7742
305.678	14616
305.716	26388
305.733	30076
305.788	33368
305.807	30016
305.843	24579
305.897	30689
305.898	30739
305.953	28930
305.988	20837
306.008	16433
306.063	9436
306.078	8348
306.118	6458
306.168	4840
306.173	4737
306.228	4000
306.259	3877
306.283	3810
306.338	3963
306.349	4154
306.393	5473
306.440	6879
306.448	6987
306.503	6665
306.530	6953
306.558	9228
306.613	16749
306.620	17818
306.668	24532
306.711	30253
306.723	30125
306.778	23550
306.801	18734
306.833	13219
306.888	7599
306.892	7321
306.943	6406
306.982	5505
306.997	5302
307.052	5222
307.072	5445
307.107	6508
307.162	8225
307.163	8245
307.217	11727
307.253	13715
307.272	14078
307.327	14543
307.343	14022
307.381	12143
307.434	10740
307.436	11099
307.491	21918
307.524	29636
307.546	30900
307.600	29901
307.614	27969
307.655	19464
307.704	12184
307.710	12208
307.765	13778
307.795	16177
307.819	20143
307.874	31417
307.885	32458
307.929	28141
307.975	24170
307.984	25580
308.038	38400
308.065	47739
308.093	78239
308.148	150805
308.156	165137
308.202	253723
308.246	319477
308.257	308114
308.312	184469
308.336	131706
308.366	99315
308.421	57137
308.426	53447
308.475	36912
308.517	25961
308.530	24630
308.585	20990
308.607	19881
308.639	20125
308.694	20193
308.697	20318
308.748	32371
308.787	43217
308.803	42666
308.857	35360
308.877	32085
308.912	30516
308.967	29737
308.967	29707
309.021	40946
309.058	49799
309.076	63108
309.130	109117
309.148	126490
309.185	215514
309.238	361985
309.239	363896
309.293	419224
309.328	416272
309.348	364210
309.402	197575
309.418	154025
309.457	110317
309.508	63038
309.511	62036
309.566	48578
309.598	41583
309.620	42088
309.674	44887
309.688	45512
309.729	43327
309.778	39501
309.783	38986
309.837	32276
309.868	28699
309.892	32507
309.946	43006
309.959	45837
310.001	59678
310.049	73584
310.055	71028
310.109	43707
310.139	28553
310.163	24114
310.218	15432
310.229	13911
310.272	12345
310.319	10262
310.326	10133
310.381	9946
310.409	9604
310.435	9307
310.489	8930
310.499	8807
310.543	9234
310.589	9940
310.598	10039
310.652	10404
310.679	10497
310.706	9736
310.760	7999
310.769	7743
310.814	7082
310.859	6394
310.868	6492
310.923	6957
310.948	7218
310.977	7652
311.031	8370
311.038	8453
311.085	8268
311.128	7983
311.139	7922
311.193	7524
311.218	7315
311.247	7304
311.301	7252
311.308	7221
311.356	7102
311.398	7032
311.410	7084
311.464	7176
311.488	7190
311.518	7073
311.572	6884
311.578	6843
311.626	8705
311.668	10357
311.680	10423
311.734	10422
311.758	10442
311.788	10407
311.842	10228
311.847	10183
311.896	13551
311.937	16423
311.950	16421
312.004	16144
312.027	15949
312.058	13338
312.112	8616
312.117	8120
312.165	8101
312.207	8049
312.297	13039
312.386	11055
312.476	9077
312.566	16335
312.656	10520
312.745	7832
312.835	7882
312.925	10069
313.015	9819
313.104	11094
313.194	7758
313.284	8357
313.374	9205
313.463	9667
313.553	7425
313.643	8287
313.732	7518
313.822	7637
313.912	8585
314.001	9248
314.091	11155
314.180	15113
314.270	12806
314.360	12361
314.449	11373
314.539	8620
314.628	7628
314.718	10223
314.808	12626
314.897	9493
314.987	8602
315.076	10802
315.166	12542
315.255	12544
315.345	12520
315.434	12837
315.524	12557
315.613	14944
315.703	20086
315.792	39472
315.881	141377
315.971	69996
316.060	25527
316.150	29680
316.239	31147
316.328	15478
316.418	9527
316.507	10278
316.597	12088
316.686	12882
316.775	14867
316.865	32205
316.954	11822
317.043	8602
317.133	10154
317.222	8568
317.311	8707
317.400	9469
317.490	13066
317.579	15812
317.668	16412
317.757	27443
317.847	65634
317.936	247850
318.025	110718
318.114	54919
318.203	33304
318.293	22209
318.382	36108
318.471	31603
318.560	39021
318.649	81621
318.738	23750
318.828	13661
318.917	14989
319.006	16871
319.095	35438
319.184	92736
319.273	55898
319.362	28227
319.451	12433
319.540	11901
319.629	19638
319.718	33423
319.807	18603
319.896	29624
319.985	111948
320.074	50687
320.163	15125
320.252	22055
320.341	18074
320.430	18701
320.519	19043
320.608	13825
320.697	12272
320.786	13508
320.875	14521
320.964	19099
321.053	25978
321.142	33001
321.230	38768
321.319	30155
321.408	60202
321.497	32609
321.586	27386
321.675	32030
321.764	32657
321.852	24414
321.941	36048
322.030	28748
322.119	28910
322.207	59475
322.296	50048
322.385	31024
322.474	30491
322.562	70973
322.651	45512
322.740	29329
322.829	40823
322.917	41183
323.006	26271
323.095	22542
323.183	18766
323.272	26445
323.361	38056
323.449	110405
323.538	44840
323.626	73882
323.715	55827
323.804	23144
323.892	67131
323.981	45863
324.069	16497
324.158	36399
324.246	41663
324.335	16282
324.424	22917
324.512	11785
324.601	13749
324.689	21462
324.778	39083
324.866	31871
324.954	12375
325.043	10435
325.131	17416
325.220	31214
325.308	37059
325.397	25471
325.485	18772
325.574	7906
325.662	8017
325.750	10088
325.839	8242
325.927	7292
326.015	10482
326.104	14516
326.192	22437
326.280	9089
326.369	7725
326.457	11458
326.545	18774
326.634	11167
326.722	6423
326.810	7626
326.898	7856
326.987	9784
327.075	17254
327.163	19661
327.251	11553
327.340	15719
327.428	22883
327.516	9417
327.604	8729
327.692	10200
327.781	9571
327.869	16289
327.957	11345
328.045	11020
328.133	6962
328.221	9065
328.309	8274
328.397	7643
328.485	9364
328.574	13206
328.662	36472
328.750	27168
328.838	12454
328.926	8767
329.014	7539
329.102	12145
329.190	25040
329.278	19381
329.366	7357
329.454	7022
329.542	7077
329.630	7389
329.718	8269
329.806	11300
329.893	11414
329.981	15311
330.069	25722
330.157	78930
330.245	203433
330.333	121057
330.421	27536
330.509	18300
330.597	44022
330.684	34886
330.772	15629
330.860	19145
330.948	25214
331.036	14145
331.123	6766
331.211	7602
331.299	10153
331.387	19016
331.475	37133
331.562	13538
331.650	6828
331.738	8233
331.825	10684
331.913	7424
332.001	6559
332.089	9920
332.176	18823
332.264	35265
332.352	32551
332.439	12377
332.527	9422
332.614	8460
332.702	10450
332.790	8153
332.877	16513
332.965	35846
333.052	13084
333.140	11792
333.228	22755
333.315	11296
333.403	10056
333.490	22427
333.578	20907
333.665	22090
333.753	17669
333.840	9630
333.928	12665
334.015	25448
334.103	38328
334.190	118628
334.278	43506
334.365	20966
334.452	17396
334.540	16083
334.627	16604
334.715	24113
334.802	35462
334.889	128552
334.977	150292
335.064	32293
335.151	18288
335.239	16658
335.326	19733
335.413	54996
335.501	89316
335.588	20404
335.675	15675
335.762	20173
335.850	31742
335.937	29639
336.024	49301
336.111	151195
336.199	83363
336.286	26860
336.373	16409
336.460	12141
336.547	11501
336.635	12047
336.722	11530
336.809	10950
336.896	14294
336.983	35749
337.070	84477
337.157	122994
337.245	84717
337.332	68038
337.419	13541
337.506	9511
337.593	11098
337.680	27609
337.767	88671
337.854	28994
337.941	30467
338.028	31445
338.115	15945
338.202	15799
338.289	25119
338.376	82158
338.463	33538
338.550	48674
338.637	60078
338.724	18681
338.811	27936
338.898	9323
338.984	7100
339.071	10616
339.158	10041
339.245	23495
339.332	16498
339.419	18630
339.506	20357
339.593	6556
339.679	7061
339.766	7060
339.853	9509
339.940	17976
340.027	8342
340.113	8200
340.200	10547
340.287	8533
340.374	9370
340.460	16171
340.547	7727
340.634	12327
340.720	38025
340.807	28599
340.894	6734
340.980	6800
341.067	6919
341.154	7517
341.240	10155
341.327	22037
341.414	9299
341.500	9386
341.587	7680
341.674	7117
341.760	13888
341.847	18043
341.933	8071
342.020	4759
342.106	5152
342.193	7411
342.279	11727
342.366	10044
342.452	14747
342.539	10417
342.625	17267
342.712	44778
342.798	21400
342.885	10803
342.971	4633
343.058	5541
343.144	5394
343.230	6628
343.317	5497
343.403	6715
343.490	4772
343.576	4960
343.662	6029
343.749	7907
343.835	10227
343.921	16825
344.008	72346
344.094	186378
344.180	48363
344.267	17228
344.353	44033
344.439	55906
344.525	25528
344.612	17205
344.698	17998
344.784	12194
344.870	7370
344.957	7239
345.043	9790
345.129	8393
345.215	14313
345.301	9883
345.387	6909
345.474	5199
345.560	5655
345.646	8275
345.732	6660
345.818	7958
345.904	6928
345.990	7951
346.076	7145
346.162	14922
346.249	8066
346.335	6321
346.421	7537
346.507	19708
346.593	65845
346.679	20982
346.765	8376
346.851	8435
346.937	8355
347.023	7343
347.108	7283
347.194	7201
347.280	6297
347.366	9000
347.452	22249
347.538	83960
347.624	63074
347.710	52177
347.796	11862
347.882	8331
347.967	7016
348.053	10822
348.139	8060
348.225	6498
348.311	6092
348.397	6038
348.482	6881
348.568	10433
348.654	6637
348.740	12020
348.825	16304
348.911	14815
348.997	35469
349.083	78872
349.168	17607
349.254	7889
349.340	7701
349.425	6225
349.511	8385
349.597	10610
349.682	15353
349.768	44513
349.854	26858
349.939	8476
350.025	6700
350.110	7748
350.196	5793
350.282	5264
350.367	5510
350.453	9647
350.538	11494
350.624	9375
350.709	8946
350.795	6540
350.880	6668
350.966	6952
351.051	9815
351.137	8836
351.222	6512
351.308	14284
351.393	42163
351.479	14055
351.564	6003
351.649	6536
351.735	5409
351.820	5003
351.906	6546
351.991	8876
352.076	25162
352.162	43342
352.247	11173
352.332	7776
352.418	12489
352.503	16365
352.588	54194
352.673	52912
352.759	13494
352.844	8128
352.929	7992
353.014	11592
353.100	7375
353.185	11251
353.270	16136
353.355	18673
353.441	8086
353.526	9111
353.611	14965
353.696	18122
353.781	11423
353.866	7013
353.952	8072
354.037	14408
354.122	31530
354.207	29796
354.292	13908
354.377	7118
354.462	5899
354.547	8973
354.632	7594
354.717	11946
354.802	13361
354.887	8282
354.972	6110
355.057	5679
355.142	5281
355.227	7986
355.312	10730
355.397	22539
355.482	47547
355.567	29474
355.652	18425
355.737	20410
355.822	51221
355.907	50761
355.991	10736
356.076	7196
356.161	6463
356.246	6782
356.331	7386
356.416	14529
356.501	80671
356.585	103827
356.670	18583
356.755	13364
356.840	16711
356.924	57328
357.009	214072
357.094	97416
357.179	21992
357.263	15614
357.348	14684
357.433	15646
357.517	13619
357.602	11585
357.687	10082
357.771	15096
357.856	43655
357.941	31697
358.025	47473
358.110	220066
358.195	125961
358.279	22150
358.364	14454
358.448	36789
358.533	99493
358.617	79641
358.702	74313
358.787	32507
358.871	17473
358.956	16707
359.040	7905
359.125	7522
359.209	7681
359.294	21348
359.378	38348
359.462	19347
359.547	10579
359.631	8821
359.716	6711
359.800	7797
359.885	11754
359.969	9001
360.053	7779
360.138	9023
360.222	10345
360.306	17956
360.391	15204
360.475	23991
360.559	52635
360.644	42280
360.728	34129
360.812	44222
360.896	137333
360.981	65163
361.065	37737
361.149	12693
361.233	11231
361.318	10884
361.402	10236
361.486	10513
361.570	8857
361.654	11526
361.739	22518
361.823	81816
361.907	145259
361.991	35377
362.075	20671
362.159	39893
362.243	36274
362.327	43808
362.411	51906
362.495	29416
362.580	19337
362.664	17359
362.748	19078
362.832	28248
362.916	46660
363.000	96354
363.084	167759
363.168	194121
363.252	60918
363.336	26260
363.420	26740
363.503	73996
363.587	103024
363.671	26889
363.755	17962
363.839	24169
363.923	17686
364.007	27948
364.091	36282
364.175	50237
364.258	155806
364.342	167498
364.426	182832
364.510	110461
364.594	50087
364.677	40349
364.761	115388
364.845	99192
364.929	33848
365.013	29161
365.096	22367
365.180	28253
365.264	31178
365.347	120990
365.431	64909
365.515	19037
365.598	11267
365.682	10489
365.766	15848
365.849	23094
365.933	12156
366.017	15571
366.100	13965
366.184	7756
366.267	7686
366.351	7889
366.435	6646
366.518	7185
366.602	6798
366.685	7195
366.769	8348
366.852	14311
366.936	24868
367.019	14715
367.103	12782
367.186	23915
367.270	9857
367.353	5993
367.436	7418
367.520	7226
367.603	8914
367.687	12215
367.770	21356
367.853	14287
367.937	31470
368.020	60584
368.104	18544
368.187	16418
368.270	20837
368.353	20029
368.437	23422
368.520	55181
368.603	36942
368.687	38489
368.770	77738
368.853	25173
368.936	19556
369.020	23939
369.103	11123
369.186	7525
369.269	8236
369.352	14005
369.436	19708
369.519	14215
369.602	7793
369.685	9177
369.768	9510
369.851	9366
369.934	6450
370.018	9206
370.101	17186
370.184	15283
370.267	11891
370.350	17424
370.433	26144
370.516	61447
370.599	106422
370.682	47957
370.765	43890
370.848	49725
370.931	91913
371.014	45999
371.097	12688
371.180	9618
371.263	5882
371.346	6373
371.429	7027
371.511	7767
371.594	11470
371.677	19293
371.760	24764
371.843	19604
371.926	71697
372.009	195611
372.091	69966
372.174	35440
372.257	84714
372.340	40220
372.423	29001
372.505	38653
372.588	17992
372.671	26859
372.754	86821
372.836	52355
372.919	35352
373.002	78791
373.085	28032
373.167	17071
373.250	37120
373.332	83689
373.415	107358
373.498	251236
373.580	111394
373.663	142008
373.746	215967
373.828	56569
373.911	23101
373.993	21117
374.076	67714
374.159	76412
374.241	29046
374.324	74709
374.406	58093
374.489	59160
374.571	187219
374.654	89621
374.736	37102
374.819	110012
374.901	159912
374.983	189433
375.066	42704
375.148	17159
375.231	50764
375.313	114476
375.395	50326
375.478	14420
375.560	9954
375.643	13035
375.725	32086
375.807	140858
375.890	128380
375.972	57337
376.054	29738
376.136	46691
376.219	24990
376.301	36614
376.383	121775
376.465	55716
376.548	31639
376.630	35397
376.712	99412
376.794	56867
376.877	9715
376.959	7777
377.041	8672
377.123	16722
377.205	23946
377.287	8176
377.369	6271
377.452	7965
377.534	7157
377.616	7236
377.698	7012
377.780	5735
377.862	7533
377.944	7555
378.026	6410
378.108	7174
378.190	5763
378.272	6234
378.354	5398
378.436	6318
378.518	11021
378.600	34820
378.682	29149
378.764	50997
378.846	47170
378.928	16905
379.010	19356
379.091	12990
379.173	6978
379.255	6463
379.337	8884
379.419	24071
379.501	74456
379.583	36146
379.664	11116
379.746	20705
379.828	50044
379.910	69889
379.991	65993
380.073	15926
380.155	10171
380.237	8359
380.318	6000
380.400	7204
380.482	13326
380.564	21914
380.645	20645
380.727	20382
380.809	12830
380.890	10926
380.972	8416
381.053	8085
381.135	9655
381.217	16857
381.298	54218
381.380	32388
381.461	23790
381.543	94705
381.624	139171
381.706	31841
381.787	16101
381.869	17068
381.951	40013
382.032	174190
382.113	129831
382.195	31445
382.276	20260
382.358	32040
382.439	91134
382.521	99944
382.602	168389
382.684	82887
382.765	128691
382.846	143725
382.928	150654
383.009	101507
383.090	78088
383.172	217377
383.253	325578
383.334	142819
383.416	148518
383.497	91775
383.578	46741
383.659	76709
383.741	208249
383.822	470229
383.903	282404
383.984	111264
384.066	174459
384.147	125045
384.228	31622
384.309	23458
384.390	19226
384.471	16037
384.553	16280
384.634	19868
384.715	20920
384.796	13152
384.877	14850
384.958	45579
385.039	63968
385.120	26825
385.201	13740
385.282	17291
385.363	19267
385.444	16771
385.525	23229
385.606	71364
385.687	71812
385.768	23717
385.849	24965
385.930	77969
386.011	158337
386.092	52709
386.173	17082
386.254	13513
386.335	14631
386.416	14448
386.496	31878
386.577	59418
386.658	27209
386.739	18889
386.820	18371
386.901	15829
386.981	15162
387.062	12869
387.143	17455
387.224	51879
387.304	56455
387.385	24743
387.466	18516
387.547	22264
387.627	16468
387.708	23473
387.789	82941
387.869	116064
387.950	39834
388.031	14496
388.111	13243
388.192	26620
388.273	37268
388.353	25993
388.434	14858
388.514	21185
388.595	78798
388.676	115510
388.756	58418
388.837	50130
388.917	38297
388.998	12089
389.078	11397
389.159	12202
389.239	9820
389.320	14277
389.400	12866
389.480	21695
389.561	55086
389.641	34718
389.722	13366
389.802	19937
389.883	25088
389.963	64414
390.043	49301
390.124	21012
390.204	21039
390.284	61053
390.365	46436
390.445	54080
390.525	144576
390.605	139942
390.686	46038
390.766	18861
390.846	12498
390.927	9903
391.007	10282
391.087	13108
391.167	12643
391.247	12789
391.328	16162
391.408	23830
391.488	20132
391.568	11159
391.648	14107
391.728	18322
391.808	17369
391.888	19584
391.969	32198
392.049	56392
392.129	32645
392.209	32219
392.289	66922
392.369	47562
392.449	45103
392.529	36733
392.609	30333
392.689	35171
392.769	73800
392.849	78404
392.929	64951
393.009	128179
393.089	134607
393.169	169317
393.248	416596
393.328	1092143
393.408	1239264
393.488	537536
393.568	194595
393.648	98323
393.728	62587
393.807	46141
393.887	39618
393.967	34059
394.047	34221
394.127	37511
394.206	53805
394.286	137473
394.366	487170
394.446	631796
394.525	223904
394.605	69299
394.685	43271
394.764	59901
394.844	92864
394.924	80052
395.003	32138
395.083	22982
395.163	20560
395.242	20648
395.322	20391
395.402	17947
395.481	22398
395.561	39102
395.640	102070
395.720	103412
395.799	119145
395.879	108067
395.958	81757
396.038	206954
396.117	633222
396.197	806399
396.276	356774
396.356	135147
396.435	89772
396.515	70657
396.594	79950
396.673	137167
396.753	384312
396.832	1003412
396.912	860615
396.991	277524
397.070	95892
397.150	53139
397.229	39311
397.308	45215
397.388	79938
397.467	52650
397.546	24044
397.625	17859
397.705	19342
397.784	18497
397.863	14306
397.942	12052
398.022	12827
398.101	27053
398.180	83530
398.259	53683
398.338	17984
398.417	13075
398.497	9878
398.576	11542
398.655	8391
398.734	9210
398.813	9333
398.892	23594
398.971	83956
399.050	52433
399.129	9918
399.208	7903
399.287	8276
399.366	6981
399.445	7271
399.524	8523
399.603	6480
399.682	10674
399.761	24269
399.840	83959
399.919	78813
399.998	15368
400.077	6816
400.156	5767
400.235	9098
400.313	7116
400.392	7433
400.471	25576
400.550	47220
400.629	17845
400.708	8965
400.786	8734
400.865	20695
400.944	25995
401.023	13278
401.102	5095
401.180	5149
401.259	6013
401.338	6616
401.416	9029
401.495	8403
401.574	8183
401.652	6728
401.731	8829
401.810	8148
401.888	6472
401.967	3369
402.046	6036
402.124	7403
402.203	11266
402.281	7559
402.360	9358
402.438	25138
402.517	23126
402.596	8979
402.674	9354
402.753	6439
402.831	6526
402.910	6743
402.988	16585
403.066	58404
403.145	40514
403.223	20313
403.302	49651
403.380	40340
403.459	38254
403.537	18784
403.615	9260
403.694	4507
403.772	6064
403.850	5390
403.929	5203
404.007	5798
404.085	10661
404.164	12825
404.242	10029
404.320	24018
404.398	75728
404.477	85756
404.555	133021
404.633	137944
404.711	65516
404.789	43131
404.868	14303
404.946	7661
405.024	5535
405.102	5079
405.180	4137
405.258	4064
405.336	5386
405.415	5258
405.493	11832
405.571	10955
405.649	4948
405.727	4533
405.805	8433
405.883	8057
405.961	7769
406.039	11044
406.117	6071
406.195	7636
406.273	23843
406.351	103895
406.429	76930
406.507	16075
406.585	8167
406.663	6008
406.740	8146
406.818	7271
406.896	5936
406.974	5970
407.052	9419
407.130	54822
407.208	95866
407.285	24822
407.363	7250
407.441	5954
407.519	6394
407.596	7138
407.674	21494
407.752	91890
407.830	92970
407.907	26640
407.985	9803
408.063	6889
408.141	5092
408.218	9389
408.296	10584
408.373	7377
408.451	7651
408.529	6687
408.606	5136
408.684	4445
408.762	5064
408.839	4545
408.917	4484
408.994	5050
409.072	6470
409.149	5815
409.227	9094
409.304	11019
409.382	11404
409.459	12383
409.537	16918
409.614	16977
409.692	15003
409.769	13906
409.846	17202
409.924	21125
410.001	19809
410.079	16012
410.156	12912
410.233	11598
410.311	10633
410.388	8527
410.465	8643
410.543	8458
410.620	7017
410.697	6821
410.775	8215
410.852	5368
410.929	7396
411.006	9206
411.083	6727
411.161	10692
411.238	14861
411.315	10004
411.392	5690
411.469	7413
411.547	8021
411.624	4253
411.701	5931
411.778	5521
411.855	11145
411.932	7464
412.009	4307
412.086	5364
412.163	5615
412.240	7068
412.317	8838
412.394	7735
412.471	4827
412.548	4166
412.625	4785
412.702	5650
412.779	10561
412.856	8973
412.933	4937
413.010	4752
413.087	7544
413.164	24231
413.241	39425
413.318	13112
413.395	8090
413.471	9713
413.548	6626
413.625	4870
413.702	5682
413.779	5872
413.855	3899
413.932	3422
414.009	2924
414.086	3095
414.162	4571
414.239	6303
414.316	22084
414.393	55920
414.469	24357
414.546	4881
414.623	3753
414.699	3284
414.776	4381
414.853	4283
414.929	4351
415.006	4765
415.082	6329
415.159	4927
415.236	4644
415.312	4489
415.389	6547
415.465	9807
415.542	6361
415.618	3475
415.695	7964
415.771	4241
415.848	4871
415.924	4792
416.000	5329
416.077	3924
416.153	2942
416.230	1992
416.306	3275
416.383	3516
416.459	4110
416.535	2261
416.612	3115
416.688	3211
416.764	2718
416.841	3067
416.917	3217
416.993	3899
417.069	4728
417.146	6672
417.222	10212
417.298	6025
417.374	4099
417.451	4639
417.527	5124
417.603	6297
417.679	4246
417.755	4482
417.831	2496
417.908	3876
417.984	2741
418.060	2593
418.136	8082
418.212	10523
418.288	5577
418.364	3354
418.440	3267
418.516	6011
418.592	8734
418.668	13526
418.744	18595
418.820	15014
418.896	6743
418.972	3354
419.048	3367
419.124	8100
419.200	8487
419.276	4189
419.352	2837
419.428	3057
419.504	3489
419.579	5727
419.655	4993
419.731	4554
419.807	10928
419.883	21081
419.959	19014
420.034	6605
420.110	9074
420.186	32763
420.262	32534
420.337	9312
420.413	7358
420.489	5405
420.565	5667
420.640	4492
420.716	6279
420.792	4468
420.867	5667
420.943	5959
421.019	9063
421.094	8337
421.170	7526
421.245	6379
421.321	8076
421.397	9720
421.472	18973
421.548	56055
421.623	44142
421.699	16142
421.774	14697
421.850	15328
421.925	20039
422.001	21619
422.076	22967
422.152	27132
422.227	39145
422.302	51821
422.378	75160
422.453	128602
422.529	255109
422.604	493853
422.679	634217
422.755	561661
422.830	330023
422.905	160965
422.981	93793
423.056	60701
423.131	44152
423.207	32632
423.282	27472
423.357	28902
423.432	23614
423.508	19587
423.583	26423
423.658	23817
423.733	14351
423.808	13610
423.883	14412
423.959	13381
424.034	13200
424.109	11620
424.184	8678
424.259	8158
424.334	6875
424.409	5943
424.484	6318
424.559	7241
424.634	5882
424.709	7203
424.784	8639
424.859	6682
424.934	8139
425.009	21911
425.084	41778
425.159	19806
425.234	5691
425.309	3642
425.384	11108
425.459	20484
425.534	9791
425.609	4689
425.683	4542
425.758	4115
425.833	4749
425.908	6657
425.983	12429
426.058	40114
426.132	24526
426.207	6979
426.282	9865
426.357	8896
426.431	4632
426.506	4371
426.581	4714
426.655	5079
426.730	3940
426.805	3540
426.879	4878
426.954	3463
427.029	7370
427.103	31570
427.178	90533
427.253	49816
427.327	9926
427.402	8819
427.476	24196
427.551	13894
427.625	5704
427.700	5786
427.774	4953
427.849	6043
427.923	4217
427.998	4613
428.072	6523
428.147	13909
428.221	47578
428.296	165256
428.370	111733
428.444	18749
428.519	13539
428.593	21904
428.667	20858
428.742	24473
428.816	27372
428.890	94859
428.965	178858
429.039	62663
429.113	29506
429.188	13453
429.262	5493
429.336	7157
429.410	19339
429.485	16532
429.559	18069
429.633	17729
429.707	9616
429.781	17895
429.855	97827
429.930	175506
430.004	78536
430.078	94444
430.152	106777
430.226	206910
430.300	249649
430.374	59435
430.448	18132
430.522	27000
430.596	84981
430.670	65654
430.744	135047
430.818	212410
430.892	55046
430.966	10654
431.040	6976
431.114	4544
431.188	3756
431.262	3787
431.336	4020
431.410	8939
431.484	25218
431.557	20119
431.631	6763
431.705	8420
431.779	31535
431.853	142887
431.927	124877
432.000	20331
432.074	6744
432.148	6072
432.222	6054
432.295	4135
432.369	2941
432.443	5390
432.516	29770
432.590	88728
432.664	43012
432.737	6821
432.811	3448
432.885	2836
432.958	2514
433.032	1548
433.106	2221
433.179	2094
433.253	2054
433.326	1861
433.400	1536
433.473	2629
433.547	1785
433.620	1859
433.694	5211
433.767	5432
433.841	3359
433.914	2830
433.988	2003
434.061	2951
434.134	2815
434.208	1876
434.281	1374
434.355	1312
434.428	3082
434.501	2499
434.575	2545
434.648	2521
434.721	2003
434.795	1829
434.868	1594
434.941	1285
435.014	1838
435.088	2192
435.161	4184
435.234	5184
435.307	7160
435.381	4786
435.454	4654
435.527	6786
435.600	7061
435.673	6781
435.746	6879
435.819	5510
435.892	4329
435.966	4284
436.039	3614
436.112	4268
436.185	2481
436.258	1648
436.331	2324
436.404	1759
436.477	2155
436.550	1691
436.623	2327
436.696	1531
436.769	2811
436.842	2379
436.915	3050
436.987	3811
437.060	2428
437.133	1785
437.206	2181
437.279	2432
437.352	1827
437.425	1414
437.498	2766
437.570	5258
437.643	6852
437.716	2736
437.789	1657
437.861	3513
437.934	12210
438.007	6493
438.080	2871
438.152	2832
438.225	6058
438.298	34153
438.370	122862
438.443	62391
438.516	15113
438.588	5213
438.661	1887
438.734	2078
438.806	2410
438.879	3639
438.951	3574
439.024	5622
439.096	3026
439.169	2132
439.241	2410
439.314	1657
439.386	4505
439.459	5406
439.531	7832
439.604	3971
439.676	2356
439.749	949
439.821	1499
439.893	2439
439.966	2578
440.038	2726
440.110	3752
440.183	1786
440.255	2388
440.327	4460
440.400	15873
440.472	71201
440.544	60324
440.617	9157
440.689	5891
440.761	7099
440.833	9686
440.905	7182
440.978	1979
441.050	1721
441.122	2433
441.194	2101
441.266	2056
441.338	2170
441.411	4766
441.483	20630
441.555	37727
441.627	10908
441.699	6605
441.771	7307
441.843	4150
441.915	2663
441.987	3653
442.059	3408
442.131	5366
442.203	6837
442.275	9158
442.347	11906
442.419	19247
442.491	75322
442.563	198646
442.635	103880
442.706	37627
442.778	25381
442.850	9281
442.922	5718
442.994	7129
443.066	9503
443.137	9889
443.209	11117
443.281	16229
443.353	31911
443.425	99342
443.496	310783
443.568	350132
443.640	157011
443.711	38979
443.783	16197
443.855	10026
443.926	7029
443.998	6320
444.070	7119
444.141	6860
444.213	7002
444.285	8509
444.356	6910
444.428	8151
444.499	4050
444.571	4214
444.642	3773
444.714	5155
444.785	7317
444.857	9816
444.928	19815
445.000	15577
445.071	15103
445.143	21645
445.214	17630
445.285	29448
445.357	75028
445.428	206093
445.500	438693
445.571	342009
445.642	200986
445.714	77453
445.785	45637
445.856	18396
445.928	11657
445.999	9683
446.070	6480
446.141	7244
446.213	7859
446.284	5149
446.355	5374
446.426	4155
446.497	3721
446.569	6606
446.640	8804
446.711	6380
446.782	3198
446.853	4527
446.924	4838
446.995	4137
447.066	3308
447.138	7115
447.209	4838
447.280	1252
447.351	1545
447.422	1736
447.493	2841
447.564	3812
447.635	4113
447.706	3231
447.777	2179
447.847	1713
447.918	945
447.989	3324
448.060	4457
448.131	11212
448.202	10286
448.273	6549
448.344	3343
448.414	2805
448.485	1827
448.556	1915
448.627	960
448.698	1639
448.768	1126
448.839	2130
448.910	5699
448.981	5732
449.051	2390
449.122	1435
449.193	670
449.263	1452
449.334	758
449.405	3090
449.475	6249
449.546	6121
449.616	6749
449.687	7191
449.758	2759
449.828	1832
449.899	1560
449.969	1617
450.040	1227
450.110	2320
450.181	3556
450.251	2254
450.322	1548
450.392	2680
450.463	1505
450.533	1604
450.604	1861
450.674	1906
450.744	2253
450.815	2088
450.885	1632
450.955	2222
451.026	1958
451.096	1851
451.166	2596
451.237	7218
451.307	18357
451.377	8673
451.447	2526
451.518	2874
451.588	1754
451.658	3156
451.728	3454
451.799	15319
451.869	21661
451.939	5478
452.009	2856
452.079	2524
452.149	2842
452.219	4381
452.289	19462
452.360	18129
452.430	4747
452.500	3195
452.570	5029
452.640	8717
452.710	18125
452.780	31848
452.850	21081
452.920	16953
452.990	7877
453.060	6043
453.129	4936
453.199	6320
453.269	17459
453.339	46616
453.409	75818
453.479	63884
453.549	97870
453.619	109249
453.688	47763
453.758	9183
453.828	3315
453.898	3443
453.968	2293
454.037	2391
454.087	2099
454.107	1955
454.168	2621
454.177	2691
454.247	1781
454.249	1817
454.316	2115
454.330	2265
454.386	2702
454.411	5165
454.456	8823
454.492	12530
454.525	15687
454.574	8854
454.595	5921
454.655	3493
454.665	3133
454.734	3491
454.736	3615
454.804	6150
454.817	8572
454.873	17085
454.898	19232
454.943	22435
454.979	15495
455.013	9504
455.060	6205
455.082	5126
455.141	6133
455.152	6304
455.221	14566
455.222	14937
455.291	33968
455.303	34824
455.360	35595
455.384	50921
455.430	72764
455.465	59658
455.499	47700
455.546	30756
455.569	23087
455.627	15045
455.638	13705
455.707	4499
455.708	4518
455.777	2890
455.789	3098
455.846	3852
455.869	3545
455.916	2883
455.950	2989
455.985	3030
456.031	2901
456.054	2794
456.112	3251
456.124	3350
456.193	2269
456.193	2239
456.262	3909
456.274	4172
456.332	4887
456.355	5051
456.401	5126
456.436	4768
456.470	4311
456.516	3317
456.540	2909
456.597	2586
456.609	2463
456.678	3150
456.678	3130
456.747	2677
456.759	2752
456.817	3005
456.840	2895
456.886	2571
456.920	2929
456.955	3418
457.001	3465
457.024	3540
457.082	4623
457.093	4831
457.162	5962
457.163	6001
457.232	7123
457.243	7112
457.301	6039
457.324	5008
457.370	3884
457.405	4374
457.439	4714
457.485	4635
457.508	4725
457.566	5305
457.577	5475
457.646	8047
457.647	8099
457.715	13093
457.727	14233
457.784	23845
457.808	29762
457.853	38551
457.889	48136
457.922	48579
457.969	38804
457.991	39282
458.050	40808
458.060	42290
458.129	63363
458.130	64230
458.198	74772
458.211	72590
458.267	48714
458.292	35856
458.336	25328
458.372	21143
458.405	22951
458.453	29652
458.474	37672
458.533	64641
458.543	67904
458.611	108910
458.614	110316
458.680	86941
458.694	75684
458.749	41697
458.775	28800
458.818	18360
458.855	14425
458.887	12235
458.936	9712
458.955	9066
459.016	8115
459.024	7990
459.093	7732
459.097	7746
459.162	8019
459.177	7900
459.230	7425
459.257	7661
459.299	8073
459.338	8449
459.368	8646
459.418	9083
459.437	8833
459.499	7290
459.505	7212
459.574	7058
459.579	7060
459.643	6819
459.659	6642
459.711	6555
459.740	7030
459.780	7695
459.820	8093
459.849	8309
459.900	8383
459.917	8297
459.981	8878
459.986	8884
460.054	7964
460.061	7983
460.123	8679
460.141	8733
460.191	9526
460.222	10335
460.260	11481
460.302	12696
460.328	12097
460.382	10538
460.397	10686
460.462	11133
460.465	11342
460.534	17687
460.543	18455
460.602	53229
460.623	66390
460.671	106331
460.703	141944
460.739	138787
460.783	129065
460.808	107321
460.864	24660
460.876	19057
460.944	9816
460.945	9730
461.013	8445
461.024	8397
461.081	8643
461.104	8739
461.150	8366
461.184	8022
461.218	7862
461.264	7556
461.286	7463
461.345	7402
461.355	7355
461.423	7156
461.425	7149
461.491	8040
461.505	8334
461.559	12631
461.585	14589
461.628	22920
461.665	30803
461.696	35183
461.745	45230
461.764	40032
461.825	16277
461.832	15749
461.901	9244
461.905	9087
461.969	8146
461.985	7916
462.037	8029
462.065	7957
462.105	8436
462.145	9382
462.173	12858
462.225	18721
462.241	20413
462.305	28970
462.310	28386
462.378	19342
462.385	17827
462.446	10741
462.465	9094
462.514	8936
462.545	9136
462.582	9041
462.625	8811
462.650	8605
462.705	8219
462.718	8346
462.785	8666
462.786	8723
462.854	12216
462.865	12809
462.922	15622
462.945	17188
462.990	14415
463.025	10984
463.058	9644
463.104	8087
463.126	7971
463.184	7733
463.194	7764
463.262	8598
463.264	8610
463.330	9149
463.344	9221
463.398	10061
463.424	10567
463.466	10559
463.504	10604
463.533	10649
463.583	10306
463.601	10360
463.663	10855
463.669	11064
463.737	13444
463.743	13671
463.805	19812
463.823	21526
463.873	31174
463.903	37182
463.940	41529
463.982	47412
464.008	39315
464.062	19352
464.076	17978
464.142	10577
464.144	10518
464.211	9687
464.221	9586
464.279	10290
464.301	10555
464.347	10916
464.381	11183
464.414	12118
464.461	13409
464.482	14177
464.540	16361
464.550	16025
464.617	13224
464.620	13099
464.685	13034
464.699	13111
464.753	14789
464.779	15621
464.820	17231
464.859	18700
464.888	18489
464.938	17758
464.956	17968
465.018	18800
465.023	18660
465.091	16560
465.098	16287
465.158	15703
465.177	15574
465.226	15461
465.257	15363
465.293	15281
465.336	15023
465.361	16057
465.416	18494
465.428	19501
465.495	24733
465.496	24854
465.563	37709
465.575	39915
465.631	50692
465.654	55560
465.698	38516
465.734	23213
465.765	19945
465.813	15141
465.833	15023
465.893	15062
465.900	15138
465.968	15700
465.972	15703
466.035	15593
466.052	15575
466.102	15847
466.131	15935
466.170	16578
466.210	17161
466.237	17251
466.290	17327
466.304	17451
466.369	17912
466.372	17975
466.439	18871
466.449	18959
466.506	20018
466.528	20385
466.573	24924
466.607	28288
466.641	39549
466.687	55067
466.708	61735
466.766	80098
466.775	75151
466.842	36810
466.845	34908
466.909	24709
466.925	22311
466.977	21958
467.004	21779
467.044	21963
467.083	22057
467.111	23687
467.163	26625
467.178	27375
467.242	30241
467.245	30203
467.312	28184
467.321	27859
467.379	26753
467.400	26273
467.446	27712
467.480	28656
467.559	26454
467.638	24031
467.717	24183
467.796	25642
467.875	27201
467.955	27858
468.034	32283
468.113	66624
468.192	97915
468.271	44273
468.350	28599
468.429	31452
468.508	31216
468.588	28071
468.667	25088
468.746	26065
468.825	24176
468.904	21940
468.983	22059
469.062	32064
469.141	38360
469.220	22727
469.299	18348
469.378	20993
469.456	22872
469.535	23369
469.614	20285
469.693	21592
469.772	26886
469.851	33774
469.930	27864
470.009	20531
470.088	19818
470.166	20464
470.245	22250
470.324	26067
470.403	25207
470.482	21074
470.560	19396
470.639	20215
470.718	21559
470.797	20789
470.875	22175
470.954	29351
471.033	33179
471.111	17652
471.190	16646
471.269	15640
471.347	16293
471.426	17125
471.505	18682
471.583	20590
471.662	20547
471.740	18160
471.819	18765
471.898	17219
471.976	17588
472.055	17210
472.133	19576
472.212	26457
472.290	27132
472.369	19739
472.447	17262
472.526	16504
472.604	17463
472.683	18659
472.761	18413
472.839	17736
472.918	17402
472.996	16854
473.075	19318
473.153	20388
473.231	16849
473.310	19206
473.388	19467
473.466	18355
473.545	19564
473.623	23191
473.701	24801
473.780	18124
473.858	17186
473.936	19886
474.014	17885
474.093	19694
474.171	27374
474.249	35099
474.327	28127
474.405	16830
474.484	16544
474.562	16932
474.640	17190
474.718	17204
474.796	18667
474.874	17341
474.952	16506
475.030	16451
475.108	16796
475.187	18965
475.265	19715
475.343	23871
475.421	27083
475.499	19383
475.577	18638
475.655	22244
475.733	38540
475.811	63157
475.889	61363
475.966	49531
476.044	16954
476.122	18621
476.200	21746
476.278	20826
476.356	14783
476.434	17735
476.512	18502
476.590	21830
476.667	22001
476.745	14871
476.823	16530
476.901	16458
476.979	16559
477.056	16232
477.134	15967
477.212	17435
477.290	16296
477.367	14472
477.445	13344
477.523	15074
477.601	14400
477.678	14824
477.756	18122
477.834	20663
477.911	15418
477.989	14605
478.066	14919
478.144	16854
478.222	18525
478.299	22658
478.377	26361
478.454	18398
478.532	13711
478.609	14310
478.687	16161
478.764	14593
478.842	14448
478.919	16221
478.997	16365
479.074	14558
479.152	15494
479.229	20461
479.307	16991
479.384	13495
479.461	13293
479.539	13694
479.616	16789
479.694	15324
479.771	15627
479.848	17463
479.926	20069
480.003	24152
480.080	15152
480.157	13188
480.235	13536
480.312	13928
480.389	15780
480.467	21635
480.544	29965
480.621	18693
480.698	16049
480.775	17829
480.853	18370
480.930	16483
481.007	17044
481.084	20912
481.161	30047
481.238	24828
481.315	15077
481.392	14242
481.470	16276
481.547	15771
481.624	15220
481.701	14148
481.778	15706
481.855	16814
481.932	22781
482.009	36871
482.086	33591
482.163	17564
482.240	21228
482.317	29870
482.393	28457
482.470	18711
482.547	17244
482.624	16997
482.701	17590
482.778	16949
482.855	14543
482.932	15197
483.009	15166
483.085	18262
483.162	24731
483.239	25559
483.316	17365
483.393	16167
483.469	16970
483.546	17633
483.623	18904
483.699	15970
483.776	16272
483.853	18550
483.930	22892
484.006	49946
484.083	88646
484.160	56114
484.236	63479
484.313	56955
484.389	42882
484.466	39290
484.543	37407
484.619	39000
484.696	39862
484.772	40208
484.849	40813
484.925	35514
485.002	32928
485.078	35255
485.155	35286
485.231	32933
485.308	30858
485.384	33483
485.461	37154
485.537	58399
485.614	74609
485.690	37497
485.766	30643
485.843	32239
485.919	38120
485.995	42328
486.072	30085
486.148	28656
486.224	28779
486.301	30591
486.377	32939
486.453	35024
486.530	32734
486.606	40063
486.682	47593
486.758	53713
486.835	65459
486.911	51386
486.987	72190
487.063	78834
487.139	84150
487.215	73570
487.292	49327
487.368	39340
487.444	44763
487.520	55847
487.596	68736
487.672	96600
487.748	216407
487.824	390761
487.900	244068
487.976	92173
488.052	59250
488.128	54194
488.204	44478
488.280	37289
488.356	39638
488.432	63538
488.508	104357
488.584	50110
488.660	31258
488.736	30214
488.812	29871
488.888	35593
488.964	41550
489.039	68385
489.115	111898
489.191	87825
489.267	35089
489.343	29688
489.418	26797
489.494	25224
489.570	23563
489.646	27677
489.722	25804
489.797	27459
489.873	34456
489.949	72730
490.024	77763
490.100	27945
490.176	25147
490.251	27959
490.327	33807
490.403	28334
490.478	23850
490.554	21938
490.629	22193
490.705	22057
490.781	24080
490.856	23558
490.932	25647
491.007	24595
491.083	26081
491.158	23596
491.234	28000
491.309	53705
491.385	67241
491.460	27195
491.536	25210
491.611	24035
491.686	24175
491.762	28906
491.837	45392
491.913	79253
491.988	103575
492.063	141258
492.139	61470
492.214	38010
492.289	22120
492.365	19140
492.440	22719
492.515	22562
492.590	23115
492.666	20412
492.741	24242
492.816	37542
492.891	27618
492.967	20993
493.042	20912
493.117	23996
493.192	28034
493.267	44127
493.342	146901
493.418	251621
493.493	59722
493.568	20773
493.643	18324
493.718	22171
493.793	29938
493.868	33856
493.943	23625
494.018	19513
494.093	18414
494.168	18183
494.243	16160
494.318	15872
494.393	15651
494.468	16912
494.543	16503
494.618	17414
494.693	17569
494.768	16455
494.842	18906
494.917	16466
494.992	16386
495.067	16710
495.142	16034
495.217	17919
495.292	17496
495.366	18802
495.441	23424
495.516	27447
495.591	33131
495.665	77436
495.740	209117
495.815	136735
495.890	30782
495.964	22851
496.039	24153
496.114	24265
496.188	31806
496.263	32102
496.338	23526
496.412	24841
496.487	27399
496.561	28440
496.636	29476
496.710	26433
496.785	27399
496.860	31076
496.934	26137
497.009	25195
497.083	27546
497.158	28112
497.232	31322
497.307	35839
497.381	33607
497.455	35143
497.530	46207
497.604	39643
497.679	38119
497.753	51238
497.827	66926
497.902	63430
497.976	69284
498.050	113368
498.125	386302
498.199	531793
498.273	112690
498.348	68337
498.422	59500
498.496	57541
498.570	54345
498.645	46865
498.719	45395
498.793	47960
498.867	60768
498.941	78528
499.016	152622
499.090	450948
499.164	260829
499.238	39693
499.312	30293
499.386	34404
499.460	32400
499.534	29910
499.609	33715
499.683	45793
499.757	46583
499.831	68938
499.905	271201
499.979	360794
500.053	68132
500.127	54746
500.201	39643
500.275	28752
500.349	26259
500.422	28802
500.496	36114
500.570	60934
500.644	148125
500.718	330739
500.792	125776
500.866	28574
500.940	31330
501.013	30926
501.087	26862
501.161	37478
501.235	52260
501.309	87682
501.382	256464
501.456	308060
501.530	69155
501.603	97040
501.677	57431
501.751	22124
501.825	24900
501.898	36723
501.972	107578
502.046	101680
502.119	27923
502.193	45710
502.266	122440
502.340	86572
502.413	50331
502.487	108260
502.561	78314
502.634	33165
502.708	21155
502.781	19695
502.855	17581
502.928	15361
503.002	16591
503.075	15819
503.149	17100
503.222	17755
503.295	20620
503.369	23608
503.442	29517
503.516	72323
503.589	213017
503.662	186283
503.736	61175
503.809	100517
503.882	111865
503.956	120224
504.029	158506
504.102	128083
504.175	188875
504.249	120079
504.322	60120
504.395	41630
504.468	27755
504.542	23143
504.615	19411
504.688	17677
504.761	15142
504.834	18789
504.907	19854
504.980	27223
505.053	19605
505.127	17996
505.200	24460
505.273	23761
505.346	18133
505.419	14177
505.492	14625
505.565	12048
505.638	12274
505.711	12591
505.784	11830
505.857	12438
505.930	13520
506.003	12368
506.076	14831
506.149	17246
506.221	22844
506.294	20047
506.367	37528
506.440	135487
506.513	115978
506.586	25798
506.659	17707
506.731	13289
506.804	14462
506.877	19691
506.950	17738
507.022	13332
507.095	15221
507.168	20616
507.241	14826
507.313	11951
507.386	12105
507.459	16445
507.531	12990
507.604	12019
507.677	12470
507.749	11567
507.822	14549
507.894	23413
507.967	32519
508.040	22566
508.112	18588
508.185	17245
508.257	16471
508.330	21034
508.402	18537
508.475	17585
508.547	18132
508.620	17715
508.692	24087
508.765	21151
508.837	14463
508.909	14155
508.982	15212
509.054	15564
509.127	15630
509.199	13705
509.271	13392
509.344	13908
509.416	14045
509.488	14054
509.560	14813
509.633	14842
509.705	16708
509.777	16807
509.849	20370
509.922	19001
509.994	15701
510.066	16609
510.138	16365
510.210	27847
510.283	29077
510.355	24024
510.427	20317
510.499	19109
510.571	18896
510.643	19026
510.715	24534
510.787	24182
510.859	20007
510.931	21619
511.003	24517
511.076	24777
511.148	18362
511.219	19090
511.291	25535
511.363	34519
511.435	19581
511.507	16406
511.579	17245
511.651	17112
511.723	15837
511.795	16805
511.867	16687
511.939	18964
512.010	32653
512.082	34161
512.154	18257
512.226	18238
512.298	21202
512.369	32689
512.441	27656
512.513	24846
512.585	21460
512.656	21371
512.728	21600
512.800	20686
512.871	18275
512.943	18560
513.015	17276
513.086	18382
513.158	19097
513.230	20068
513.301	23736
513.373	25851
513.444	19652
513.516	17668
513.588	17185
513.659	18133
513.731	20454
513.802	18640
513.874	27726
513.945	50215
514.016	29707
514.088	18081
514.159	17800
514.231	21418
514.302	28271
514.374	24403
514.445	21767
514.516	37223
514.588	37129
514.659	24044
514.730	34112
514.802	32527
514.873	23849
514.944	29083
515.016	26401
515.087	25879
515.158	28153
515.229	40482
515.301	29501
515.372	33418
515.443	31488
515.514	26660
515.585	21814
515.656	20816
515.728	19110
515.799	17668
515.870	19673
515.941	18770
516.012	19804
516.083	22855
516.154	24511
516.225	26496
516.296	26310
516.367	26059
516.438	26576
516.509	30620
516.580	36313
516.651	74909
516.722	276287
516.793	222644
516.864	49219
516.935	43336
517.006	44583
517.077	52770
517.148	94455
517.219	262377
517.289	594495
517.360	262331
517.431	109790
517.502	30727
517.573	25651
517.643	24275
517.714	26186
517.785	29057
517.856	29234
517.926	33301
517.997	36675
518.068	44009
518.138	55011
518.209	70534
518.280	179844
518.350	735366
518.421	528287
518.492	89724
518.562	54640
518.633	59442
518.703	68722
518.774	111261
518.845	219536
518.915	253371
518.986	118810
519.056	67461
519.127	62287
519.197	78968
519.268	158688
519.338	153369
519.408	40506
519.479	36734
519.549	31457
519.620	23528
519.690	19909
519.760	18928
519.831	19454
519.901	20766
519.971	17846
520.042	19219
520.112	21145
520.182	23346
520.253	24997
520.323	19910
520.393	24429
520.463	39944
520.534	27542
520.604	53054
520.674	33877
520.744	26213
520.814	53106
520.885	60759
520.955	48051
521.025	176701
521.095	122119
521.165	24451
521.235	20336
521.305	18686
521.375	16367
521.445	18258
521.515	20541
521.585	23506
521.655	24338
521.725	19937
521.795	21097
521.865	16002
521.935	22582
522.005	25674
522.075	16683
522.145	17768
522.215	19642
522.285	26164
522.355	30755
522.424	53673
522.494	59601
522.564	33100
522.634	34529
522.704	98111
522.774	64094
522.843	19320
522.913	17729
522.983	21579
523.053	19404
523.122	18652
523.192	20205
523.262	48279
523.331	71502
523.401	25949
523.471	14920
523.540	16572
523.610	13960
523.680	13837
523.749	15089
523.819	19146
523.888	22450
523.958	16064
524.027	15256
524.097	16642
524.166	14527
524.236	15851
524.305	17743
524.375	14974
524.444	15263
524.514	17040
524.583	17185
524.653	19274
524.722	21523
524.791	18008
524.861	16121
524.930	15871
524.999	15756
525.069	21213
525.138	17734
525.207	21174
525.277	19618
525.346	17467
525.415	18074
525.484	18082
525.554	22097
525.623	26041
525.692	27712
525.761	29480
525.830	33018
525.900	41730
525.969	57351
526.038	94450
526.107	164182
526.176	498880
526.245	561932
526.314	201730
526.383	246740
526.452	431351
526.522	519997
526.591	742451
526.660	209342
526.729	99565
526.797	89510
526.867	126326
526.935	383467
527.004	1000545
527.073	945473
527.142	164644
527.211	56523
527.280	37180
527.349	32832
527.418	23549
527.487	21354
527.555	17359
527.624	16653
527.693	16782
527.762	16803
527.831	15299
527.899	16233
527.968	15412
528.037	14090
528.106	16562
528.174	23288
528.243	24307
528.312	25532
528.380	38447
528.449	18919
528.518	14714
528.586	12148
528.655	12970
528.723	12063
528.792	12542
528.861	13083
528.929	13847
528.998	13365
529.066	15094
529.135	20501
529.203	19747
529.272	21463
529.340	29237
529.409	26468
529.477	24936
529.545	26460
529.614	30356
529.682	30957
529.751	39846
529.819	38535
529.887	39776
529.956	34255
530.024	33007
530.092	30268
530.161	30482
530.229	35294
530.297	36231
530.365	32888
530.434	31375
530.502	34518
530.570	32640
530.638	27617
530.707	28495
530.775	27862
530.843	25755
530.911	29296
530.979	28784
531.047	31600
531.115	34021
531.183	30342
531.252	28871
531.320	28276
531.388	27312
531.456	29526
531.524	31609
531.592	30855
531.660	37238
531.728	33978
531.796	32172
531.864	30653
531.932	32964
532.000	31792
532.067	34583
532.135	37435
532.203	38334
532.271	42451
532.339	46637
532.407	68708
532.475	66245
532.542	43354
532.610	43000
532.678	45601
532.746	82464
532.814	220152
532.881	108081
532.949	44014
533.017	37814
533.084	34374
533.152	33615
533.220	33776
533.287	35088
533.355	35730
533.423	35965
533.490	36283
533.558	35205
533.625	35010
533.693	36179
533.761	34449
533.828	35971
533.896	34925
533.963	43873
534.031	50964
534.098	57167
534.166	48673
534.233	37663
534.300	37625
534.368	38987
534.435	36305
534.503	37283
534.570	40810
534.637	42648
534.705	44863
534.772	50179
534.840	68000
534.907	207308
534.974	405654
535.041	96602
535.109	41800
535.176	33757
535.243	31017
535.310	30612
535.378	30787
535.445	28023
535.512	27612
535.579	26883
535.646	25823
535.714	26758
535.781	29037
535.848	29991
535.915	31561
535.982	32091
536.049	31664
536.116	31440
536.183	28481
536.250	27664
536.317	27167
536.384	28066
536.451	31892
536.518	32823
536.585	30017
536.652	32368
536.719	36158
536.786	32733
536.853	28681
536.920	32805
536.987	41625
537.053	39281
537.120	88725
537.187	123775
537.254	30447
537.321	24509
537.388	24854
537.454	21771
537.521	20644
537.588	20800
537.654	23693
537.721	25553
537.788	24336
537.855	21874
537.921	22461
537.988	23155
538.055	23158
538.121	22063
538.188	21288
538.254	25947
538.321	36332
538.388	31746
538.454	21281
538.521	21997
538.587	21051
538.654	20521
538.720	20625
538.787	20845
538.853	20664
538.920	23423
538.986	23598
539.053	20091
539.119	20557
539.185	21104
539.252	22273
539.318	27218
539.385	26903
539.451	24484
539.517	25221
539.583	25037
539.650	32926
539.716	84222
539.782	45742
539.849	22087
539.915	21605
539.981	20856
540.047	22848
540.114	21399
540.180	22623
540.246	22339
540.312	25352
540.378	35089
540.444	39818
540.510	35730
540.576	87025
540.643	51831
540.709	20665
540.775	21356
540.841	19864
540.907	23030
540.973	33554
541.039	31255
541.105	28055
541.171	22958
541.237	20758
541.303	21528
541.369	21708
541.435	25363
541.500	32280
541.566	27557
541.632	19866
541.698	18966
541.764	18474
541.830	17909
541.896	17204
541.961	19069
542.027	18991
542.093	19690
542.159	21474
542.224	21826
542.290	26362
542.356	32716
542.421	36741
542.487	26224
542.553	21832
542.618	22553
542.684	21646
542.750	19876
542.815	21931
542.881	27986
542.947	69201
543.012	78794
543.078	23038
543.143	19487
543.209	20112
543.274	20592
543.340	20049
543.405	30958
543.471	56761
543.536	26919
543.602	20238
543.667	18618
543.732	19503
543.798	17721
543.863	20564
543.928	18317
543.994	17351
544.059	17309
544.124	18677
544.190	18445
544.255	19285
544.320	20495
544.386	19858
544.451	24376
544.516	24523
544.581	25079
544.646	42897
544.712	89467
544.777	34221
544.842	23305
544.907	24060
544.972	22129
545.037	22187
545.102	23460
545.168	23619
545.233	24714
545.298	24697
545.363	27747
545.428	28567
545.493	35348
545.558	65517
545.623	47405
545.688	24623
545.753	23497
545.818	23894
545.883	24508
545.947	23075
546.012	26124
546.077	27286
546.142	27827
546.207	26285
546.272	29265
546.337	31098
546.401	29627
546.466	29151
546.531	28757
546.596	30299
546.661	31350
546.725	30258
546.790	30265
546.855	32522
546.919	33114
546.984	36247
547.049	38357
547.113	44240
547.178	45767
547.243	49916
547.307	56168
547.372	62027
547.436	67931
547.501	63185
547.565	66559
547.630	65848
547.695	63646
547.759	66042
547.823	66827
547.888	62683
547.952	63048
548.017	66055
548.081	77832
548.146	78354
548.210	76539
548.274	70539
548.339	70937
548.403	65813
548.468	61916
548.532	60111
548.596	63039
548.660	63338
548.725	66269
548.789	73353
548.853	78162
548.917	69880
548.982	73873
549.046	73638
549.110	59130
549.174	58206
549.238	62968
549.303	68174
549.367	72043
549.431	69759
549.495	66782
549.559	65625
549.623	71229
549.687	80978
549.751	85052
549.815	91737
549.879	95826
549.943	88671
550.007	92641
550.071	95781
550.135	91991
550.199	85687
550.263	82383
550.327	80534
550.391	89899
550.455	92647
550.519	91397
550.582	96624
550.646	108963
550.710	118109
550.774	111502
550.838	111250
550.901	115733
550.965	123413
551.029	130243
551.093	142279
551.156	160668
551.220	192761
551.284	218745
551.347	161766
551.411	162683
551.475	181180
551.538	128837
551.602	115673
551.666	106371
551.729	100580
551.793	98143
551.856	98151
551.920	96280
551.983	97002
552.047	94719
552.110	94179
552.174	96439
552.237	96528
552.301	92369
552.364	87106
552.428	85672
552.491	85569
552.554	89496
552.618	88761
552.681	91191
552.745	90161
552.808	94719
552.871	105874
552.934	100792
552.998	95259
553.061	92846
553.124	90210
553.187	88969
553.251	93429
553.314	97205
553.377	97466
553.440	114519
553.503	185824
553.567	354302
553.630	160892
553.693	100425
553.756	97244
553.819	95915
553.882	91275
553.945	90449
554.008	91210
554.071	91687
554.134	93308
554.197	88759
554.260	84834
554.323	89688
554.386	88485
554.449	91153
554.512	92995
554.575	88783
554.638	87988
554.701	87822
554.764	86866
554.827	84741
554.889	82182
554.952	78597
555.015	75768
555.078	77382
555.141	78621
555.203	76512
555.266	75191
555.329	75920
555.391	73370
555.454	73683
555.517	72592
555.580	69850
555.642	67458
555.705	65095
555.768	65451
555.830	65700
555.893	62240
555.955	60835
556.018	60072
556.080	59548
556.143	60414
556.206	60680
556.268	60103
556.330	59218
556.393	58600
556.455	58161
556.518	61195
556.580	65371
556.643	53474
556.705	51532
556.767	50061
556.830	51097
556.892	51881
556.955	55945
557.017	55312
557.079	48948
557.142	47148
557.204	48145
557.266	58974
557.328	60945
557.391	45219
557.453	41883
557.515	43826
557.577	45423
557.639	48102
557.701	44101
557.764	43867
557.826	47467
557.888	50464
557.950	54926
558.012	56508
558.074	70400
558.136	127295
558.198	375582
558.260	231438
558.322	69379
558.384	63130
558.446	67922
558.508	77958
558.570	91800
558.632	115569
558.694	155128
558.756	204613
558.818	483432
558.880	1373946
558.942	799721
559.003	438656
559.065	319158
559.127	109415
559.189	96004
559.251	100944
559.312	128364
559.374	254906
559.436	864207
559.498	750186
559.559	157191
559.621	101663
559.683	102169
559.744	141497
559.806	378093
559.868	811004
559.929	278951
559.991	102786
560.052	125007
560.114	330178
560.176	334340
560.237	187069
560.299	381147
560.360	149737
560.422	47289
560.483	37125
560.545	33391
560.606	31709
560.667	30552
560.729	29171
560.790	27128
560.852	26475
560.913	27328
560.974	25919
561.036	25318
561.097	24711
561.158	25999
561.220	26790
561.281	24965
561.342	25350
561.403	27186
561.465	29084
561.526	42563
561.587	65469
561.648	34742
561.709	25572
561.771	23957
561.832	24545
561.893	23645
561.954	23029
562.015	22816
562.076	23051
562.137	23228
562.198	23546
562.259	24336
562.320	23270
562.381	24068
562.442	27944
562.503	28027
562.564	23777
562.625	22643
562.686	22430
562.747	23059
562.808	23116
562.869	22282
562.930	24692
562.991	24373
563.051	22960
563.112	23311
563.173	22950
563.234	21594
563.294	22083
563.355	20640
563.416	22301
563.477	21856
563.537	21593
563.598	22668
563.659	22505
563.720	21059
563.780	22597
563.841	24230
563.901	23122
563.962	21280
564.023	21862
564.083	22795
564.144	22510
564.204	22433
564.265	21882
564.325	25150
564.386	35173
564.446	41582
564.507	23324
564.567	21525
564.628	21495
564.688	21381
564.749	21210
564.809	24166
564.869	25968
564.930	24130
564.990	22034
565.050	21585
565.111	21600
565.171	22128
565.231	22554
565.292	22424
565.352	20761
565.412	22420
565.472	23093
565.532	23678
565.593	22642
565.653	22355
565.713	23141
565.773	24353
565.833	25195
565.893	29441
565.953	26202
566.013	23848
566.074	25494
566.134	29086
566.194	36340
566.254	43257
566.314	32919
566.374	28200
566.434	29253
566.494	28551
566.554	29484
566.614	30073
566.673	30660
566.733	32115
566.793	32876
566.853	34208
566.913	34651
566.973	34393
567.033	35920
567.092	35362
567.152	34071
567.212	35023
567.272	36356
567.331	37692
567.391	37936
567.451	39893
567.511	43031
567.570	46220
567.630	38180
567.690	35857
567.749	35275
567.809	37817
567.868	39671
567.928	45049
567.988	49294
568.047	55176
568.107	62436
568.166	75709
568.226	96849
568.285	128180
568.345	137575
568.404	127860
568.464	118617
568.523	111844
568.582	112837
568.642	117594
568.701	130102
568.761	157060
568.820	208310
568.879	235933
568.939	215852
568.998	185295
569.057	153016
569.116	129100
569.176	112091
569.235	96607
569.294	84562
569.353	75580
569.413	67816
569.472	60634
569.531	55382
569.590	50469
569.649	47335
569.708	44978
569.767	41114
569.827	41418
569.886	39304
569.945	35326
570.004	33909
570.063	32938
570.122	32351
570.181	33420
570.240	31635
570.299	32618
570.358	31054
570.417	29389
570.475	26609
570.534	27156
570.593	26777
570.652	26798
570.711	26440
570.770	25207
570.829	26199
570.887	26090
570.946	26286
571.005	24083
571.064	23434
571.122	23430
571.181	25577
571.240	24003
571.299	22556
571.357	21657
571.416	23262
571.475	23280
571.533	26232
571.592	22686
571.650	22435
571.709	22363
571.768	22282
571.826	23241
571.885	21143
571.943	21078
572.002	20239
572.060	21649
572.119	19178
572.177	19885
572.236	19114
572.294	18793
572.352	19773
572.411	19177
572.469	19409
572.528	19374
572.586	20033
572.644	19107
572.703	22524
572.761	20679
572.819	18842
572.877	18777
572.936	17320
572.994	17406
573.052	17943
573.110	17935
573.169	18427
573.227	17765
573.285	17769
573.343	17871
573.401	18099
573.459	17831
573.517	17164
573.576	18946
573.634	18779
573.692	18316
573.750	18483
573.808	18634
573.866	18271
573.924	20867
573.982	21745
574.040	17805
574.098	17208
574.155	17182
574.213	16696
574.271	17887
574.329	17195
574.387	16536
574.445	17348
574.503	15247
574.560	16053
574.618	15765
574.676	15829
574.734	16933
574.792	16592
574.849	16408
574.907	16017
574.965	14845
575.022	14644
575.080	14914
575.138	15308
575.195	15809
575.253	14340
575.311	16201
575.368	15214
575.426	14436
575.483	15530
575.541	15228
575.598	14556
575.656	16339
575.713	15882
575.771	15903
575.828	16028
575.886	14884
575.943	15999
576.001	15843
576.058	16374
576.115	15924
576.173	17781
576.230	19312
576.287	19463
576.345	18762
576.402	16480
576.459	16186
576.517	16665
576.574	17986
576.631	17092
576.688	17321
576.746	15888
576.803	15945
576.860	15257
576.917	15344
576.974	15451
577.031	15912
577.089	16522
577.146	16089
577.203	15979
577.260	16370
577.317	16543
577.374	17814
577.431	18099
577.488	18093
577.545	15800
577.602	15810
577.659	16307
577.716	16800
577.773	18780
577.830	18689
577.886	17787
577.943	16869
578.000	16943
578.057	17074
578.114	17701
578.171	19723
578.227	23713
578.284	25938
578.341	23517
578.398	21857
578.454	20594
578.511	20805
578.568	20523
578.625	19698
578.681	17712
578.738	16853
578.794	16709
578.851	17016
578.908	16657
578.964	16737
579.021	16621
579.077	16517
579.134	16594
579.190	16870
579.247	16983
579.303	15898
579.360	15751
579.416	16637
579.473	16496
579.529	15900
579.586	16255
579.642	16919
579.698	17475
579.755	17403
579.811	17833
579.867	19015
579.924	19090
579.980	19547
580.036	23124
580.093	24083
580.149	30897
580.205	38173
580.261	33730
580.317	28955
580.374	25944
580.430	26500
580.486	23685
580.542	23189
580.598	22230
580.619	21665
580.654	20710
580.692	20341
580.710	20188
580.765	20085
580.767	20103
580.823	20192
580.838	19988
580.879	19518
580.911	19634
580.935	19750
580.984	19769
580.991	19796
581.047	20245
581.057	20164
581.103	19915
581.130	20109
581.159	20331
581.203	23230
581.215	24007
581.270	22351
581.276	22247
581.326	21504
581.349	21390
581.382	21251
581.422	20995
581.438	20878
581.494	20313
581.494	20306
581.550	21352
581.567	21265
581.606	21043
581.640	20281
581.661	19846
581.713	21090
581.717	21197
581.773	19742
581.786	19617
581.829	19336
581.859	19821
581.885	20190
581.932	20990
581.940	21182
581.996	20650
582.004	20583
582.052	20080
582.077	20476
582.107	21038
582.150	21231
582.163	21281
582.219	20631
582.223	20645
582.274	20978
582.296	21084
582.330	21182
582.368	22015
582.386	22467
582.441	22187
582.441	22191
582.497	22057
582.514	22095
582.552	22616
582.587	24019
582.608	24706
582.659	24571
582.663	24568
582.719	23657
582.732	23760
582.774	24036
582.805	23501
582.830	23250
582.877	24638
582.885	24822
582.941	25229
582.950	25468
582.996	26916
583.023	28309
583.052	29963
583.095	31022
583.107	31311
583.162	33237
583.168	33474
583.218	35176
583.240	34342
583.273	33058
583.313	31075
583.328	30251
583.384	28380
583.385	28337
583.439	27565
583.458	27398
583.494	26973
583.531	26187
583.549	25811
583.603	25238
583.605	25215
583.660	25181
583.676	25054
583.715	25009
583.748	25587
583.770	25858
583.820	24873
583.825	24784
583.881	24879
583.893	25069
583.936	25630
583.965	25243
583.991	24953
584.038	25141
584.046	25212
584.101	25555
584.110	25647
584.156	25833
584.183	26070
584.211	26315
584.255	26491
584.266	26562
584.321	26618
584.328	26738
584.376	27454
584.400	27111
584.431	27013
584.472	27483
584.486	27411
584.541	28151
584.545	28153
584.596	28787
584.617	29050
584.651	29453
584.689	29659
584.706	29740
584.761	30705
584.762	30707
584.816	30346
584.834	30844
584.871	31857
584.906	31621
584.926	31543
584.978	33228
584.980	33289
585.035	34214
585.051	34677
585.090	36194
585.123	37623
585.145	38766
585.195	41390
585.200	41698
585.254	46058
585.267	47549
585.309	54309
585.340	59877
585.364	63257
585.412	67298
585.419	67711
585.473	71641
585.484	73199
585.528	84984
585.556	96273
585.583	117898
585.628	170716
585.637	193972
585.692	374704
585.700	413440
585.747	635881
585.772	658848
585.801	526486
585.845	269139
585.856	224408
585.910	106540
585.917	95501
585.965	73728
585.989	64625
586.019	59023
586.061	54350
586.074	53376
586.128	50259
586.133	50105
586.183	49883
586.205	49281
586.237	48012
586.277	47916
586.292	48102
586.346	46991
586.349	46996
586.401	47441
586.421	47465
586.455	47626
586.493	48950
586.509	50664
586.564	56423
586.565	56637
586.618	71843
586.637	75740
586.672	73230
586.709	64726
586.727	61510
586.781	59474
586.781	59489
586.835	58170
586.853	57829
586.889	57088
586.925	55498
586.944	55145
586.996	55881
586.998	55928
587.052	57673
587.068	58032
587.106	58834
587.140	59784
587.161	60432
587.212	62646
587.215	62812
587.269	65422
587.284	66302
587.323	67696
587.356	69004
587.377	70536
587.427	73468
587.431	73673
587.485	77663
587.499	78584
587.539	81022
587.571	83317
587.593	85845
587.643	91586
587.648	92060
587.702	96976
587.715	98511
587.755	104785
587.786	108853
587.810	111854
587.858	119675
587.864	120680
587.917	130007
587.930	132383
587.971	142377
588.001	150101
588.025	156543
588.073	170094
588.079	172123
588.133	189693
588.145	194167
588.187	213416
588.217	228136
588.241	242377
588.288	270512
588.295	274979
588.348	316284
588.360	325272
588.402	364504
588.431	393951
588.456	424629
588.503	486324
588.510	497239
588.564	591629
588.575	612403
588.617	717076
588.646	792847
588.671	886436
588.718	1073607
588.725	1117327
588.778	1467036
588.789	1538861
588.832	1865591
588.861	2080506
588.886	2168279
588.932	2272505
588.939	2258246
588.993	2073685
589.004	2046985
589.047	2194160
589.075	2263526
589.100	2167722
589.147	1933368
589.154	1880651
589.207	1451143
589.218	1364743
589.261	1223649
589.290	1137266
589.314	1146168
589.361	1181215
589.368	1211648
589.421	1478726
589.433	1538095
589.475	1859133
589.504	2076363
589.528	2132760
589.576	2172639
589.582	2171983
589.635	2140077
589.647	2119726
589.689	1858705
589.718	1653087
589.742	1410289
589.790	927614
589.795	901689
589.849	666010
589.861	613456
589.902	520363
589.932	454550
589.955	417498
590.004	341118
590.009	336176
590.062	286249
590.075	274353
590.115	248728
590.146	229450
590.168	219234
590.218	197401
590.222	196004
590.275	178259
590.289	173739
590.328	164040
590.360	155986
590.381	150935
590.431	139079
590.435	138515
590.488	128802
590.503	126086
590.541	120876
590.574	116359
590.594	114255
590.645	108624
590.647	108423
590.700	101717
590.716	99764
590.753	97734
590.787	95664
590.806	94273
590.859	90749
590.859	90757
590.912	87599
590.930	86526
590.965	83805
591.001	81023
591.018	80618
591.071	79343
591.072	79267
591.124	75939
591.143	74680
591.177	74017
591.214	73372
591.230	73007
591.283	71398
591.285	71281
591.336	71292
591.356	71177
591.389	69714
591.427	67549
591.442	67084
591.495	65571
591.498	65378
591.547	63378
591.569	62510
591.600	62369
591.640	61913
591.653	61646
591.706	60345
591.711	60142
591.759	61629
591.782	62319
591.811	63399
591.853	64849
591.864	64079
591.917	59620
591.924	58908
591.969	57879
591.995	57216
592.022	57431
592.066	57682
592.075	57951
592.127	59112
592.137	59294
592.180	63385
592.208	65814
592.233	63321
592.279	58296
592.285	58166
592.338	56512
592.350	56071
592.390	53909
592.421	52162
592.443	52789
592.491	54006
592.495	54040
592.548	53560
592.562	53361
592.600	52787
592.633	52179
592.653	52266
592.704	52055
592.705	52360
592.775	52702
592.846	52038
592.916	53509
592.987	54300
593.058	54378
593.128	51007
593.199	50613
593.270	50468
593.341	50270
593.411	50143
593.482	51947
593.553	51608
593.623	50859
593.694	52018
593.764	53732
593.835	52045
593.906	51312
593.976	51128
594.047	54121
594.117	58423
594.188	61391
594.258	53389
594.329	52660
594.399	53729
594.470	53264
594.540	54494
594.611	54640
594.681	55434
594.751	55733
594.822	56908
594.892	60327
594.963	61020
595.033	61539
595.103	61982
595.174	64138
595.244	72917
595.314	89208
595.384	70072
595.455	64652
595.525	65164
595.595	66868
595.665	67479
595.736	67425
595.806	66888
595.876	67705
595.946	67972
596.016	67789
596.087	69700
596.157	71159
596.227	70270
596.297	73305
596.367	75892
596.437	82773
596.507	88597
596.577	102007
596.647	87651
596.717	83676
596.787	85534
596.857	86664
596.927	84404
596.997	87661
597.067	88304
597.137	93652
597.207	93919
597.277	91459
597.347	87600
597.417	85584
597.487	84963
597.557	86651
597.626	89923
597.696	92053
597.766	95525
597.836	104853
597.906	91597
597.975	83277
598.045	82100
598.115	86073
598.185	88602
598.254	97575
598.324	104503
598.394	108421
598.464	105306
598.533	105545
598.603	99442
598.672	96490
598.742	98704
598.812	98573
598.881	100376
598.951	101593
599.020	98944
599.090	102713
599.159	105247
599.229	103496
599.299	100780
599.368	103924
599.437	104642
599.507	99796
599.576	98387
599.646	100486
599.715	102047
599.785	97179
599.854	95964
599.924	99867
599.993	96565
600.062	97018
600.132	97899
600.201	100160
600.270	111765
600.340	120439
600.409	116848
600.478	117353
600.547	118311
600.617	118171
600.686	100176
600.755	97150
600.824	94413
600.894	93875
600.963	92984
601.032	93208
601.101	91877
601.170	91998
601.239	90939
601.308	95440
601.378	94874
601.447	93720
601.516	93366
601.585	97326
601.654	101788
601.723	102735
601.792	103493
601.861	109444
601.930	118966
601.999	119058
602.068	113510
602.137	116217
602.206	117429
602.275	118015
602.343	120254
602.412	122611
602.481	118122
602.550	118931
602.619	119594
602.688	120438
602.756	121949
602.825	122009
602.894	123946
602.963	123781
603.032	124702
603.100	127622
603.169	123304
603.238	127739
603.307	124125
603.375	123722
603.444	129075
603.513	126415
603.581	125446
603.650	132995
603.719	122329
603.787	116003
603.856	117775
603.924	119492
603.993	123743
604.061	126425
604.130	130269
604.198	133738
604.267	134722
604.335	138041
604.404	138752
604.472	142128
604.541	142129
604.609	144700
604.678	148577
604.746	149281
604.815	153159
604.883	155426
604.951	149014
605.020	152460
605.088	150086
605.156	145944
605.225	144424
605.293	144773
605.361	145798
605.429	148103
605.498	150682
605.566	152322
605.634	155251
605.702	158669
605.771	160163
605.839	165128
605.907	156724
605.975	156298
606.043	152860
606.111	148480
606.180	154633
606.248	157108
606.316	155207
606.384	153763
606.452	146813
606.520	135169
606.588	135932
606.656	131884
606.724	130468
606.792	123181
606.860	113654
606.928	105729
606.996	99303
607.064	97790
607.132	98602
607.200	104777
607.267	108829
607.335	109483
607.403	111947
607.471	111479
607.539	105470
607.607	108728
607.674	97459
607.742	98142
607.810	98637
607.878	97178
607.946	97269
608.013	100628
608.081	103085
608.149	104393
608.216	105279
608.284	109911
608.352	109126
608.419	109245
608.487	113626
608.555	109744
608.622	106155
608.690	109232
608.757	120121
608.825	126163
608.893	122696
608.960	121238
609.028	117243
609.095	121839
609.163	114788
609.230	105674
609.298	93775
609.365	96115
609.432	102399
609.500	109887
609.567	122551
609.635	140906
609.702	152615
609.769	152296
609.837	132133
609.904	114198
609.971	118673
610.039	140804
610.106	191136
610.173	371884
610.241	917327
610.308	993818
610.375	367976
610.442	170757
610.509	126042
610.577	116185
610.644	112798
610.711	113297
610.778	113986
610.845	117515
610.912	123097
610.980	132388
611.047	144952
611.114	141561
611.181	122960
611.248	119833
611.315	125011
611.382	128707
611.449	133387
611.516	137293
611.583	134684
611.650	136875
611.717	140417
611.784	147446
611.851	158008
611.918	177364
611.984	219368
612.051	326591
612.118	659977
612.185	1668693
612.252	1875909
612.319	484529
612.386	242630
612.452	195128
612.519	173407
612.586	170708
612.653	165308
612.719	162579
612.786	156528
612.853	145097
612.919	138040
612.986	140672
613.053	133693
613.120	126406
613.186	119640
613.253	122986
613.319	120567
613.386	123289
613.453	123738
613.519	126821
613.586	128365
613.652	141907
613.719	135864
613.785	136170
613.852	128615
613.918	128993
613.985	133542
614.051	155264
614.118	210172
614.184	257818
614.250	144996
614.317	132399
614.383	125663
614.449	127330
614.516	127476
614.582	129184
614.648	126482
614.715	124209
614.781	124177
614.847	122823
614.914	122556
614.980	122366
615.046	120548
615.112	123729
615.179	125917
615.245	130587
615.311	135986
615.377	155907
615.443	181238
615.509	160649
615.575	149529
615.642	147066
615.708	149560
615.774	160695
615.840	178335
615.906	210562
615.972	280807
616.038	459405
616.104	902646
616.170	1957713
616.236	2486833
616.302	863405
616.368	393247
616.434	279195
616.500	215205
616.565	216959
616.631	275295
616.697	263143
616.763	237525
616.829	322008
616.895	594425
616.961	768925
617.026	426198
617.092	213328
617.158	163843
617.224	147896
617.289	134189
617.355	126674
617.421	120382
617.487	120350
617.552	112264
617.618	110336
617.684	108266
617.749	110879
617.815	106142
617.880	102998
617.946	102026
618.012	104150
618.077	105716
618.143	102180
618.208	100998
618.274	108731
618.339	111396
618.405	97466
618.470	91748
618.536	94385
618.601	95226
618.667	90518
618.732	84863
618.798	83419
618.863	83174
618.928	82763
618.994	84454
619.059	86326
619.124	95018
619.190	91811
619.255	84038
619.320	83294
619.386	82219
619.451	81504
619.516	78974
619.581	80262
619.647	82478
619.712	83877
619.777	80178
619.842	80278
619.907	81363
619.972	83483
620.038	83774
620.103	79912
620.168	79354
620.233	81619
620.298	80336
620.363	81694
620.428	82813
620.493	85526
620.558	86307
620.623	87933
620.688	87284
620.753	85256
620.818	87160
620.883	88962
620.948	88656
621.013	87059
621.078	85794
621.143	86365
621.207	90606
621.272	88746
621.337	89566
621.402	88007
621.467	92006
621.532	95633
621.596	91037
621.661	86707
621.726	83112
621.791	84106
621.855	83484
621.920	87444
621.985	87727
622.049	92830
622.114	90596
622.179	90923
622.243	91305
622.308	92406
622.373	93162
622.437	93245
622.502	88980
622.566	88351
622.631	86995
622.695	89658
622.760	87699
622.824	88395
622.889	87362
622.953	90973
623.018	100720
623.082	111085
623.147	94025
623.211	93141
623.276	90601
623.340	88484
623.404	84535
623.469	83998
623.533	84868
623.597	82538
623.662	82363
623.726	79716
623.790	75391
623.854	73778
623.919	73774
623.983	75133
624.047	74426
624.111	76760
624.176	78288
624.240	78162
624.304	83058
624.368	79744
624.432	76991
624.496	78583
624.560	82476
624.625	88731
624.689	82236
624.753	83643
624.817	81954
624.881	78605
624.945	75534
625.009	72331
625.073	72569
625.137	74566
625.201	80361
625.265	85291
625.329	74954
625.393	75870
625.456	75968
625.520	78062
625.584	79661
625.648	87590
625.712	99650
625.776	147958
625.839	180337
625.903	117185
625.967	69118
626.031	80298
626.095	120209
626.158	87883
626.222	61843
626.286	56127
626.349	53875
626.413	51713
626.477	52010
626.540	52998
626.604	50190
626.668	50510
626.731	48698
626.795	49825
626.858	50127
626.922	48938
626.986	46593
627.049	47382
627.113	48612
627.176	48153
627.240	47043
627.303	47315
627.366	45586
627.430	47045
627.493	46984
627.557	46855
627.620	46451
627.684	46854
627.747	47952
627.810	44916
627.874	42527
627.937	41219
628.000	41291
628.064	42620
628.127	36906
628.190	36071
628.253	36785
628.317	36654
628.380	33678
628.443	33379
628.506	33246
628.569	32612
628.632	30751
628.696	31527
628.759	30537
628.822	30300
628.885	29165
628.948	29703
629.011	28296
629.074	29402
629.137	27973
629.200	27475
629.263	29045
629.326	27047
629.389	27061
629.452	27179
629.515	26483
629.578	26442
629.641	27591
629.704	27296
629.767	28371
629.830	27644
629.892	26178
629.955	24934
630.018	25988
630.081	27261
630.144	31669
630.207	29561
630.269	28338
630.332	27708
630.395	26926
630.458	24731
630.520	24298
630.583	25243
630.646	23773
630.708	24278
630.771	24316
630.834	25460
630.896	24716
630.959	23949
631.021	23908
631.084	24909
631.146	26405
631.209	29145
631.272	26590
631.334	26667
631.397	25996
631.459	26361
631.522	29003
631.584	30325
631.646	31999
631.709	34075
631.771	36973
631.834	35779
631.896	31600
631.958	28407
632.021	28092
632.083	25334
632.145	25073
632.208	25255
632.270	25560
632.332	23867
632.395	22372
632.457	23839
632.519	23446
632.581	23319
632.643	22009
632.706	23408
632.768	21085
632.830	22389
632.892	22362
632.954	23051
633.016	23162
633.078	23140
633.141	23218
633.203	23280
633.265	23285
633.327	22354
633.389	23083
633.451	25008
633.513	27778
633.575	28755
633.637	27620
633.698	28218
633.760	26461
633.822	27365
633.884	28161
633.946	29459
634.008	30436
634.070	33736
634.132	38366
634.193	41038
634.255	40786
634.317	41994
634.379	42155
634.441	39288
634.502	35527
634.564	33712
634.626	32609
634.687	35134
634.749	29011
634.811	26427
634.873	25126
634.934	24782
634.996	23072
635.057	24572
635.119	24984
635.181	26135
635.242	25763
635.304	25348
635.365	27149
635.427	25583
635.488	26901
635.550	26836
635.611	26748
635.673	27316
635.734	28685
635.796	31192
635.857	34999
635.918	37307
635.980	40071
636.041	43379
636.102	45543
636.164	47422
636.225	46120
636.286	42921
636.348	37573
636.409	33070
636.470	30320
636.531	28159
636.593	27501
636.654	26510
636.715	23076
636.776	22390
636.838	21391
636.899	22885
636.960	22373
637.021	22587
637.082	22429
637.143	23640
637.204	20583
637.265	19954
637.326	19473
637.387	20780
637.448	18986
637.509	20131
637.570	19443
637.631	19080
637.692	18075
637.753	17806
637.814	18619
637.875	17996
637.936	18745
637.997	17828
638.058	18841
638.119	19811
638.179	18031
638.240	17555
638.301	17791
638.362	16928
638.423	16906
638.483	18417
638.544	15198
638.605	17501
638.666	16171
638.726	17751
638.787	17098
638.848	16504
638.908	16929
638.969	15822
639.030	15452
639.090	15993
639.151	16397
639.211	17591
639.272	19293
639.332	26039
639.393	23557
639.453	18950
639.514	19621
639.574	18504
639.635	16558
639.695	16147
639.756	15533
639.816	16528
639.877	17180
639.937	23429
639.997	31620
640.058	21387
640.118	16051
640.178	17187
640.239	15024
640.299	15762
640.359	16316
640.420	16768
640.480	18977
640.540	22471
640.600	23700
640.661	23072
640.721	21164
640.781	27789
640.841	29660
640.901	20963
640.961	17632
641.021	18918
641.082	20969
641.142	24622
641.202	20825
641.262	15106
641.322	15620
641.382	14025
641.442	14838
641.502	14519
641.562	15431
641.622	15635
641.682	16957
641.742	19858
641.802	19569
641.861	17257
641.921	15894
641.981	16803
642.041	16913
642.101	17551
642.161	16370
642.221	13667
642.280	12973
642.340	14048
642.400	13718
642.460	14672
642.519	14267
642.579	14723
642.639	14876
642.698	13598
642.758	16970
642.818	15883
642.877	15008
642.937	15691
642.997	16584
643.056	20449
643.116	18210
643.175	17512
643.235	16616
643.294	17878
643.354	18958
643.414	21707
643.473	26801
643.532	34592
643.592	48238
643.651	76726
643.711	130499
643.770	244133
643.830	534245
643.889	1417867
643.948	756908
644.008	109011
644.067	50363
644.126	33779
644.186	26956
644.245	24041
644.304	18187
644.363	20085
644.423	18107
644.482	18478
644.541	19147
644.600	20082
644.659	25014
644.719	31235
644.778	47781
644.837	77170
644.896	148123
644.955	395805
645.014	271383
645.073	48817
645.132	27589
645.191	23412
645.250	20309
645.309	21946
645.368	21842
645.427	28249
645.486	39761
645.545	90022
645.604	46438
645.663	20079
645.722	18824
645.781	21583
645.840	23578
645.898	31423
645.957	45426
646.016	70500
646.075	122975
646.134	234828
646.192	532172
646.251	1218866
646.310	388345
646.369	67882
646.427	40028
646.486	32095
646.545	22378
646.603	20481
646.662	16794
646.721	17026
646.779	16471
646.838	18176
646.896	22713
646.955	30932
647.014	46088
647.072	83539
647.131	225217
647.189	227501
647.248	33229
647.306	17676
647.365	14792
647.423	12030
647.481	13350
647.540	12337
647.598	12011
647.657	11440
647.715	11640
647.773	10622
647.832	11974
647.890	9875
647.948	10575
648.007	11384
648.065	9600
648.123	10402
648.181	12939
648.240	13579
648.298	14804
648.356	10940
648.414	11433
648.472	11135
648.531	10340
648.589	10535
648.647	10225
648.705	11505
648.763	10446
648.821	11307
648.879	11845
648.937	14646
648.995	16757
649.053	23799
649.111	35436
649.169	56921
649.227	101115
649.285	195844
649.343	565919
649.401	577533
649.459	90703
649.516	49797
649.574	34776
649.632	51555
649.690	85378
649.748	46031
649.806	44140
649.863	81704
649.921	153960
649.979	199945
650.037	33465
650.094	14138
650.152	12418
650.210	10982
650.268	11634
650.325	11472
650.383	14746
650.440	10914
650.498	9390
650.556	8052
650.613	7802
650.671	8808
650.728	8469
650.786	10160
650.843	10783
650.901	11286
650.958	8623
651.016	8189
651.073	6825
651.131	7598
651.188	6165
651.246	7187
651.303	5693
651.360	7524
651.418	5813
651.475	7385
651.532	5614
651.590	7522
651.647	5520
651.704	6704
651.762	6480
651.819	7058
651.876	6330
651.933	6824
651.990	7031
652.048	5696
652.105	5357
652.162	6143
652.219	6141
652.276	6954
652.333	5735
652.390	5097
652.448	6170
652.505	7036
652.562	6981
652.619	8787
652.676	11318
652.733	17930
652.790	7920
652.847	5561
652.904	6637
652.961	5114
653.017	4704
653.074	6630
653.131	6502
653.188	4994
653.245	5791
653.302	6824
653.359	5361
653.415	6436
653.472	5857
653.529	7215
653.586	4848
653.642	6682
653.699	6270
653.756	5413
653.813	4726
653.869	7089
653.926	5450
653.983	5467
654.039	5549
654.096	5595
654.152	5129
654.209	5034
654.266	5899
654.322	5611
654.379	6250
654.435	7992
654.492	6889
654.548	8498
654.605	13191
654.661	11485
654.717	6169
654.774	6980
654.830	7496
654.887	8051
654.943	6481
655.000	8239
655.056	7764
655.112	7331
655.168	6141
655.225	7705
655.281	7646
655.337	8261
655.394	12338
655.450	11631
655.506	8634
655.562	11148
655.618	14168
655.675	7001
655.731	6934
655.787	6696
655.843	7825
655.899	7624
655.955	7875
656.011	8601
656.067	8247
656.123	9658
656.179	10549
656.235	11757
656.291	9651
656.347	11348
656.403	9754
656.459	9887
656.515	9367
656.571	8624
656.627	7063
656.683	7983
656.739	7899
656.795	6956
656.850	6869
656.906	8437
656.962	7626
657.018	6346
657.074	6576
657.129	8072
657.185	9953
657.241	18082
657.297	18667
657.352	8173
657.408	5408
657.464	7114
657.519	6123
657.575	5249
657.630	4901
657.686	6282
657.742	4417
657.797	5502
657.853	5376
657.908	6818
657.964	4157
658.019	5131
658.075	5336
658.130	6048
658.186	4688
658.241	5235
658.297	4485
658.352	5244
658.407	5659
658.463	4394
658.518	5341
658.573	5214
658.629	3594
658.684	5043
658.739	4882
658.795	4783
658.850	4369
658.905	4063
658.960	5254
659.016	4429
659.071	4778
659.126	5731
659.181	5399
659.236	8597
659.291	10414
659.346	7193
659.401	7011
659.457	8345
659.512	11361
659.567	8546
659.622	5088
659.677	5379
659.732	3759
659.787	5363
659.842	4706
659.897	7716
659.952	5878
660.007	5029
660.061	4038
660.116	4463
660.171	4313
660.226	5322
660.281	4667
660.336	4139
660.391	5008
660.445	4875
660.500	4769
660.555	4522
660.610	3824
660.664	6551
660.719	3796
660.774	5485
660.828	4249
660.883	4318
660.938	4757
660.992	4007
661.047	4253
661.101	5091
661.156	4265
661.211	4159
661.265	4272
661.320	5021
661.374	4222
661.429	4448
661.483	5038
661.538	4972
661.592	3594
661.647	5328
661.701	6658
661.755	5644
661.810	4871
661.864	4012
661.919	4188
661.973	4823
662.027	4344
662.081	4102
662.136	4550
662.190	4886
662.244	5035
662.299	4778
662.353	4040
662.407	4960
662.461	3527
662.515	5118
662.569	3439
662.624	5134
662.678	3907
662.732	4084
662.786	4660
662.840	5290
662.894	4430
662.948	4388
663.002	4599
663.056	4590
663.110	4226
663.164	4610
663.218	4398
663.272	4468
663.326	5257
663.380	5784
663.434	5117
663.488	4738
663.542	4604
663.595	4781
663.649	3457
663.703	5534
663.757	4191
663.811	4321
663.864	4555
663.918	5331
663.972	4128
664.026	5153
664.079	4286
664.133	5208
664.187	4295
664.240	4536
664.294	4616
664.348	4919
664.401	4914
664.455	4822
664.508	3621
664.562	5340
664.615	4167
664.669	4387
664.722	4300
664.776	4210
664.829	4135
664.883	4918
664.936	3834
664.990	4614
665.043	4843
665.097	4796
665.150	5147
665.203	4730
665.257	5435
665.310	5120
665.363	4810
665.417	5642
665.470	5336
665.523	4264
665.576	4688
665.630	5256
665.683	5072
665.736	5424
665.789	4491
665.842	4996
665.895	4542
665.949	5337
666.002	4190
666.055	5544
666.108	5110
666.161	5723
666.214	5315
666.267	6060
666.320	5393
666.373	6853
666.426	4821
666.479	4843
666.532	6058
666.585	6443
666.638	7702
666.691	6298
666.744	7228
666.796	6622
666.849	6298
666.902	6028
666.955	5009
667.008	4804
667.060	4330
667.113	5234
667.166	4392
667.219	4108
667.271	4133
667.324	5307
667.377	5077
667.430	5412
667.482	5552
667.535	8122
667.587	5079
667.640	5522
667.693	5577
667.745	7542
667.798	10769
667.850	7044
667.903	4669
667.955	5460
668.008	4716
668.060	5600
668.113	5383
668.165	5018
668.218	5162
668.270	5335
668.322	4382
668.375	5492
668.427	4933
668.479	5299
668.532	5027
668.584	5135
668.636	4687
668.689	5211
668.741	4531
668.793	5878
668.845	4593
668.898	5689
668.950	4857
669.002	5707
669.054	4923
669.106	5469
669.158	5928
669.211	5957
669.263	6131
669.315	7332
669.367	8698
669.419	7454
669.471	7158
669.523	8214
669.575	9886
669.627	10229
669.679	6765
669.731	6586
669.783	6828
669.835	8184
669.886	7894
669.938	7735
669.990	6884
670.042	6968
670.094	6769
670.146	8176
670.197	8930
670.249	10676
670.301	11419
670.353	16626
670.404	23130
670.456	32034
670.508	47389
670.560	76587
670.611	124908
670.663	208268
670.715	414280
670.766	825585
670.818	519827
670.869	112044
670.921	40931
670.972	27457
671.024	19290
671.075	15799
671.127	11592
671.178	10700
671.230	9908
671.281	9778
671.333	8802
671.384	9059
671.436	10145
671.487	14176
671.538	16606
671.590	23843
671.641	33603
671.692	53099
671.744	95908
671.795	115291
671.846	59935
671.897	29503
671.949	18557
672.000	13780
672.051	10946
672.102	9708
672.153	8232
672.204	7702
672.256	7655
672.307	6640
672.358	5327
672.409	6804
672.460	5028
672.511	5601
672.562	4475
672.613	5330
672.664	4845
672.715	4820
672.766	5587
672.817	4549
672.868	4737
672.919	5654
672.970	4804
673.021	4801
673.071	4106
673.122	4879
673.173	4293
673.224	4693
673.275	4458
673.326	4458
673.376	4935
673.427	4224
673.478	3841
673.528	5015
673.579	3904
673.630	3892
673.680	4121
673.731	4790
673.782	3572
673.832	4745
673.883	4323
673.934	4206
673.984	3707
674.035	4255
674.085	4001
674.136	5808
674.186	4944
674.237	6077
674.287	6822
674.338	7263
674.388	4663
674.438	4911
674.489	5000
674.539	5160
674.589	5185
674.640	4806
674.690	4348
674.740	4439
674.791	4260
674.841	4492
674.891	4088
674.942	4406
674.992	3437
675.042	3080
675.092	3576
675.142	4126
675.193	3665
675.243	4341
675.293	4299
675.343	4728
675.393	3402
675.443	4293
675.493	4000
675.543	4015
675.593	3253
675.643	4057
675.693	3602
675.743	3972
675.793	3718
675.843	3304
675.893	3188
675.943	3364
675.993	2975
676.043	2960
676.093	3731
676.142	3820
676.192	3282
676.242	3425
676.292	3323
676.341	3991
676.391	3887
676.441	3425
676.491	3083
676.540	3580
676.590	3016
676.640	3329
676.689	3514
676.739	3519
676.789	2907
676.838	3025
676.888	2823
676.937	3222
676.987	3316
677.037	3276
677.086	2017
677.136	3100
677.185	2503
677.235	3489
677.284	2878
677.333	2586
677.383	3353
677.432	3457
677.482	2750
677.531	3728
677.580	3474
677.630	3735
677.679	2193
677.728	2360
677.778	3330
677.827	3353
677.876	2910
677.925	2761
677.975	2660
678.024	3477
678.073	3265
678.122	3633
678.171	3753
678.220	4070
678.269	4189
678.319	4706
678.368	4632
678.417	4529
678.466	4202
678.515	4055
678.564	3662
678.613	2901
678.662	2523
678.711	3855
678.760	3083
678.809	3146
678.857	3199
678.906	3246
678.955	2576
679.004	3823
679.053	3015
679.102	3879
679.151	2956
679.199	4009
679.248	3338
679.297	2493
679.346	3350
679.394	3231
679.443	3060
679.492	3312
679.540	2508
679.589	3057
679.638	3077
679.686	3751
679.735	2892
679.784	4113
679.832	4118
679.881	3965
679.929	3304
679.978	2953
680.026	1640
680.075	3092
680.123	2539
680.172	3371
680.220	2661
680.268	3144
680.317	2133
680.365	2685
680.414	1629
680.462	2895
680.510	2525
680.559	2266
680.607	1917
680.655	3155
680.703	2891
680.752	2421
680.800	2099
680.848	2494
680.896	2063
680.945	2643
680.993	2061
681.041	2929
681.089	1765
681.137	3242
681.185	2076
681.233	2413
681.258	1928
681.281	1457
681.329	2476
681.377	1455
681.380	1555
681.425	3180
681.473	3054
681.502	2863
681.521	2698
681.569	2775
681.617	2595
681.624	2515
681.665	1921
681.713	2098
681.745	2266
681.761	2328
681.809	2210
681.857	2587
681.867	2684
681.904	2969
681.952	2678
681.989	2485
682.000	2408
682.048	2656
682.096	2830
682.111	2839
682.143	2822
682.191	3161
682.233	3042
682.239	3014
682.286	3050
682.334	2324
682.354	2231
682.382	2081
682.430	2634
682.476	2664
682.477	2651
682.525	2518
682.572	2663
682.598	2651
682.620	2649
682.667	2715
682.715	3325
682.720	3355
682.763	3513
682.810	3634
682.841	3597
682.857	3560
682.905	2713
682.952	3329
682.963	3156
683.000	2476
683.047	3346
683.085	3495
683.095	3528
683.142	3090
683.190	2386
683.206	2831
683.237	3610
683.284	2486
683.328	3128
683.332	3172
683.379	3577
683.426	3852
683.449	3790
683.473	3696
683.521	3605
683.568	3016
683.571	3057
683.615	3534
683.662	3441
683.693	3605
683.709	3650
683.757	2943
683.804	3680
683.814	3569
683.851	3194
683.898	3868
683.936	3438
683.945	3322
683.992	4156
684.039	3757
684.057	3998
684.086	4366
684.133	3752
684.179	4209
684.180	4212
684.227	3807
684.274	3485
684.300	3547
684.321	3611
684.368	3661
684.415	4179
684.422	4071
684.462	3402
684.509	3583
684.543	3846
684.556	3909
684.603	3031
684.649	4062
684.665	4064
684.696	4053
684.743	3940
684.786	3518
684.790	3480
684.837	4030
684.883	3819
684.908	4226
684.930	4626
684.977	4476
685.023	4699
685.029	4674
685.070	4287
685.117	4644
685.150	4058
685.164	3843
685.210	4515
685.257	4736
685.272	4637
685.303	4378
685.350	4412
685.393	4263
685.396	4259
685.443	4664
685.490	5467
685.514	5206
685.536	4887
685.583	5201
685.629	4762
685.636	4781
685.675	4767
685.722	4462
685.757	4453
685.768	4487
685.815	4478
685.861	4870
685.878	4848
685.908	4777
685.954	4320
686.000	4532
686.000	4534
686.047	4662
686.093	6100
686.121	6623
686.139	6890
686.185	5170
686.232	5852
686.242	5673
686.278	4957
686.324	5221
686.363	4727
686.370	4649
686.416	4595
686.463	4478
686.484	4738
686.509	5129
686.555	4692
686.601	4725
686.606	4739
686.647	4652
686.693	5024
686.727	4331
686.739	4126
686.785	4771
686.831	5299
686.848	5243
686.877	5025
686.923	4217
686.969	5082
686.969	5086
687.015	4564
687.061	4964
687.090	5005
687.107	4981
687.153	5870
687.199	5315
687.211	5164
687.245	4814
687.291	4813
687.332	5356
687.336	5425
687.382	5257
687.428	5829
687.453	5673
687.474	5363
687.520	5551
687.565	5403
687.574	5268
687.611	5027
687.657	5242
687.695	6028
687.702	6254
687.748	7032
687.794	8601
687.816	8749
687.839	8352
687.885	7693
687.931	6444
687.937	6430
687.976	6408
688.022	6285
688.058	5687
688.067	5612
688.113	5091
688.158	5607
688.179	5577
688.204	5542
688.249	5684
688.295	5485
688.300	5497
688.340	5497
688.386	5598
688.421	5361
688.431	5357
688.477	5085
688.522	6001
688.542	5796
688.567	5567
688.613	6018
688.658	6437
688.663	6421
688.703	6179
688.749	5593
688.784	6176
688.794	6313
688.839	5932
688.884	5937
688.905	5766
688.930	5657
688.975	5985
689.020	5600
689.026	5666
689.065	6118
689.110	5450
689.146	5788
689.155	5906
689.201	5750
689.246	6327
689.267	6072
689.291	5758
689.336	6080
689.381	5456
689.388	5578
689.426	6260
689.471	5827
689.509	6356
689.516	6445
689.561	5509
689.606	5787
689.630	5659
689.651	5588
689.696	5511
689.741	5550
689.750	5690
689.785	6348
689.830	6247
689.871	6359
689.875	6361
689.920	5857
689.965	6421
689.992	6225
690.010	6130
690.054	6033
690.099	5941
690.112	6066
690.144	6370
690.189	6182
690.233	6409
690.233	6418
690.278	6162
690.323	6480
690.354	6183
690.367	6109
690.412	6882
690.457	6694
690.474	6817
690.501	6887
690.546	6419
690.590	6731
690.595	6719
690.635	6986
690.680	7469
690.716	7245
690.724	7303
690.769	8685
690.813	9544
690.836	10170
690.857	11018
690.902	11982
690.946	14360
690.957	14817
690.991	18814
691.035	24331
691.077	31538
691.080	31818
691.124	34183
691.168	33262
691.198	33222
691.213	30861
691.257	24345
691.301	18815
691.318	16506
691.346	15092
691.390	12763
691.434	10607
691.439	10404
691.478	10207
691.522	9227
691.559	8999
691.567	9031
691.611	8603
691.655	8443
691.680	8238
691.699	8113
691.743	8161
691.787	7933
691.800	7868
691.831	7848
691.875	7818
691.919	7791
691.921	7769
691.964	7567
692.008	8180
692.041	8035
692.052	7996
692.096	8263
692.139	7965
692.162	7903
692.183	7750
692.227	7907
692.271	7730
692.282	7563
692.315	7333
692.359	7604
692.402	7501
692.403	7515
692.447	8193
692.490	7666
692.523	7679
692.534	7687
692.578	7937
692.622	8106
692.643	8004
692.666	7819
692.709	8217
692.753	7466
692.763	7519
692.797	7932
692.840	7712
692.884	8125
692.884	8144
692.928	8003
692.971	8315
693.004	8150
693.015	8082
693.059	8294
693.102	8182
693.124	8327
693.146	8549
693.189	8475
693.233	8341
693.245	8497
693.276	9183
693.320	9698
693.363	9577
693.365	9575
693.407	10262
693.450	10951
693.485	11579
693.493	11911
693.537	13414
693.580	14944
693.605	15907
693.624	17533
693.667	21333
693.710	25310
693.725	26843
693.753	35164
693.797	48517
693.840	63417
693.845	64948
693.883	68472
693.926	68916
693.966	69377
693.970	67999
694.013	53564
694.056	39296
694.086	29767
694.099	28329
694.142	23552
694.185	18938
694.206	16676
694.229	15833
694.272	14784
694.315	12771
694.326	12387
694.358	12132
694.401	11494
694.444	11250
694.446	11197
694.487	11019
694.530	11105
694.566	10900
694.573	10814
694.616	10175
694.659	9677
694.686	9417
694.702	9429
694.745	9143
694.787	8937
694.806	8810
694.830	8805
694.873	9052
694.916	8717
694.926	8714
694.959	8514
695.002	8182
695.044	7934
695.046	7901
695.087	8432
695.130	8999
695.166	9447
695.172	9433
695.215	9252
695.258	8962
695.286	8861
695.301	8952
695.343	8866
695.386	9192
695.406	9155
695.428	9017
695.471	9048
695.514	8688
695.526	8702
695.556	9008
695.599	9113
695.641	9339
695.646	9304
695.684	8957
695.726	8953
695.766	8606
695.769	8608
695.811	8679
695.854	8595
695.886	8541
695.896	8603
695.938	8493
695.981	8768
696.005	8760
696.023	8818
696.065	9205
696.108	9292
696.125	9434
696.150	9514
696.192	9302
696.235	9290
696.245	9196
696.277	9157
696.319	9411
696.361	9379
696.365	9375
696.404	9687
696.446	9909
696.485	10089
696.488	10125
696.530	10142
696.572	10324
696.604	10280
696.614	10175
696.656	9863
696.698	9408
696.724	9129
696.740	9176
696.783	9234
696.825	9399
696.844	9372
696.867	9441
696.909	9655
696.951	9706
696.964	9786
696.992	9733
697.034	9266
697.076	9046
697.083	8961
697.118	9006
697.160	9218
697.202	9180
697.203	9160
697.244	9213
697.286	9194
697.323	9104
697.327	9152
697.369	9417
697.411	9720
697.442	9860
697.453	9918
697.494	10157
697.536	10254
697.562	10396
697.578	10480
697.620	10447
697.661	10547
697.682	10514
697.703	10624
697.744	10922
697.786	11176
697.801	11242
697.828	11232
697.869	11099
697.911	11042
697.921	10973
697.952	10771
697.994	10603
698.035	10405
698.040	10348
698.077	10214
698.118	10064
698.160	9913
698.160	9887
698.201	10016
698.243	10161
698.279	10249
698.284	10290
698.325	10438
698.367	10573
698.399	10659
698.408	10707
698.449	10772
698.491	10854
698.518	10885
698.532	10848
698.573	10658
698.614	10446
698.638	10313
698.656	10458
698.697	10726
698.738	11008
698.757	11096
698.779	11128
698.820	11170
698.862	11188
698.877	11173
698.903	11364
698.944	11616
698.985	11873
698.996	11914
699.026	11580
699.067	11081
699.116	10459
699.235	10831
699.354	10567
699.474	10343
699.593	11420
699.713	11068
699.832	10813
699.951	11018
700.070	11207
700.190	9831
700.309	10686
700.428	11159
700.547	10382
700.667	10847
700.786	10991
700.905	10291
701.024	10829
701.143	9799
701.262	10418
701.381	10135
701.500	10285
701.619	11054
701.738	10133
701.857	10531
701.976	9803
702.095	9163
702.214	10049
702.333	10578
702.452	11204
702.571	10525
702.690	10259
702.809	9887
702.928	9336
703.047	9523
703.165	10089
703.284	10282
703.403	9390
703.522	9916
703.640	10668
703.759	11417
703.878	13991
703.997	10615
704.115	9614
704.234	9919
704.353	9572
704.471	8281
704.590	8825
704.708	9031
704.827	8528
704.946	8594
705.064	8643
705.183	9563
705.301	9795
705.420	12036
705.538	11523
705.656	11025
705.775	12114
705.893	20451
706.012	31297
706.130	12560
706.249	11028
706.367	10108
706.485	10323
706.604	9750
706.722	10541
706.840	11933
706.958	17109
707.077	15624
707.195	9922
707.313	9568
707.431	9111
707.549	9012
707.668	9928
707.786	9808
707.904	9297
708.022	8896
708.140	9390
708.258	9235
708.376	9238
708.494	9145
708.612	10744
708.730	12629
708.848	11519
708.966	11122
709.084	10881
709.202	10271
709.320	10973
709.438	10369
709.556	10605
709.674	11414
709.791	10765
709.909	9812
710.027	9993
710.145	9321
710.263	11190
710.380	9710
710.498	9539
710.616	10317
710.733	9852
710.851	10415
710.969	10818
711.086	9574
711.204	10251
711.322	9860
711.439	9920
711.557	10141
711.674	10316
711.792	9569
711.909	10597
712.027	12277
712.144	9296
712.262	9654
712.379	10202
712.497	12006
712.614	12867
712.732	11427
712.849	11192
712.966	11200
713.084	13896
713.201	12010
713.318	12112
713.436	11663
713.553	11821
713.670	11839
713.787	12442
713.905	13597
714.022	11750
714.139	11893
714.256	16122
714.373	21592
714.490	38822
714.608	93150
714.725	425841
714.842	700412
714.959	68157
715.076	20743
715.193	16341
715.310	14570
715.427	11676
715.544	11900
715.661	11643
715.778	11413
715.895	12216
716.011	11570
716.128	10233
716.245	10122
716.362	11615
716.479	12397
716.596	10339
716.713	10342
716.829	10123
716.946	10077
717.063	9207
717.180	8739
717.296	8715
717.413	9739
717.530	8765
717.646	8607
717.763	10077
717.880	8898
717.996	7625
718.113	9782
718.229	9825
718.346	7460
718.462	9570
718.579	10430
718.695	15006
718.812	13651
718.928	11233
719.045	10255
719.161	8263
719.277	8912
719.394	9158
719.510	10049
719.626	9989
719.743	13521
719.859	16628
719.975	33557
720.092	121130
720.208	374659
720.324	79664
720.440	14046
720.557	12070
720.673	14790
720.789	18629
720.905	32244
721.021	17764
721.137	8312
721.253	9512
721.369	9196
721.486	9689
721.602	13042
721.718	8440
721.834	7154
721.950	7633
722.066	8021
722.181	7733
722.297	8522
722.413	8491
722.529	7461
722.645	8175
722.761	7720
722.877	8195
722.993	7905
723.108	9517
723.224	9533
723.340	8129
723.456	7739
723.571	7684
723.687	7134
723.803	7258
723.918	7521
724.034	7805
724.150	6865
724.265	8266
724.381	12266
724.497	18477
724.612	8182
724.728	6615
724.843	6758
724.959	7822
725.074	12677
725.190	16455
725.305	7524
725.421	7202
725.536	6577
725.651	6501
725.767	6813
725.882	6990
725.997	6055
726.113	6731
726.228	6506
726.343	5659
726.459	6012
726.574	6419
726.689	6414
726.804	5665
726.920	6476
727.035	6128
727.150	7151
727.265	5971
727.380	6584
727.495	6132
727.610	6657
727.725	6367
727.841	7657
727.956	15791
728.071	15573
728.186	6273
728.301	5926
728.416	7205
728.531	5677
728.645	6212
728.760	6949
728.875	7952
728.990	7068
729.105	7715
729.220	6354
729.335	7387
729.449	6106
729.564	5668
729.679	4763
729.794	5451
729.908	6087
730.023	6843
730.138	5973
730.253	5663
730.367	5654
730.482	5342
730.596	5787
730.711	6658
730.826	7420
730.940	9108
731.055	7233
731.169	6288
731.284	6109
731.398	5727
731.513	7063
731.627	6980
731.742	8681
731.856	9575
731.970	9170
732.085	11020
732.199	15411
732.313	25969
732.428	62100
732.542	184898
732.656	149647
732.771	29472
732.885	12996
732.999	10955
733.113	10441
733.227	9004
733.342	8491
733.456	7959
733.570	6778
733.684	7554
733.798	6970
733.912	6976
734.026	5590
734.140	5885
734.254	6953
734.368	9856
734.482	12841
734.596	6853
734.710	7063
734.824	6307
734.938	6319
735.052	6179
735.166	6397
735.280	7802
735.393	6201
735.507	6182
735.621	7736
735.735	11342
735.849	7615
735.962	5524
736.076	6665
736.190	6241
736.303	8140
736.417	10608
736.531	6085
736.644	5909
736.758	5384
736.872	5398
736.985	5847
737.099	5372
737.212	5838
737.326	5862
737.439	5325
737.553	6046
737.666	5851
737.780	6027
737.893	5491
738.007	4631
738.120	5641
738.233	4981
738.347	5596
738.460	6252
738.573	6500
738.687	5742
738.800	5891
738.913	6611
739.026	6087
739.140	5835
739.253	6039
739.366	6287
739.479	4477
739.592	5684
739.705	5253
739.818	5949
739.932	5258
740.045	5084
740.158	5110
740.271	6010
740.384	5426
740.497	5706
740.610	5973
740.723	6278
740.836	6378
740.949	6577
741.062	7056
741.174	7560
741.287	4836
741.400	5573
741.513	6064
741.626	7268
741.739	7043
741.851	6064
741.964	6069
742.077	6159
742.189	6631
742.302	9216
742.415	10097
742.527	7229
742.640	6182
742.753	5628
742.865	4949
742.978	5406
743.090	4430
743.203	4656
743.316	4693
743.428	4530
743.541	4069
743.653	4368
743.766	4516
743.878	4955
743.990	5901
744.103	7930
744.215	11415
744.327	8034
744.440	6274
744.552	7344
744.664	5806
744.777	5421
744.889	4661
745.001	5560
745.113	3929
745.226	4187
745.338	4079
745.450	4692
745.562	4163
745.674	4471
745.786	3704
745.898	4296
746.010	4334
746.122	4311
746.234	4501
746.347	4560
746.459	4744
746.570	5420
746.682	6655
746.794	13631
746.906	12325
747.018	4529
747.130	4951
747.242	4689
747.354	4218
747.466	4822
747.577	3677
747.689	5064
747.801	4850
747.913	4207
748.024	4675
748.136	4406
748.248	4269
748.359	4785
748.471	4482
748.583	3745
748.694	5174
748.806	5900
748.918	5770
749.029	3989
749.141	5078
749.252	5259
749.364	5298
749.475	8018
749.587	7103
749.698	4406
749.809	4126
749.921	4907
750.032	3683
750.144	3484
750.255	4161
750.366	4100
750.478	4318
750.589	4048
750.700	3585
750.811	4958
750.923	5125
751.034	7662
751.145	10230
751.256	4792
751.367	4078
751.479	4221
751.590	3483
751.701	4311
751.812	4160
751.923	3792
752.034	3809
752.145	4068
752.256	3387
752.367	3730
752.478	4394
752.589	3568
752.700	4321
752.811	3161
752.922	3579
753.032	4587
753.143	4996
753.254	4358
753.365	4350
753.476	4641
753.586	4859
753.697	4061
753.808	4459
753.919	4267
754.029	3444
754.140	4789
754.251	4586
754.361	4117
754.472	3401
754.582	4028
754.693	3518
754.804	4453
754.914	3591
755.025	3789
755.135	4454
755.246	4227
755.356	2466
755.466	4160
755.577	4130
755.687	4761
755.798	3674
755.908	4293
756.018	3708
756.129	4523
756.239	4611
756.349	4074
756.460	5672
756.570	4540
756.680	4282
756.790	4329
756.900	4359
757.011	4174
757.121	4596
757.231	3944
757.341	4290
757.451	4005
757.561	4018
757.671	4130
757.781	3328
757.891	5312
758.001	5352
758.111	4797
758.221	4987
758.331	5273
758.441	5838
758.551	6953
758.661	5691
758.771	5574
758.880	4910
758.990	6213
759.100	5457
759.210	5263
759.320	5092
759.429	5452
759.539	5412
759.649	6787
759.758	6767
759.868	6929
759.978	6655
760.087	7698
760.197	7206
760.307	7354
760.416	6375
760.526	6683
760.635	8102
760.745	7301
760.854	8264
760.964	9122
761.073	9117
761.182	8590
761.292	7770
761.401	8400
761.511	6766
761.620	7311
761.729	7198
761.839	7309
761.948	7742
762.057	6711
762.166	7644
762.276	7351
762.385	6915
762.494	7679
762.603	7328
762.712	8113
762.822	8158
762.931	8279
763.040	8333
763.149	8074
763.258	8452
763.367	9596
763.476	9705
763.585	10572
763.694	10559
763.803	10715
763.912	12275
764.021	12481
764.130	13609
764.238	13481
764.347	14954
764.456	15929
764.565	17200
764.674	18583
764.783	19477
764.891	21941
765.000	24464
765.109	27532
765.217	32496
765.326	37225
765.435	45619
765.543	53598
765.652	66310
765.761	87257
765.869	119846
765.978	170948
766.086	266660
766.195	440084
766.303	729500
766.412	937870
766.520	947127
766.629	771100
766.737	434224
766.846	258114
766.954	171932
767.062	123423
767.171	93885
767.279	72073
767.387	55874
767.496	46333
767.604	39862
767.712	35065
767.820	31318
767.928	28396
768.037	25462
768.145	25966
768.253	24471
768.361	23204
768.469	23082
768.577	22290
768.685	24359
768.793	26712
768.901	29802
769.009	33166
769.117	39363
769.225	50147
769.333	70693
769.441	107367
769.549	179746
769.657	340789
769.765	647228
769.873	837546
769.981	716778
770.088	350145
770.196	177698
770.304	110670
770.412	77434
770.519	57862
770.627	45310
770.735	36412
770.842	30989
770.950	26813
771.058	23330
771.165	21106
771.273	19205
771.380	17999
771.488	15036
771.595	15213
771.703	13318
771.810	13352
771.918	12960
772.025	11794
772.133	12386
772.240	10658
772.348	11166
772.455	10729
772.562	10017
772.670	9858
772.777	9440
772.884	8586
772.991	8657
773.099	8240
773.206	8014
773.313	8599
773.420	8483
773.528	7391
773.635	7315
773.742	7947
773.849	6917
773.956	6806
774.063	6854
774.170	6468
774.277	7968
774.384	6676
774.491	6553
774.598	6168
774.705	6817
774.812	6019
774.919	6778
775.026	6394
775.133	5616
775.239	6039
775.346	6472
775.453	5988
775.560	5715
775.667	5036
775.773	4996
775.880	5477
775.987	5287
776.093	5360
776.200	5231
776.307	4179
776.413	5220
776.520	5091
776.627	4699
776.733	5278
776.840	5356
776.946	8316
777.053	10206
777.159	23726
777.266	22015
777.372	20019
777.478	23104
777.585	15821
777.691	6101
777.798	5670
777.904	7037
778.010	6644
778.117	6363
778.223	4140
778.329	4402
778.435	4004
778.542	4463
778.648	4342
778.754	4433
778.860	4324
778.966	3829
779.072	3492
779.178	4712
779.284	4425
779.391	4183
779.497	4188
779.603	6240
779.708	9187
779.815	18631
779.920	61812
780.026	137755
780.132	32078
780.238	6495
780.344	4991
780.450	5090
780.556	3989
780.661	3959
780.767	4845
780.873	3666
780.979	3272
781.085	3410
781.190	3445
781.296	3440
781.402	3511
781.507	3227
781.613	3178
781.719	2798
781.824	3298
781.930	3902
782.035	3186
782.141	3598
782.246	3062
782.352	2663
782.457	2651
782.563	3762
782.668	2836
782.773	2947
782.879	3114
782.984	3729
783.090	4103
783.195	4192
783.300	4531
783.405	4060
783.511	2297
783.616	2727
783.721	3683
783.826	3079
783.932	3606
784.037	3394
784.142	3431
784.247	2595
784.352	3478
784.457	3005
784.562	3306
784.667	2848
784.772	3233
784.877	2385
784.982	2495
785.087	3191
785.192	2962
785.297	1982
785.402	3032
785.507	3001
785.611	3344
785.716	1886
785.821	2461
785.926	1911
786.031	2851
786.135	2583
786.240	3105
786.345	2292
786.450	2138
786.554	2886
786.659	2434
786.763	1811
786.868	2595
786.973	3209
787.077	2068
787.182	2288
787.286	2477
787.391	2425
787.495	2229
787.600	1858
787.704	1745
787.809	2136
787.913	1562
788.017	2727
788.122	2818
788.226	1994
788.330	2277
788.435	2093
788.539	2148
788.643	1428
788.747	1981
788.852	2762
788.956	1590
789.060	3076
789.164	2239
789.268	1210
789.372	2287
789.476	2596
789.580	1326
789.684	1776
789.788	2125
789.892	1646
789.996	2616
790.100	1238
790.204	1760
790.308	2513
790.412	1660
790.516	2751
790.620	1848
790.724	1408
790.828	2386
790.931	1672
791.035	2458
791.139	2639
791.242	2022
791.346	1658
791.450	2065
791.554	2167
791.657	2241
791.761	2202
791.864	1702
791.968	1982
792.072	2053
792.175	2037
792.279	2252
792.382	1462
792.486	2328
792.589	1242
792.693	2230
792.796	1414
792.899	2369
793.003	2273
793.106	1395
793.209	1681
793.313	2552
793.416	1250
793.519	2236
793.623	3367
793.726	3556
793.829	3204
793.932	1631
794.035	1496
794.138	2253
794.242	2766
794.345	2559
794.448	5424
794.551	10906
794.654	34162
794.757	75473
794.860	18661
794.963	3848
795.066	2809
795.169	3857
795.272	1204
795.375	2119
795.477	1117
795.580	2101
795.683	1236
795.786	533
795.889	590
795.991	1518
796.094	2769
796.197	2420
796.300	1807
796.402	1157
796.505	1476
796.608	1055
796.710	1792
796.813	1740
796.915	1278
797.018	2195
797.120	1574
797.223	1484
797.326	1641
797.428	1640
797.530	1451
797.633	484
797.735	1973
797.838	2995
797.940	3158
798.042	966
798.145	686
798.247	1088
798.349	1615
798.452	1978
798.554	864
798.656	1238
798.758	2427
798.860	1210
798.962	1132
799.065	828
799.167	664
799.269	1735
799.371	1735
799.473	2036
799.575	1721
799.677	2552
799.779	2530
799.881	2109
799.983	1582
800.085	1114
800.187	1379
800.289	1075
800.390	980
800.492	1702
800.594	1454
800.696	34
800.798	1113
800.899	1019
801.001	140
801.103	988
801.205	541
801.306	1923
801.408	1463
801.509	1595
801.611	812
801.713	1448
801.814	375
801.916	1637
802.017	497
802.119	1368
802.220	1127
802.322	412
802.423	2627
802.525	1319
802.626	1389
802.727	807
802.829	1278
802.930	-604
803.031	1806
803.133	981
803.234	827
803.335	857
803.436	803
803.538	467
803.639	190
803.740	1306
803.841	184
803.942	903
804.043	825
804.144	793
804.245	1194
804.346	1325
804.447	383
804.548	1341
804.649	1662
804.750	366
804.851	766
804.952	938
805.053	906
805.154	189
805.255	1272
805.355	1071
805.456	346
805.557	617
805.658	59
805.758	1048
805.859	894
805.960	757
806.061	688
806.161	163
806.262	864
806.362	341
806.463	818
806.564	1110
806.664	523
806.765	383
806.865	1510
806.966	1685
807.066	-184
807.166	1772
807.267	1579
807.367	-501
807.468	1107
807.568	83
807.668	788
807.769	1073
807.869	989
807.969	4
808.069	696
808.170	1346
808.270	779
808.370	1039
808.470	1230
808.570	1031
808.670	388
808.770	1216
808.870	111
808.970	227
809.070	153
809.170	778
809.271	586
809.370	960
809.470	151
809.570	1495
809.670	602
809.770	1146
809.870	1506
809.970	1180
810.070	933
810.169	332
810.269	-144
810.369	1163
810.469	436
810.568	483
810.668	-451
810.768	-68
810.867	826
810.967	60
811.066	801
811.166	653
811.265	266
811.365	41
811.464	-302
811.564	-13
811.663	704
811.763	765
811.862	1313
811.962	1185
812.061	604
812.160	932
812.260	720
812.359	660
812.458	1615
812.557	4462
812.657	7415
812.756	4255
812.855	1243
812.954	1576
813.053	134
813.153	1273
813.252	1076
813.351	377
813.450	487
813.549	494
813.648	976
813.747	671
813.846	-18
813.945	145
814.044	929
814.143	923
814.242	926
814.341	243
814.439	564
814.538	780
814.637	710
814.736	1342
814.835	676
814.933	1482
815.032	922
815.131	1439
815.229	1652
815.328	2668
815.427	1435
815.525	2083
815.624	1477
815.722	1868
815.821	2270
815.919	1724
816.018	2291
816.116	2787
816.215	2081
816.313	2385
816.412	2060
816.510	2878
816.609	3724
816.707	3360
816.805	2680
816.904	2620
817.002	3809
817.100	4932
817.198	3919
817.296	5273
817.395	5221
817.493	6816
817.591	6329
817.689	8835
817.787	11468
817.885	18109
817.983	32746
818.081	62447
818.179	140758
818.277	324627
818.375	374892
818.473	150130
818.571	57520
818.669	33571
818.767	28100
818.865	26650
818.963	27901
819.061	38014
819.158	60476
819.256	119664
819.354	254040
819.452	521344
819.549	481670
819.647	195245
819.745	80001
819.842	43412
819.940	29003
820.038	21064
820.135	16230
820.233	12819
820.330	9358
820.428	8121
820.525	7548
820.623	6798
820.720	5514
820.818	4993
820.915	5385
821.012	5010
821.110	4417
821.207	4132
821.304	3141
821.402	3973
821.499	4841
821.596	9026
821.693	9437
821.791	3675
821.888	3008
821.985	5236
822.082	4469
822.179	4051
822.276	4547
822.373	3974
822.470	2211
822.567	2153
822.664	1794
822.761	2012
822.858	1946
822.955	1681
823.052	1272
823.149	670
823.246	1285
823.343	841
823.440	1146
823.536	1600
823.633	1092
823.730	1713
823.827	1275
823.923	750
824.020	2197
824.117	1699
824.213	2681
824.310	4181
824.407	1214
824.503	2151
824.600	1137
824.696	1640
824.793	1661
824.889	1023
824.986	1446
825.082	971
825.179	1817
825.275	1794
825.371	523
825.468	1363
825.564	477
825.660	937
825.757	1768
825.853	841
825.949	350
826.045	1130
826.142	587
826.238	850
826.334	1084
826.430	390
826.526	396
826.622	72
826.718	959
826.814	478
826.910	1005
827.006	130
827.102	-163
827.198	414
827.294	677
827.390	1330
827.486	-139
827.582	-276
827.678	72
827.774	928
827.869	358
827.965	1582
828.061	210
828.157	1182
828.252	1197
828.348	172
828.444	1241
828.539	-211
828.635	87
828.731	696
828.826	1376
828.922	706
829.017	492
829.113	1507
829.208	690
829.304	1575
829.399	1914
829.495	669
829.590	1314
829.685	645
829.781	-89
829.876	125
829.971	645
830.066	296
830.162	439
830.257	1164
830.352	490
830.447	2132
830.543	866
830.638	22
830.733	452
830.828	715
830.923	1160
831.018	1269
831.113	1151
831.208	1045
831.303	205
831.398	691
831.493	1198
831.588	1335
831.683	30
831.778	441
831.873	37
831.967	1005
832.062	291
832.157	53
832.252	1157
832.346	473
832.441	751
832.536	1329
832.631	1979
832.725	2472
832.820	557
832.914	69
833.009	19
833.104	1009
833.198	301
833.293	1069
833.387	955
833.482	492
833.576	184
833.670	938
833.765	682
833.859	403
833.954	869
834.048	-73
834.142	429
834.237	82
834.331	687
834.425	1110
834.519	165
834.613	-138
834.708	-41
834.802	87
834.896	-35
834.990	276
835.084	34
835.178	-624
835.272	-85
835.366	-42
835.460	33
835.554	467
835.648	-496
835.742	193
835.836	-37
835.930	-487
836.024	430
836.117	1397
836.211	237
836.305	515
836.399	1537
836.493	-423
836.586	210
836.680	-581
836.774	214
836.867	574
836.961	-490
837.055	-123
837.148	68
837.242	475
837.335	94
837.429	-958
837.522	-90
837.616	-40
837.709	923
837.803	1318
837.896	-117
837.989	495
838.083	760
838.176	1314
838.269	1447
838.363	233
838.456	-307
838.549	596
838.642	724
838.735	2516
838.829	1378
838.922	664
839.015	-144
839.108	295
839.201	713
839.294	41
839.387	400
839.480	-574
839.573	-78
839.666	1194
839.759	352
839.852	280
839.945	-234
840.038	-524
840.131	-225
840.223	717
840.316	597
840.409	-121
840.502	-688
840.594	1279
840.687	-1228
840.780	313
840.873	-717
840.965	190
841.058	-5
841.150	1185
841.243	728
841.336	699
841.428	-554
841.521	-755
841.613	-698
841.706	774
841.798	-97
841.890	-214
841.983	-1391
842.075	380
842.167	632
842.260	-263
842.352	-56
842.444	298
842.537	1324
842.629	2690
842.721	62
842.813	-739
842.905	-1493
842.997	770
843.090	345
843.182	538
843.274	839
843.366	4194
843.458	8556
843.550	7157
843.642	1008
843.734	1068
843.826	437
843.918	594
844.009	-414
844.101	-391
844.193	-205
844.285	672
844.377	1695
844.469	2312
844.560	4632
844.652	7172
844.744	2941
844.835	77
844.927	204
845.019	708
845.110	-143
845.202	651
845.293	-28
845.385	-651
845.476	-251
845.568	102
845.659	-161
845.751	730
845.842	-705
845.934	-834
846.025	-829
846.116	346
846.208	-208
846.299	-294
846.390	199
846.482	-415
846.573	41
846.664	569
846.755	-358
846.846	443
846.937	-1147
847.029	-349
847.120	61
847.211	-647
847.302	185
847.393	-174
847.484	81
847.575	-122
847.666	-509
847.757	-787
847.847	-618
847.938	351
848.029	-406
848.120	85
848.211	-1089
848.302	537
848.392	-422
848.483	-73
848.574	-720
848.664	170
848.755	-246
848.846	344
848.936	509
849.027	-299
849.118	625
849.208	666
849.299	1047
849.389	2983
849.480	7829
849.570	16715
849.661	29576
849.751	59890
849.841	36275
849.932	5794
850.022	1982
850.112	2247
850.203	859
850.293	571
850.383	-200
850.474	-574
850.564	-408
850.654	334
850.744	-418
850.834	496
850.924	-520
851.014	459
851.104	198
851.194	-101
851.284	-193
851.374	-2
851.464	-130
851.554	632
851.644	54
851.734	1153
851.824	1069
851.914	1132
852.004	2857
852.094	3294
852.183	1170
852.273	481
852.363	-102
852.452	477
852.542	270
852.632	-1044
852.721	875
852.811	422
852.901	-107
852.990	729
853.080	849
853.169	897
853.259	1277
853.348	1444
853.438	2502
853.527	3503
853.617	5391
853.706	12457
853.795	21034
853.885	47140
853.974	93091
854.063	154657
854.152	276013
854.242	170986
854.331	38743
854.420	12829
854.509	6798
854.598	4930
854.687	4317
854.777	2966
854.866	1918
854.955	2116
855.044	468
855.133	1004
855.222	675
855.311	829
855.400	1426
855.488	372
855.577	100
855.666	117
855.755	944
855.844	635
855.933	1625
856.021	1087
856.110	800
856.199	-535
856.288	-243
856.376	64
856.465	-387
856.554	-359
856.642	63
856.731	880
856.819	293
856.908	-443
856.996	121
857.085	178
857.173	230
857.262	-525
857.350	-427
857.438	-517
857.527	-56
857.615	-323
857.703	459
857.792	215
857.880	-895
857.968	-1183
858.056	-298
858.145	34
858.233	-1065
858.321	-866
858.409	-127
858.497	-398
858.585	-218
858.673	-61
858.761	-321
858.849	-564
858.937	82
859.025	-443
859.113	-258
859.201	-438
859.289	958
859.377	333
859.465	-134
859.552	-232
859.640	-29
859.728	-457
859.816	-173
859.903	-174
859.991	-38
860.079	-283
860.166	-295
860.254	384
860.342	-638
860.429	7
860.517	-95
860.604	-598
860.692	354
860.779	-1152
860.867	-472
860.954	-48
861.042	-329
861.129	32
861.216	44
861.304	-511
861.391	-873
861.478	-736
861.565	181
861.653	457
861.740	-1472
861.827	-745
861.914	-414
862.001	-376
862.089	-242
862.176	-596
862.263	-592
862.350	-728
862.437	-290
862.524	-696
862.611	-298
862.698	407
862.785	751
862.871	2136
862.958	764
863.045	50
863.132	137
863.219	-258
863.306	-1442
863.392	-314
863.479	-1115
863.566	-558
863.652	31
863.739	-832
863.826	-242
863.912	-486
863.999	-196
864.086	-392
864.172	-727
864.259	-666
864.345	-437
864.432	122
864.518	-557
864.604	-485
864.691	116
864.777	366
864.863	-104
864.950	1329
865.036	-384
865.122	1192
865.209	1847
865.295	1683
865.381	2248
865.467	2788
865.553	4126
865.639	5729
865.726	10479
865.812	22359
865.898	44615
865.984	71076
866.070	115982
866.156	171160
866.242	72984
866.328	16099
866.414	5992
866.499	4038
866.585	3285
866.671	2535
866.757	2488
866.843	1255
866.928	1641
867.014	894
867.100	1715
867.186	1557
867.271	-103
867.357	1269
867.442	764
867.528	1683
867.614	1850
867.699	1679
867.785	3223
867.870	3875
867.956	6960
868.041	5637
868.127	3015
868.212	3791
868.297	4229
868.383	2276
868.468	1903
868.553	3485
868.639	2461
868.724	2392
868.809	3669
868.894	1654
868.979	707
869.065	918
869.150	-266
869.235	568
869.320	-320
869.405	204
869.490	-278
869.575	465
869.660	189
869.745	851
869.830	-22
869.915	-266
870.000	381
870.085	587
870.169	919
870.254	1783
870.339	193
870.424	-410
870.509	-484
870.593	383
870.678	487
870.763	905
870.847	1488
870.932	1471
871.016	1315
871.101	1489
871.186	603
871.270	-108
871.355	-435
871.439	-3
871.523	-458
871.608	1225
871.692	816
871.777	2141
871.861	1497
871.945	313
872.030	570
872.114	372
872.198	-289
872.282	343
872.367	-82
872.451	640
872.535	-44
872.619	-483
872.703	446
872.787	620
872.871	271
872.955	-553
873.039	-719
873.123	-271
873.207	689
873.291	338
873.375	-319
873.459	-14
873.543	-754
873.627	-353
873.711	-53
873.794	-41
873.878	62
873.962	-271
874.045	135
874.129	177
874.137	188
874.213	308
874.245	240
874.296	119
874.352	33
874.380	-8
874.460	-190
874.464	-198
874.547	13
874.568	83
874.631	282
874.676	13
874.714	-217
874.784	160
874.798	236
874.881	449
874.892	281
874.965	-897
874.999	-415
875.048	266
875.107	-237
875.131	-458
875.215	212
875.215	212
875.298	-403
875.323	-274
875.381	22
875.430	-19
875.465	-23
875.538	57
875.548	53
875.631	209
875.646	66
875.714	-514
875.753	-284
875.798	-79
875.861	38
875.881	93
875.964	81
875.968	69
876.047	-170
876.076	158
876.130	793
876.183	409
876.213	165
876.291	728
876.296	772
876.379	199
876.398	294
876.462	533
876.506	-19
876.545	-447
876.613	572
876.628	778
876.711	-295
876.721	-161
876.794	853
876.828	542
876.877	98
876.935	59
876.960	70
877.043	580
877.043	581
877.125	861
877.150	927
877.208	1063
877.258	1021
877.291	1045
877.365	886
877.374	847
877.456	512
877.472	543
877.539	830
877.579	742
877.622	557
877.687	791
877.704	893
877.787	1355
877.794	1278
877.869	497
877.901	814
877.952	1165
878.008	637
878.034	473
878.115	539
878.117	540
878.199	146
878.222	484
878.282	1652
878.329	1450
878.364	1102
878.437	1476
878.447	1525
878.529	1006
878.544	847
878.611	202
878.651	110
878.694	124
878.758	720
878.776	910
878.858	614
878.865	683
878.941	1123
878.972	650
879.023	55
879.078	754
879.105	1173
879.185	1355
879.187	1355
879.269	874
879.292	897
879.351	1185
879.399	941
879.433	655
879.506	951
879.516	1004
879.598	1256
879.613	1204
879.680	975
879.720	1209
879.762	1402
879.827	976
879.844	911
879.926	489
879.933	535
880.007	1210
880.040	1259
880.089	1085
880.147	1144
880.171	1307
880.253	2312
880.254	2311
880.335	2065
880.360	2072
880.417	2773
880.467	3548
880.499	4013
880.574	5892
880.580	5983
880.662	3197
880.680	2892
880.744	1824
880.787	1386
880.825	1303
880.893	1669
880.907	1666
880.989	1141
881.000	1077
881.070	1516
881.106	1835
881.152	1613
881.213	1108
881.233	1100
881.315	961
881.319	982
881.396	1768
881.426	1909
881.478	1784
881.532	1600
881.559	1505
881.639	989
881.641	990
881.722	955
881.745	988
881.803	1088
881.852	1284
881.885	1421
881.958	1725
881.966	1776
882.047	2012
882.064	2017
882.129	1925
882.171	1947
882.210	2010
882.277	2277
882.291	2378
882.372	2301
882.383	2268
882.454	1792
882.489	1876
882.535	2126
882.596	2243
882.616	2162
882.697	1830
882.702	1775
882.778	1363
882.808	1300
882.859	1309
882.914	1242
882.940	1236
883.020	2054
883.021	2068
883.102	1639
883.127	1715
883.183	1985
883.233	2102
883.264	2026
883.339	1717
883.345	1665
883.426	1294
883.445	1039
883.507	1057
883.551	1272
883.587	1521
883.657	2270
883.668	2344
883.749	2197
883.763	2231
883.830	2073
883.869	1714
883.910	1374
883.975	1255
883.991	1365
884.072	1602
884.081	1649
884.152	2060
884.187	2167
884.233	2455
884.292	2658
884.314	2490
884.394	2075
884.398	2030
884.475	1841
884.504	1874
884.555	1754
884.610	1531
884.636	1576
884.716	1623
884.716	1634
884.797	2166
884.821	2325
884.877	2445
884.927	2520
884.958	2501
885.033	2031
885.038	1998
885.118	1704
885.139	1670
885.199	1809
885.244	1617
885.279	1732
885.350	2174
885.359	2256
885.439	2811
885.456	2904
885.520	2572
885.561	2376
885.600	2212
885.667	1777
885.680	1816
885.760	2221
885.773	2256
885.840	2004
885.878	1881
885.920	2185
885.984	2546
886.000	2471
886.080	1900
886.089	1864
886.160	2858
886.195	3278
886.240	3134
886.300	2691
886.320	2716
886.400	3062
886.406	3068
886.480	2855
886.511	2809
886.560	2934
886.616	2819
886.640	2852
886.720	2995
886.722	2984
886.800	2867
886.827	2885
886.879	3031
886.932	3039
886.959	3223
887.038	3918
887.039	3926
887.119	3044
887.143	2857
887.198	3012
887.248	3076
887.278	3046
887.354	2840
887.358	2858
887.437	2945
887.459	2996
887.517	2891
887.564	2694
887.596	2768
887.669	2903
887.676	2890
887.755	2699
887.774	2595
887.835	2520
887.880	2557
887.914	2715
887.985	2850
887.994	2995
888.073	4244
888.090	4475
888.153	3816
888.195	3363
888.232	3531
888.300	3813
888.311	3775
888.391	3377
888.405	3292
888.470	3349
888.510	3316
888.549	3219
888.615	3167
888.628	3313
888.708	3976
888.720	4073
888.787	4107
888.825	4087
888.866	3696
888.930	3038
888.945	3053
889.024	3081
889.035	3076
889.103	3610
889.140	3856
889.182	3568
889.245	3120
889.261	3271
889.340	3945
889.349	4010
889.419	3427
889.454	3108
889.498	3150
889.559	3195
889.577	3207
889.656	3214
889.664	3206
889.735	4120
889.768	4533
889.814	4326
889.873	4020
889.978	3955
890.083	4065
890.187	4120
890.292	3769
890.397	4335
890.501	3006
890.606	2803
890.710	3495
890.815	4657
890.919	3869
891.024	3661
891.128	3106
891.233	3402
891.337	2818
891.442	4084
891.546	3764
891.650	4232
891.755	3042
891.859	4720
891.963	3868
892.068	4567
892.172	3403
892.276	2992
892.380	3692
892.484	3349
892.589	3595
892.693	3873
892.797	1823
892.901	2931
893.005	2677
893.109	4520
893.213	4133
893.317	3149
893.421	2656
893.525	2446
893.629	2180
893.733	3887
893.837	3827
893.941	4893
894.045	4345
894.148	6587
894.252	16457
894.356	10560
894.460	4876
894.564	3709
894.667	3602
894.771	3195
894.875	2630
894.978	3066
895.082	2435
895.186	3061
895.289	3691
895.393	2606
895.496	3245
895.600	2781
895.703	2253
895.807	2860
895.910	2558
896.014	2664
896.117	2602
896.221	3260
896.324	3259
896.427	3345
896.531	3987
896.634	3194
896.737	3008
896.840	2989
896.944	2581
897.047	3586
897.150	3458
897.253	1827
897.356	1895
897.460	2118
897.563	2748
897.666	3836
897.769	3207
897.872	2483
897.975	2564
898.078	3086
898.181	1678
898.284	2718
898.387	3233
898.490	2519
898.593	2834
898.695	2564
898.798	2096
898.901	2526
899.004	2760
899.107	3059
899.209	2176
899.312	3091
899.415	2254
899.518	2267
899.620	2598
899.723	2275
899.826	3128
899.928	3774
900.031	2402
900.133	3488
900.236	2175
900.338	2224
900.441	2464
900.543	1823
900.646	2734
900.748	2874
900.851	2933
900.953	2782
901.055	2306
901.158	2571
901.260	3073
901.362	2866
901.465	2417
901.567	2622
901.669	2668
901.771	2590
901.873	2982
901.976	2452
902.078	2598
902.180	2445
902.282	2326
902.384	2473
902.486	2864
902.588	3383
902.690	2625
902.792	2807
902.894	2621
902.996	3345
903.098	2463
903.200	2681
903.302	2455
903.404	2477
903.505	2062
903.607	2279
903.709	3193
903.811	2530
903.913	2001
904.014	2738
904.116	2099
904.218	3027
904.319	2559
904.421	2814
904.523	3423
904.624	3014
904.726	2562
904.827	1608
904.929	2499
905.030	3030
905.132	2969
905.233	3083
905.335	2157
905.436	2917
905.537	2381
905.639	2631
905.740	2058
905.841	3055
905.943	2627
906.044	3007
906.145	2523
906.247	2866
906.348	2602
906.449	2481
906.550	2506
906.651	2492
906.752	2647
906.854	1872
906.955	2835
907.056	3116
907.157	3232
907.258	3181
907.359	2280
907.460	2985
907.561	2264
907.662	1849
907.762	3137
907.863	1931
907.964	3028
908.065	2631
908.166	2967
908.267	2244
908.367	2403
908.468	2408
908.569	3200
908.670	3417
908.770	2949
908.871	3347
908.971	3041
909.072	3051
909.173	2488
909.273	2758
909.374	2309
909.474	2691
909.575	2303
909.675	3056
909.776	2344
909.876	2136
909.977	2587
910.077	2936
910.177	2202
910.278	2397
910.378	2275
910.478	1981
910.579	2371
910.679	2130
910.779	2461
910.879	3329
910.980	2068
911.080	2786
911.180	2207
911.280	3111
911.380	3014
911.480	1938
911.580	2757
911.680	2356
911.780	2716
911.880	2916
911.980	2344
912.080	2046
912.180	2152
912.280	2493
912.380	2517
912.480	2575
912.580	2214
912.679	2646
912.779	2747
912.879	2600
912.979	1451
913.078	1951
913.178	1721
913.278	1774
913.377	2605
913.477	2068
913.577	2065
913.676	3502
913.776	2781
913.875	2235
913.975	2549
914.074	2596
914.174	2603
914.273	2369
914.373	1859
914.472	2292
914.572	2084
914.671	2080
914.770	2534
914.870	2608
914.969	1791
915.068	2995
915.167	2346
915.267	2167
915.366	2286
915.465	1526
915.564	3025
915.663	2322
915.763	2026
915.862	3034
915.961	2744
916.060	2215
916.159	2282
916.258	2494
916.357	2179
916.456	2709
916.555	2356
916.654	2620
916.752	3264
916.851	2512
916.950	2555
917.049	2149
917.148	2460
917.247	2388
917.345	2335
917.444	2751
917.543	2002
917.642	2163
917.740	2215
917.839	3863
917.937	3295
918.036	3380
918.135	2381
918.233	2206
918.332	1535
918.430	2369
918.529	2197
918.627	2478
918.726	2233
918.824	1668
918.923	1856
919.021	1865
919.119	2296
919.218	2396
919.316	2439
919.414	2908
919.512	2899
919.611	3026
919.709	2643
919.807	2901
919.905	2853
920.003	2734
920.102	2389
920.200	2674
920.298	2681
920.396	3576
920.494	2824
920.592	2617
920.690	2992
920.788	2538
920.886	2481
920.984	3404
921.082	3233
921.180	3059
921.277	2375
921.375	2975
921.473	3191
921.571	3919
921.669	3512
921.766	2602
921.864	3796
921.962	4179
922.060	3672
922.157	3828
922.255	3989
922.352	3744
922.450	4224
922.548	4296
922.645	3559
922.743	5527
922.840	7785
922.938	7725
923.035	6735
923.133	7281
923.230	7336
923.327	9627
923.425	9114
923.522	8975
923.619	7949
923.717	7633
923.814	7318
923.911	7656
924.008	7654
924.106	7576
924.203	7085
924.300	7293
924.397	6867
924.494	7421
924.591	7383
924.688	7628
924.786	7354
924.883	6928
924.979	7666
925.077	5917
925.173	6443
925.270	6977
925.367	6872
925.464	7969
925.561	7356
925.658	8612
925.755	6207
925.852	7360
925.948	6886
926.045	8460
926.142	6972
926.239	8037
926.335	6442
926.432	8118
926.529	7668
926.625	8545
926.722	7209
926.818	6782
926.915	6766
927.011	7106
927.108	5885
927.204	7536
927.301	6742
927.397	6460
927.494	7660
927.590	5255
927.687	4978
927.783	7183
927.879	6105
927.976	6245
928.072	6375
928.168	7098
928.264	5963
928.361	6046
928.457	7235
928.553	6937
928.649	6092
928.745	6376
928.841	5770
928.937	5537
929.033	5518
929.129	6182
929.225	6888
929.321	6247
929.417	5345
929.513	5146
929.609	5239
929.705	5622
929.801	5559
929.897	6310
929.993	5949
930.089	5826
930.184	5591
930.280	5892
930.376	6361
930.471	5748
930.567	4490
930.663	5291
930.758	4985
930.854	5298
930.950	4470
931.045	4978
931.141	4691
931.236	6779
931.332	5292
931.427	5598
931.523	5824
931.618	5763
931.714	3963
931.809	4532
931.905	4650
932.000	4748
932.095	4172
932.191	6302
932.286	5598
932.381	5206
932.476	4624
932.572	4800
932.667	5157
932.762	4491
932.857	4532
932.952	5577
933.047	5028
933.142	4422
933.237	4740
933.332	5418
933.427	6565
933.522	5160
933.617	4388
933.712	4904
933.807	5772
933.902	6135
933.997	6268
934.092	5298
934.187	5137
934.282	5231
934.376	4677
934.471	5149
934.566	3475
934.661	4843
934.755	4902
934.850	5300
934.945	4241
935.039	3843
935.134	4072
935.228	4845
935.323	5704
935.417	4597
935.512	3300
935.606	4147
935.701	4667
935.795	5252
935.890	4025
935.984	4724
936.079	3499
936.173	4707
936.267	4399
936.362	4056
936.456	4598
936.550	5805
936.644	5099
936.738	3413
936.833	4004
936.927	3714
937.021	4407
937.115	3916
937.209	4753
937.303	3955
937.397	3672
937.491	4262
937.585	4904
937.679	4228
937.773	3283
937.867	3581
937.961	4181
938.055	3960
938.149	4950
938.243	3643
938.337	3852
938.430	3666
938.524	5386
938.618	5761
938.712	4210
938.805	4044
938.899	4082
938.993	4714
939.086	4339
939.180	4955
939.274	6408
939.367	5369
939.461	4069
939.554	3720
939.648	3178
939.741	3781
939.835	2990
939.928	4632
940.022	4240
940.115	4266
940.208	4508
940.302	5485
940.395	4273
940.488	3959
940.582	3188
940.675	4004
940.768	3577
940.861	4251
940.954	4174
941.048	2815
941.141	2438
941.234	4018
941.327	3657
941.420	3729
941.513	4579
941.606	3635
941.699	2776
941.792	4047
941.885	3677
941.978	3505
942.071	3764
942.164	3283
942.257	2227
942.349	3566
942.442	3774
942.535	2442
942.628	2920
942.721	3674
942.813	2753
942.906	4046
942.999	2833
943.091	3025
943.184	3546
943.277	3635
943.369	2499
943.462	2684
943.554	3420
943.647	3663
943.739	3694
943.832	2795
943.924	2171
944.017	2548
944.109	2474
944.201	3397
944.294	2861
944.386	2689
944.478	2310
944.571	2326
944.663	2759
944.755	3019
944.847	2582
944.940	3533
945.032	2312
945.124	2393
945.216	2351
945.308	2657
945.400	2979
945.492	3123
945.584	3878
945.676	3995
945.768	3127
945.860	3510
945.952	4219
946.044	2937
946.136	2388
946.228	3205
946.320	2838
946.412	3202
946.503	3224
946.595	3092
946.687	2233
946.779	2088
946.870	1419
946.962	2665
947.054	3800
947.145	2962
947.237	3225
947.329	2940
947.420	1827
947.512	2555
947.603	2304
947.695	2019
947.786	2053
947.878	3375
947.969	2287
948.061	2555
948.152	1907
948.243	2927
948.335	1780
948.426	1705
948.517	2472
948.609	2769
948.700	2904
948.791	2153
948.882	2340
948.973	2127
949.065	2367
949.156	2576
949.247	2325
949.338	2303
949.429	1130
949.520	2767
949.611	2163
949.702	3475
949.793	2281
949.884	2856
949.975	2193
950.066	2113
950.157	1987
950.247	1561
950.338	1526
950.429	1853
950.520	2422
950.611	2022
950.701	2190
950.792	3184
950.883	2724
950.973	1972
951.064	2145
951.155	2887
951.245	2329
951.336	2881
951.427	2287
951.517	2845
951.608	3211
951.698	2326
951.788	815
951.879	2216
951.969	1817
952.060	2153
952.150	2064
952.240	2629
952.331	1636
952.421	3011
952.511	1348
952.602	1651
952.692	1578
952.782	2005
952.872	1693
952.962	2425
953.052	1786
953.143	1378
953.233	3028
953.323	2345
953.413	2373
953.503	2059
953.593	2567
953.683	2582
953.773	1539
953.863	2112
953.953	554
954.042	2507
954.132	1655
954.222	2399
954.312	1726
954.402	2326
954.492	2056
954.581	2914
954.671	2526
954.761	2400
954.850	2953
954.940	1982
955.030	1264
955.119	1580
955.209	1464
955.298	2030
955.388	1448
955.477	2334
955.567	2327
955.656	2208
955.746	1949
955.835	2006
955.925	1523
956.014	1993
956.103	2052
956.193	3416
956.282	1462
956.371	1830
956.461	1956
956.550	1907
956.639	1975
956.728	1499
956.817	2736
956.906	1733
956.995	2669
957.085	1726
957.174	2477
957.263	2245
957.352	1619
957.441	2871
957.530	1800
957.619	2043
957.708	2222
957.796	2598
957.885	2140
957.974	2567
958.063	1973
958.152	2644
958.241	1688
958.329	1977
958.418	2267
958.507	2512
958.596	2232
958.684	3480
958.773	2662
958.861	2923
958.950	2349
959.039	2957
959.127	2613
959.216	2783
959.304	3672
959.393	3057
959.481	2278
959.570	2945
959.658	2958
959.746	3313
959.835	3168
959.923	4000
960.011	2454
960.100	3101
960.188	2496
960.276	2729
960.365	2924
960.453	2375
960.541	1482
960.629	2202
960.717	1675
960.805	1792
960.893	2550
960.981	2628
961.069	2413
961.158	2037
961.245	2818
961.333	3173
961.421	2062
961.509	2630
961.597	1832
961.685	1902
961.773	2036
961.861	1259
961.949	1912
962.036	1370
962.124	941
962.212	1598
962.299	538
962.387	1884
962.475	1486
962.562	1053
962.650	1865
962.738	1907
962.825	1709
962.913	2310
963.000	1742
963.088	1452
963.175	1105
963.263	2933
963.350	1660
963.438	1701
963.525	1644
963.612	2497
963.700	3253
963.787	6742
963.874	4069
963.962	2009
964.049	1291
964.136	1685
964.223	1447
964.310	1236
964.398	1187
964.485	1616
964.572	1986
964.659	2106
964.746	1555
964.833	1490
964.920	1370
965.007	1768
965.094	2124
965.181	1930
965.268	1541
965.355	1411
965.441	1902
965.528	1390
965.615	1349
965.702	1713
965.789	1607
965.875	1173
965.962	1114
966.049	603
966.136	1569
966.222	1284
966.309	1943
966.395	1614
966.482	2245
966.569	1700
966.655	1860
966.742	1719
966.828	1755
966.915	1312
967.001	1269
967.087	1055
967.174	1708
967.260	1764
967.347	1981
967.433	2994
967.519	4651
967.605	2862
967.692	1352
967.778	1157
967.864	550
967.950	1529
968.036	1127
968.123	1575
968.209	1155
968.295	876
968.381	1364
968.467	1104
968.553	1037
968.639	1885
968.725	1150
968.811	2089
968.897	2085
968.983	1333
969.069	1233
969.154	896
969.240	659
969.326	931
969.412	666
969.497	1370
969.583	2005
969.669	2103
969.755	1069
969.840	1484
969.926	1701
970.012	1634
970.097	2495
970.183	2176
970.268	1150
970.354	1878
970.439	1568
970.525	3602
970.610	2327
970.696	2415
970.781	1285
970.866	1578
970.952	893
971.037	1164
971.122	743
971.208	683
971.293	617
971.378	1396
971.463	543
971.549	912
971.634	1074
971.719	522
971.804	893
971.889	1572
971.974	1016
972.059	1308
972.144	1587
972.229	388
972.314	947
972.399	1081
972.484	1274
972.569	1602
972.654	1120
972.739	2552
972.824	1359
972.908	1386
972.993	1082
973.078	1265
973.163	1088
973.247	1022
973.332	-223
973.417	1466
973.501	245
973.586	876
973.671	1580
973.755	1301
973.840	1621
973.924	1534
974.009	1280
974.093	1511
974.178	2402
974.262	1957
974.346	1227
974.431	2032
974.515	1274
974.600	1673
974.684	1706
974.768	1401
974.852	1749
974.937	741
975.021	773
975.105	1423
975.189	213
975.273	1957
975.358	106
975.442	-188
975.526	1087
975.610	433
975.694	222
975.778	1109
975.862	870
975.946	-133
976.030	2397
976.114	692
976.198	1181
976.281	963
976.365	874
976.449	439
976.533	669
976.617	964
976.700	1081
976.784	1022
976.868	261
976.951	1641
977.035	799
977.119	889
977.202	1082
977.286	962
977.369	1213
977.453	2716
977.536	2015
977.620	483
977.703	1696
977.787	-12
977.870	1593
977.953	2351
978.037	-49
978.120	1693
978.203	1337
978.287	2315
978.370	963
978.453	987
978.536	1183
978.620	1772
978.703	1424
978.786	911
978.869	1080
978.952	-377
979.035	1364
979.118	1436
979.201	789
979.284	867
979.367	28
979.450	887
979.533	237
979.616	1010
979.699	299
979.782	1208
979.865	840
979.948	891
980.030	547
980.113	517
980.196	437
980.279	1577
980.361	1463
980.444	396
980.526	468
980.609	2137
980.692	919
980.774	1728
980.857	676
980.939	1277
981.022	935
981.104	134
981.187	275
981.269	1591
981.352	527
981.434	501
981.516	719
981.599	1906
981.681	923
981.763	1355
981.846	1320
981.928	1316
982.010	869
982.092	329
982.174	395
982.256	890
982.339	52
982.421	1265
982.503	1360
982.585	945
982.667	396
982.749	1161
982.831	514
982.913	557
982.995	1553
983.077	381
983.158	1636
983.240	221
983.322	1559
983.404	1776
983.486	1289
983.568	1449
983.649	1177
983.731	1514
983.813	-131
983.894	328
983.976	936
984.058	680
984.139	1230
984.221	667
984.302	1299
984.384	732
984.465	1244
984.547	28
984.628	26
984.710	1638
984.791	799
984.872	1182
984.954	-362
985.035	1527
985.116	223
985.198	521
985.279	1803
985.360	1073
985.441	972
985.522	1144
985.604	549
985.685	-780
985.766	1131
985.847	2002
985.928	321
986.009	598
986.090	198
986.171	989
986.252	774
986.333	640
986.414	261
986.495	919
986.576	1748
986.656	1213
986.737	279
986.818	1285
986.899	1336
986.980	1324
987.060	1273
987.141	1263
987.222	1348
987.302	1660
987.383	1403
987.464	641
987.544	1794
987.625	1340
987.705	1638
987.786	2082
987.866	309
987.947	1687
988.027	685
988.108	517
988.188	1115
988.268	284
988.349	1943
988.429	851
988.509	1243
988.589	1372
988.670	140
988.750	2170
988.830	851
988.910	604
988.990	717
989.070	920
989.151	385
989.231	340
989.311	559
989.391	1102
989.471	778
989.551	235
989.631	816
989.711	830
989.791	424
989.870	601
989.950	669
990.030	372
990.110	815
990.190	351
990.269	168
990.349	632
990.429	412
990.509	420
990.588	-456
990.668	845
990.747	388
990.827	546
990.907	936
990.986	204
991.066	598
991.145	722
991.225	405
991.304	223
991.383	-247
991.463	-153
991.542	150
991.622	184
991.701	218
991.780	623
991.859	-361
991.939	135
992.018	769
992.097	690
992.176	-24
992.256	143
992.335	-327
992.414	1250
992.493	177
992.572	-23
992.651	1194
992.730	913
992.809	247
992.888	137
992.967	478
993.046	388
993.125	194
993.203	-93
993.282	66
993.361	-526
993.440	202
993.519	-308
993.597	-586
993.676	-498
993.755	321
993.834	-172
993.912	-1068
993.991	441
994.069	-620
994.148	-607
994.226	-97
994.305	165
994.384	-257
994.462	609
994.540	-475
994.619	-240
994.697	-170
994.776	-158
994.854	-562
994.932	262
995.011	-609
995.089	209
995.167	-260
995.245	435
995.324	147
995.402	649
995.480	-716
995.558	205
995.636	-717
995.714	-1235
995.792	351
995.870	20
995.948	379
996.026	-124
996.104	-739
996.182	-85
996.260	-329
996.338	-500
996.416	-386
996.494	-536
996.572	899
996.649	-493
996.727	-1170
996.805	342
996.883	-537
996.960	-123
997.038	-247
997.116	-120
997.193	-1216
997.271	75
997.348	-607
997.426	-488
997.504	283
997.581	126
997.658	-107
997.736	-1306
997.813	-1170
997.891	309
997.968	-194
998.046	-572
998.123	-318
998.200	-606
998.277	-466
998.355	162
998.432	-1133
998.509	-462
998.586	123
998.663	-244
998.741	-306
998.818	-8
998.895	-800
998.972	-281
999.049	-376
999.126	-489
999.203	-465
999.280	-258
999.357	-214
999.434	-104
999.511	-489
999.587	-437
999.664	-529
999.741	-379
999.818	16
999.895	-597
999.971	-599
1000.048	-261
1000.125	-422
1000.202	-887
1000.278	-36
1000.355	-372
1000.431	-587
1000.508	-1134
1000.584	-585
1000.661	-1096
1000.738	-1115
1000.814	-1022
1000.890	71
1000.967	-105
1001.043	-574
1001.120	-1462
1001.196	-476
1001.272	-802
1001.349	-610
1001.425	-389
1001.501	-1194
1001.577	-1245
1001.654	-735
1001.730	-112
1001.806	-1048
1001.882	-1611
1001.958	-694
1002.034	-831
1002.110	-963
1002.186	-967
1002.262	-230
1002.338	-1310
1002.414	-626
1002.490	-226
1002.566	-682
1002.642	-1275
1002.718	307
1002.794	-820
1002.870	-1246
1002.945	-719
1003.021	-275
1003.097	-1002
1003.173	357
1003.248	-1402
1003.324	-1047
1003.400	-475
1003.475	-1092
1003.551	-409
1003.626	-855
1003.702	-664
1003.777	-787
1003.853	-966
1003.928	-1008
1004.004	-648
1004.079	-500
1004.155	-587
1004.230	-1441
1004.305	-612
1004.381	-962
1004.456	-933
1004.531	-1340
1004.607	-1169
1004.682	-1124
1004.757	-859
1004.832	-1601
1004.907	-414
1004.982	-1174
1005.057	-145
1005.133	-719
1005.208	-771
1005.283	-1541
1005.358	-681
1005.433	-1167
1005.508	-986
1005.583	-1539
1005.657	-682
1005.732	-643
1005.807	-1170
1005.882	-1320
1005.957	-177
1006.032	-136
1006.106	-651
1006.181	-1597
1006.256	-538
1006.331	-1690
1006.405	-1394
1006.480	-861
1006.554	-1265
1006.629	-1446
1006.704	-1391
1006.778	-1192
1006.853	-1084
1006.927	-1525
1007.002	-1411
1007.076	-1037
1007.150	-690
1007.225	-1701
1007.299	-1068
1007.373	-1224
1007.448	-738
1007.522	-1129
1007.596	-573
1007.671	-259
1007.745	-802
1007.819	-1315
1007.893	-1339
1007.967	-982
1008.041	-1356
1008.115	-1370
1008.190	-1320
1008.264	-447
1008.338	-2129
1008.412	-966
1008.486	-1121
1008.560	-1249
1008.633	-1638
1008.707	-1280
1008.781	-952
1008.855	-1157
1008.929	-944
1009.003	-665
1009.076	-1834
1009.150	-798
1009.224	-1182
1009.298	-520
1009.371	-600
1009.445	-1101
1009.519	-1025
1009.592	-1877
1009.666	-44
1009.739	-1042
1009.813	-1427
1009.886	-30
1009.960	-2186
1010.033	-665
1010.107	-785
1010.180	-1129
1010.253	-1037
1010.327	-1948
1010.400	-1288
1010.473	-1212
1010.547	303
1010.620	-1388
1010.693	-458
1010.766	-1583
1010.840	-1644
1010.913	-1987
1010.986	-1545
1011.059	-1598
1011.132	-674
1011.205	-876
1011.278	-668
1011.351	-1560
1011.424	-1267
1011.497	-1373
1011.570	-1123
1011.643	-659
1011.716	-994
1011.789	-1856
1011.862	-733
1011.934	-770
1012.007	-2198
1012.080	-1904
1012.153	-862
1012.225	-963
1012.298	-1775
1012.371	-1101
1012.443	-843
1012.516	-2186
1012.588	-495
1012.661	-1311
1012.733	-1284
1012.806	-484
1012.879	-1267
1012.951	-1095
1013.023	-1438
1013.096	-1296
1013.168	-842
1013.241	-1439
1013.313	-1140
1013.385	-1562
1013.458	-1427
1013.530	-1259
1013.602	-1281
1013.674	-1186
1013.746	-1999
1013.819	-1144
1013.891	-1184
1013.963	-774
1014.035	-1447
1014.107	-1378
1014.179	-1015
1014.251	-1311
1014.323	-949
1014.395	-1950
1014.467	-959
1014.539	-1388
1014.611	-2467
1014.683	-1354
1014.754	-694
1014.826	-1364
1014.898	-717
1014.970	-1991
1015.042	-319
1015.113	-1678
1015.185	-794
1015.257	-2666
1015.328	-1437
1015.400	-1884
1015.471	-1317
1015.543	-1912
1015.615	-1454
1015.686	-1537
1015.757	-2002
1015.829	-1219
1015.901	-1096
1015.972	-1580
1016.043	-1755
1016.115	-1056
1016.186	-1766
1016.257	-2050
1016.328	-1063
1016.400	-746
1016.471	-2012
1016.542	-2066
1016.613	-1516
1016.685	-1578
1016.756	-1058
1016.827	-1424
1016.898	-2328
1016.969	-1319
1017.040	-1970
1017.111	-1636
1017.182	-1195
1017.253	-1467
1017.324	-1375
1017.395	-1134
1017.466	-1528
1017.537	-1495
1017.608	-1435
1017.678	-1769
1017.749	-1325
1017.820	-1352
1017.891	-1548
1017.961	-1635
1018.032	-1847
1018.103	-1324
1018.173	-1291
1018.244	-2213
1018.315	-1321
1018.385	-2007
1018.456	-1909
1018.526	-2194
1018.597	-2021
1018.667	-1129
1018.738	-1971
1018.808	-1920
1018.878	-1654
1018.949	-2180
1019.019	-1360
1019.089	-1993
1019.160	-1338
1019.230	-1902
1019.300	-973
1019.371	-1770
1019.441	-1402
1019.511	-1835
1019.581	-1914
1019.651	-1705
1019.721	-771
1019.791	-1397
1019.861	-1626
1019.931	-1859
1020.001	-2163
1020.071	-1040
1020.141	-1773
1020.211	-1671
1020.281	-1464
1020.351	-2628
1020.421	-1122
1020.491	-1746
1020.560	-2747
1020.630	-1402
1020.700	-1591
1020.770	-1669
1020.839	-1665
1020.909	-1075
1020.979	-1765
1021.048	-2079
1021.118	-1881
1021.187	-1884
1021.257	-1441
1021.326	-1028
1021.396	-2308
1021.465	-2195
1021.535	-1481
1021.604	-2037
1021.674	-1951
1021.743	-1917
1021.812	-2173
1021.882	-1914
1021.951	-1468
1022.020	-1325
1022.089	-772
1022.159	-1853
1022.228	-1380
1022.297	-2261
1022.366	-1638
1022.435	-2051
1022.504	-1795
1022.573	-2415
1022.642	-1781
1022.711	-1960
1022.781	-837
1022.849	-1148
1022.918	-2209
1022.987	-1103
1023.056	-1938
1023.125	-2080
1023.194	-1389
1023.263	-1121
1023.331	-1283
1023.400	-2386
1023.469	-1714
1023.538	-1141
1023.606	-1923
1023.675	-2888
1023.744	-1096
1023.812	-1856
1023.881	-1194
1023.949	-2066
1024.018	-1957
1024.086	-2002
1024.155	-1675
1024.223	-2436
1024.292	-1167
1024.360	-1438
1024.429	-1540
1024.497	-1943
1024.565	-1621
1024.634	-2496
1024.702	-2075
1024.770	-1754
1024.838	-1018
1024.907	-1032
1024.975	-2228
1025.043	-1827
1025.111	-2460
1025.179	-2035
1025.247	-1770
1025.315	-1672
1025.383	-2211
1025.451	-2645
1025.519	-1726
1025.587	-2287
1025.655	-1336
1025.723	-2202
1025.791	-1340
1025.859	-1488
1025.927	-1305
1025.995	-1449
1026.062	-1126
1026.130	-1743
1026.198	-2183
1026.266	-1836
1026.333	-2193
1026.401	-1504
1026.469	-2153
1026.536	-1714
1026.604	-1781
1026.671	-1906
1026.739	-1570
1026.806	-2685
1026.874	-1161
1026.941	-2038
1027.009	-1259
1027.076	-2893
1027.144	-1592
1027.211	-2163
1027.278	-1466
1027.345	-2055
1027.413	-1384
1027.480	-2516
1027.547	-2087
1027.614	-1441
1027.682	-2111
1027.749	-2459
1027.816	-2193
1027.883	-1478
1027.950	-1494
1028.017	-2044
1028.084	-1458
1028.151	-2486
1028.218	-1751
1028.285	-2063
1028.352	-1946
1028.419	-1997
1028.486	-1833
1028.553	-2055
1028.619	-1825
1028.686	-2185
1028.753	-2044
1028.820	-1762
1028.886	-2048
1028.953	-1553
1029.020	-1301
1029.086	-1532
1029.153	-1598
1029.220	-2623
1029.286	-1353
1029.353	-1416
1029.419	-2170
1029.486	-1616
1029.552	-1841
1029.619	-1519
1029.685	-1264
1029.751	-2706
1029.818	-1277
1029.884	-2161
1029.951	-987
1030.017	-2494
1030.083	-1609
1030.149	-1817
1030.216	-1144
1030.282	-1650
1030.348	-1638
1030.414	-2522
1030.480	-2144
1030.546	-1465
1030.612	-2382
1030.678	-2289
1030.744	-1254
1030.810	-2213
1030.876	-1574
1030.942	-2208
1031.008	-1746
1031.074	-1940
1031.140	-1603
1031.206	-1266
1031.272	-1893
1031.337	-834
1031.403	-1420
1031.469	-1648
1031.534	-1821
1031.600	-1739
1031.666	-2083
1031.731	-2460
1031.797	-2874
1031.863	-1967
1031.928	-1899
1031.994	-2282
1032.059	-1881
1032.125	-2044
1032.190	-2166
1032.256	-1734
1032.321	-1900
1032.386	-2121
1032.452	-1086
1032.517	-1869
1032.582	-1900
1032.647	-935
1032.713	-2434
1032.778	-2088
1032.843	-1737
1032.908	-1742
1032.974	-1298
1033.039	-2078
1033.104	-1226
1033.169	-2604
1033.234	-1616
1033.299	-2585
1033.364	-1734
1033.429	-2139
1033.494	-1415
1033.559	-2210
1033.624	-1729
1033.688	-1474
1033.753	-1783
1033.818	-1650
1033.883	-1285
1033.948	-1996
1034.013	-1692
1034.077	-1914
1034.142	-406
1034.207	-1651
1034.271	-847
1034.336	-563
1034.400	-687
1034.465	-612
1034.530	-1143
1034.594	-1291
1034.658	-1847
1034.723	-1944
1034.787	-1323
1034.852	-1234
1034.916	-1249
1034.981	-2711
1035.045	-1763
1035.109	-1552
1035.173	-1660
1035.238	-2880
1035.302	-1190
1035.366	-1492
1035.430	-1957
1035.495	-2370
1035.559	-2291
1035.623	-2296
1035.687	-1888
1035.751	-1538
1035.815	-2341
1035.879	-1942
1035.943	-1481
1036.007	-1347
1036.071	-1946
1036.135	-2354
1036.198	-1827
1036.262	-2928
1036.326	-2132
1036.390	-1773
1036.454	-2168
1036.517	-1754
1036.581	-2038
1036.645	-1822
1036.709	-1981
1036.772	-2213
1036.836	-1448
1036.900	-1717
1036.963	-2142
1037.026	-1684
1037.090	-2833
1037.154	-2080
1037.217	-1664
1037.280	-2027
1037.344	-1496
1037.407	-1821
1037.471	-1513
1037.534	-2294
1037.597	-1651
1037.661	-2201
1037.724	-1727
1037.787	-1865
1037.850	-1419
1037.913	-2141
1037.977	-2110
1038.040	-2055
1038.103	-1642
1038.166	-2590
1038.229	-2385
1038.292	-2273
1038.355	-1216
1038.418	-1659
1038.481	-1439
1038.544	-1791
1038.607	-2005
1038.670	-2257
1038.732	-1631
1038.795	-1664
1038.858	-2215
1038.921	-1151
1038.984	-871
1039.046	-2501
1039.109	-1582
1039.172	-1977
1039.234	-1937
1039.297	-2043
1039.360	-2170
1039.422	-2499
1039.485	-1332
1039.547	-2507
1039.610	-1827
1039.672	-2084
1039.734	-2323
1039.797	-2291
1039.859	-2255
1039.922	-1868
1039.984	-1647
1040.046	-2477
1040.109	-2237
1040.171	-3296
1040.233	-1433
1040.295	-2271
1040.358	-2678
1040.420	-1827
1040.482	-1982
1040.544	-1985
1040.606	-1787
1040.668	-2208
1040.730	-1356
1040.792	-2171
1040.854	-1738
1040.916	-3186
1040.978	-2413
1041.040	-2195
1041.102	-1641
1041.164	-1861
1041.225	-1960
1041.287	-2798
1041.349	-2407
1041.411	-1873
1041.472	-1418
1041.534	-1840
1041.596	-2235
1041.657	-1341
1041.719	-2263
1041.781	-1989
1041.842	-1904
1041.904	-2584
1041.965	-2703
1042.027	-2287
1042.088	-1592
1042.150	-2263
1042.211	-2453
1042.272	-2009
1042.334	-1633
1042.395	-2568
1042.456	-2184
1042.518	-2531
1042.579	-1866
1042.640	-2640
1042.701	-2009
1042.763	-2722
1042.824	-1889
1042.885	-2272
1042.946	-2453
1043.007	-2784
1043.068	-1992
1043.129	-2781
1043.190	-2574
1043.251	-1914
1043.312	-1489
1043.373	-1326
1043.434	-2369
1043.495	-1913
1043.556	-1943
1043.616	-2062
1043.677	-2043
1043.738	-2032
1043.799	-1448
1043.859	-1987
1043.920	-1917
1043.981	-2229
1044.041	-2269
1044.102	-3073
1044.162	-1602
1044.223	-2834
1044.284	-1770
1044.344	-1700
1044.405	-2993
1044.465	-2635
1044.525	-1997
1044.586	-2339
1044.646	-1725
1044.707	-2137
1044.767	-2370
1044.827	-2133
1044.887	-1478
1044.948	-2116
1045.008	-1801
1045.068	-2166
1045.128	-2011
1045.188	-1735
1045.249	-1714
1045.309	-2334
1045.369	-1359
1045.429	-2199
1045.489	-1502
1045.549	-1736
1045.609	-2346
1045.669	-1915
1045.729	-1576
1045.789	-2244
1045.848	-1920
1045.908	-1441
1045.968	-1865
1046.028	-1469
1046.088	-1686
1046.147	-2137
1046.207	-2184
1046.267	-2161
1046.326	-1629
1046.386	-1217
1046.446	-1572
1046.505	-1957
1046.565	-753
1046.624	-692
1046.684	-549
1046.743	-748
1046.803	-1295
1046.862	-610
1046.922	0
