'Start Wavelength	183.907
'End Wavelength	1046.922
'Gate Delay	5.000
'Gate Width (ms)	1.050
'Laser Output Level	0.000
'X Position	0.000
'Y Position	0.000
'Z Position	0.000
'Grid Point Number	1.000
'Shot Number	100.000
183.907	293.000
183.977	376.000
184.047	-963
184.116	446
184.186	-19
184.256	201
184.325	31
184.395	441
184.465	53
184.534	786
184.604	-535
184.674	264
184.743	-133
184.813	-92
184.883	21
184.952	195
185.022	-352
185.092	281
185.161	91
185.231	118
185.301	-399
185.370	704
185.440	-151
185.509	697
185.579	622
185.649	1077
185.718	-163
185.788	680
185.857	249
185.927	1256
185.996	660
186.066	-129
186.136	-264
186.205	451
186.275	155
186.344	317
186.414	-91
186.483	-32
186.553	180
186.622	298
186.692	290
186.761	278
186.831	-362
186.900	201
186.970	671
187.039	554
187.109	442
187.178	1066
187.248	450
187.317	242
187.387	38
187.456	657
187.526	898
187.595	-222
187.664	-350
187.734	83
187.803	-84
187.873	601
187.942	26
188.012	339
188.081	427
188.150	151
188.220	628
188.289	840
188.358	756
188.428	1291
188.497	-491
188.567	450
188.636	629
188.705	221
188.775	-514
188.844	-56
188.913	360
188.983	-25
189.052	446
189.121	530
189.191	-357
189.260	495
189.329	-192
189.399	789
189.468	297
189.537	511
189.606	672
189.676	1247
189.745	77
189.814	999
189.883	-111
189.953	789
190.022	283
190.091	1194
190.161	1244
190.230	804
190.299	-154
190.368	109
190.437	459
190.507	771
190.576	534
190.645	348
190.714	486
190.783	707
190.853	432
190.922	526
190.991	440
191.060	469
191.129	-67
191.198	428
191.268	622
191.337	-119
191.406	666
191.475	304
191.544	746
191.613	833
191.682	353
191.752	351
191.821	-98
191.890	73
191.959	313
192.028	561
192.097	-19
192.166	57
192.235	-23
192.304	1327
192.373	-204
192.442	272
192.511	-135
192.580	597
192.650	635
192.719	276
192.788	325
192.857	684
192.926	466
192.995	844
193.064	171
193.133	997
193.202	545
193.271	723
193.340	1267
193.409	914
193.478	920
193.547	1825
193.615	1166
193.684	1308
193.753	494
193.822	1002
193.891	441
193.960	-143
194.029	728
194.098	519
194.167	1001
194.236	1011
194.305	262
194.374	725
194.443	606
194.512	209
194.580	689
194.649	765
194.718	145
194.787	794
194.856	130
194.925	755
194.994	357
195.062	1296
195.131	942
195.200	1392
195.269	895
195.338	1358
195.407	669
195.475	1073
195.544	416
195.613	1232
195.682	1366
195.751	1305
195.819	899
195.888	460
195.957	1585
196.026	911
196.094	1270
196.163	1367
196.232	1120
196.301	717
196.369	803
196.438	638
196.507	441
196.576	300
196.644	-321
196.713	585
196.782	865
196.850	90
196.919	1025
196.988	556
197.056	-272
197.125	867
197.194	505
197.262	605
197.331	333
197.400	1048
197.468	890
197.537	230
197.606	1346
197.674	1114
197.743	1525
197.812	1077
197.880	1368
197.949	778
198.017	1142
198.086	1657
198.155	1225
198.223	1292
198.292	681
198.360	725
198.429	100
198.497	541
198.566	482
198.635	1706
198.703	333
198.772	1049
198.840	1842
198.909	1983
198.977	1095
199.046	343
199.114	386
199.183	754
199.251	655
199.320	355
199.388	598
199.457	1061
199.525	1125
199.594	1167
199.662	507
199.731	488
199.799	386
199.867	1276
199.936	1152
200.004	1782
200.073	1259
200.141	938
200.210	-170
200.278	285
200.346	798
200.415	1340
200.483	776
200.552	823
200.620	457
200.688	1285
200.757	824
200.825	657
200.893	686
200.962	1274
201.030	496
201.098	1321
201.167	742
201.235	759
201.303	931
201.372	1247
201.440	486
201.508	1424
201.577	165
201.645	832
201.713	474
201.781	728
201.850	1268
201.918	1064
201.986	345
202.055	1721
202.123	587
202.191	1479
202.259	1507
202.327	950
202.396	559
202.464	1480
202.532	683
202.600	2037
202.669	538
202.737	955
202.805	1684
202.873	1103
202.941	1267
203.009	1411
203.078	12
203.146	976
203.214	968
203.282	383
203.350	1664
203.418	1370
203.487	1095
203.555	1167
203.623	719
203.691	1386
203.759	576
203.827	579
203.895	1032
203.963	1509
204.031	425
204.099	786
204.168	622
204.236	1660
204.304	753
204.372	1247
204.440	672
204.508	585
204.576	997
204.644	1967
204.712	353
204.780	995
204.848	1214
204.916	916
204.984	540
205.052	1657
205.120	1059
205.188	1015
205.256	1047
205.324	976
205.392	956
205.460	851
205.528	970
205.596	1494
205.664	1199
205.732	1315
205.799	2329
205.867	3219
205.935	416
206.003	2060
206.071	1034
206.139	983
206.207	1554
206.275	1534
206.343	981
206.411	1867
206.478	1623
206.546	1377
206.614	1117
206.682	1319
206.750	1154
206.818	1801
206.885	957
206.953	234
207.021	1646
207.089	1884
207.157	1422
207.225	945
207.292	651
207.360	1500
207.428	1463
207.496	1335
207.563	959
207.631	1941
207.699	748
207.767	1050
207.834	1362
207.902	1241
207.970	1489
208.038	1390
208.105	1036
208.173	1000
208.241	1239
208.309	2788
208.376	1166
208.444	2574
208.512	1527
208.579	809
208.647	1798
208.715	2127
208.782	775
208.850	1380
208.918	1010
208.985	1452
209.053	1685
209.120	1666
209.188	691
209.256	1339
209.323	987
209.391	2627
209.459	2123
209.526	1022
209.594	875
209.661	1585
209.729	1787
209.796	1796
209.864	1862
209.932	1137
209.999	1623
210.067	1071
210.134	1680
210.202	1940
210.269	2028
210.337	2192
210.404	1237
210.472	1127
210.539	1991
210.607	2160
210.674	1847
210.742	1852
210.809	1765
210.877	2058
210.944	2048
211.012	1729
211.079	2750
211.146	2794
211.214	1889
211.281	2093
211.349	2317
211.416	1520
211.484	2541
211.551	1983
211.618	2659
211.686	2461
211.753	1425
211.821	2492
211.888	1857
211.955	2509
212.023	1749
212.090	2077
212.157	1872
212.225	2593
212.292	2667
212.359	4615
212.427	6514
212.494	4966
212.561	3548
212.629	3524
212.696	1964
212.763	1999
212.831	1661
212.898	2529
212.965	2190
213.032	1594
213.100	2807
213.167	1706
213.234	2808
213.301	2117
213.369	2152
213.436	2188
213.503	1171
213.570	2954
213.638	2085
213.705	2426
213.772	1300
213.839	2239
213.906	3081
213.973	2563
214.041	1299
214.108	2250
214.175	2148
214.242	1549
214.309	2263
214.376	2121
214.444	1733
214.511	2141
214.578	2142
214.645	2362
214.712	2862
214.779	2764
214.846	2458
214.913	2298
214.980	2208
215.048	3346
215.115	3303
215.182	2697
215.249	2492
215.316	2060
215.383	2135
215.450	3071
215.517	2028
215.584	2019
215.651	2097
215.718	2816
215.785	2493
215.852	1781
215.919	2164
215.986	2472
216.053	1887
216.120	2187
216.187	2227
216.254	2540
216.321	2014
216.388	2196
216.455	1906
216.522	2412
216.589	3041
216.656	3973
216.722	3808
216.789	2825
216.856	2656
216.923	2869
216.990	3544
217.057	3282
217.124	2846
217.191	4200
217.258	3810
217.324	4594
217.391	4062
217.458	3781
217.525	2374
217.592	3085
217.659	2547
217.725	3639
217.792	3001
217.859	3669
217.926	1672
217.993	2224
218.059	2417
218.126	2361
218.193	2418
218.260	2470
218.327	1723
218.393	2271
218.460	1745
218.527	2876
218.594	2591
218.660	3228
218.727	3302
218.794	2084
218.860	2458
218.927	1869
218.994	1320
219.061	2305
219.127	2790
219.194	2475
219.261	1718
219.327	2194
219.394	1953
219.461	1779
219.527	1366
219.594	1719
219.661	1920
219.727	989
219.794	2480
219.860	1791
219.927	2211
219.994	2995
220.060	3290
220.127	3797
220.193	3522
220.260	3331
220.326	4416
220.393	5871
220.460	6026
220.526	4745
220.593	3803
220.659	4041
220.726	4393
220.792	7402
220.859	6970
220.925	8433
220.992	8666
221.058	8416
221.125	7433
221.191	5855
221.258	4083
221.324	3381
221.391	2620
221.457	3083
221.524	2757
221.590	4474
221.657	5839
221.723	4613
221.789	4863
221.856	3553
221.922	2551
221.989	3237
222.055	2904
222.121	2065
222.188	3292
222.254	2547
222.321	2571
222.387	1838
222.453	1828
222.520	2460
222.586	2126
222.652	2213
222.719	2057
222.785	2618
222.851	2243
222.918	1858
222.984	2258
223.050	1682
223.116	1710
223.183	2438
223.249	1061
223.315	1052
223.382	2092
223.448	2060
223.514	985
223.580	1468
223.647	897
223.713	2375
223.779	1578
223.845	2058
223.911	2097
223.978	1631
224.044	2514
224.110	1179
224.176	2601
224.242	2194
224.309	1604
224.375	2097
224.441	1538
224.507	2145
224.573	768
224.639	2644
224.705	979
224.772	2004
224.838	872
224.904	2397
224.970	2057
225.036	2372
225.102	1773
225.168	1758
225.234	1406
225.300	1825
225.366	1646
225.432	2373
225.499	2092
225.565	1922
225.631	2662
225.697	2134
225.763	3263
225.829	3492
225.895	4006
225.961	3947
226.027	3571
226.093	3456
226.159	6042
226.225	7466
226.291	10792
226.357	13528
226.423	10181
226.489	6702
226.554	4744
226.620	4737
226.686	5886
226.752	8374
226.818	11198
226.884	14857
226.950	14229
227.016	9646
227.082	6379
227.148	5458
227.214	4115
227.279	4340
227.345	3612
227.411	3868
227.477	3099
227.543	3648
227.609	3893
227.674	4039
227.740	2870
227.806	3448
227.872	2385
227.938	2708
228.003	4820
228.069	3508
228.135	1554
228.201	2556
228.267	1161
228.332	3331
228.398	2141
228.464	3204
228.530	1824
228.595	1957
228.661	1925
228.727	2561
228.792	3898
228.858	2509
228.924	1161
228.990	3876
229.055	1241
229.121	3034
229.187	2260
229.252	2011
229.318	1680
229.384	1926
229.449	1808
229.515	1323
229.581	534
229.646	3090
229.712	2127
229.777	4093
229.843	2957
229.909	3803
229.974	4643
230.040	4184
230.105	3535
230.171	3155
230.236	4289
230.302	4944
230.368	3520
230.433	2774
230.499	3506
230.564	4687
230.630	2676
230.695	2914
230.761	2972
230.826	2204
230.892	3657
230.957	2525
231.023	2406
231.088	2522
231.154	2970
231.219	3095
231.284	2839
231.350	3302
231.415	1840
231.481	3521
231.546	2028
231.612	2752
231.677	1105
231.742	1857
231.808	3499
231.873	1739
231.939	1352
232.004	3213
232.069	2538
232.135	2510
232.200	2213
232.265	2734
232.331	1419
232.396	2133
232.461	1840
232.527	2649
232.592	709
232.657	2857
232.723	1775
232.788	1926
232.853	2257
232.918	1782
232.984	1100
233.049	1736
233.114	1172
233.179	3137
233.245	2367
233.310	2898
233.375	1773
233.440	2502
233.506	1385
233.571	1586
233.636	2182
233.701	2306
233.766	2509
233.832	2560
233.897	1354
233.962	1636
234.027	2332
234.092	2529
234.157	2302
234.222	1693
234.288	2288
234.353	4491
234.418	4184
234.483	4887
234.548	4128
234.613	3455
234.678	3393
234.743	3194
234.808	5964
234.873	4263
234.938	4301
235.004	3591
235.069	2938
235.134	3411
235.199	3205
235.264	3156
235.329	2224
235.394	3117
235.459	3506
235.524	3199
235.589	3838
235.654	2751
235.719	2323
235.784	3081
235.849	2975
235.913	3417
235.978	2907
236.043	3475
236.108	2220
236.173	2952
236.238	3607
236.303	3604
236.368	2761
236.433	4557
236.498	4607
236.563	6624
236.627	10852
236.692	21120
236.757	20207
236.822	12002
236.887	8068
236.952	7529
237.017	5125
237.081	7425
237.146	8994
237.211	16383
237.276	22304
237.341	25614
237.405	18808
237.470	11948
237.535	7351
237.600	6299
237.664	4898
237.729	4014
237.794	5465
237.859	10448
237.923	5005
237.988	4379
238.053	4785
238.118	4459
238.182	6417
238.247	7060
238.312	3054
238.376	3390
238.441	2129
238.506	4707
238.570	1543
238.635	2920
238.700	3177
238.764	2736
238.829	3911
238.893	4106
238.958	4415
239.023	4075
239.087	3110
239.152	2993
239.216	1944
239.281	3110
239.346	2627
239.410	3114
239.475	2417
239.539	5976
239.604	4424
239.668	4085
239.733	2167
239.797	2787
239.862	4143
239.926	4001
239.991	2691
240.055	2729
240.120	2728
240.184	2993
240.249	2069
240.313	2349
240.378	2445
240.442	4058
240.507	4714
240.571	2834
240.635	2185
240.700	3774
240.764	2258
240.829	2494
240.893	1469
240.957	3019
241.022	4336
241.086	5518
241.151	2503
241.215	1573
241.279	3372
241.344	3418
241.408	3736
241.472	3930
241.537	5141
241.601	4342
241.665	3268
241.730	3361
241.794	4266
241.858	4603
241.922	4239
241.987	4041
242.051	3257
242.115	2788
242.179	3458
242.244	3497
242.308	3767
242.372	4447
242.436	3570
242.501	4091
242.565	3612
242.629	2839
242.693	3660
242.757	2573
242.822	2697
242.886	3418
242.950	3149
243.014	3206
243.078	4860
243.142	3966
243.206	3098
243.271	4435
243.335	2386
243.399	4949
243.463	12702
243.527	25827
243.591	9639
243.655	6046
243.719	3197
243.783	4543
243.847	6115
243.911	6804
243.975	7233
244.040	5187
244.104	4821
244.168	3179
244.232	4510
244.296	6002
244.360	5958
244.424	3035
244.488	3892
244.552	3505
244.615	2034
244.679	4279
244.743	3006
244.807	3299
244.871	3115
244.935	2921
244.999	1478
245.063	2716
245.127	3392
245.191	5102
245.255	4655
245.319	3317
245.383	2868
245.446	4358
245.510	1999
245.574	3330
245.638	2601
245.702	2657
245.766	6303
245.829	4315
245.893	2624
245.957	3689
246.021	3547
246.085	3795
246.149	3913
246.212	8827
246.276	9974
246.340	5857
246.404	4323
246.467	4741
246.531	4807
246.595	5938
246.659	4661
246.722	3399
246.786	4780
246.850	6097
246.913	5498
246.977	2642
247.041	2743
247.104	3936
247.168	4159
247.232	8156
247.295	13249
247.359	7658
247.423	4668
247.486	6975
247.550	5176
247.614	4172
247.677	5703
247.741	4012
247.804	3630
247.868	4333
247.932	6502
247.995	13577
248.059	6020
248.122	4122
248.186	6384
248.249	7890
248.313	21057
248.376	22392
248.440	15496
248.503	6380
248.567	7557
248.630	7455
248.694	10591
248.757	15585
248.821	22970
248.884	16688
248.948	13278
249.011	20082
249.075	25408
249.138	22788
249.202	11662
249.265	8174
249.328	8324
249.392	7557
249.455	7245
249.519	5476
249.582	6205
249.645	9480
249.709	7101
249.772	6418
249.835	5998
249.899	5955
249.962	5871
250.025	5243
250.089	11093
250.152	12734
250.215	8221
250.279	6765
250.342	5805
250.405	6500
250.468	5220
250.532	7358
250.595	10362
250.658	27192
250.721	39020
250.785	18487
250.848	12007
250.911	7364
250.974	7976
251.038	9195
251.101	15977
251.164	8863
251.227	9964
251.290	9442
251.354	13041
251.417	35495
251.480	35760
251.543	30315
251.606	54832
251.669	46392
251.732	24711
251.795	22867
251.859	22989
251.922	40159
251.985	26198
252.048	13600
252.111	9902
252.174	9143
252.237	15413
252.300	27456
252.363	29757
252.426	45420
252.489	23351
252.552	12477
252.615	8179
252.678	11359
252.741	21374
252.804	29001
252.867	48816
252.930	33630
252.993	18993
253.056	13046
253.119	9462
253.182	7263
253.245	10847
253.308	9480
253.371	7311
253.434	6373
253.497	7199
253.559	12967
253.622	9227
253.685	10460
253.748	10716
253.811	6337
253.874	6601
253.937	6594
254.000	5211
254.062	9898
254.125	13347
254.188	14484
254.251	10391
254.314	5154
254.376	9132
254.439	10314
254.502	7608
254.565	10106
254.628	15831
254.690	9016
254.753	4692
254.816	4538
254.878	4333
254.941	10458
255.004	9796
255.067	4875
255.129	4015
255.192	3610
255.255	2501
255.317	3668
255.380	2732
255.443	2415
255.505	3291
255.568	1827
255.631	2011
255.693	3469
255.756	1964
255.819	4165
255.881	2938
255.944	3196
256.006	2851
256.069	2910
256.132	2078
256.194	3621
256.257	5093
256.319	4264
256.382	4092
256.444	5058
256.507	3549
256.569	4812
256.632	5474
256.694	6407
256.757	17880
256.819	40970
256.882	20749
256.944	10081
257.007	7650
257.069	7192
257.132	5479
257.194	5796
257.257	4677
257.319	5094
257.381	6614
257.444	15720
257.506	43008
257.569	48586
257.631	21627
257.693	14162
257.756	8445
257.818	6027
257.880	5349
257.943	5058
258.005	3694
258.067	4158
258.130	4610
258.192	5104
258.254	6392
258.317	5117
258.379	4154
258.441	8025
258.503	8172
258.566	6432
258.628	6705
258.690	3891
258.753	5018
258.815	7311
258.877	5438
258.939	4840
259.001	4601
259.064	4848
259.126	3413
259.188	4276
259.250	4419
259.312	4887
259.375	6513
259.437	5713
259.499	3528
259.561	4748
259.623	3428
259.685	3817
259.747	4810
259.809	7049
259.872	9515
259.934	15350
259.996	18414
260.058	8021
260.120	3092
260.182	3612
260.244	3941
260.306	2410
260.368	3318
260.430	3084
260.492	7615
260.554	10927
260.616	4937
260.678	10974
260.740	9843
260.802	4086
260.864	3347
260.926	3535
260.988	4413
261.050	4171
261.112	10396
261.174	17095
261.236	7786
261.298	4434
261.359	5361
261.421	7400
261.483	3872
261.545	4014
261.607	2436
261.669	4448
261.731	3970
261.793	8033
261.854	5021
261.916	4757
261.978	4541
262.040	5627
262.102	3238
262.164	3129
262.225	3085
262.287	3374
262.349	6915
262.411	5366
262.472	3651
262.534	3616
262.596	5213
262.658	4170
262.719	1722
262.781	3790
262.843	4814
262.904	3137
262.966	4338
263.028	4370
263.090	13528
263.151	32955
263.213	14769
263.275	11393
263.336	4546
263.398	3972
263.459	2003
263.521	3096
263.583	7360
263.644	5058
263.706	3032
263.767	1413
263.829	2239
263.891	3077
263.952	1735
264.014	1255
264.075	5336
264.137	12857
264.198	5798
264.260	2665
264.321	3176
264.383	7606
264.444	19419
264.506	6297
264.567	3707
264.629	9591
264.690	16413
264.752	6353
264.813	3982
264.875	3776
264.936	4204
264.998	3353
265.059	2932
265.120	3701
265.182	6231
265.243	26649
265.305	28298
265.366	9238
265.427	4517
265.489	5312
265.550	1609
265.611	3315
265.673	3123
265.734	2952
265.795	2832
265.857	2585
265.918	3383
265.979	10474
266.040	37576
266.102	35018
266.163	11987
266.224	8281
266.286	5209
266.347	3561
266.408	2830
266.469	3545
266.530	2478
266.592	2715
266.653	4951
266.714	7305
266.775	2832
266.836	2842
266.898	1653
266.959	5144
267.020	4541
267.081	3935
267.142	2719
267.203	3304
267.264	2023
267.326	4324
267.387	2735
267.448	2441
267.509	3463
267.570	3365
267.631	1497
267.692	1812
267.753	2603
267.814	2398
267.875	5691
267.936	10845
267.997	7878
268.058	7197
268.119	3695
268.180	4037
268.241	2770
268.302	3184
268.363	2467
268.424	2650
268.485	2859
268.546	2205
268.607	2068
268.668	2127
268.729	1981
268.790	2844
268.851	2595
268.912	7334
268.972	7172
269.033	3979
269.094	2240
269.155	2911
269.216	2523
269.277	2872
269.338	2084
269.398	2874
269.459	2508
269.520	4369
269.581	4229
269.642	5431
269.702	3870
269.763	3812
269.824	3069
269.885	4598
269.945	6278
270.006	4002
270.067	1618
270.128	2308
270.188	2660
270.249	2577
270.310	1688
270.370	2866
270.431	3386
270.492	1853
270.553	2582
270.613	5536
270.674	9779
270.734	4161
270.795	2832
270.856	3963
270.916	2733
270.977	2827
271.038	3631
271.098	3385
271.159	5256
271.219	5124
271.280	2744
271.340	3653
271.401	2140
271.462	4194
271.522	3348
271.583	3627
271.643	2992
271.704	2642
271.764	3553
271.825	8595
271.885	23468
271.946	29532
272.006	11512
272.066	15043
272.127	23318
272.187	8070
272.248	4818
272.308	5239
272.369	15446
272.429	9040
272.489	7549
272.550	7035
272.610	7659
272.671	5883
272.731	5202
272.791	6496
272.852	5195
272.912	4977
272.972	2898
273.033	3032
273.093	3666
273.153	4879
273.214	3818
273.274	3613
273.334	13717
273.394	22257
273.455	8826
273.515	9520
273.575	20079
273.635	8175
273.696	9848
273.756	20130
273.816	9184
273.876	5417
273.936	6909
273.997	10088
274.057	3959
274.117	3673
274.177	6952
274.237	27571
274.297	20538
274.358	11705
274.418	16915
274.478	13641
274.538	5038
274.598	4069
274.658	7214
274.718	9287
274.778	4743
274.838	4791
274.898	4888
274.958	11503
275.018	18822
275.078	13669
275.138	5839
275.198	3419
275.258	2505
275.318	3168
275.378	6866
275.438	7478
275.498	4998
275.558	7092
275.618	15307
275.678	13845
275.738	9954
275.798	8575
275.858	5411
275.918	2392
275.978	3467
276.038	4063
276.098	3040
276.157	6163
276.217	16247
276.277	8062
276.337	5761
276.397	4067
276.457	3780
276.517	3161
276.576	2310
276.636	2095
276.696	3951
276.756	9843
276.815	5976
276.875	3900
276.935	3515
276.995	3823
277.055	2362
277.114	2684
277.174	4278
277.234	12980
277.293	5984
277.353	3394
277.413	2902
277.472	3320
277.532	2434
277.592	3592
277.651	8188
277.711	14342
277.771	5330
277.830	19970
277.890	15097
277.950	10277
278.009	27336
278.069	11339
278.128	11039
278.188	14609
278.248	7498
278.307	16139
278.367	9686
278.426	4377
278.486	3017
278.545	2884
278.605	2156
278.664	2804
278.724	4030
278.783	8976
278.843	20452
278.902	7340
278.962	3866
279.021	5286
279.081	4760
279.140	5322
279.199	5645
279.259	5135
279.318	3404
279.378	5506
279.437	8708
279.496	24633
279.556	53049
279.615	38364
279.675	12097
279.734	8921
279.793	13904
279.853	18766
279.912	8539
279.971	4847
280.031	5532
280.090	7924
280.149	13412
280.208	10106
280.268	39122
280.327	36050
280.386	9438
280.445	9874
280.505	10117
280.564	5593
280.623	4822
280.682	7363
280.742	11165
280.801	4239
280.860	2789
280.919	3308
280.978	2348
281.037	2436
281.097	1794
281.156	2219
281.215	1998
281.274	3265
281.333	13652
281.392	10203
281.451	1993
281.510	2370
281.569	1778
281.628	2454
281.688	1982
281.747	3196
281.806	2189
281.865	2215
281.924	1992
281.983	1758
282.042	1496
282.101	1643
282.160	1858
282.219	2257
282.278	1229
282.337	8405
282.396	5876
282.454	3289
282.513	3280
282.572	14511
282.631	7405
282.690	2925
282.749	1538
282.808	3358
282.867	2861
282.926	2771
282.985	1608
283.043	2034
283.102	1897
283.161	2351
283.220	6938
283.279	14047
283.338	4749
283.396	3527
283.455	2332
283.514	4013
283.573	5858
283.631	4415
283.690	2395
283.749	2874
283.808	6395
283.866	7473
283.925	2366
283.984	3653
284.043	4839
284.101	4269
284.160	2120
284.219	4213
284.277	3258
284.336	5859
284.395	18424
284.453	14055
284.512	5870
284.570	7872
284.629	7346
284.688	5261
284.746	5407
284.805	7552
284.863	8511
284.922	10521
284.981	14088
285.039	20936
285.098	36382
285.156	73254
285.215	99912
285.273	104746
285.332	78794
285.390	45735
285.449	28781
285.507	20566
285.566	14809
285.624	11773
285.683	9043
285.741	6975
285.799	6655
285.858	5682
285.916	5087
285.975	4883
286.033	4277
286.091	3540
286.150	2936
286.208	3532
286.267	3216
286.325	4275
286.383	6019
286.442	5774
286.500	3026
286.558	2444
286.616	3234
286.675	5231
286.733	2863
286.791	3046
286.850	3430
286.908	4448
286.966	8099
287.024	3616
287.083	2408
287.141	2509
287.199	3180
287.257	4624
287.315	2745
287.374	3161
287.432	9761
287.490	7555
287.548	3124
287.606	3131
287.664	3629
287.723	4488
287.781	5453
287.839	3637
287.897	4168
287.955	5561
288.013	8277
288.071	19784
288.129	60833
288.187	132385
288.245	72197
288.303	25354
288.361	14526
288.419	10156
288.477	7748
288.535	6474
288.593	4684
288.651	4451
288.709	1897
288.767	3540
288.825	2431
288.883	2818
288.941	2478
288.999	2040
289.057	2330
289.115	2178
289.173	1672
289.231	2074
289.289	1842
289.346	1842
289.404	3364
289.462	5230
289.520	5363
289.578	2829
289.636	1509
289.694	2593
289.751	672
289.809	1472
289.867	1830
289.925	3931
289.983	3125
290.040	2404
290.098	1840
290.156	3057
290.214	3054
290.271	2463
290.329	1966
290.387	2354
290.444	1414
290.502	1788
290.560	1258
290.617	1992
290.675	1038
290.733	2076
290.790	1707
290.848	2399
290.906	2533
290.963	2740
291.021	941
291.078	2587
291.136	2755
291.194	9713
291.251	19491
291.309	5910
291.366	2667
291.424	2080
291.481	1882
291.539	2363
291.596	1257
291.654	1302
291.711	1667
291.769	3038
291.826	4072
291.884	3508
291.941	1764
291.999	1728
292.056	2239
292.114	2323
292.171	2461
292.228	1877
292.286	2112
292.343	4698
292.401	5763
292.458	2900
292.515	1666
292.573	3319
292.630	2996
292.687	2569
292.745	2652
292.802	4448
292.859	12005
292.917	17332
292.974	9846
293.031	4167
293.089	2102
293.146	2635
293.203	2264
293.260	2054
293.318	2749
293.375	5467
293.432	2263
293.489	2060
293.546	2485
293.604	4249
293.661	9578
293.718	27666
293.775	14554
293.832	6980
293.889	3542
293.947	3639
294.004	3077
294.061	4324
294.118	8102
294.175	19294
294.232	25576
294.289	9300
294.346	6312
294.403	6519
294.460	4435
294.517	2912
294.574	2920
294.631	3319
294.688	4509
294.745	9221
294.802	32968
294.859	39630
294.916	13264
294.973	6923
295.030	5599
295.087	5542
295.144	4388
295.201	4013
295.258	3599
295.315	5052
295.372	11911
295.429	22847
295.486	10562
295.542	7380
295.599	18016
295.656	30871
295.713	19611
295.770	23308
295.827	10083
295.883	5658
295.940	4763
295.997	7167
296.054	6485
296.111	4001
296.167	3367
296.224	2799
296.281	2563
296.338	2840
296.394	2549
296.451	3892
296.508	10665
296.564	20456
296.621	15274
296.678	25982
296.734	38212
296.791	15441
296.848	8509
296.904	9373
296.961	17573
297.018	26356
297.074	19260
297.131	9059
297.187	6701
297.244	9332
297.301	25269
297.357	40862
297.414	15598
297.470	6858
297.527	5174
297.583	5025
297.640	4918
297.696	4087
297.753	3077
297.809	3067
297.866	2574
297.922	2393
297.979	2652
298.035	3513
298.092	6149
298.148	14267
298.204	14262
298.261	8227
298.317	12629
298.374	32054
298.430	19917
298.486	8324
298.543	5890
298.599	6459
298.656	8484
298.712	12065
298.768	24692
298.824	18699
298.881	8044
298.937	5191
298.993	3736
299.050	5135
299.106	4513
299.162	4452
299.218	4657
299.275	3995
299.331	5034
299.387	8985
299.443	25623
299.500	26666
299.556	10148
299.612	5956
299.668	5420
299.724	4589
299.780	4470
299.837	4940
299.893	7480
299.949	21727
300.005	25429
300.061	23203
300.117	36655
300.173	19657
300.229	9409
300.285	10247
300.341	12528
300.397	6880
300.453	4648
300.510	4334
300.566	3988
300.622	4274
300.678	7562
300.734	18276
300.790	21071
300.845	26371
300.901	15880
300.957	20001
301.013	17290
301.069	7802
301.125	5515
301.181	5789
301.237	5157
301.293	3379
301.349	3312
301.405	3236
301.461	3822
301.516	5770
301.572	5473
301.628	8465
301.684	7511
301.740	10720
301.796	18278
301.851	13232
301.907	19804
301.963	20738
302.019	30047
302.074	70981
302.130	75626
302.186	38434
302.242	16001
302.297	10098
302.353	10854
302.409	17389
302.464	17123
302.520	14074
302.576	27387
302.631	32611
302.687	20037
302.743	9760
302.798	6145
302.854	5939
302.910	5251
302.965	6281
303.021	11065
303.076	10275
303.132	12022
303.187	14954
303.243	8721
303.299	5459
303.354	4038
303.410	4481
303.465	3948
303.521	4464
303.576	4606
303.632	6028
303.687	10059
303.743	24304
303.798	22536
303.853	10118
303.909	5237
303.964	5947
304.020	8458
304.075	12840
304.130	11283
304.186	18168
304.241	19542
304.297	16174
304.352	8563
304.358	8280
304.407	5992
304.449	5311
304.463	5083
304.518	5217
304.539	5226
304.573	5243
304.629	5459
304.630	5519
304.684	8422
304.720	14812
304.739	18019
304.794	29278
304.811	25126
304.850	15249
304.902	7367
304.905	6861
304.960	5348
304.992	5657
305.015	5852
305.071	5984
305.083	5646
305.126	4429
305.173	4004
305.181	3942
305.236	2922
305.264	3606
305.292	4319
305.347	4555
305.354	4650
305.402	5270
305.445	5551
305.457	5607
305.512	6263
305.535	6179
305.567	6123
305.622	7610
305.626	7789
305.678	11772
305.716	21907
305.733	25601
305.788	29190
305.807	25548
305.843	19428
305.897	23529
305.898	23563
305.953	24797
305.988	17735
306.008	13749
306.063	9463
306.078	8352
306.118	5900
306.168	4327
306.173	4186
306.228	4008
306.259	3805
306.283	3550
306.338	2978
306.349	3091
306.393	3773
306.440	4426
306.448	4520
306.503	4745
306.530	4734
306.558	5324
306.613	11260
306.620	11986
306.668	16726
306.711	22447
306.723	23263
306.778	19943
306.801	15409
306.833	10104
306.888	5940
306.892	5791
306.943	4407
306.982	4209
306.997	4152
307.052	2991
307.072	3184
307.107	4009
307.162	5020
307.163	5039
307.217	6831
307.253	7898
307.272	8070
307.327	8217
307.343	7908
307.381	7307
307.434	6353
307.436	6466
307.491	12460
307.524	17632
307.546	19069
307.600	20744
307.614	18647
307.655	12234
307.704	7785
307.710	7547
307.765	7292
307.795	8452
307.819	9816
307.874	15503
307.885	15677
307.929	14063
307.975	13506
307.984	14187
308.038	21034
308.065	27036
308.093	41240
308.148	78692
308.156	86043
308.202	119800
308.246	140234
308.257	137508
308.312	88994
308.336	66624
308.366	50897
308.421	31817
308.426	30359
308.475	20450
308.517	15134
308.530	13967
308.585	11391
308.607	10685
308.639	10432
308.694	10591
308.697	10681
308.748	14453
308.787	19113
308.803	19348
308.857	16409
308.877	15010
308.912	13868
308.967	13927
308.967	13971
309.021	19594
309.058	24852
309.076	30811
309.130	52395
309.148	62010
309.185	98803
309.238	156495
309.239	156812
309.293	162355
309.328	155161
309.348	139380
309.402	79074
309.418	63022
309.457	44592
309.508	27245
309.511	26614
309.566	21936
309.598	20241
309.620	20165
309.674	21005
309.688	21592
309.729	20323
309.778	17540
309.783	17278
309.837	14319
309.868	13150
309.892	15176
309.946	21670
309.959	24098
310.001	30123
310.049	34064
310.055	33150
310.109	21180
310.139	14098
310.163	11107
310.218	7029
310.229	6428
310.272	5209
310.319	4378
310.326	4254
310.381	3550
310.409	3401
310.435	3470
310.489	3372
310.499	3406
310.543	3673
310.589	3834
310.598	3777
310.652	3773
310.679	3610
310.706	3246
310.760	2699
310.769	2591
310.814	2278
310.859	2170
310.868	2306
310.923	2929
310.948	3410
310.977	3651
311.031	3833
311.038	3871
311.085	3544
311.128	3134
311.139	3118
311.193	3105
311.218	3138
311.247	3088
311.301	2853
311.308	2835
311.356	3011
311.398	3256
311.410	3207
311.464	2805
311.488	2660
311.518	2752
311.572	2838
311.578	2868
311.626	3182
311.668	3463
311.680	3608
311.734	4201
311.758	4474
311.788	4319
311.842	4043
311.847	4023
311.896	5365
311.937	6576
311.950	6457
312.004	5937
312.027	5694
312.058	4677
312.112	2891
312.117	2722
312.165	2999
312.207	3253
312.297	5110
312.386	4381
312.476	3634
312.566	6474
312.656	3292
312.745	2774
312.835	3550
312.925	3352
313.015	3128
313.104	2683
313.194	2799
313.284	3198
313.374	3505
313.463	3237
313.553	3520
313.643	2568
313.732	2311
313.822	2758
313.912	2079
314.001	3243
314.091	3787
314.180	5391
314.270	4412
314.360	4205
314.449	3513
314.539	2598
314.628	3023
314.718	2720
314.808	3948
314.897	2738
314.987	3086
315.076	3077
315.166	4171
315.255	3568
315.345	3994
315.434	3366
315.524	3502
315.613	3391
315.703	4026
315.792	4432
315.881	3811
315.971	3328
316.060	6535
316.150	9064
316.239	8505
316.328	3556
316.418	2658
316.507	3270
316.597	3944
316.686	2621
316.775	4486
316.865	9277
316.954	3002
317.043	2143
317.133	2665
317.222	1802
317.311	2613
317.400	1085
317.490	3382
317.579	2831
317.668	1988
317.757	2608
317.847	3578
317.936	5566
318.025	6983
318.114	3921
318.203	3605
318.293	7593
318.382	11984
318.471	10515
318.560	16668
318.649	33061
318.738	7438
318.828	4233
318.917	4567
319.006	6113
319.095	14812
319.184	40960
319.273	20098
319.362	8600
319.451	3222
319.540	3184
319.629	7381
319.718	10392
319.807	7383
319.896	14806
319.985	48849
320.074	15801
320.163	5119
320.252	7006
320.341	6985
320.430	6570
320.519	6049
320.608	3017
320.697	4441
320.786	3341
320.875	4180
320.964	4537
321.053	6541
321.142	9931
321.230	9921
321.319	9024
321.408	18254
321.497	7774
321.586	7319
321.675	9692
321.764	8795
321.852	6505
321.941	10405
322.030	6516
322.119	8661
322.207	18745
322.296	14648
322.385	7609
322.474	8141
322.562	21276
322.651	10757
322.740	7820
322.829	10665
322.917	11974
323.006	6740
323.095	6289
323.183	5150
323.272	7445
323.361	15027
323.449	38013
323.538	14169
323.626	25820
323.715	16483
323.804	7744
323.892	24711
323.981	12421
324.069	5464
324.158	14090
324.246	13002
324.335	5752
324.424	7104
324.512	3042
324.601	4332
324.689	6255
324.778	8849
324.866	8143
324.954	3874
325.043	2426
325.131	5420
325.220	10795
325.308	11336
325.397	7683
325.485	5248
325.574	1609
325.662	3050
325.750	2431
325.839	2543
325.927	2462
326.015	3006
326.104	3457
326.192	5735
326.280	2388
326.369	2402
326.457	4240
326.545	5870
326.634	2377
326.722	1519
326.810	2101
326.898	2741
326.987	2763
327.075	4855
327.163	5719
327.251	3152
327.340	4409
327.428	4575
327.516	2421
327.604	2303
327.692	2333
327.781	3116
327.869	4566
327.957	3111
328.045	2318
328.133	2025
328.221	2816
328.309	2257
328.397	2761
328.485	3704
328.574	4583
328.662	11511
328.750	5721
328.838	2890
328.926	3074
329.014	2602
329.102	5056
329.190	9029
329.278	5398
329.366	2404
329.454	2011
329.542	2264
329.630	2020
329.718	2699
329.806	4375
329.893	5034
329.981	5602
330.069	13521
330.157	48725
330.245	103575
330.333	50878
330.421	10362
330.509	7404
330.597	15430
330.684	8991
330.772	5747
330.860	7631
330.948	8909
331.036	3888
331.123	2413
331.211	2072
331.299	3398
331.387	8070
331.475	12812
331.562	3166
331.650	1964
331.738	2249
331.825	2968
331.913	2295
332.001	1516
332.089	2915
332.176	5979
332.264	12753
332.352	9437
332.439	3013
332.527	2904
332.614	2133
332.702	2191
332.790	2723
332.877	5684
332.965	11293
333.052	2276
333.140	3025
333.228	6276
333.315	1903
333.403	3400
333.490	7370
333.578	6322
333.665	6667
333.753	3742
333.840	1711
333.928	3165
334.015	8719
334.103	17092
334.190	47691
334.278	11640
334.365	4446
334.452	2457
334.540	2422
334.627	2444
334.715	4357
334.802	9415
334.889	44440
334.977	41481
335.064	5717
335.151	2647
335.239	4325
335.326	6315
335.413	28272
335.501	32821
335.588	5061
335.675	1940
335.762	3569
335.850	7118
335.937	4437
336.024	13333
336.111	47928
336.199	17541
336.286	3132
336.373	1976
336.460	1122
336.547	1986
336.635	1884
336.722	2629
336.809	2926
336.896	4936
336.983	17492
337.070	41333
337.157	52946
337.245	32292
337.332	20369
337.419	3180
337.506	2006
337.593	3786
337.680	15510
337.767	38503
337.854	10977
337.941	10348
338.028	10332
338.115	3168
338.202	6035
338.289	9574
338.376	28343
338.463	11234
338.550	25314
338.637	22403
338.724	6956
338.811	8972
338.898	2195
338.984	2467
339.071	3134
339.158	2888
339.245	7898
339.332	5496
339.419	5672
339.506	5943
339.593	1168
339.679	1523
339.766	1551
339.853	3052
339.940	4775
340.027	1957
340.113	2381
340.200	2482
340.287	1623
340.374	3635
340.460	4550
340.547	2574
340.634	4334
340.720	14936
340.807	7030
340.894	1803
340.980	1934
341.067	2003
341.154	2135
341.240	3308
341.327	6464
341.414	2611
341.500	3372
341.587	2235
341.674	2072
341.760	4850
341.847	4280
341.933	2334
342.020	709
342.106	1997
342.193	1526
342.279	3836
342.366	2708
342.452	4703
342.539	3053
342.625	7108
342.712	13748
342.798	6299
342.885	2282
342.971	501
343.058	742
343.144	1014
343.230	1785
343.317	1832
343.403	1286
343.490	1141
343.576	827
343.662	1378
343.749	1181
343.835	3388
343.921	6703
344.008	38673
344.094	70424
344.180	15881
344.267	6571
344.353	23319
344.439	19813
344.525	8658
344.612	7383
344.698	7138
344.784	2690
344.870	1871
344.957	1905
345.043	2828
345.129	1946
345.215	3934
345.301	2788
345.387	1868
345.474	1605
345.560	1484
345.646	2160
345.732	1853
345.818	1911
345.904	1706
345.990	2106
346.076	1688
346.162	4750
346.249	2085
346.335	1668
346.421	2805
346.507	10542
346.593	28985
346.679	6132
346.765	2732
346.851	1577
346.937	1724
347.023	1501
347.108	2127
347.194	1780
347.280	2028
347.366	2823
347.452	10408
347.538	35336
347.624	26304
347.710	18365
347.796	2856
347.882	1573
347.967	1903
348.053	3492
348.139	1849
348.225	1184
348.311	1985
348.397	1539
348.482	2945
348.568	2225
348.654	1394
348.740	540
348.825	166
348.911	4247
348.997	19040
349.083	28850
349.168	4929
349.254	2196
349.340	1422
349.425	1264
349.511	1967
349.597	2361
349.682	6812
349.768	20823
349.854	8536
349.939	1924
350.025	1084
350.110	2499
350.196	1197
350.282	694
350.367	1327
350.453	2882
350.538	2439
350.624	2295
350.709	2935
350.795	657
350.880	1496
350.966	2282
351.051	2486
351.137	1578
351.222	2232
351.308	7857
351.393	16775
351.479	4203
351.564	1782
351.649	614
351.735	1413
351.820	1088
351.906	1567
351.991	3265
352.076	12781
352.162	15294
352.247	2514
352.332	2019
352.418	4317
352.503	7614
352.588	26109
352.673	16768
352.759	4347
352.844	1351
352.929	2505
353.014	2306
353.100	2342
353.185	2551
353.270	4363
353.355	4611
353.441	2139
353.526	1281
353.611	5112
353.696	4750
353.781	3641
353.866	966
353.952	2683
354.037	4645
354.122	10381
354.207	9048
354.292	3057
354.377	1760
354.462	2330
354.547	2311
354.632	2283
354.717	3028
354.802	2013
354.887	1387
354.972	1637
355.057	924
355.142	1509
355.227	1365
355.312	3898
355.397	8014
355.482	16263
355.567	7119
355.652	6662
355.737	7636
355.822	24885
355.907	16650
355.991	3853
356.076	873
356.161	1260
356.246	1527
356.331	2622
356.416	6470
356.501	41723
356.585	35788
356.670	5000
356.755	4552
356.840	5923
356.924	28063
357.009	86292
357.094	28822
357.179	7168
357.263	4171
357.348	4862
357.433	4073
357.517	3164
357.602	3897
357.687	3136
357.771	6496
357.856	20697
357.941	10630
358.025	26408
358.110	88550
358.195	35519
358.279	5538
358.364	4612
358.448	18770
358.533	42882
358.617	29197
358.702	29141
358.787	9921
358.871	5568
358.956	4273
359.040	1629
359.125	2035
359.209	2962
359.294	10491
359.378	15321
359.462	4643
359.547	2767
359.631	1780
359.716	1268
359.800	2126
359.885	4318
359.969	1695
360.053	1841
360.138	1452
360.222	3090
360.306	4791
360.391	5078
360.475	11949
360.559	20465
360.644	15663
360.728	10071
360.812	24026
360.896	57046
360.981	21921
361.065	10973
361.149	3818
361.233	2718
361.318	2225
361.402	3150
361.486	2839
361.570	2365
361.654	3045
361.739	9002
361.823	39829
361.907	53563
361.991	9356
362.075	5093
362.159	9136
362.243	7172
362.327	3849
362.411	4142
362.495	3163
362.580	1816
362.664	2209
362.748	1483
362.832	1496
362.916	1647
363.000	8640
363.084	38513
363.168	60210
363.252	13558
363.336	5155
363.420	9086
363.503	39839
363.587	41729
363.671	6614
363.755	4106
363.839	4926
363.923	2416
364.007	6665
364.091	6572
364.175	15086
364.258	59924
364.342	24881
364.426	10285
364.510	4965
364.594	7190
364.677	13636
364.761	53074
364.845	33249
364.929	10861
365.013	7569
365.096	7374
365.180	7622
365.264	18720
365.347	61569
365.431	25550
365.515	6290
365.598	1775
365.682	3525
365.766	7004
365.849	8491
365.933	3464
366.017	6050
366.100	4013
366.184	841
366.267	1911
366.351	1909
366.435	1297
366.518	591
366.602	1153
366.685	1307
366.769	2087
366.852	5237
366.936	8101
367.019	3519
367.103	4873
367.186	8715
367.270	2328
367.353	1266
367.436	2146
367.520	907
367.603	1830
367.687	2246
367.770	5137
367.853	4594
367.937	18728
368.020	24275
368.104	5027
368.187	4788
368.270	7310
368.353	6388
368.437	8834
368.520	19628
368.603	12682
368.687	19968
368.770	31556
368.853	7508
368.936	7872
369.020	8446
369.103	2525
369.186	1841
369.269	1559
369.352	4153
369.436	5972
369.519	2932
369.602	2166
369.685	3230
369.768	2238
369.851	1728
369.934	945
370.018	3208
370.101	4279
370.184	5673
370.267	4264
370.350	6318
370.433	11210
370.516	29278
370.599	28020
370.682	7644
370.765	17722
370.848	23602
370.931	40851
371.014	14949
371.097	2587
371.180	2668
371.263	1317
371.346	941
371.429	1779
371.511	1494
371.594	3270
371.677	8160
371.760	10221
371.843	9202
371.926	39149
372.009	73484
372.091	23636
372.174	18813
372.257	40193
372.340	14470
372.423	12892
372.505	14656
372.588	6602
372.671	15404
372.754	38831
372.836	18769
372.919	20925
373.002	36357
373.085	9720
373.167	7034
373.250	18555
373.332	41077
373.415	56527
373.498	98249
373.580	34295
373.663	48134
373.746	57561
373.828	11973
373.911	6796
373.993	9858
374.076	38587
374.159	30182
374.241	13935
374.324	33855
374.406	22304
374.489	37036
374.571	85697
374.654	32095
374.736	19885
374.819	56352
374.901	77063
374.983	69615
375.066	11710
375.148	7117
375.231	32529
375.313	55048
375.395	18304
375.478	3809
375.560	3084
375.643	4782
375.725	19124
375.807	66713
375.890	47064
375.972	17998
376.054	10131
376.136	15128
376.219	7688
376.301	22773
376.383	55894
376.465	19235
376.548	10893
376.630	17749
376.712	48734
376.794	19110
376.877	2294
376.959	1182
377.041	2490
377.123	7828
377.205	8547
377.287	1518
377.369	1718
377.452	1418
377.534	1921
377.616	993
377.698	1768
377.780	930
377.862	1012
377.944	1424
378.026	652
378.108	874
378.190	1340
378.272	1495
378.354	1008
378.436	133
378.518	4765
378.600	14273
378.682	11665
378.764	23322
378.846	16430
378.928	5536
379.010	6357
379.091	3678
379.173	2414
379.255	905
379.337	3321
379.419	12937
379.501	33340
379.583	11633
379.664	3443
379.746	8414
379.828	24732
379.910	31546
379.991	25040
380.073	3967
380.155	3182
380.237	1981
380.318	1198
380.400	2061
380.482	4326
380.564	5641
380.645	5477
380.727	4395
380.809	3093
380.890	1498
380.972	892
381.053	1336
381.135	3109
381.217	9013
381.298	24149
381.380	10248
381.461	11518
381.543	50908
381.624	52705
381.706	9657
381.787	5268
381.869	6171
381.951	24890
382.032	79253
382.113	43967
382.195	8353
382.276	7011
382.358	15675
382.439	45244
382.521	51061
382.602	72110
382.684	32817
382.765	59673
382.846	53173
382.928	55035
383.009	29189
383.090	27587
383.172	91539
383.253	118655
383.334	49899
383.416	63521
383.497	29951
383.578	12434
383.659	25186
383.741	89167
383.822	191959
383.903	89122
383.984	46063
384.066	78962
384.147	42986
384.228	9181
384.309	5824
384.390	3639
384.471	3249
384.553	4012
384.634	5457
384.715	5638
384.796	2934
384.877	5494
384.958	23782
385.039	24170
385.120	6956
385.201	3864
385.282	4926
385.363	5603
385.444	4687
385.525	11206
385.606	37269
385.687	28636
385.768	7466
385.849	10431
385.930	42384
386.011	61642
386.092	15678
386.173	3993
386.254	2948
386.335	3996
386.416	5322
386.496	16257
386.577	22818
386.658	8123
386.739	4888
386.820	5958
386.901	3646
386.981	4188
387.062	2534
387.143	6409
387.224	23625
387.304	19060
387.385	7020
387.466	3833
387.547	6208
387.627	3928
387.708	10934
387.789	45720
387.869	49599
387.950	11651
388.031	2702
388.111	2042
388.192	10459
388.273	13823
388.353	6886
388.434	3815
388.514	10739
388.595	44112
388.676	49993
388.756	22440
388.837	20000
388.917	11113
388.998	1981
389.078	2628
389.159	1631
389.239	1310
389.320	4492
389.400	2122
389.480	12223
389.561	27472
389.641	12313
389.722	4173
389.802	6580
389.883	13081
389.963	33602
390.043	18383
390.124	6176
390.204	9930
390.284	26024
390.365	16292
390.445	27706
390.525	58869
390.605	43884
390.686	13564
390.766	4793
390.846	3068
390.927	1688
391.007	1883
391.087	3684
391.167	2639
391.247	1525
391.328	4406
391.408	8017
391.488	5304
391.568	260
391.648	2918
391.728	4299
391.808	4217
391.888	4731
391.969	15934
392.049	21805
392.129	10142
392.209	13680
392.289	30723
392.369	15990
392.449	16488
392.529	6870
392.609	5006
392.689	9370
392.769	30764
392.849	21454
392.929	18605
393.009	42758
393.089	22780
393.169	8718
393.248	27245
393.328	127702
393.408	123321
393.488	22379
393.568	6459
393.648	4281
393.728	3457
393.807	2730
393.887	4439
393.967	4608
394.047	5780
394.127	8740
394.206	21462
394.286	81875
394.366	264630
394.446	257634
394.525	66898
394.605	19446
394.685	14925
394.764	26910
394.844	41546
394.924	24977
395.003	7663
395.083	5546
395.163	5091
395.242	4164
395.322	4773
395.402	3026
395.481	7420
395.561	18917
395.640	43160
395.720	30817
395.799	52322
395.879	42079
395.958	36272
396.038	120241
396.117	340238
396.197	339740
396.276	118227
396.356	39738
396.435	24849
396.515	14564
396.594	10690
396.673	12556
396.753	39581
396.832	122804
396.912	91662
396.991	22381
397.070	6571
397.150	3033
397.229	3300
397.308	2880
397.388	3018
397.467	2657
397.546	2169
397.625	-299
397.705	3905
397.784	3063
397.863	1737
397.942	1572
398.022	2594
398.101	16336
398.180	44015
398.259	19653
398.338	4960
398.417	2537
398.497	1535
398.576	2476
398.655	672
398.734	1838
398.813	2907
398.892	15775
398.971	47787
399.050	20015
399.129	1537
399.208	1499
399.287	1969
399.366	761
399.445	1024
399.524	1600
399.603	978
399.682	3597
399.761	14087
399.840	49817
399.919	33395
399.998	3913
400.077	956
400.156	126
400.235	2930
400.313	1386
400.392	1619
400.471	12965
400.550	18447
400.629	4025
400.708	2367
400.786	1888
400.865	10562
400.944	9150
401.023	4286
401.102	104
401.180	687
401.259	735
401.338	1731
401.416	2707
401.495	1621
401.574	2777
401.652	1316
401.731	2608
401.810	727
401.888	1347
401.967	543
402.046	1142
402.124	2627
402.203	2231
402.281	1929
402.360	3662
402.438	12964
402.517	7359
402.596	2547
402.674	1993
402.753	860
402.831	1610
402.910	1875
402.988	5581
403.066	13249
403.145	7906
403.223	6776
403.302	10804
403.380	7613
403.459	6449
403.537	2862
403.615	1535
403.694	97
403.772	1179
403.850	908
403.929	542
404.007	863
404.085	3087
404.164	1757
404.242	2650
404.320	16575
404.398	45007
404.477	40123
404.555	69185
404.633	58224
404.711	33537
404.789	15173
404.868	2907
404.946	805
405.024	1173
405.102	359
405.180	645
405.258	522
405.336	1638
405.415	1278
405.493	3633
405.571	2943
405.649	493
405.727	-34
405.805	2119
405.883	909
405.961	2519
406.039	3082
406.117	-238
406.195	3665
406.273	16564
406.351	53505
406.429	28026
406.507	5018
406.585	1535
406.663	1426
406.740	1570
406.818	1108
406.896	1496
406.974	1831
407.052	4817
407.130	33769
407.208	38925
407.285	6405
407.363	533
407.441	1111
407.519	596
407.596	1662
407.674	3723
407.752	10701
407.830	14115
407.907	5128
407.985	1114
408.063	1139
408.141	685
408.218	2972
408.296	1402
408.373	132
408.451	806
408.529	1277
408.606	-378
408.684	-279
408.762	311
408.839	199
408.917	-268
408.994	1106
409.072	-266
409.149	-458
409.227	539
409.304	735
409.382	-272
409.459	-233
409.537	293
409.614	635
409.692	147
409.769	-66
409.846	209
409.924	1532
410.001	375
410.079	789
410.156	1178
410.233	1045
410.311	582
410.388	15
410.465	1402
410.543	453
410.620	1153
410.697	1427
410.775	833
410.852	-264
410.929	1745
411.006	2779
411.083	1080
411.161	3164
411.238	4362
411.315	1915
411.392	218
411.469	1509
411.547	2716
411.624	39
411.701	-245
411.778	1078
411.855	2864
411.932	836
412.009	-197
412.086	971
412.163	1013
412.240	1143
412.317	2928
412.394	1605
412.471	1164
412.548	-83
412.625	542
412.702	1512
412.779	3716
412.856	2415
412.933	-645
413.010	577
413.087	3286
413.164	11477
413.241	13489
413.318	2625
413.395	2968
413.471	2270
413.548	1177
413.625	1245
413.702	217
413.779	1617
413.855	-497
413.932	180
414.009	-437
414.086	-52
414.162	663
414.239	2161
414.316	12365
414.393	23708
414.469	5999
414.546	605
414.623	285
414.699	355
414.776	71
414.853	492
414.929	700
415.006	489
415.082	1591
415.159	1673
415.236	1280
415.312	1339
415.389	2289
415.465	2584
415.542	1614
415.618	413
415.695	1950
415.771	497
415.848	253
415.924	1662
416.000	597
416.077	893
416.153	-636
416.230	-318
416.306	123
416.383	-56
416.459	478
416.535	-699
416.612	-33
416.688	638
416.764	661
416.841	345
416.917	191
416.993	734
417.069	1352
417.146	1960
417.222	3583
417.298	1800
417.374	202
417.451	893
417.527	110
417.603	1470
417.679	822
417.755	456
417.831	-610
417.908	397
417.984	-446
418.060	-278
418.136	2472
418.212	2496
418.288	1063
418.364	730
418.440	-210
418.516	1216
418.592	2979
418.668	5561
418.744	5967
418.820	4353
418.896	-1
418.972	74
419.048	1244
419.124	3210
419.200	620
419.276	508
419.352	-839
419.428	318
419.504	300
419.579	1363
419.655	804
419.731	908
419.807	3791
419.883	7332
419.959	4357
420.034	1216
420.110	4288
420.186	16567
420.262	10387
420.337	1909
420.413	943
420.489	932
420.565	796
420.640	139
420.716	749
420.792	3
420.867	454
420.943	118
421.019	1183
421.094	330
421.170	584
421.245	-266
421.321	718
421.397	-202
421.472	2076
421.548	4446
421.623	3231
421.699	1091
421.774	620
421.850	-306
421.925	2021
422.001	1665
422.076	324
422.152	-203
422.227	1683
422.302	1964
422.378	3053
422.453	4733
422.529	16585
422.604	76359
422.679	149246
422.755	65888
422.830	13474
422.905	3783
422.981	1634
423.056	1306
423.131	1798
423.207	1142
423.282	1351
423.357	3057
423.432	1956
423.508	2751
423.583	6044
423.658	4417
423.733	748
423.808	1650
423.883	1886
423.959	1162
424.034	344
424.109	260
424.184	-671
424.259	-186
424.334	607
424.409	-715
424.484	135
424.559	39
424.634	654
424.709	274
424.784	1453
424.859	790
424.934	2885
425.009	10805
425.084	16814
425.159	5212
425.234	1159
425.309	-111
425.384	6687
425.459	9824
425.534	2491
425.609	640
425.683	1044
425.758	154
425.833	783
425.908	1746
425.983	5721
426.058	15970
426.132	6275
426.207	1368
426.282	3407
426.357	2207
426.431	468
426.506	798
426.581	537
426.655	588
426.730	-134
426.805	445
426.879	1156
426.954	811
427.029	3773
427.103	20457
427.178	44888
427.253	17427
427.327	2024
427.402	4767
427.476	11927
427.551	4652
427.625	1701
427.700	1111
427.774	323
427.849	1485
427.923	153
427.998	530
428.072	98
428.147	2861
428.221	7674
428.296	14004
428.370	5116
428.444	1598
428.519	3752
428.593	9073
428.667	7306
428.742	9247
428.816	7587
428.890	17122
428.965	20343
429.039	10787
429.113	9042
429.188	3408
429.262	566
429.336	3314
429.410	7913
429.485	5764
429.559	8232
429.633	4805
429.707	1035
429.781	5818
429.855	21168
429.930	24838
430.004	24667
430.078	44870
430.152	30684
430.226	23125
430.300	17962
430.374	2133
430.448	3068
430.522	15346
430.596	43040
430.670	21872
430.744	32238
430.818	46105
430.892	10221
430.966	1564
431.040	1125
431.114	-72
431.188	-408
431.262	226
431.336	451
431.410	4842
431.484	11309
431.557	5847
431.631	83
431.705	70
431.779	2114
431.853	10872
431.927	5744
432.000	1707
432.074	303
432.148	1372
432.222	1045
432.295	450
432.369	588
432.443	2637
432.516	20991
432.590	46354
432.664	15654
432.737	1235
432.811	338
432.885	735
432.958	441
433.032	-530
433.106	55
433.179	106
433.253	-325
433.326	1
433.400	-907
433.473	-11
433.547	-276
433.620	371
433.694	739
433.767	2066
433.841	660
433.914	-29
433.988	226
434.061	320
434.134	-185
434.208	-334
434.281	-905
434.355	88
434.428	524
434.501	477
434.575	866
434.648	344
434.721	36
434.795	-863
434.868	-793
434.941	-1036
435.014	-655
435.088	-134
435.161	119
435.234	936
435.307	1104
435.381	-10
435.454	-237
435.527	206
435.600	-266
435.673	-372
435.746	-28
435.819	-122
435.892	-107
435.966	119
436.039	-670
436.112	614
436.185	-972
436.258	-370
436.331	-791
436.404	15
436.477	-87
436.550	-124
436.623	-98
436.696	37
436.769	569
436.842	-461
436.915	188
436.987	921
437.060	-417
437.133	-112
437.206	-346
437.279	-49
437.352	-114
437.425	-394
437.498	901
437.570	2647
437.643	1330
437.716	137
437.789	797
437.861	1726
437.934	5383
438.007	1623
438.080	-485
438.152	847
438.225	3107
438.298	27668
438.370	66805
438.443	25407
438.516	5159
438.588	754
438.661	202
438.734	484
438.806	225
438.879	1418
438.951	1026
439.024	2336
439.096	-10
439.169	-429
439.241	-458
439.314	-600
439.386	1150
439.459	1886
439.531	2562
439.604	588
439.676	49
439.749	-360
439.821	-246
439.893	265
439.966	178
440.038	742
440.110	405
440.183	719
440.255	231
440.327	799
440.400	11745
440.472	40894
440.544	24602
440.617	3647
440.689	2500
440.761	2171
440.833	4492
440.905	2522
440.978	755
441.050	-558
441.122	82
441.194	-990
441.266	139
441.338	414
441.411	2334
441.483	11394
441.555	14808
441.627	3028
441.699	3034
441.771	1703
441.843	229
441.915	-268
441.987	38
442.059	-201
442.131	-337
442.203	970
442.275	2048
442.347	1115
442.419	-77
442.491	3576
442.563	7712
442.635	5702
442.706	10532
442.778	7361
442.850	1061
442.922	-448
442.994	572
443.066	965
443.137	442
443.209	192
443.281	680
443.353	1631
443.425	5943
443.496	15514
443.568	11963
443.640	3724
443.711	831
443.783	862
443.855	-21
443.926	360
443.998	217
444.070	1110
444.141	1339
444.213	567
444.285	1458
444.356	1157
444.428	1167
444.499	-52
444.571	-1057
444.642	354
444.714	474
444.785	896
444.857	2685
444.928	7311
445.000	4175
445.071	4124
445.143	4788
445.214	2047
445.285	3561
445.357	11407
445.428	17681
445.500	31545
445.571	20681
445.642	7517
445.714	8173
445.785	11758
445.856	2576
445.928	2382
445.999	1538
446.070	1280
446.141	2116
446.213	1613
446.284	168
446.355	1935
446.426	411
446.497	-11
446.569	2245
446.640	2783
446.711	1527
446.782	-194
446.853	703
446.924	1297
446.995	62
447.066	1260
447.138	2962
447.209	1380
447.280	-242
447.351	-933
447.422	137
447.493	1257
447.564	570
447.635	1252
447.706	446
447.777	749
447.847	-196
447.918	-39
447.989	392
448.060	2741
448.131	5376
448.202	4210
448.273	1930
448.344	1521
448.414	1094
448.485	428
448.556	444
448.627	487
448.698	379
448.768	-322
448.839	18
448.910	2689
448.981	1639
449.051	575
449.122	-187
449.193	-25
449.263	629
449.334	517
449.405	1422
449.475	3031
449.546	2433
449.616	3891
449.687	2013
449.758	690
449.828	589
449.899	209
449.969	306
450.040	-56
450.110	1035
450.181	455
450.251	185
450.322	508
450.392	809
450.463	136
450.533	-111
450.604	1095
450.674	-20
450.744	520
450.815	132
450.885	166
450.955	335
451.026	272
451.096	548
451.166	843
451.237	3702
451.307	9117
451.377	3116
451.447	66
451.518	258
451.588	853
451.658	796
451.728	2147
451.799	10201
451.869	10111
451.939	2502
452.009	1049
452.079	489
452.149	880
452.219	2536
452.289	10631
452.360	7121
452.430	1886
452.500	559
452.570	1102
452.640	2162
452.710	6032
452.780	9664
452.850	6783
452.920	4331
452.990	1082
453.060	1083
453.129	1605
453.199	2800
453.269	14119
453.339	26685
453.409	39301
453.479	42189
453.549	58976
453.619	61170
453.688	22852
453.758	3687
453.828	1852
453.898	1497
453.968	1246
454.037	280
454.087	778
454.107	960
454.168	1064
454.177	1060
454.247	596
454.249	620
454.316	695
454.330	844
454.386	1279
454.411	3312
454.456	6262
454.492	7201
454.525	7941
454.574	4553
454.595	3136
454.655	1132
454.665	823
454.734	1994
454.736	2105
454.804	4323
454.817	5872
454.873	10865
454.898	11043
454.943	10740
454.979	6661
455.013	3310
455.060	2571
455.082	2606
455.141	3693
455.152	3827
455.221	11228
455.222	11465
455.291	20223
455.303	21131
455.360	22600
455.384	29628
455.430	37497
455.465	28401
455.499	20450
455.546	14480
455.569	11660
455.627	7646
455.638	7083
455.707	1307
455.708	1331
455.777	1440
455.789	1503
455.846	1739
455.869	1623
455.916	1379
455.950	1784
455.985	2046
456.031	1680
456.054	1439
456.112	956
456.124	889
456.193	1571
456.193	1552
456.262	2137
456.274	2228
456.332	2497
456.355	2338
456.401	1592
456.436	1560
456.470	1558
456.516	1300
456.540	1158
456.597	799
456.609	732
456.678	1319
456.678	1305
456.747	1445
456.759	1284
456.817	434
456.840	683
456.886	1128
456.920	1351
456.955	1573
457.001	1506
457.024	1545
457.082	2148
457.093	2237
457.162	3254
457.163	3279
457.232	3203
457.243	3165
457.301	2350
457.324	1723
457.370	982
457.405	1552
457.439	2018
457.485	1398
457.508	1193
457.566	2054
457.577	2181
457.646	2738
457.647	2758
457.715	3131
457.727	3110
457.784	2928
457.808	3144
457.853	3752
457.889	4251
457.922	4016
457.969	3566
457.991	3703
458.050	4068
458.060	4079
458.129	4550
458.130	4592
458.198	4544
458.211	4324
458.267	2919
458.292	2511
458.336	2426
458.372	2489
458.405	2807
458.453	2918
458.474	3201
458.533	5519
458.543	5847
458.611	7734
458.614	7837
458.680	5778
458.694	4986
458.749	3443
458.775	3241
458.818	3005
458.855	2947
458.887	2960
458.936	2268
458.955	2210
459.016	2298
459.024	2254
459.093	3061
459.097	3082
459.162	3346
459.177	3474
459.230	4043
459.257	4252
459.299	4357
459.338	4670
459.368	4887
459.418	5166
459.437	4949
459.499	3903
459.505	3848
459.574	3366
459.579	3354
459.643	3199
459.659	3246
459.711	3746
459.740	3904
459.780	3971
459.820	4022
459.849	4100
459.900	4619
459.917	4757
459.981	5261
459.986	5231
460.054	4650
460.061	4597
460.123	4749
460.141	4882
460.191	5950
460.222	6471
460.260	6920
460.302	7963
460.328	7475
460.382	5672
460.397	5568
460.462	4991
460.465	5048
460.534	8011
460.543	8202
460.602	17930
460.623	21789
460.671	33654
460.703	44242
460.739	41329
460.783	33703
460.808	26785
460.864	7006
460.876	6111
460.944	4965
460.945	4947
461.013	4950
461.024	4895
461.081	4666
461.104	4876
461.150	5028
461.184	5034
461.218	5034
461.264	4549
461.286	4295
461.345	3930
461.355	3965
461.423	4860
461.425	4865
461.491	5083
461.505	5226
461.559	8974
461.585	10628
461.628	17796
461.665	24936
461.696	28158
461.745	34149
461.764	29189
461.825	9205
461.832	8885
461.901	6079
461.905	6025
461.969	5403
461.985	5175
462.037	5181
462.065	5259
462.105	5558
462.145	5723
462.173	8410
462.225	13828
462.241	15394
462.305	22253
462.310	21683
462.378	12293
462.385	11031
462.446	6695
462.465	5622
462.514	5841
462.545	6172
462.582	6071
462.625	5782
462.650	5633
462.705	5227
462.718	5366
462.785	6369
462.786	6412
462.854	8745
462.865	9147
462.922	11708
462.945	12771
462.990	9753
463.025	7058
463.058	6450
463.104	5769
463.126	5610
463.184	5020
463.194	5155
463.262	6158
463.264	6202
463.330	6525
463.344	6517
463.398	7176
463.424	7450
463.466	6770
463.504	6279
463.533	6679
463.583	7251
463.601	7444
463.663	8167
463.669	8359
463.737	10420
463.743	10609
463.805	16450
463.823	18171
463.873	25325
463.903	29762
463.940	32986
463.982	36810
464.008	29517
464.062	12904
464.076	11998
464.142	7044
464.144	7028
464.211	7059
464.221	7085
464.279	7468
464.301	7542
464.347	8079
464.381	8543
464.414	9003
464.461	9626
464.482	10313
464.540	12431
464.550	12142
464.617	9438
464.620	9336
464.685	10208
464.699	10351
464.753	12410
464.779	13563
464.820	15243
464.859	16861
464.888	16594
464.938	15714
464.956	15750
465.018	15771
465.023	15605
465.091	13026
465.098	12751
465.158	12685
465.177	12759
465.226	13298
465.257	13476
465.293	13800
465.336	14054
465.361	14644
465.416	16017
465.428	16931
465.495	21685
465.496	21796
465.563	33584
465.575	35636
465.631	44319
465.654	48044
465.698	32002
465.734	18030
465.765	15635
465.813	12057
465.833	12280
465.893	13299
465.900	13295
465.968	13046
465.972	13006
466.035	13064
466.052	13058
466.102	14043
466.131	14517
466.170	14578
466.210	14669
466.237	15054
466.290	15661
466.304	15774
466.369	16110
466.372	16160
466.439	16790
466.449	16843
466.506	17883
466.528	18260
466.573	23612
466.607	27538
466.641	37849
466.687	52064
466.708	57725
466.766	73245
466.775	68321
466.842	30121
466.845	28245
466.909	22239
466.925	20811
466.977	21064
467.004	21173
467.044	21616
467.083	21986
467.111	23484
467.163	26158
467.178	26579
467.242	28075
467.245	28054
467.312	26463
467.321	26200
467.379	25483
467.400	25145
467.446	25860
467.480	26284
467.559	23582
467.638	20428
467.717	19732
467.796	21784
467.875	23404
467.955	22536
468.034	29111
468.113	58607
468.192	85690
468.271	29366
468.350	17608
468.429	17873
468.508	15808
468.588	16126
468.667	16758
468.746	19197
468.825	18766
468.904	15336
468.983	17980
469.062	25704
469.141	31647
469.220	17715
469.299	15316
469.378	16162
469.456	21156
469.535	19791
469.614	18444
469.693	17719
469.772	22815
469.851	28810
469.930	22584
470.009	16824
470.088	16223
470.166	17222
470.245	18622
470.324	21677
470.403	18577
470.482	16094
470.560	15530
470.639	16283
470.718	19285
470.797	16045
470.875	17535
470.954	23476
471.033	26684
471.111	14416
471.190	14129
471.269	13016
471.347	12198
471.426	14774
471.505	16188
471.583	18155
471.662	16341
471.740	15446
471.819	15911
471.898	14435
471.976	14360
472.055	13843
472.133	16215
472.212	18683
472.290	20675
472.369	15251
472.447	13475
472.526	13014
472.604	14688
472.683	13586
472.761	14665
472.839	14544
472.918	14585
472.996	12967
473.075	16232
473.153	15992
473.231	13514
473.310	15892
473.388	15193
473.466	14723
473.545	16372
473.623	20897
473.701	19580
473.780	14479
473.858	13688
473.936	16950
474.014	14526
474.093	16009
474.171	20886
474.249	27440
474.327	20207
474.405	12252
474.484	12151
474.562	12503
474.640	12949
474.718	14147
474.796	15064
474.874	14904
474.952	13513
475.030	13427
475.108	14069
475.187	16180
475.265	17018
475.343	16645
475.421	17903
475.499	13838
475.577	15199
475.655	18097
475.733	31929
475.811	54628
475.889	48224
475.966	37189
476.044	13114
476.122	12617
476.200	14283
476.278	13357
476.356	12021
476.434	12481
476.512	12955
476.590	13662
476.667	14582
476.745	11414
476.823	12645
476.901	11878
476.979	13329
477.056	12891
477.134	13143
477.212	14027
477.290	12524
477.367	11829
477.445	12003
477.523	11048
477.601	10523
477.678	10227
477.756	13796
477.834	15548
477.911	10870
477.989	11052
478.066	10952
478.144	12127
478.222	11868
478.299	12790
478.377	13505
478.454	11020
478.532	10283
478.609	11249
478.687	12045
478.764	10433
478.842	11037
478.919	11703
478.997	12125
479.074	10259
479.152	12514
479.229	15761
479.307	11002
479.384	8551
479.461	9412
479.539	9436
479.616	12863
479.694	11375
479.771	11744
479.848	12318
479.926	15488
480.003	18195
480.080	10778
480.157	9823
480.235	8997
480.312	9833
480.389	11429
480.467	16635
480.544	22386
480.621	13127
480.698	11226
480.775	12815
480.853	13157
480.930	11263
481.007	10561
481.084	12734
481.161	14167
481.238	12529
481.315	9622
481.392	9762
481.470	10370
481.547	10604
481.624	9963
481.701	9608
481.778	10022
481.855	12502
481.932	17210
482.009	27780
482.086	21560
482.163	9515
482.240	10187
482.317	12457
482.393	12211
482.470	10452
482.547	9944
482.624	9666
482.701	9984
482.778	9776
482.855	8994
482.932	7939
483.009	8272
483.085	9872
483.162	12245
483.239	11317
483.316	8933
483.393	8973
483.469	8444
483.546	10494
483.623	12984
483.699	9403
483.776	10426
483.853	12930
483.930	16901
484.006	42096
484.083	76530
484.160	46784
484.236	63919
484.313	53024
484.389	38218
484.466	33827
484.543	30566
484.619	30148
484.696	31334
484.772	32859
484.849	36426
484.925	30052
485.002	29205
485.078	32313
485.155	32103
485.231	28896
485.308	28365
485.384	29688
485.461	33680
485.537	49787
485.614	62462
485.690	30491
485.766	26756
485.843	27758
485.919	34167
485.995	38101
486.072	25772
486.148	24819
486.224	24640
486.301	26109
486.377	29459
486.453	29678
486.530	28920
486.606	37847
486.682	43914
486.758	47180
486.835	54883
486.911	42956
486.987	63570
487.063	68640
487.139	79242
487.215	58735
487.292	33982
487.368	28300
487.444	29181
487.520	31841
487.596	30524
487.672	30254
487.748	39722
487.824	50791
487.900	34313
487.976	26238
488.052	29034
488.128	33811
488.204	30145
488.280	26587
488.356	30620
488.432	54781
488.508	87606
488.584	35717
488.660	24784
488.736	25096
488.812	25634
488.888	31984
488.964	38804
489.039	68627
489.115	109272
489.191	72320
489.267	28146
489.343	23872
489.418	21409
489.494	21312
489.570	19419
489.646	22309
489.722	21539
489.797	23043
489.873	29243
489.949	61810
490.024	59121
490.100	21603
490.176	20665
490.251	23986
490.327	30273
490.403	21327
490.478	19353
490.554	16859
490.629	17978
490.705	16866
490.781	18782
490.856	18623
490.932	21695
491.007	21737
491.083	21159
491.158	18925
491.234	23497
491.309	45969
491.385	52743
491.460	21501
491.536	20142
491.611	18848
491.686	20570
491.762	26069
491.837	44873
491.913	77544
491.988	101108
492.063	134393
492.139	43959
492.214	28659
492.289	17261
492.365	14450
492.440	19113
492.515	17758
492.590	17469
492.666	14326
492.741	19718
492.816	29703
492.891	19282
492.967	15959
493.042	14900
493.117	18241
493.192	20503
493.267	35086
493.342	116787
493.418	181098
493.493	35407
493.568	14247
493.643	14563
493.718	17831
493.793	23691
493.868	28110
493.943	18894
494.018	14746
494.093	13120
494.168	13824
494.243	12019
494.318	12320
494.393	12044
494.468	12125
494.543	11682
494.618	14128
494.693	13115
494.768	12488
494.842	14214
494.917	11637
494.992	12638
495.067	11890
495.142	11965
495.217	14589
495.292	14045
495.366	15855
495.441	18692
495.516	23376
495.591	29711
495.665	84984
495.740	216368
495.815	103767
495.890	22819
495.964	15605
496.039	18684
496.114	16987
496.188	17754
496.263	18791
496.338	16690
496.412	19111
496.487	23694
496.561	23015
496.636	24948
496.710	20095
496.785	22300
496.860	24920
496.934	21867
497.009	20521
497.083	21175
497.158	23702
497.232	26668
497.307	31187
497.381	28912
497.455	32711
497.530	41917
497.604	34182
497.679	35621
497.753	49435
497.827	63983
497.902	63056
497.976	70733
498.050	115262
498.125	382905
498.199	452494
498.273	93325
498.348	70684
498.422	62581
498.496	57911
498.570	53474
498.645	45216
498.719	43597
498.793	45432
498.867	55897
498.941	68599
499.016	151692
499.090	429152
499.164	187554
499.238	29695
499.312	24956
499.386	27489
499.460	26779
499.534	22932
499.609	27054
499.683	37976
499.757	37483
499.831	65568
499.905	263437
499.979	293820
500.053	48769
500.127	43421
500.201	31258
500.275	21692
500.349	21094
500.422	23167
500.496	30793
500.570	58327
500.644	141518
500.718	298876
500.792	82513
500.866	20992
500.940	24796
501.013	23004
501.087	20514
501.161	35109
501.235	45191
501.309	82966
501.382	242687
501.456	246437
501.530	51463
501.603	82732
501.677	39351
501.751	15713
501.825	18854
501.898	31566
501.972	98293
502.046	75706
502.119	19029
502.193	41206
502.266	109071
502.340	62036
502.413	45068
502.487	96129
502.561	58628
502.634	20656
502.708	14664
502.781	13148
502.855	11621
502.928	10617
503.002	10562
503.075	9419
503.149	11159
503.222	11866
503.295	14348
503.369	16499
503.442	22554
503.516	64452
503.589	184696
503.662	134917
503.736	40017
503.809	80864
503.882	74109
503.956	93296
504.029	96122
504.102	30399
504.175	28212
504.249	15209
504.322	13135
504.395	14777
504.468	11229
504.542	11432
504.615	8406
504.688	9147
504.761	8414
504.834	10959
504.907	13447
504.980	22661
505.053	13524
505.127	14039
505.200	19007
505.273	17168
505.346	11193
505.419	9133
505.492	10078
505.565	6796
505.638	7374
505.711	7059
505.784	7282
505.857	6964
505.930	9176
506.003	7196
506.076	9648
506.149	12084
506.221	15759
506.294	15151
506.367	34684
506.440	130998
506.513	84442
506.586	16666
506.659	11377
506.731	8823
506.804	10148
506.877	15115
506.950	12242
507.022	8047
507.095	10492
507.168	15176
507.241	9329
507.313	7160
507.386	8180
507.459	12213
507.531	9157
507.604	7737
507.677	7404
507.749	7881
507.822	11285
507.894	21160
507.967	29190
508.040	17958
508.112	15027
508.185	13327
508.257	12571
508.330	18620
508.402	13290
508.475	12933
508.547	13577
508.620	13630
508.692	19449
508.765	15333
508.837	10690
508.909	10377
508.982	11418
509.054	11745
509.127	11961
509.199	10410
509.271	9827
509.344	8889
509.416	9152
509.488	10079
509.560	11503
509.633	10252
509.705	12941
509.777	12818
509.849	17671
509.922	13310
509.994	12463
510.066	11439
510.138	12535
510.210	25831
510.283	26416
510.355	20357
510.427	16858
510.499	15641
510.571	15463
510.643	14282
510.715	21814
510.787	19765
510.859	15592
510.931	16779
511.003	21638
511.076	20575
511.148	13172
511.219	14099
511.291	21908
511.363	26632
511.435	14451
511.507	12540
511.579	13871
511.651	13241
511.723	11705
511.795	12503
511.867	12425
511.939	14655
512.010	27327
512.082	24266
512.154	12834
512.226	13805
512.298	18793
512.369	28711
512.441	23286
512.513	20370
512.585	15987
512.656	16280
512.728	18199
512.800	14626
512.871	14885
512.943	14543
513.015	12636
513.086	14555
513.158	15395
513.230	15927
513.301	18883
513.373	22321
513.444	15282
513.516	13387
513.588	13356
513.659	14792
513.731	16209
513.802	15537
513.874	26903
513.945	46094
514.016	19813
514.088	14100
514.159	14002
514.231	18603
514.302	25527
514.374	21426
514.445	18093
514.516	31441
514.588	27678
514.659	18739
514.730	29450
514.802	26786
514.873	22858
514.944	26901
515.016	22209
515.087	21983
515.158	24305
515.229	35335
515.301	24836
515.372	36482
515.443	28013
515.514	21230
515.585	16012
515.656	16254
515.728	14266
515.799	12675
515.870	13607
515.941	14059
516.012	14706
516.083	19437
516.154	20582
516.225	24277
516.296	22429
516.367	18665
516.438	20687
516.509	24642
516.580	30985
516.651	72018
516.722	268368
516.793	153881
516.864	36409
516.935	33526
517.006	34574
517.077	44475
517.148	89006
517.219	245728
517.289	458278
517.360	183030
517.431	71315
517.502	20150
517.573	19161
517.643	17681
517.714	20981
517.785	21684
517.856	20216
517.926	24550
517.997	27470
518.068	32120
518.138	41142
518.209	53304
518.280	161254
518.350	644605
518.421	311021
518.492	42313
518.562	24619
518.633	21311
518.703	17174
518.774	20877
518.845	25881
518.915	27523
518.986	21083
519.056	22725
519.127	39857
519.197	60215
519.268	140061
519.338	107528
519.408	26485
519.479	28108
519.549	21728
519.620	16279
519.690	12022
519.760	13119
519.831	12678
519.901	14172
519.971	12337
520.042	12818
520.112	14634
520.182	17001
520.253	19635
520.323	14247
520.393	18970
520.463	32138
520.534	20728
520.604	44661
520.674	23538
520.744	20445
520.814	47384
520.885	46228
520.955	42460
521.025	167294
521.095	81876
521.165	16733
521.235	13144
521.305	12452
521.375	11993
521.445	12861
521.515	15674
521.585	16817
521.655	17336
521.725	14683
521.795	13855
521.865	10000
521.935	17905
522.005	16042
522.075	10775
522.145	12074
522.215	13596
522.285	18944
522.355	23335
522.424	45367
522.494	41947
522.564	22391
522.634	32582
522.704	101108
522.774	45480
522.843	13677
522.913	11596
522.983	14464
523.053	11630
523.122	11747
523.192	16019
523.262	48114
523.331	54740
523.401	13967
523.471	9540
523.540	10480
523.610	8299
523.680	8366
523.749	8308
523.819	11688
523.888	12305
523.958	9072
524.027	9757
524.097	10235
524.166	8923
524.236	9520
524.305	11057
524.375	7852
524.444	7808
524.514	10545
524.583	9971
524.653	12440
524.722	14007
524.791	10169
524.861	10265
524.930	7867
524.999	9016
525.069	13951
525.138	10746
525.207	13323
525.277	10788
525.346	9368
525.415	9267
525.484	9173
525.554	9221
525.623	10861
525.692	10129
525.761	8566
525.830	8638
525.900	8134
525.969	10560
526.038	13005
526.107	14879
526.176	31925
526.245	29428
526.314	21045
526.383	26061
526.452	26709
526.522	41497
526.591	61335
526.660	50407
526.729	27518
526.797	25057
526.867	50677
526.935	247316
527.004	224126
527.073	91533
527.142	15879
527.211	9578
527.280	11714
527.349	12115
527.418	7294
527.487	8582
527.555	6730
527.624	7129
527.693	5880
527.762	7455
527.831	5723
527.899	6848
527.968	6800
528.037	7206
528.106	9229
528.174	16064
528.243	15334
528.312	19322
528.380	26445
528.449	9780
528.518	7912
528.586	5016
528.655	6624
528.723	6784
528.792	6626
528.861	6142
528.929	5353
528.998	6172
529.066	5846
529.135	5955
529.203	5781
529.272	5511
529.340	6587
529.409	7256
529.477	5932
529.545	7171
529.614	11100
529.682	9926
529.751	12475
529.819	13205
529.887	9276
529.956	6950
530.024	8017
530.092	5801
530.161	7489
530.229	12738
530.297	8663
530.365	7336
530.434	5668
530.502	3880
530.570	6309
530.638	4102
530.707	7042
530.775	8187
530.843	5181
530.911	6341
530.979	5670
531.047	4890
531.115	6625
531.183	5526
531.252	5691
531.320	7325
531.388	5389
531.456	6985
531.524	4105
531.592	6463
531.660	8102
531.728	5725
531.796	5117
531.864	6403
531.932	7613
532.000	5931
532.067	6672
532.135	7916
532.203	9579
532.271	8924
532.339	16346
532.407	41157
532.475	27422
532.542	14899
532.610	15727
532.678	17710
532.746	68178
532.814	201142
532.881	54168
532.949	11726
533.017	8299
533.084	7198
533.152	6680
533.220	7042
533.287	7677
533.355	6759
533.423	7189
533.490	5574
533.558	6684
533.625	7857
533.693	9335
533.761	9474
533.828	9683
533.896	8722
533.963	17113
534.031	22205
534.098	28049
534.166	14850
534.233	9366
534.300	10321
534.368	10557
534.435	8550
534.503	9160
534.570	9488
534.637	7353
534.705	7537
534.772	7868
534.840	8483
534.907	16756
534.974	20917
535.041	9644
535.109	10022
535.176	6944
535.243	7296
535.310	6917
535.378	6969
535.445	6100
535.512	7164
535.579	7364
535.646	6159
535.714	7126
535.781	10748
535.848	10648
535.915	11136
535.982	11994
536.049	11111
536.116	11410
536.183	9613
536.250	9927
536.317	8682
536.384	10352
536.451	14017
536.518	15542
536.585	10104
536.652	14044
536.719	18190
536.786	14812
536.853	12215
536.920	16979
536.987	26167
537.053	24092
537.120	90093
537.187	91441
537.254	11704
537.321	8398
537.388	9500
537.454	6303
537.521	6385
537.588	6599
537.654	9001
537.721	10883
537.788	10020
537.855	7914
537.921	7762
537.988	8809
538.055	9424
538.121	7950
538.188	8390
538.254	12531
538.321	24223
538.388	16306
538.454	9157
538.521	7814
538.587	8082
538.654	6465
538.720	7054
538.787	6962
538.853	7893
538.920	9590
538.986	9977
539.053	9474
539.119	8510
539.185	8537
539.252	10239
539.318	15076
539.385	13271
539.451	11382
539.517	12218
539.583	13575
539.650	25203
539.716	74734
539.782	24635
539.849	9857
539.915	8796
539.981	8668
540.047	11328
540.114	10575
540.180	10572
540.246	8515
540.312	13328
540.378	23165
540.444	26051
540.510	25648
540.576	82946
540.643	30311
540.709	8613
540.775	8571
540.841	9034
540.907	12994
540.973	21578
541.039	18191
541.105	16403
541.171	10431
541.237	8836
541.303	9553
541.369	11534
541.435	12584
541.500	21521
541.566	14284
541.632	8456
541.698	7250
541.764	9011
541.830	7906
541.896	7892
541.961	8295
542.027	8607
542.093	8311
542.159	9891
542.224	9720
542.290	13867
542.356	22226
542.421	25689
542.487	14370
542.553	10411
542.618	12630
542.684	10177
542.750	9793
542.815	12025
542.881	19047
542.947	66116
543.012	55207
543.078	10334
543.143	9290
543.209	10239
543.274	9457
543.340	10746
543.405	24291
543.471	44517
543.536	13242
543.602	9102
543.667	8158
543.732	9630
543.798	7254
543.863	8879
543.928	7364
543.994	6777
544.059	8440
544.124	8725
544.190	7381
544.255	8855
544.320	10279
544.386	9241
544.451	12673
544.516	15067
544.581	14691
544.646	39952
544.712	70990
544.777	17034
544.842	11825
544.907	13388
544.972	10613
545.037	10187
545.102	11784
545.168	10872
545.233	11925
545.298	12831
545.363	15585
545.428	16731
545.493	24532
545.558	56553
545.623	26357
545.688	11779
545.753	11019
545.818	10236
545.883	12245
545.947	10836
546.012	12237
546.077	12061
546.142	11186
546.207	10779
546.272	14596
546.337	14828
546.401	12256
546.466	11954
546.531	10773
546.596	12473
546.661	11455
546.725	10645
546.790	9534
546.855	10244
546.919	9120
546.984	10504
547.049	11057
547.113	13033
547.178	10391
547.243	12763
547.307	12799
547.372	14077
547.436	16046
547.501	11056
547.565	12415
547.630	14336
547.695	14140
547.759	15942
547.823	14360
547.888	10938
547.952	11828
548.017	11529
548.081	14454
548.146	18848
548.210	16902
548.274	10825
548.339	11038
548.403	10410
548.468	10172
548.532	9153
548.596	9788
548.660	10368
548.725	12375
548.789	14302
548.853	15758
548.917	11665
548.982	16349
549.046	17708
549.110	11087
549.174	10545
549.238	10347
549.303	9410
549.367	10979
549.431	11011
549.495	9969
549.559	9604
549.623	9918
549.687	12589
549.751	18511
549.815	14996
549.879	12766
549.943	11545
550.007	13261
550.071	11070
550.135	17613
550.199	13758
550.263	12259
550.327	13442
550.391	18000
550.455	14744
550.519	11821
550.582	13156
550.646	17480
550.710	19623
550.774	12623
550.838	12230
550.901	12606
550.965	14303
551.029	14156
551.093	15794
551.156	19896
551.220	37716
551.284	43386
551.347	21782
551.411	43974
551.475	56796
551.538	17059
551.602	11997
551.666	11164
551.729	10605
551.793	11607
551.856	11465
551.920	12532
551.983	12136
552.047	12025
552.110	12168
552.174	11336
552.237	10992
552.301	10880
552.364	10314
552.428	11155
552.491	10306
552.554	12454
552.618	12002
552.681	12251
552.745	12798
552.808	17755
552.871	22368
552.934	17008
552.998	13189
553.061	14715
553.124	14464
553.187	14767
553.251	16669
553.314	18824
553.377	19109
553.440	29101
553.503	95346
553.567	198035
553.630	42039
553.693	14895
553.756	12280
553.819	12400
553.882	11588
553.945	10283
554.008	10359
554.071	9382
554.134	9444
554.197	9924
554.260	9963
554.323	11251
554.386	11420
554.449	10230
554.512	11082
554.575	8981
554.638	10282
554.701	9777
554.764	10036
554.827	9641
554.889	9804
554.952	7941
555.015	8608
555.078	9606
555.141	9467
555.203	9272
555.266	8951
555.329	10256
555.391	9561
555.454	9545
555.517	9717
555.580	9546
555.642	9469
555.705	8446
555.768	9694
555.830	9324
555.893	8887
555.955	9520
556.018	8714
556.080	9616
556.143	8805
556.206	8400
556.268	10339
556.330	10472
556.393	10483
556.455	10419
556.518	13778
556.580	16159
556.643	9579
556.705	9194
556.767	8419
556.830	10157
556.892	10607
556.955	15672
557.017	12584
557.079	9058
557.142	9612
557.204	10746
557.266	20691
557.328	19299
557.391	9994
557.453	8122
557.515	8763
557.577	10507
557.639	11423
557.701	8336
557.764	7949
557.826	7799
557.888	9474
557.950	9181
558.012	8310
558.074	8915
558.136	13030
558.198	23297
558.260	15045
558.322	9800
558.384	10339
558.446	11108
558.508	12370
558.570	14489
558.632	23431
558.694	36546
558.756	22272
558.818	43462
558.880	114136
558.942	42842
559.003	25605
559.065	17614
559.127	10214
559.189	11525
559.251	10666
559.312	13329
559.374	21131
559.436	64068
559.498	41331
559.559	12084
559.621	11382
559.683	12027
559.744	16974
559.806	34334
559.868	52124
559.929	17553
559.991	13259
560.052	14213
560.114	23533
560.176	20478
560.237	16764
560.299	26359
560.360	12529
560.422	10405
560.483	10250
560.545	9305
560.606	9864
560.667	9732
560.729	9608
560.790	9883
560.852	9232
560.913	9926
560.974	9440
561.036	9353
561.097	9488
561.158	10135
561.220	10729
561.281	10078
561.342	9967
561.403	12530
561.465	13460
561.526	29196
561.587	40953
561.648	15087
561.709	11409
561.771	10368
561.832	10689
561.893	9895
561.954	10611
562.015	10871
562.076	10475
562.137	10110
562.198	10748
562.259	11139
562.320	9693
562.381	11244
562.442	15204
562.503	13594
562.564	10500
562.625	10109
562.686	10268
562.747	10944
562.808	10634
562.869	9690
562.930	12857
562.991	13204
563.051	11657
563.112	11906
563.173	10554
563.234	9699
563.294	10819
563.355	9669
563.416	10726
563.477	10778
563.537	10217
563.598	12029
563.659	10819
563.720	11315
563.780	11097
563.841	12642
563.901	10862
563.962	11562
564.023	11572
564.083	11511
564.144	11263
564.204	10855
564.265	11799
564.325	13247
564.386	23381
564.446	22600
564.507	11734
564.567	11207
564.628	11379
564.688	11546
564.749	11421
564.809	13540
564.869	15442
564.930	12848
564.990	11121
565.050	10653
565.111	11888
565.171	10712
565.231	12227
565.292	12222
565.352	11166
565.412	12024
565.472	11651
565.532	12638
565.593	12652
565.653	11109
565.713	12216
565.773	14236
565.833	14327
565.893	17959
565.953	14357
566.013	13387
566.074	14526
566.134	17518
566.194	24368
566.254	27094
566.314	20233
566.374	17118
566.434	16984
566.494	17114
566.554	17954
566.614	18483
566.673	19326
566.733	20422
566.793	21669
566.853	22465
566.913	23056
566.973	24019
567.033	23476
567.092	23631
567.152	22850
567.212	23500
567.272	24243
567.331	26319
567.391	27223
567.451	28614
567.511	31913
567.570	34333
567.630	25529
567.690	23885
567.749	25598
567.809	27840
567.868	31114
567.928	34210
567.988	40998
568.047	46081
568.107	55882
568.166	73234
568.226	103640
568.285	147011
568.345	146703
568.404	128122
568.464	111839
568.523	104017
568.582	102562
568.642	108658
568.701	127235
568.761	165498
568.820	239722
568.879	266019
568.939	223389
568.998	177319
569.057	140621
569.116	113302
569.176	91481
569.235	77063
569.294	66134
569.353	56046
569.413	50078
569.472	43463
569.531	38125
569.590	34062
569.649	31145
569.708	29007
569.767	26964
569.827	27037
569.886	24546
569.945	22184
570.004	20786
570.063	19493
570.122	20470
570.181	19903
570.240	19559
570.299	19580
570.358	19132
570.417	16740
570.475	15314
570.534	16447
570.593	15516
570.652	15008
570.711	16073
570.770	13684
570.829	15203
570.887	14379
570.946	13996
571.005	12379
571.064	12084
571.122	12613
571.181	13643
571.240	12305
571.299	11715
571.357	12624
571.416	13042
571.475	13200
571.533	14424
571.592	10947
571.650	13051
571.709	10896
571.768	10724
571.826	10560
571.885	10294
571.943	10017
572.002	9952
572.060	10943
572.119	9459
572.177	10659
572.236	8320
572.294	8839
572.352	9431
572.411	9024
572.469	9694
572.528	9486
572.586	10058
572.644	9740
572.703	12265
572.761	9802
572.819	10188
572.877	9180
572.936	8841
572.994	9093
573.052	8663
573.110	9172
573.169	8622
573.227	8920
573.285	9078
573.343	8228
573.401	8102
573.459	9310
573.517	8737
573.576	8665
573.634	9484
573.692	9183
573.750	8417
573.808	8276
573.866	8874
573.924	11461
573.982	11943
574.040	9225
574.098	9048
574.155	8356
574.213	8297
574.271	7946
574.329	8039
574.387	8184
574.445	7145
574.503	8158
574.560	6956
574.618	7363
574.676	6826
574.734	6953
574.792	8181
574.849	7566
574.907	7314
574.965	7315
575.022	6400
575.080	7071
575.138	7943
575.195	7727
575.253	7453
575.311	8550
575.368	8709
575.426	7284
575.483	8588
575.541	8113
575.598	7339
575.656	7840
575.713	7585
575.771	7826
575.828	7490
575.886	7989
575.943	8548
576.001	7888
576.058	7880
576.115	8173
576.173	9433
576.230	10671
576.287	11634
576.345	10114
576.402	8868
576.459	8506
576.517	8196
576.574	9594
576.631	10444
576.688	8840
576.746	8550
576.803	9171
576.860	7717
576.917	9301
576.974	8096
577.031	9070
577.089	9268
577.146	8359
577.203	8854
577.260	9051
577.317	9429
577.374	10552
577.431	10685
577.488	9404
577.545	9123
577.602	9286
577.659	9639
577.716	10211
577.773	11462
577.830	11473
577.886	9894
577.943	9737
578.000	9516
578.057	10566
578.114	11205
578.171	12284
578.227	14873
578.284	15242
578.341	13795
578.398	12868
578.454	11406
578.511	12166
578.568	11786
578.625	10121
578.681	9936
578.738	9338
578.794	9207
578.851	9202
578.908	9259
578.964	9755
579.021	10126
579.077	10001
579.134	9887
579.190	9050
579.247	8249
579.303	9489
579.360	9036
579.416	8379
579.473	8251
579.529	8198
579.586	8413
579.642	10072
579.698	9582
579.755	10166
579.811	9948
579.867	10182
579.924	9988
579.980	10737
580.036	12190
580.093	15145
580.149	20157
580.205	23575
580.261	20232
580.317	17007
580.374	13948
580.430	14027
580.486	12890
580.542	10983
580.598	11666
580.619	11545
580.654	11352
580.692	11084
580.710	10974
580.765	10469
580.767	10468
580.823	10682
580.838	10513
580.879	10113
580.911	10044
580.935	10008
580.984	10230
580.991	10275
581.047	10552
581.057	10545
581.103	10573
581.130	10731
581.159	10945
581.203	12145
581.215	12463
581.270	13339
581.276	13157
581.326	11593
581.349	11295
581.382	10852
581.422	11142
581.438	11285
581.494	10721
581.494	10714
581.550	11006
581.567	11014
581.606	11088
581.640	10905
581.661	10793
581.713	11570
581.717	11647
581.773	10732
581.786	10733
581.829	10692
581.859	10592
581.885	10558
581.932	10764
581.940	10809
581.996	10660
582.004	10613
582.052	10420
582.077	10246
582.107	10019
582.150	10524
582.163	10698
582.219	10782
582.223	10788
582.274	10962
582.296	10840
582.330	10593
582.368	11170
582.386	11497
582.441	11139
582.441	11142
582.497	11094
582.514	11459
582.552	12444
582.587	12607
582.608	12594
582.659	11527
582.663	11460
582.719	11324
582.732	11183
582.774	10828
582.805	11369
582.830	11735
582.877	12154
582.885	12237
582.941	11707
582.950	11739
582.996	12003
583.023	12065
583.052	12193
583.095	13450
583.107	13788
583.162	15857
583.168	15990
583.218	16956
583.240	16416
583.273	15647
583.313	14558
583.328	14211
583.384	13761
583.385	13755
583.439	13180
583.458	12787
583.494	12171
583.531	12078
583.549	12033
583.603	11746
583.605	11739
583.660	12634
583.676	12344
583.715	11642
583.748	11911
583.770	12089
583.820	12410
583.825	12420
583.881	12158
583.893	12209
583.936	12602
583.965	12412
583.991	12047
584.038	11926
584.046	11933
584.101	11961
584.110	11981
584.156	12202
584.183	12506
584.211	12756
584.255	12693
584.266	12663
584.321	12325
584.328	12316
584.376	12300
584.400	12775
584.431	13296
584.472	13250
584.486	13229
584.541	13341
584.545	13330
584.596	13094
584.617	13256
584.651	13566
584.689	13625
584.706	13625
584.761	13996
584.762	14007
584.816	14387
584.834	14390
584.871	14167
584.906	14683
584.926	15103
584.978	15012
584.980	14986
585.035	14982
585.051	15205
585.090	15852
585.123	16182
585.145	16335
585.195	15909
585.200	15878
585.254	16914
585.267	17310
585.309	18683
585.340	19621
585.364	20024
585.412	18937
585.419	18741
585.473	17500
585.484	17461
585.528	17831
585.556	18766
585.583	19560
585.628	20363
585.637	20700
585.692	26469
585.700	27550
585.747	32446
585.772	30439
585.801	26783
585.845	21247
585.856	20182
585.910	19502
585.917	19502
585.965	20003
585.989	20345
586.019	20343
586.061	20554
586.074	20579
586.128	20184
586.133	20269
586.183	21597
586.205	22178
586.237	22416
586.277	22238
586.292	22337
586.346	22824
586.349	22903
586.401	23271
586.421	23595
586.455	24367
586.493	25235
586.509	25746
586.564	28785
586.565	28972
586.618	36485
586.637	37055
586.672	35029
586.709	30224
586.727	28256
586.781	28057
586.781	28013
586.835	28639
586.853	28837
586.889	29320
586.925	29739
586.944	29711
586.996	31051
586.998	31045
587.052	32586
587.068	33001
587.106	33781
587.140	34373
587.161	34665
587.212	36299
587.215	36312
587.269	38050
587.284	38582
587.323	39553
587.356	40392
587.377	40857
587.427	42773
587.431	42873
587.485	45631
587.499	46402
587.539	47862
587.571	49513
587.593	50607
587.643	53568
587.648	53746
587.702	56760
587.715	58016
587.755	61933
587.786	64776
587.810	66618
587.858	70780
587.864	71115
587.917	78106
587.930	79997
587.971	85530
588.001	89649
588.025	93136
588.073	102476
588.079	103562
588.133	115370
588.145	118621
588.187	128266
588.217	136802
588.241	144230
588.288	161257
588.295	163359
588.348	186971
588.360	193040
588.402	214863
588.431	233062
588.456	249330
588.503	284890
588.510	289714
588.564	341133
588.575	354323
588.617	409360
588.646	454361
588.671	500252
588.718	600265
588.725	618461
588.778	781073
588.789	814647
588.832	975923
588.861	1064901
588.886	1112573
588.932	1127065
588.939	1110260
588.993	983523
589.004	992206
589.047	1086674
589.075	1129889
589.100	1077704
589.147	900549
589.154	878920
589.207	709558
589.218	679391
589.261	615877
589.290	588660
589.314	588632
589.361	610695
589.368	620827
589.421	741491
589.433	770551
589.475	927812
589.504	1014898
589.528	1037021
589.576	1019884
589.582	1005559
589.635	991576
589.647	984147
589.689	846167
589.718	709307
589.742	618388
589.790	441470
589.795	427550
589.849	325310
589.861	305566
589.902	258559
589.932	228963
589.955	209015
590.004	173825
590.009	170393
590.062	145429
590.075	140473
590.115	126272
590.146	117432
590.168	111246
590.218	100012
590.222	98648
590.275	87208
590.289	84914
590.328	79199
590.360	75051
590.381	72198
590.431	67715
590.435	67098
590.488	61640
590.503	60435
590.541	56659
590.574	54061
590.594	52827
590.645	50778
590.647	50406
590.700	46158
590.716	45226
590.753	43429
590.787	42059
590.806	41032
590.859	39213
590.859	39002
590.912	36524
590.930	36011
590.965	35086
591.001	34367
591.018	33498
591.071	31308
591.072	31431
591.124	30924
591.143	30966
591.177	30010
591.214	29131
591.230	28622
591.283	27517
591.285	27594
591.336	27602
591.356	27850
591.389	26730
591.427	25379
591.442	24866
591.495	23720
591.498	23726
591.547	23211
591.569	23225
591.600	22430
591.640	21594
591.653	21519
591.706	21636
591.711	21750
591.759	21004
591.782	20723
591.811	20913
591.853	21526
591.864	21179
591.917	19706
591.924	19589
591.969	19187
591.995	19120
592.022	18475
592.066	17594
592.075	17718
592.127	19092
592.137	19440
592.180	19637
592.208	19838
592.233	18780
592.279	16982
592.285	16882
592.338	16782
592.350	16844
592.390	16106
592.421	15696
592.443	15300
592.491	14668
592.495	14645
592.548	15383
592.562	15655
592.600	15105
592.633	14775
592.653	14663
592.704	14484
592.705	14553
592.775	13967
592.846	13544
592.916	13365
592.987	13805
593.058	13265
593.128	12367
593.199	12529
593.270	12890
593.341	12002
593.411	12263
593.482	10721
593.553	11943
593.623	11040
593.694	10982
593.764	12028
593.835	11371
593.906	10688
593.976	10732
594.047	11064
594.117	11834
594.188	11902
594.258	10349
594.329	9654
594.399	10813
594.470	10498
594.540	9490
594.611	9732
594.681	9430
594.751	9221
594.822	10259
594.892	10504
594.963	10210
595.033	9904
595.103	10081
595.174	9950
595.244	12895
595.314	14638
595.384	9947
595.455	9569
595.525	8772
595.595	8984
595.665	9736
595.736	9291
595.806	8965
595.876	7931
595.946	8719
596.016	8680
596.087	9300
596.157	8762
596.227	8552
596.297	8874
596.367	9109
596.437	9717
596.507	10569
596.577	13154
596.647	9435
596.717	8069
596.787	8465
596.857	9268
596.927	8597
596.997	8467
597.067	9212
597.137	9664
597.207	9067
597.277	8210
597.347	8541
597.417	8990
597.487	8636
597.557	9034
597.626	8639
597.696	8408
597.766	9660
597.836	12039
597.906	9591
597.975	7650
598.045	7751
598.115	7812
598.185	7452
598.254	9077
598.324	8223
598.394	8072
598.464	8198
598.533	7993
598.603	7560
598.672	7874
598.742	8102
598.812	7661
598.881	6763
598.951	7832
599.020	6668
599.090	7748
599.159	7801
599.229	6975
599.299	7312
599.368	7923
599.437	7585
599.507	7445
599.576	8156
599.646	8668
599.715	9274
599.785	7857
599.854	7235
599.924	7613
599.993	8627
600.062	6541
600.132	6288
600.201	6725
600.270	7513
600.340	7876
600.409	7149
600.478	7391
600.547	6787
600.617	7606
600.686	7551
600.755	6608
600.824	7590
600.894	7587
600.963	6888
601.032	5994
601.101	6629
601.170	6574
601.239	6287
601.308	7636
601.378	7111
601.447	6654
601.516	5982
601.585	6597
601.654	6897
601.723	6439
601.792	6512
601.861	7795
601.930	9030
601.999	7077
602.068	6539
602.137	7176
602.206	6662
602.275	7254
602.343	7300
602.412	7323
602.481	6422
602.550	6813
602.619	5802
602.688	6175
602.756	6159
602.825	7042
602.894	6279
602.963	6160
603.032	6522
603.100	6087
603.169	6537
603.238	5622
603.307	5721
603.375	6203
603.444	6113
603.513	6294
603.581	6682
603.650	6069
603.719	6111
603.787	6258
603.856	6722
603.924	5956
603.993	6190
604.061	5748
604.130	6057
604.198	6036
604.267	5538
604.335	6567
604.404	5608
604.472	6494
604.541	6246
604.609	6661
604.678	6283
604.746	6195
604.815	6396
604.883	5981
604.951	6729
605.020	6200
605.088	6113
605.156	6475
605.225	5297
605.293	6101
605.361	5811
605.429	6086
605.498	7060
605.566	6127
605.634	6845
605.702	5417
605.771	5886
605.839	6313
605.907	6804
605.975	6593
606.043	6067
606.111	6800
606.180	5839
606.248	8592
606.316	9419
606.384	6269
606.452	7630
606.520	7281
606.588	6462
606.656	5053
606.724	5469
606.792	5347
606.860	4940
606.928	4656
606.996	5103
607.064	5475
607.132	5557
607.200	5696
607.267	4571
607.335	5129
607.403	5961
607.471	5370
607.539	5272
607.607	5357
607.674	5544
607.742	5178
607.810	4357
607.878	4173
607.946	4848
608.013	4701
608.081	5599
608.149	4706
608.216	4812
608.284	5596
608.352	4737
608.419	4110
608.487	7324
608.555	6424
608.622	4835
608.690	5166
608.757	5016
608.825	5353
608.893	5891
608.960	5034
609.028	6717
609.095	7303
609.163	5414
609.230	5347
609.298	5366
609.365	4310
609.432	5098
609.500	5167
609.567	5480
609.635	5873
609.702	5435
609.769	5908
609.837	5145
609.904	5091
609.971	5036
610.039	7016
610.106	8103
610.173	12643
610.241	26830
610.308	37605
610.375	29435
610.442	8941
610.509	5558
610.577	6045
610.644	5618
610.711	5047
610.778	4537
610.845	5221
610.912	5407
610.980	6564
611.047	9502
611.114	8266
611.181	5684
611.248	4279
611.315	5866
611.382	4533
611.449	4844
611.516	5506
611.583	5184
611.650	5044
611.717	5406
611.784	5419
611.851	5646
611.918	6022
611.984	6197
612.051	9379
612.118	14839
612.185	33374
612.252	26300
612.319	7510
612.386	6516
612.452	5408
612.519	6353
612.586	8216
612.653	7078
612.719	5430
612.786	5294
612.853	5102
612.919	4369
612.986	4893
613.053	4499
613.120	4555
613.186	4078
613.253	6158
613.319	4696
613.386	4687
613.453	5174
613.519	5288
613.586	5687
613.652	8474
613.719	6567
613.785	6656
613.852	5046
613.918	4641
613.985	6275
614.051	10083
614.118	22550
614.184	25040
614.250	6966
614.317	4671
614.383	5319
614.449	4310
614.516	5607
614.582	4991
614.648	4137
614.715	4198
614.781	4787
614.847	4864
614.914	5400
614.980	5183
615.046	5568
615.112	5437
615.179	4863
615.245	6500
615.311	8994
615.377	18315
615.443	21053
615.509	10836
615.575	7593
615.642	6994
615.708	6515
615.774	6542
615.840	8773
615.906	11389
615.972	19426
616.038	39049
616.104	50809
616.170	53914
616.236	48848
616.302	14274
616.368	8630
616.434	6071
616.500	7424
616.565	6890
616.631	6934
616.697	7003
616.763	6585
616.829	7631
616.895	11925
616.961	11377
617.026	7814
617.092	5340
617.158	6107
617.224	5690
617.289	5149
617.355	5151
617.421	4878
617.487	6313
617.552	5334
617.618	4791
617.684	4163
617.749	7580
617.815	4968
617.880	4662
617.946	4682
618.012	4415
618.077	5329
618.143	4920
618.208	5867
618.274	5266
618.339	5994
618.405	4311
618.470	5871
618.536	5438
618.601	5564
618.667	5387
618.732	4747
618.798	5137
618.863	5452
618.928	5583
618.994	6485
619.059	6288
619.124	7038
619.190	6075
619.255	5387
619.320	5432
619.386	5192
619.451	4436
619.516	5311
619.581	4887
619.647	5470
619.712	5436
619.777	4588
619.842	5357
619.907	5231
619.972	4967
620.038	5093
620.103	4633
620.168	4723
620.233	5772
620.298	4461
620.363	4733
620.428	4906
620.493	5205
620.558	5249
620.623	4317
620.688	4659
620.753	4639
620.818	4387
620.883	4280
620.948	4939
621.013	4544
621.078	5258
621.143	4330
621.207	6045
621.272	5636
621.337	5861
621.402	6184
621.467	7210
621.532	8295
621.596	6598
621.661	6210
621.726	5258
621.791	5439
621.855	6382
621.920	6509
621.985	7018
622.049	7454
622.114	6928
622.179	5983
622.243	6658
622.308	5588
622.373	7046
622.437	6144
622.502	6256
622.566	6348
622.631	5181
622.695	6801
622.760	5899
622.824	6842
622.889	6250
622.953	6803
623.018	8160
623.082	8717
623.147	6597
623.211	5540
623.276	5582
623.340	5312
623.404	6347
623.469	5567
623.533	5965
623.597	6096
623.662	4958
623.726	4789
623.790	5505
623.854	4765
623.919	6114
623.983	5881
624.047	5531
624.111	6052
624.176	5693
624.240	5364
624.304	7061
624.368	5989
624.432	4984
624.496	4980
624.560	5550
624.625	6387
624.689	5643
624.753	5006
624.817	5269
624.881	4836
624.945	5623
625.009	5322
625.073	5471
625.137	5021
625.201	6381
625.265	6078
625.329	5147
625.393	4851
625.456	5970
625.520	5521
625.584	5818
625.648	7404
625.712	9501
625.776	22263
625.839	27882
625.903	12962
625.967	5765
626.031	11668
626.095	15859
626.158	6467
626.222	4586
626.286	4114
626.349	3723
626.413	2760
626.477	5441
626.540	4075
626.604	4175
626.668	5122
626.731	3952
626.795	4389
626.858	5020
626.922	3799
626.986	4073
627.049	3607
627.113	4000
627.176	4832
627.240	4168
627.303	4554
627.366	4114
627.430	3763
627.493	4107
627.557	3633
627.620	4806
627.684	4000
627.747	4248
627.810	2573
627.874	4149
627.937	2741
628.000	5171
628.064	4230
628.127	2739
628.190	3897
628.253	4634
628.317	2876
628.380	3702
628.443	2786
628.506	3761
628.569	3892
628.632	3309
628.696	2999
628.759	2704
628.822	3730
628.885	2473
628.948	3656
629.011	3395
629.074	3496
629.137	2695
629.200	2736
629.263	4105
629.326	2526
629.389	2940
629.452	3010
629.515	4362
629.578	3627
629.641	3960
629.704	2872
629.767	3769
629.830	2777
629.892	3053
629.955	2737
630.018	4577
630.081	3237
630.144	4184
630.207	2544
630.269	4476
630.332	3075
630.395	4015
630.458	3750
630.520	2485
630.583	2974
630.646	3403
630.708	2422
630.771	2502
630.834	3400
630.896	2316
630.959	2404
631.021	2218
631.084	3159
631.146	3638
631.209	3392
631.272	2315
631.334	2705
631.397	1934
631.459	2459
631.522	3051
631.584	2244
631.646	2477
631.709	2874
631.771	3313
631.834	4037
631.896	2776
631.958	1810
632.021	2681
632.083	1500
632.145	2602
632.208	2382
632.270	3532
632.332	2035
632.395	2240
632.457	2992
632.519	1892
632.581	3159
632.643	1620
632.706	2382
632.768	1816
632.830	2861
632.892	1730
632.954	1631
633.016	2992
633.078	2082
633.141	2835
633.203	1915
633.265	2538
633.327	2348
633.389	1924
633.451	2491
633.513	2400
633.575	2858
633.637	2144
633.698	1570
633.760	2658
633.822	2757
633.884	1591
633.946	2660
634.008	2506
634.070	2761
634.132	2207
634.193	3094
634.255	2462
634.317	1560
634.379	2709
634.441	1991
634.502	1744
634.564	1754
634.626	2346
634.687	2382
634.749	2743
634.811	2746
634.873	1482
634.934	2285
634.996	1897
635.057	1479
635.119	1276
635.181	2410
635.242	2465
635.304	163
635.365	4143
635.427	1521
635.488	1175
635.550	1331
635.611	2155
635.673	676
635.734	3297
635.796	998
635.857	2366
635.918	1616
635.980	2509
636.041	655
636.102	2247
636.164	1495
636.225	2930
636.286	1211
636.348	1941
636.409	1540
636.470	1037
636.531	1270
636.593	1864
636.654	2816
636.715	2159
636.776	1703
636.838	854
636.899	2097
636.960	1144
637.021	164
637.082	1326
637.143	2204
637.204	1436
637.265	900
637.326	2929
637.387	1874
637.448	1279
637.509	2093
637.570	1779
637.631	2137
637.692	1076
637.753	1243
637.814	1704
637.875	1548
637.936	2376
637.997	1166
638.058	1635
638.119	1882
638.179	1862
638.240	995
638.301	1073
638.362	663
638.423	959
638.483	2373
638.544	642
638.605	1889
638.666	1091
638.726	1527
638.787	1947
638.848	595
638.908	843
638.969	1181
639.030	1809
639.090	891
639.151	987
639.211	1439
639.272	2253
639.332	2559
639.393	2059
639.453	879
639.514	1528
639.574	1277
639.635	713
639.695	1426
639.756	926
639.816	1897
639.877	1537
639.937	3513
639.997	2740
640.058	454
640.118	330
640.178	2089
640.239	734
640.299	1087
640.359	778
640.420	867
640.480	1854
640.540	641
640.600	760
640.661	2585
640.721	-230
640.781	1791
640.841	265
640.901	1959
640.961	1526
641.021	1147
641.082	207
641.142	1467
641.202	2001
641.262	-188
641.322	1923
641.382	62
641.442	1183
641.502	1440
641.562	1586
641.622	568
641.682	1061
641.742	878
641.802	1353
641.861	1104
641.921	1265
641.981	1582
642.041	2313
642.101	2042
642.161	236
642.221	614
642.280	899
642.340	579
642.400	368
642.460	1992
642.519	1418
642.579	570
642.639	1594
642.698	-884
642.758	2931
642.818	890
642.877	608
642.937	1464
642.997	1539
643.056	2101
643.116	-53
643.175	1884
643.235	695
643.294	1592
643.354	1221
643.414	776
643.473	998
643.532	1002
643.592	181
643.651	1258
643.711	3700
643.770	6758
643.830	13075
643.889	31161
643.948	10542
644.008	2573
644.067	769
644.126	93
644.186	824
644.245	922
644.304	-507
644.363	1706
644.423	515
644.482	766
644.541	1190
644.600	-1378
644.659	885
644.719	-382
644.778	774
644.837	1132
644.896	2289
644.955	5169
645.014	2534
645.073	2128
645.132	913
645.191	488
645.250	274
645.309	2347
645.368	420
645.427	1460
645.486	-99
645.545	1656
645.604	-226
645.663	587
645.722	235
645.781	526
645.840	522
645.898	696
645.957	1749
646.016	1049
646.075	3418
646.134	5352
646.192	11241
646.251	20764
646.310	3206
646.369	642
646.427	1630
646.486	-459
646.545	1586
646.603	705
646.662	982
646.721	567
646.779	18
646.838	-477
646.896	872
646.955	743
647.014	1299
647.072	211
647.131	4265
647.189	1422
647.248	223
647.306	1052
647.365	1056
647.423	-812
647.481	1722
647.540	-241
647.598	364
647.657	126
647.715	1310
647.773	-230
647.832	1710
647.890	-504
647.948	323
648.007	1292
648.065	-245
648.123	156
648.181	1853
648.240	1822
648.298	1596
648.356	1162
648.414	302
648.472	840
648.531	712
648.589	1032
648.647	460
648.705	1174
648.763	866
648.821	1152
648.879	648
648.937	519
648.995	669
649.053	5
649.111	1052
649.169	1543
649.227	2611
649.285	3489
649.343	9827
649.401	6896
649.459	4467
649.516	4032
649.574	2120
649.632	8214
649.690	12242
649.748	3861
649.806	2852
649.863	6223
649.921	3432
649.979	1307
650.037	902
650.094	-865
650.152	446
650.210	738
650.268	1055
650.325	398
650.383	7
650.440	-841
650.498	938
650.556	-262
650.613	586
650.671	468
650.728	-384
650.786	1040
650.843	908
650.901	-504
650.958	1204
651.016	300
651.073	614
651.131	182
651.188	-205
651.246	876
651.303	-1019
651.360	798
651.418	373
651.475	183
651.532	192
651.590	667
651.647	-239
651.704	187
651.762	-196
651.819	-84
651.876	-479
651.933	727
651.990	1102
652.048	-675
652.105	24
652.162	1027
652.219	462
652.276	685
652.333	144
652.390	-61
652.448	159
652.505	845
652.562	747
652.619	262
652.676	1503
652.733	3055
652.790	394
652.847	-799
652.904	634
652.961	-936
653.017	-975
653.074	824
653.131	242
653.188	-418
653.245	360
653.302	-127
653.359	-39
653.415	460
653.472	283
653.529	430
653.586	-29
653.642	288
653.699	-206
653.756	-1010
653.813	-42
653.869	658
653.926	-548
653.983	-563
654.039	-214
654.096	-95
654.152	581
654.209	-209
654.266	1372
654.322	441
654.379	622
654.435	764
654.492	304
654.548	808
654.605	973
654.661	499
654.717	-70
654.774	462
654.830	609
654.887	768
654.943	-378
655.000	498
655.056	608
655.112	349
655.168	-890
655.225	-116
655.281	704
655.337	538
655.394	1982
655.450	2196
655.506	915
655.562	1901
655.618	2625
655.675	-81
655.731	1391
655.787	-709
655.843	999
655.899	-168
655.955	808
656.011	1054
656.067	190
656.123	543
656.179	314
656.235	2030
656.291	636
656.347	1274
656.403	782
656.459	-249
656.515	293
656.571	625
656.627	720
656.683	175
656.739	737
656.795	246
656.850	101
656.906	421
656.962	728
657.018	-439
657.074	162
657.129	-198
657.185	831
657.241	-334
657.297	-550
657.352	324
657.408	54
657.464	1197
657.519	155
657.575	-1031
657.630	-300
657.686	90
657.742	-535
657.797	386
657.853	-821
657.908	823
657.964	-886
658.019	473
658.075	518
658.130	109
658.186	-422
658.241	-439
658.297	-643
658.352	-809
658.407	528
658.463	-945
658.518	318
658.573	28
658.629	-730
658.684	-46
658.739	577
658.795	-1112
658.850	539
658.905	-46
658.960	420
659.016	-603
659.071	-255
659.126	459
659.181	-480
659.236	1559
659.291	2245
659.346	-12
659.401	1157
659.457	540
659.512	716
659.567	2022
659.622	469
659.677	-275
659.732	-1023
659.787	335
659.842	45
659.897	857
659.952	167
660.007	-195
660.061	-23
660.116	-128
660.171	-328
660.226	-413
660.281	1293
660.336	-1356
660.391	523
660.445	-5
660.500	436
660.555	-41
660.610	-818
660.664	-200
660.719	-240
660.774	74
660.828	483
660.883	14
660.938	449
660.992	-1015
661.047	734
661.101	-333
661.156	-710
661.211	-449
661.265	20
661.320	-254
661.374	-531
661.429	-59
661.483	-291
661.538	-409
661.592	76
661.647	543
661.701	146
661.755	-443
661.810	1159
661.864	-335
661.919	-105
661.973	603
662.027	31
662.081	-585
662.136	-459
662.190	373
662.244	-272
662.299	-1039
662.353	-5
662.407	432
662.461	-53
662.515	41
662.569	-626
662.624	536
662.678	-1249
662.732	-87
662.786	-773
662.840	-155
662.894	-7
662.948	886
663.002	-474
663.056	-252
663.110	-932
663.164	-159
663.218	108
663.272	3
663.326	118
663.380	101
663.434	179
663.488	-1401
663.542	-204
663.595	-175
663.649	-500
663.703	1
663.757	-78
663.811	-1076
663.864	526
663.918	648
663.972	109
664.026	259
664.079	352
664.133	568
664.187	537
664.240	180
664.294	-166
664.348	18
664.401	-124
664.455	-906
664.508	-337
664.562	-188
664.615	4
664.669	-1494
664.722	465
664.776	-509
664.829	-131
664.883	-116
664.936	-567
664.990	-415
665.043	805
665.097	-619
665.150	759
665.203	352
665.257	60
665.310	428
665.363	1028
665.417	-119
665.470	-6
665.523	-624
665.576	380
665.630	387
665.683	203
665.736	-377
665.789	302
665.842	-388
665.895	557
665.949	984
666.002	11
666.055	424
666.108	702
666.161	-99
666.214	559
666.267	89
666.320	948
666.373	180
666.426	-329
666.479	-562
666.532	-682
666.585	386
666.638	264
666.691	-509
666.744	601
666.796	-304
666.849	161
666.902	1254
666.955	-315
667.008	-426
667.060	-124
667.113	-189
667.166	-159
667.219	328
667.271	-602
667.324	-699
667.377	999
667.430	364
667.482	669
667.535	572
667.587	764
667.640	631
667.693	-112
667.745	802
667.798	1610
667.850	480
667.903	-131
667.955	-269
668.008	214
668.060	1024
668.113	659
668.165	-458
668.218	266
668.270	473
668.322	-183
668.375	697
668.427	155
668.479	189
668.532	517
668.584	109
668.636	68
668.689	546
668.741	-400
668.793	929
668.845	984
668.898	281
668.950	547
669.002	199
669.054	673
669.106	-146
669.158	514
669.211	170
669.263	802
669.315	1435
669.367	1234
669.419	159
669.471	185
669.523	786
669.575	2206
669.627	193
669.679	1138
669.731	51
669.783	1085
669.835	816
669.886	965
669.938	1464
669.990	522
670.042	-216
670.094	1114
670.146	624
670.197	398
670.249	1958
670.301	2751
670.353	4288
670.404	6744
670.456	9604
670.508	16036
670.560	25864
670.611	43458
670.663	78361
670.715	173805
670.766	338843
670.818	157016
670.869	26864
670.921	11004
670.972	6405
671.024	4586
671.075	2866
671.127	2024
671.178	1812
671.230	1652
671.281	2005
671.333	1800
671.384	399
671.436	723
671.487	1319
671.538	1284
671.590	916
671.641	1304
671.692	1807
671.744	2464
671.795	2326
671.846	1081
671.897	880
671.949	437
672.000	202
672.051	375
672.102	1222
672.153	-112
672.204	81
672.256	-17
672.307	-399
672.358	762
672.409	448
672.460	458
672.511	-278
672.562	-204
672.613	216
672.664	319
672.715	736
672.766	251
672.817	1126
672.868	50
672.919	247
672.970	1152
673.021	1181
673.071	-307
673.122	326
673.173	325
673.224	48
673.275	582
673.326	-39
673.376	519
673.427	-186
673.478	-231
673.528	102
673.579	253
673.630	319
673.680	324
673.731	-141
673.782	-357
673.832	-235
673.883	787
673.934	-252
673.984	548
674.035	-267
674.085	-104
674.136	-74
674.186	-586
674.237	-131
674.287	622
674.338	1204
674.388	-126
674.438	191
674.489	793
674.539	-365
674.589	2
674.640	-184
674.690	631
674.740	333
674.791	454
674.841	463
674.891	530
674.942	134
674.992	6
675.042	-794
675.092	-455
675.142	-9
675.193	258
675.243	-261
675.293	275
675.343	40
675.393	-24
675.443	235
675.493	-689
675.543	-322
675.593	483
675.643	-820
675.693	335
675.743	1540
675.793	632
675.843	-252
675.893	-78
675.943	543
675.993	-5
676.043	-629
676.093	669
676.142	89
676.192	565
676.242	192
676.292	84
676.341	377
676.391	-806
676.441	-187
676.491	137
676.540	-745
676.590	123
676.640	-467
676.689	-126
676.739	-920
676.789	-393
676.838	-376
676.888	198
676.937	-482
676.987	340
677.037	368
677.086	-615
677.136	460
677.185	-28
677.235	-167
677.284	-288
677.333	146
677.383	-331
677.432	-681
677.482	-730
677.531	-338
677.580	-354
677.630	-816
677.679	-414
677.728	-991
677.778	563
677.827	-264
677.876	-126
677.925	-395
677.975	44
678.024	-104
678.073	160
678.122	-105
678.171	477
678.220	-363
678.269	-538
678.319	-53
678.368	-690
678.417	-183
678.466	672
678.515	624
678.564	-162
678.613	186
678.662	-185
678.711	-691
678.760	114
678.809	-758
678.857	-521
678.906	-643
678.955	-631
679.004	785
679.053	22
679.102	-745
679.151	-505
679.199	-746
679.248	-629
679.297	-530
679.346	-369
679.394	-271
679.443	-365
679.492	-348
679.540	-371
679.589	-641
679.638	-165
679.686	-691
679.735	-147
679.784	-454
679.832	-428
679.881	-690
679.929	-226
679.978	-1264
680.026	865
680.075	-887
680.123	-141
680.172	-323
680.220	212
680.268	-337
680.317	-510
680.365	-316
680.414	179
680.462	-835
680.510	-151
680.559	-788
680.607	126
680.655	-473
680.703	-197
680.752	-245
680.800	-716
680.848	-500
680.896	-791
680.945	-962
680.993	-410
681.041	-171
681.089	-865
681.137	-574
681.185	-43
681.233	-393
681.258	-85
681.281	199
681.329	-810
681.377	-607
681.380	-607
681.425	-753
681.473	122
681.502	-316
681.521	-642
681.569	128
681.617	139
681.624	116
681.665	-78
681.713	-185
681.745	-316
681.761	-390
681.809	-450
681.857	357
681.867	101
681.904	-815
681.952	-467
681.989	-1000
682.000	-1165
682.048	-279
682.096	268
682.111	204
682.143	35
682.191	-173
682.233	863
682.239	1005
682.286	19
682.334	-46
682.354	-271
682.382	-542
682.430	-7
682.476	240
682.477	236
682.525	-781
682.572	-665
682.598	-221
682.620	178
682.667	-186
682.715	-273
682.720	-210
682.763	264
682.810	281
682.841	-593
682.857	-1046
682.905	326
682.952	130
682.963	244
683.000	588
683.047	419
683.085	602
683.095	644
683.142	-41
683.190	19
683.206	-194
683.237	-602
683.284	147
683.328	132
683.332	127
683.379	328
683.426	289
683.449	263
683.473	204
683.521	-159
683.568	394
683.571	310
683.615	-836
683.662	670
683.693	161
683.709	-134
683.757	101
683.804	169
683.814	111
683.851	-84
683.898	373
683.936	540
683.945	563
683.992	525
684.039	474
684.057	511
684.086	601
684.133	417
684.179	-297
684.180	-328
684.227	514
684.274	457
684.300	472
684.321	490
684.368	777
684.415	797
684.422	684
684.462	-61
684.509	267
684.543	-139
684.556	-283
684.603	183
684.649	665
684.665	586
684.696	490
684.743	332
684.786	637
684.790	651
684.837	536
684.883	746
684.908	980
684.930	1171
684.977	1322
685.023	1131
685.029	1042
685.070	391
685.117	701
685.150	820
685.164	867
685.210	866
685.257	1341
685.272	1178
685.303	810
685.350	1266
685.393	791
685.396	742
685.443	643
685.490	816
685.514	818
685.536	883
685.583	917
685.629	1247
685.636	1209
685.675	873
685.722	1147
685.757	1152
685.768	1181
685.815	1418
685.861	1504
685.878	1407
685.908	1154
685.954	846
686.000	1271
686.000	1281
686.047	871
686.093	1452
686.121	1723
686.139	1737
686.185	1715
686.232	1248
686.242	1171
686.278	1047
686.324	1745
686.363	1274
686.370	1189
686.416	1270
686.463	1751
686.484	1771
686.509	1730
686.555	1260
686.601	521
686.606	573
686.647	1080
686.693	795
686.727	1088
686.739	1233
686.785	1215
686.831	1360
686.848	1361
686.877	1218
686.923	1206
686.969	1230
686.969	1231
687.015	573
687.061	1715
687.090	1578
687.107	1381
687.153	1500
687.199	1243
687.211	1183
687.245	1257
687.291	1607
687.332	1574
687.336	1559
687.382	1452
687.428	1607
687.453	1615
687.474	1583
687.520	1130
687.565	1346
687.574	1301
687.611	1273
687.657	1217
687.695	1568
687.702	1632
687.748	1706
687.794	2028
687.816	1959
687.839	1797
687.885	1596
687.931	1523
687.937	1528
687.976	1573
688.022	1333
688.058	1435
688.067	1474
688.113	1718
688.158	1188
688.179	1268
688.204	1428
688.249	1800
688.295	1626
688.300	1640
688.340	1510
688.386	1557
688.421	1139
688.431	1102
688.477	1468
688.522	1616
688.542	1839
688.567	2010
688.613	1160
688.658	1248
688.663	1312
688.703	1809
688.749	1504
688.784	1435
688.794	1427
688.839	1513
688.884	1755
688.905	1743
688.930	1692
688.975	1421
689.020	1522
689.026	1448
689.065	1082
689.110	1469
689.146	1556
689.155	1577
689.201	1482
689.246	2140
689.267	1852
689.291	1538
689.336	1955
689.381	1220
689.388	1252
689.426	1384
689.471	1740
689.509	1571
689.516	1555
689.561	1616
689.606	1709
689.630	1788
689.651	1872
689.696	1737
689.741	2176
689.750	2146
689.785	2002
689.830	1918
689.871	1781
689.875	1777
689.920	1893
689.965	1960
689.992	1766
690.010	1671
690.054	1854
690.099	2628
690.112	2530
690.144	2189
690.189	1765
690.233	2026
690.233	2031
690.278	1694
690.323	1674
690.354	1738
690.367	1823
690.412	2079
690.457	2033
690.474	2097
690.501	2136
690.546	2033
690.590	2259
690.595	2233
690.635	2280
690.680	2869
690.716	2849
690.724	2840
690.769	3526
690.813	3689
690.836	3523
690.857	3875
690.902	5604
690.946	6790
690.957	7145
690.991	9797
691.035	13926
691.077	17515
691.080	17565
691.124	17165
691.168	16401
691.198	15708
691.213	14442
691.257	11539
691.301	7777
691.318	6703
691.346	6196
691.390	4951
691.434	3648
691.439	3500
691.478	3131
691.522	3305
691.559	2531
691.567	2464
691.611	2577
691.655	2757
691.680	2846
691.699	2789
691.743	2651
691.787	2404
691.800	2318
691.831	2309
691.875	2539
691.919	2722
691.921	2714
691.964	2625
692.008	2432
692.041	2571
692.052	2608
692.096	2401
692.139	2478
692.162	2371
692.183	2399
692.227	2384
692.271	3023
692.282	3000
692.315	2793
692.359	2771
692.402	2707
692.403	2716
692.447	2777
692.490	2994
692.523	3074
692.534	3084
692.578	3073
692.622	2913
692.643	2996
692.666	2972
692.709	2673
692.753	2495
692.763	2480
692.797	2870
692.840	3104
692.884	3166
692.884	3172
692.928	3028
692.971	2987
693.004	2679
693.015	2738
693.059	3214
693.102	3593
693.124	3743
693.146	3669
693.189	3398
693.233	3476
693.245	3450
693.276	3676
693.320	4246
693.363	3898
693.365	3910
693.407	4414
693.450	4445
693.485	4436
693.493	4651
693.537	5963
693.580	6995
693.605	7691
693.624	8801
693.667	11536
693.710	14409
693.725	15314
693.753	20260
693.797	28584
693.840	37329
693.845	38176
693.883	37851
693.926	36245
693.966	35533
693.970	34800
694.013	26354
694.056	18519
694.086	12873
694.099	12129
694.142	9753
694.185	7391
694.206	6322
694.229	6037
694.272	5178
694.315	4754
694.326	4571
694.358	4497
694.401	4297
694.444	4309
694.446	4296
694.487	4186
694.530	3855
694.566	3695
694.573	3673
694.616	3328
694.659	3037
694.686	2949
694.702	3017
694.745	3189
694.787	3198
694.806	3179
694.830	3016
694.873	2772
694.916	2579
694.926	2548
694.959	2985
695.002	3343
695.044	3499
695.046	3514
695.087	3600
695.130	3370
695.166	3266
695.172	3303
695.215	3239
695.258	3200
695.286	3312
695.301	3288
695.343	3119
695.386	2947
695.406	2779
695.428	2833
695.471	3199
695.514	3343
695.526	3381
695.556	3187
695.599	3102
695.641	2758
695.646	2736
695.684	3188
695.726	3397
695.766	3807
695.769	3782
695.811	2988
695.854	2429
695.886	1995
695.896	2131
695.938	2649
695.981	2965
696.005	3273
696.023	3328
696.065	3330
696.108	3341
696.125	3350
696.150	3335
696.192	3348
696.235	3020
696.245	2992
696.277	2868
696.319	2813
696.361	2630
696.365	2601
696.404	3144
696.446	3838
696.485	4443
696.488	4430
696.530	3924
696.572	3528
696.604	3313
696.614	3359
696.656	3317
696.698	3292
696.724	3353
696.740	3346
696.783	3139
696.825	3050
696.844	3008
696.867	2967
696.909	2702
696.951	2588
696.964	2555
696.992	2711
697.034	2801
697.076	2955
697.083	2945
697.118	2910
697.160	3059
697.202	3208
697.203	3198
697.244	2994
697.286	2812
697.323	2562
697.327	2591
697.369	2930
697.411	3133
697.442	3358
697.453	3431
697.494	3551
697.536	3692
697.562	3829
697.578	3808
697.620	3675
697.661	3457
697.682	3353
697.703	3319
697.744	3267
697.786	3280
697.801	3228
697.828	3378
697.869	3644
697.911	3876
697.921	3932
697.952	3659
697.994	3271
698.035	2857
698.040	2800
698.077	3069
698.118	3366
698.160	3611
698.160	3600
698.201	3426
698.243	3102
698.279	2857
698.284	2913
698.325	3336
698.367	3781
698.399	4098
698.408	4040
698.449	3732
698.491	3422
698.518	3190
698.532	3255
698.573	3437
698.614	3601
698.638	3684
698.656	3628
698.697	3498
698.738	3321
698.757	3245
698.779	3356
698.820	3523
698.862	3710
698.877	3764
698.903	3819
698.944	3892
698.985	3963
698.996	3972
699.026	3889
699.067	3757
699.116	3589
699.235	3899
699.354	3599
699.474	3255
699.593	4450
699.713	3115
699.832	3427
699.951	3830
700.070	4355
700.190	3299
700.309	4631
700.428	3687
700.547	3543
700.667	3396
700.786	3477
700.905	3546
701.024	3513
701.143	3155
701.262	3633
701.381	2594
701.500	3219
701.619	3760
701.738	2642
701.857	2906
701.976	3349
702.095	3430
702.214	3396
702.333	2984
702.452	2843
702.571	2486
702.690	3611
702.809	2900
702.928	3202
703.047	3250
703.165	3419
703.284	2733
703.403	3281
703.522	3271
703.640	3770
703.759	3562
703.878	4600
703.997	3707
704.115	3035
704.234	2579
704.353	2701
704.471	3299
704.590	2724
704.708	2848
704.827	3391
704.946	2469
705.064	3286
705.183	2706
705.301	4086
705.420	5253
705.538	5633
705.656	4175
705.775	4866
705.893	8565
706.012	14060
706.130	4578
706.249	3744
706.367	4119
706.485	4228
706.604	3791
706.722	3392
706.840	3993
706.958	4515
707.077	3852
707.195	4432
707.313	3227
707.431	3307
707.549	3573
707.668	3935
707.786	3465
707.904	4392
708.022	2091
708.140	3666
708.258	3313
708.376	3678
708.494	2886
708.612	5020
708.730	5072
708.848	4742
708.966	4261
709.084	5655
709.202	4239
709.320	4820
709.438	3897
709.556	4105
709.674	4362
709.791	5122
709.909	3640
710.027	4870
710.145	4231
710.263	5275
710.380	4012
710.498	4284
710.616	4236
710.733	4252
710.851	3085
710.969	4912
711.086	3934
711.204	4086
711.322	4522
711.439	4491
711.557	3953
711.674	4748
711.792	4201
711.909	4178
712.027	4674
712.144	3651
712.262	4288
712.379	4190
712.497	5417
712.614	5795
712.732	5361
712.849	4258
712.966	4830
713.084	5228
713.201	4481
713.318	4959
713.436	4311
713.553	4977
713.670	5490
713.787	5226
713.905	5658
714.022	4530
714.139	4531
714.256	4275
714.373	4322
714.490	5248
714.608	6816
714.725	14775
714.842	17168
714.959	4489
715.076	4008
715.193	3746
715.310	4331
715.427	3904
715.544	3953
715.661	3936
715.778	3549
715.895	4624
716.011	3595
716.128	5057
716.245	3435
716.362	5464
716.479	4241
716.596	3633
716.713	4081
716.829	4390
716.946	3974
717.063	3834
717.180	3851
717.296	3934
717.413	3818
717.530	4288
717.646	2951
717.763	3975
717.880	3186
717.996	3695
718.113	2955
718.229	4452
718.346	2429
718.462	3382
718.579	3357
718.695	5195
718.812	5311
718.928	4080
719.045	3820
719.161	3891
719.277	3005
719.394	3668
719.510	3473
719.626	3710
719.743	3955
719.859	3347
719.975	4358
720.092	5352
720.208	9891
720.324	4538
720.440	3708
720.557	2975
720.673	4182
720.789	6235
720.905	12880
721.021	6268
721.137	3089
721.253	3035
721.369	2903
721.486	3652
721.602	4221
721.718	3509
721.834	2455
721.950	2805
722.066	2436
722.181	2458
722.297	2817
722.413	2837
722.529	3026
722.645	3356
722.761	2734
722.877	2897
722.993	2536
723.108	1983
723.224	2396
723.340	3254
723.456	3455
723.571	3039
723.687	2226
723.803	2780
723.918	2285
724.034	3082
724.150	2592
724.265	2703
724.381	5027
724.497	7229
724.612	2309
724.728	2886
724.843	2662
724.959	3242
725.074	4124
725.190	6026
725.305	2437
725.421	2230
725.536	1678
725.651	2798
725.767	2269
725.882	2049
725.997	642
726.113	2374
726.228	1926
726.343	2042
726.459	1810
726.574	2215
726.689	1196
726.804	2217
726.920	1977
727.035	2346
727.150	2264
727.265	1948
727.380	1969
727.495	2558
727.610	1754
727.725	1985
727.841	2381
727.956	6025
728.071	5586
728.186	2996
728.301	1023
728.416	2158
728.531	2164
728.645	2212
728.760	1421
728.875	2353
728.990	1732
729.105	2062
729.220	1412
729.335	2918
729.449	2066
729.564	2207
729.679	939
729.794	2420
729.908	1987
730.023	2481
730.138	1120
730.253	2263
730.367	1361
730.482	1580
730.596	1651
730.711	2666
730.826	1510
730.940	2227
731.055	1946
731.169	2244
731.284	901
731.398	2310
731.513	1196
731.627	1254
731.742	1725
731.856	2041
731.970	1566
732.085	2710
732.199	1207
732.313	1653
732.428	2550
732.542	4499
732.656	3422
732.771	1679
732.885	1732
732.999	1675
733.113	1518
733.227	1764
733.342	2040
733.456	1425
733.570	1106
733.684	2507
733.798	1390
733.912	2193
734.026	1408
734.140	1318
734.254	1869
734.368	2738
734.482	3546
734.596	1446
734.710	1824
734.824	2222
734.938	1146
735.052	2081
735.166	2265
735.280	1602
735.393	755
735.507	1696
735.621	2251
735.735	2825
735.849	2589
735.962	1830
736.076	1788
736.190	2150
736.303	2195
736.417	3374
736.531	1505
736.644	2365
736.758	540
736.872	1519
736.985	1232
737.099	1756
737.212	952
737.326	1813
737.439	946
737.553	1830
737.666	1437
737.780	1191
737.893	1312
738.007	1752
738.120	171
738.233	1209
738.347	1129
738.460	1348
738.573	2275
738.687	1500
738.800	1041
738.913	2403
739.026	1371
739.140	1789
739.253	928
739.366	2007
739.479	1119
739.592	1827
739.705	979
739.818	1686
739.932	930
740.045	835
740.158	894
740.271	1816
740.384	1922
740.497	1782
740.610	1534
740.723	1304
740.836	1391
740.949	2220
741.062	2582
741.174	2128
741.287	1347
741.400	793
741.513	1671
741.626	2555
741.739	1059
741.851	1585
741.964	1146
742.077	558
742.189	448
742.302	2112
742.415	983
742.527	1097
742.640	1486
742.753	2169
742.865	1015
742.978	1521
743.090	1474
743.203	673
743.316	1603
743.428	1617
743.541	502
743.653	1536
743.766	129
743.878	1276
743.990	1199
744.103	2603
744.215	2260
744.327	1417
744.440	1625
744.552	2672
744.664	85
744.777	1503
744.889	825
745.001	1440
745.113	744
745.226	965
745.338	1738
745.450	430
745.562	807
745.674	1571
745.786	794
745.898	826
746.010	609
746.122	1224
746.234	918
746.347	1507
746.459	1535
746.570	1743
746.682	2298
746.794	2937
746.906	1548
747.018	1925
747.130	1220
747.242	1547
747.354	163
747.466	1892
747.577	1137
747.689	1417
747.801	1294
747.913	389
748.024	448
748.136	1068
748.248	678
748.359	2352
748.471	1410
748.583	1269
748.694	942
748.806	1675
748.918	875
749.029	1234
749.141	1345
749.252	1043
749.364	471
749.475	1954
749.587	1783
749.698	1484
749.809	1060
749.921	1313
750.032	1172
750.144	1005
750.255	496
750.366	415
750.478	839
750.589	1747
750.700	1015
750.811	983
750.923	1188
751.034	2260
751.145	2738
751.256	1430
751.367	678
751.479	1615
751.590	-448
751.701	1213
751.812	647
751.923	1278
752.034	604
752.145	1432
752.256	436
752.367	1385
752.478	604
752.589	954
752.700	-105
752.811	1324
752.922	530
753.032	1178
753.143	306
753.254	449
753.365	1269
753.476	1356
753.586	55
753.697	861
753.808	520
753.919	1086
754.029	792
754.140	1376
754.251	580
754.361	937
754.472	499
754.582	298
754.693	1542
754.804	882
754.914	804
755.025	685
755.135	54
755.246	2063
755.356	328
755.466	1650
755.577	420
755.687	1204
755.798	761
755.908	849
756.018	766
756.129	2063
756.239	1392
756.349	2204
756.460	407
756.570	1235
756.680	1332
756.790	1452
756.900	1391
757.011	1407
757.121	1301
757.231	616
757.341	920
757.451	900
757.561	780
757.671	1592
757.781	723
757.891	1307
758.001	1049
758.111	2037
758.221	561
758.331	1592
758.441	1388
758.551	1477
758.661	1113
758.771	1167
758.880	1242
758.990	2004
759.100	1362
759.210	1966
759.320	1604
759.429	1764
759.539	1071
759.649	2002
759.758	1897
759.868	1342
759.978	1168
760.087	2085
760.197	1637
760.307	2846
760.416	675
760.526	1319
760.635	1600
760.745	2068
760.854	1921
760.964	1851
761.073	2975
761.182	2708
761.292	2689
761.401	3058
761.511	1779
761.620	2415
761.729	1836
761.839	2351
761.948	2041
762.057	2935
762.166	2997
762.276	2972
762.385	4130
762.494	3455
762.603	3401
762.712	2783
762.822	2814
762.931	4049
763.040	3514
763.149	3762
763.258	3962
763.367	4006
763.476	4489
763.585	4738
763.694	4934
763.803	5182
763.912	6359
764.021	5141
764.130	6252
764.238	6177
764.347	6770
764.456	6798
764.565	8100
764.674	8900
764.783	8619
764.891	10003
765.000	12357
765.109	13416
765.217	15233
765.326	18375
765.435	22467
765.543	26979
765.652	32479
765.761	44049
765.869	59287
765.978	87739
766.086	134590
766.195	223616
766.303	376443
766.412	481148
766.520	453110
766.629	338681
766.737	190569
766.846	118039
766.954	79381
767.062	58451
767.171	43415
767.279	33890
767.387	26277
767.496	23462
767.604	19174
767.712	17145
767.820	14737
767.928	13913
768.037	12652
768.145	12119
768.253	12132
768.361	10995
768.469	10923
768.577	10904
768.685	12260
768.793	13201
768.901	14594
769.009	16089
769.117	18345
769.225	24706
769.333	35638
769.441	55699
769.549	92840
769.657	179992
769.765	347050
769.873	421080
769.981	315874
770.088	151739
770.196	81191
770.304	53008
770.412	36699
770.519	27983
770.627	21657
770.735	16890
770.842	14770
770.950	12467
771.058	9913
771.165	10333
771.273	9206
771.380	8768
771.488	6808
771.595	6489
771.703	5209
771.810	5619
771.918	5472
772.025	5367
772.133	3989
772.240	4169
772.348	5014
772.455	4322
772.562	3467
772.670	3863
772.777	2934
772.884	2745
772.991	2639
773.099	3532
773.206	2229
773.313	2927
773.420	2909
773.528	2672
773.635	2389
773.742	2794
773.849	1793
773.956	2146
774.063	2045
774.170	2106
774.277	2631
774.384	1927
774.491	2288
774.598	2126
774.705	2411
774.812	2058
774.919	1862
775.026	1916
775.133	1582
775.239	2045
775.346	1870
775.453	2333
775.560	934
775.667	1757
775.773	1001
775.880	2576
775.987	1592
776.093	2066
776.200	397
776.307	2762
776.413	1185
776.520	1190
776.627	725
776.733	1485
776.840	874
776.946	3486
777.053	3030
777.159	4447
777.266	2400
777.372	5018
777.478	3504
777.585	2354
777.691	1382
777.798	1700
777.904	709
778.010	2348
778.117	1684
778.223	657
778.329	885
778.435	1196
778.542	877
778.648	871
778.754	431
778.860	834
778.966	451
779.072	381
779.178	208
779.284	952
779.391	829
779.497	1614
779.603	2418
779.708	2631
779.815	9507
779.920	33499
780.026	59554
780.132	10355
780.238	1719
780.344	1535
780.450	1990
780.556	1019
780.661	69
780.767	671
780.873	22
780.979	1487
781.085	-73
781.190	1196
781.296	210
781.402	415
781.507	246
781.613	778
781.719	-436
781.824	957
781.930	986
782.035	-313
782.141	693
782.246	442
782.352	-435
782.457	391
782.563	408
782.668	-200
782.773	275
782.879	499
782.984	-90
783.090	706
783.195	829
783.300	629
783.405	132
783.511	501
783.616	-143
783.721	1515
783.826	460
783.932	1115
784.037	255
784.142	-16
784.247	-304
784.352	610
784.457	66
784.562	293
784.667	276
784.772	775
784.877	-632
784.982	1304
785.087	608
785.192	912
785.297	-44
785.402	614
785.507	-50
785.611	866
785.716	16
785.821	601
785.926	-1126
786.031	374
786.135	-749
786.240	679
786.345	-440
786.450	407
786.554	-349
786.659	-130
786.763	-1290
786.868	192
786.973	366
787.077	276
787.182	-503
787.286	515
787.391	25
787.495	715
787.600	138
787.704	-25
787.809	744
787.913	155
788.017	882
788.122	-54
788.226	276
788.330	-851
788.435	-230
788.539	398
788.643	188
788.747	261
788.852	484
788.956	171
789.060	453
789.164	666
789.268	204
789.372	875
789.476	15
789.580	286
789.684	-165
789.788	525
789.892	-125
789.996	1175
790.100	-481
790.204	-232
790.308	-397
790.412	-303
790.516	27
790.620	422
790.724	-262
790.828	565
790.931	-147
791.035	732
791.139	-224
791.242	-720
791.346	184
791.450	-19
791.554	-467
791.657	-167
791.761	-97
791.864	275
791.968	544
792.072	405
792.175	157
792.279	-609
792.382	786
792.486	278
792.589	-584
792.693	-453
792.796	-961
792.899	418
793.003	-301
793.106	-521
793.209	-43
793.313	1253
793.416	-1465
793.519	1064
793.623	410
793.726	902
793.829	-89
793.932	-616
794.035	-962
794.138	697
794.242	329
794.345	225
794.448	1624
794.551	3578
794.654	16935
794.757	32022
794.860	5725
794.963	528
795.066	-507
795.169	639
795.272	-488
795.375	521
795.477	-695
795.580	1107
795.683	-1248
795.786	384
795.889	-1205
795.991	1294
796.094	417
796.197	-1581
796.300	702
796.402	97
796.505	-315
796.608	108
796.710	-199
796.813	386
796.915	-440
797.018	993
797.120	-707
797.223	-692
797.326	171
797.428	-175
797.530	-1596
797.633	331
797.735	568
797.838	-260
797.940	847
798.042	-76
798.145	-332
798.247	195
798.349	-917
798.452	451
798.554	-904
798.656	-579
798.758	0
798.860	-643
798.962	-656
799.065	-208
799.167	-448
799.269	505
799.371	-315
799.473	-325
799.575	-498
799.677	577
799.779	-36
799.881	-429
799.983	1
800.085	-251
800.187	-550
800.289	-393
800.390	-1418
800.492	165
800.594	701
800.696	-82
800.798	-137
800.899	-261
801.001	-277
801.103	-148
801.205	85
801.306	281
801.408	-1673
801.509	-142
801.611	-539
801.713	-12
801.814	-909
801.916	-293
802.017	-619
802.119	-314
802.220	-250
802.322	-2104
802.423	239
802.525	-511
802.626	-689
802.727	-496
802.829	140
802.930	-1213
803.031	74
803.133	-1049
803.234	-267
803.335	-180
803.436	-1368
803.538	-217
803.639	-1753
803.740	-258
803.841	-778
803.942	-214
804.043	-247
804.144	-789
804.245	-367
804.346	-1208
804.447	-961
804.548	-234
804.649	-347
804.750	-496
804.851	-1543
804.952	-472
805.053	-765
805.154	-1209
805.255	34
805.355	-714
805.456	-526
805.557	-445
805.658	-1459
805.758	213
805.859	-815
805.960	-963
806.061	-1239
806.161	-1114
806.262	-469
806.362	-276
806.463	63
806.564	842
806.664	-348
806.765	-592
806.865	-257
806.966	-294
807.066	-1383
807.166	210
807.267	-605
807.367	-857
807.468	-702
807.568	-1636
807.668	675
807.769	-102
807.869	-717
807.969	212
808.069	-368
808.170	-703
808.270	-1100
808.370	-698
808.470	-436
808.570	-1916
808.670	-169
808.770	-414
808.870	-742
808.970	600
809.070	-1061
809.170	-357
809.271	-1191
809.370	-444
809.470	-713
809.570	-753
809.670	-1422
809.770	-560
809.870	-172
809.970	305
810.070	-1221
810.169	-320
810.269	-2194
810.369	723
810.469	-1034
810.568	67
810.668	-925
810.768	-403
810.867	-1089
810.967	-1267
811.066	-398
811.166	2
811.265	-449
811.365	-856
811.464	-381
811.564	-420
811.663	-1488
811.763	-1489
811.862	-464
811.962	-194
812.061	-419
812.160	-1586
812.260	-437
812.359	-1053
812.458	-311
812.557	1159
812.657	1184
812.756	1242
812.855	-470
812.954	-1014
813.053	-584
813.153	-1081
813.252	-961
813.351	-296
813.450	-820
813.549	-197
813.648	-13
813.747	-150
813.846	-368
813.945	-1483
814.044	-860
814.143	465
814.242	-1478
814.341	-739
814.439	105
814.538	-557
814.637	-1275
814.736	-929
814.835	-177
814.933	-1394
815.032	-773
815.131	115
815.229	-1028
815.328	708
815.427	-931
815.525	723
815.624	-573
815.722	-23
815.821	151
815.919	-307
816.018	-1311
816.116	-11
816.215	40
816.313	780
816.412	-695
816.510	166
816.609	632
816.707	254
816.805	40
816.904	321
817.002	426
817.100	1176
817.198	710
817.296	1405
817.395	514
817.493	2582
817.591	2782
817.689	3906
817.787	4961
817.885	10881
817.983	18846
818.081	39469
818.179	91250
818.277	210523
818.375	200031
818.473	66584
818.571	26164
818.669	15671
818.767	13216
818.865	13274
818.963	14556
819.061	21468
819.158	36104
819.256	75611
819.354	161959
819.452	315798
819.549	237464
819.647	85727
819.745	35277
819.842	20113
819.940	13529
820.038	9532
820.135	7114
820.233	6121
820.330	3893
820.428	3030
820.525	2672
820.623	2419
820.720	1293
820.818	2363
820.915	932
821.012	1123
821.110	397
821.207	1519
821.304	106
821.402	184
821.499	1287
821.596	1367
821.693	247
821.791	975
821.888	-481
821.985	2078
822.082	-112
822.179	364
822.276	215
822.373	815
822.470	-1095
822.567	3
822.664	-771
822.761	1033
822.858	-563
822.955	380
823.052	-973
823.149	-759
823.246	-1082
823.343	-464
823.440	399
823.536	-220
823.633	-856
823.730	52
823.827	-489
823.923	-447
824.020	612
824.117	-460
824.213	-1325
824.310	552
824.407	-1077
824.503	208
824.600	-561
824.696	-693
824.793	26
824.889	-1017
824.986	-990
825.082	-842
825.179	-860
825.275	-801
825.371	-1656
825.468	142
825.564	-1540
825.660	-435
825.757	-566
825.853	-318
825.949	-1001
826.045	-396
826.142	-1508
826.238	-200
826.334	-636
826.430	-1473
826.526	-445
826.622	-1216
826.718	-743
826.814	-849
826.910	-174
827.006	-319
827.102	-1023
827.198	-353
827.294	-1669
827.390	-194
827.486	-150
827.582	-1643
827.678	-1637
827.774	558
827.869	-1814
827.965	265
828.061	-2200
828.157	-1237
828.252	-638
828.348	-464
828.444	-438
828.539	-1458
828.635	-1821
828.731	-343
828.826	-1484
828.922	-33
829.017	-1152
829.113	-471
829.208	-1334
829.304	-1164
829.399	-592
829.495	-714
829.590	-99
829.685	-1505
829.781	-733
829.876	-751
829.971	-1325
830.066	-1669
830.162	-832
830.257	-1546
830.352	-1607
830.447	69
830.543	-939
830.638	-1681
830.733	-1241
830.828	-780
830.923	-362
831.018	-619
831.113	-787
831.208	-1370
831.303	-2191
831.398	-513
831.493	-1721
831.588	-661
831.683	-1559
831.778	-490
831.873	-1901
831.967	-97
832.062	-2164
832.157	-2119
832.252	-135
832.346	-1234
832.441	-438
832.536	-260
832.631	165
832.725	-99
832.820	-1730
832.914	-800
833.009	-1511
833.104	-963
833.198	-903
833.293	-1351
833.387	-768
833.482	-471
833.576	-1107
833.670	-163
833.765	-646
833.859	-1032
833.954	-922
834.048	-771
834.142	-1494
834.237	-799
834.331	-880
834.425	-415
834.519	-1863
834.613	-260
834.708	-777
834.802	-1072
834.896	-1682
834.990	-982
835.084	-1120
835.178	-922
835.272	-1073
835.366	-1577
835.460	-1113
835.554	-859
835.648	-748
835.742	-1426
835.836	-991
835.930	-2036
836.024	-901
836.117	-1008
836.211	-1680
836.305	-994
836.399	-515
836.493	-1442
836.586	-854
836.680	-1755
836.774	-1712
836.867	144
836.961	-1812
837.055	-1502
837.148	-1884
837.242	-575
837.335	-1461
837.429	-938
837.522	-1725
837.616	-307
837.709	129
837.803	-450
837.896	-1218
837.989	-1293
838.083	-953
838.176	-250
838.269	-638
838.363	-860
838.456	-1833
838.549	-941
838.642	-996
838.735	577
838.829	-586
838.922	-1627
839.015	-2129
839.108	-409
839.201	-1466
839.294	-736
839.387	-849
839.480	-1389
839.573	200
839.666	-191
839.759	-905
839.852	-1066
839.945	-1127
840.038	-823
840.131	-1563
840.223	-1521
840.316	-927
840.409	-1204
840.502	-2029
840.594	-246
840.687	-1676
840.780	-201
840.873	-1357
840.965	-404
841.058	-424
841.150	380
841.243	-1321
841.336	-628
841.428	-960
841.521	-662
841.613	-1430
841.706	-685
841.798	-1528
841.890	-331
841.983	-1358
842.075	-383
842.167	-873
842.260	-1485
842.352	-484
842.444	-308
842.537	-114
842.629	1328
842.721	-856
842.813	-605
842.905	-1313
842.997	-721
843.090	-1433
843.182	-1162
843.274	-951
843.366	1989
843.458	3736
843.550	3416
843.642	-698
843.734	-204
843.826	-960
843.918	-614
844.009	-851
844.101	-1582
844.193	-2092
844.285	-568
844.377	-1085
844.469	-516
844.560	-685
844.652	-709
844.744	-566
844.835	-1588
844.927	-1667
845.019	-830
845.110	-396
845.202	-746
845.293	-1480
845.385	-1469
845.476	-940
845.568	-264
845.659	-1387
845.751	-693
845.842	-1222
845.934	-1321
846.025	-1225
846.116	-315
846.208	-904
846.299	-1310
846.390	-1879
846.482	-1313
846.573	-1477
846.664	-483
846.755	-1278
846.846	20
846.937	-1970
847.029	-1203
847.120	-1712
847.211	-1846
847.302	-992
847.393	-1602
847.484	-784
847.575	-273
847.666	-1542
847.757	-1122
847.847	-1358
847.938	-897
848.029	-1658
848.120	-1238
848.211	-1503
848.302	-1474
848.392	-1910
848.483	-884
848.574	-1741
848.664	-1427
848.755	-1199
848.846	-756
848.936	-2091
849.027	-914
849.118	-1334
849.208	-2271
849.299	-1357
849.389	-1321
849.480	-1100
849.570	-150
849.661	-748
849.751	-649
849.841	-1217
849.932	-1384
850.022	-2058
850.112	-311
850.203	-2066
850.293	-895
850.383	-1590
850.474	-1644
850.564	-1701
850.654	-1450
850.744	-1445
850.834	-1096
850.924	-1218
851.014	-496
851.104	-1366
851.194	-1465
851.284	-1315
851.374	-590
851.464	-1341
851.554	-1290
851.644	-1563
851.734	-324
851.824	-899
851.914	-611
852.004	1045
852.094	-163
852.183	-864
852.273	-1488
852.363	-1843
852.452	-945
852.542	-1996
852.632	-1303
852.721	-2015
852.811	-1378
852.901	-1184
852.990	-1144
853.080	-1010
853.169	-1394
853.259	-1665
853.348	-1897
853.438	-2398
853.527	-356
853.617	-1931
853.706	-524
853.795	-1023
853.885	311
853.974	207
854.063	2851
854.152	5749
854.242	2064
854.331	-952
854.420	-1442
854.509	-1896
854.598	-715
854.687	-1454
854.777	-1165
854.866	-1645
854.955	-898
855.044	-1594
855.133	-1347
855.222	-1361
855.311	-1912
855.400	-1404
855.488	-1776
855.577	-1654
855.666	-955
855.755	-1181
855.844	-803
855.933	-1467
856.021	-1175
856.110	-1570
856.199	-2086
856.288	-2129
856.376	-772
856.465	-910
856.554	-706
856.642	-1298
856.731	-1408
856.819	-1308
856.908	-1935
856.996	-871
857.085	-1575
857.173	-1073
857.262	-1089
857.350	-1387
857.438	-1694
857.527	-1418
857.615	-1712
857.703	-2201
857.792	-1638
857.880	-1928
857.968	-1537
858.056	-2259
858.145	-984
858.233	-1416
858.321	-1193
858.409	-1390
858.497	-1316
858.585	-2266
858.673	-555
858.761	-1266
858.849	-1166
858.937	-1141
859.025	-784
859.113	-1242
859.201	-1169
859.289	-1236
859.377	-2472
859.465	-2117
859.552	-1502
859.640	-1643
859.728	-1059
859.816	-1632
859.903	-459
859.991	-1257
860.079	-1415
860.166	-1757
860.254	-873
860.342	-1630
860.429	-1821
860.517	-1809
860.604	-956
860.692	-1830
860.779	-705
860.867	-2008
860.954	-899
861.042	-884
861.129	-1437
861.216	-1530
861.304	-1867
861.391	-1234
861.478	-1607
861.565	-993
861.653	-583
861.740	-2068
861.827	-945
861.914	-2334
862.001	-1514
862.089	-1378
862.176	-1789
862.263	-1385
862.350	-1531
862.437	-1512
862.524	-1447
862.611	-1981
862.698	-1633
862.785	-892
862.871	-1176
862.958	-1905
863.045	-1074
863.132	-1377
863.219	-812
863.306	-1937
863.392	-1010
863.479	-1224
863.566	-718
863.652	-643
863.739	-1201
863.826	-1271
863.912	-1377
863.999	-1705
864.086	-1296
864.172	-1813
864.259	-1210
864.345	-1437
864.432	-1061
864.518	-1590
864.604	-1472
864.691	-1885
864.777	-860
864.863	-1446
864.950	-939
865.036	-1853
865.122	-662
865.209	-1815
865.295	-1164
865.381	-1392
865.467	-1606
865.553	-1143
865.639	-2314
865.726	-1679
865.812	-621
865.898	-694
865.984	20
866.070	1054
866.156	2556
866.242	-1689
866.328	-745
866.414	-1570
866.499	-768
866.585	-1780
866.671	-671
866.757	-1602
866.843	-1017
866.928	-1545
867.014	-559
867.100	-1634
867.186	-1062
867.271	-1630
867.357	-1400
867.442	-1053
867.528	-1673
867.614	-1215
867.699	-1093
867.785	-800
867.870	-358
867.956	-961
868.041	-705
868.127	-1051
868.212	-1222
868.297	-1876
868.383	-1428
868.468	-1451
868.553	-1336
868.639	-1540
868.724	284
868.809	10
868.894	-878
868.979	-1997
869.065	-512
869.150	-2131
869.235	-885
869.320	-1825
869.405	-1456
869.490	-1369
869.575	-1689
869.660	-1731
869.745	-954
869.830	-2762
869.915	-702
870.000	-1513
870.085	-1504
870.169	-1647
870.254	-524
870.339	-2363
870.424	-1767
870.509	-1334
870.593	-1188
870.678	-1378
870.763	-1653
870.847	-1305
870.932	-1399
871.016	-2173
871.101	-727
871.186	-1189
871.270	-1368
871.355	-2382
871.439	-2471
871.523	-2309
871.608	-1362
871.692	-1671
871.777	-1124
871.861	-2013
871.945	-2269
872.030	-1675
872.114	-1072
872.198	-1319
872.282	-1699
872.367	-1312
872.451	-1492
872.535	-1721
872.619	-1026
872.703	-1909
872.787	-1366
872.871	-1614
872.955	-1465
873.039	-1940
873.123	-1598
873.207	-1745
873.291	-1089
873.375	-1923
873.459	-795
873.543	-1484
873.627	-2010
873.711	-1565
873.794	-1317
873.878	-1839
873.962	-1258
874.045	-1722
874.129	-1733
874.137	-1759
874.213	-2016
874.245	-1802
874.296	-1462
874.352	-1946
874.380	-2182
874.460	-1208
874.464	-1170
874.547	-1793
874.568	-1807
874.631	-1851
874.676	-2102
874.714	-2327
874.784	-1688
874.798	-1552
874.881	-1044
874.892	-1061
874.965	-1273
874.999	-1386
875.048	-1496
875.107	-1285
875.131	-1209
875.215	-1448
875.215	-1447
875.298	-1058
875.323	-1199
875.381	-1499
875.430	-1271
875.465	-1113
875.538	-1343
875.548	-1388
875.631	-1748
875.646	-1715
875.714	-1508
875.753	-1353
875.798	-1168
875.861	-1350
875.881	-1406
875.964	-1666
875.968	-1671
876.047	-1692
876.076	-1484
876.130	-1131
876.183	-1313
876.213	-1433
876.291	-819
876.296	-773
876.379	-1797
876.398	-1610
876.462	-1070
876.506	-1429
876.545	-1616
876.613	-1319
876.628	-1320
876.711	-1500
876.721	-1402
876.794	-382
876.828	-655
876.877	-1144
876.935	-1242
876.960	-1224
877.043	-727
877.043	-725
877.125	-379
877.150	-518
877.208	-607
877.258	-664
877.291	-778
877.365	-1519
877.374	-1598
877.456	-772
877.472	-738
877.539	-642
877.579	-736
877.622	-878
877.687	-1242
877.704	-1293
877.787	-998
877.794	-1006
877.869	-1182
877.901	-1008
877.952	-682
878.008	-726
878.034	-758
878.115	-173
878.117	-162
878.199	-603
878.222	-682
878.282	-742
878.329	-501
878.364	-403
878.437	-428
878.447	-402
878.529	-1334
878.544	-1104
878.611	-316
878.651	-590
878.694	-611
878.758	-232
878.776	-209
878.858	-1204
878.865	-1161
878.941	-275
878.972	-368
879.023	-944
879.078	-907
879.105	-683
879.185	-570
879.187	-571
879.269	-1029
879.292	-1112
879.351	-1094
879.399	-831
879.433	-819
879.506	-724
879.516	-650
879.598	-18
879.613	-31
879.680	-373
879.720	-261
879.762	67
879.827	-149
879.844	-309
879.926	-157
879.933	-220
880.007	-440
880.040	-339
880.089	-367
880.147	-345
880.171	-180
880.253	330
880.254	327
880.335	199
880.360	364
880.417	1056
880.467	1495
880.499	1855
880.574	2978
880.580	2972
880.662	1087
880.680	985
880.744	650
880.787	-36
880.825	-315
880.893	-338
880.907	-389
880.989	-405
881.000	-449
881.070	13
881.106	166
881.152	37
881.213	-123
881.233	-146
881.315	-230
881.319	-220
881.396	59
881.426	-210
881.478	-561
881.532	179
881.559	497
881.639	218
881.641	221
881.722	505
881.745	490
881.803	256
881.852	220
881.885	158
881.958	-102
881.966	-88
882.047	421
882.064	311
882.129	-302
882.171	-113
882.210	293
882.277	809
882.291	901
882.372	852
882.383	845
882.454	440
882.489	260
882.535	107
882.596	41
882.616	-2
882.697	-457
882.702	-463
882.778	455
882.808	757
882.859	573
882.914	-106
882.940	-105
883.020	767
883.021	775
883.102	-6
883.127	71
883.183	471
883.233	261
883.264	155
883.339	288
883.345	298
883.426	-19
883.445	53
883.507	441
883.551	263
883.587	152
883.657	472
883.668	523
883.749	560
883.763	575
883.830	633
883.869	546
883.910	432
883.975	478
883.991	517
884.072	527
884.081	493
884.152	-117
884.187	-195
884.233	337
884.292	864
884.314	819
884.394	390
884.398	370
884.475	472
884.504	464
884.555	470
884.610	449
884.636	439
884.716	664
884.716	675
884.797	863
884.821	876
884.877	761
884.927	688
884.958	574
885.033	146
885.038	170
885.118	594
885.139	656
885.199	429
885.244	231
885.279	507
885.350	1107
885.359	1054
885.439	912
885.456	727
885.520	557
885.561	781
885.600	858
885.667	546
885.680	554
885.760	843
885.773	867
885.840	873
885.878	787
885.920	1060
885.984	1565
886.000	1441
886.080	913
886.089	826
886.160	1161
886.195	1339
886.240	1188
886.300	787
886.320	907
886.400	1925
886.406	1937
886.480	679
886.511	342
886.560	1095
886.616	1750
886.640	1596
886.720	1273
886.722	1249
886.800	1019
886.827	982
886.879	979
886.932	907
886.959	1111
887.038	1721
887.039	1730
887.119	1399
887.143	1329
887.198	1148
887.248	979
887.278	945
887.354	826
887.358	872
887.437	1469
887.459	1661
887.517	1448
887.564	1200
887.596	1337
887.669	1748
887.676	1737
887.755	1341
887.774	1241
887.835	1831
887.880	2285
887.914	2018
887.985	1451
887.994	1485
888.073	1590
888.090	1600
888.153	1419
888.195	1315
888.232	1496
888.300	1813
888.311	1823
888.391	1718
888.405	1715
888.470	1803
888.510	1715
888.549	1696
888.615	1893
888.628	1901
888.708	1674
888.720	1645
888.787	1786
888.825	1765
888.866	1560
888.930	1377
888.945	1471
889.024	1816
889.035	1859
889.103	1924
889.140	1924
889.182	1855
889.245	1728
889.261	1849
889.340	2403
889.349	2455
889.419	2531
889.454	2531
889.498	2216
889.559	1787
889.577	1829
889.656	1953
889.664	1956
889.735	2428
889.768	2635
889.814	2149
889.873	1484
889.978	3373
890.083	1928
890.187	2104
890.292	2567
890.397	1726
890.501	2445
890.606	1806
890.710	2291
890.815	2565
890.919	1938
891.024	2347
891.128	2452
891.233	1892
891.337	1500
891.442	2121
891.546	2640
891.650	2447
891.755	2124
891.859	3103
891.963	1575
892.068	2608
892.172	1649
892.276	2350
892.380	1554
892.484	1881
892.589	1251
892.693	1335
892.797	1446
892.901	2630
893.005	1122
893.109	2071
893.213	1561
893.317	1971
893.421	1564
893.525	2451
893.629	1530
893.733	1944
893.837	1985
893.941	2912
894.045	3350
894.148	3392
894.252	8497
894.356	5003
894.460	1993
894.564	2322
894.667	1545
894.771	2053
894.875	1336
894.978	1380
895.082	1862
895.186	1880
895.289	1822
895.393	2602
895.496	2118
895.600	1414
895.703	1720
895.807	2341
895.910	1406
896.014	2075
896.117	979
896.221	2301
896.324	1379
896.427	1536
896.531	2002
896.634	1670
896.737	1446
896.840	1934
896.944	1849
897.047	1267
897.150	541
897.253	1728
897.356	2266
897.460	1913
897.563	1719
897.666	1403
897.769	1239
897.872	1345
897.975	1435
898.078	1484
898.181	1177
898.284	1772
898.387	855
898.490	2146
898.593	1619
898.695	1536
898.798	944
898.901	2276
899.004	2127
899.107	1825
899.209	1420
899.312	1710
899.415	1614
899.518	2182
899.620	1002
899.723	923
899.826	2328
899.928	4066
900.031	1393
900.133	1937
900.236	1975
900.338	2028
900.441	1137
900.543	1710
900.646	1200
900.748	1068
900.851	936
900.953	1960
901.055	1235
901.158	2150
901.260	896
901.362	2190
901.465	1963
901.567	1590
901.669	2326
901.771	2183
901.873	1497
901.976	1296
902.078	743
902.180	1953
902.282	1767
902.384	1386
902.486	1170
902.588	1818
902.690	1833
902.792	1500
902.894	2169
902.996	1468
903.098	1437
903.200	1257
903.302	1698
903.404	2125
903.505	1437
903.607	1970
903.709	1374
903.811	1415
903.913	1339
904.014	1961
904.116	1460
904.218	2231
904.319	1619
904.421	1639
904.523	1456
904.624	2464
904.726	950
904.827	2314
904.929	1044
905.030	1585
905.132	1562
905.233	1762
905.335	1692
905.436	1431
905.537	1181
905.639	2805
905.740	1445
905.841	1255
905.943	1908
906.044	2919
906.145	1396
906.247	1192
906.348	630
906.449	1593
906.550	859
906.651	2066
906.752	1556
906.854	1354
906.955	1548
907.056	1717
907.157	1551
907.258	2080
907.359	1117
907.460	1699
907.561	1624
907.662	1998
907.762	1144
907.863	2082
907.964	565
908.065	1741
908.166	1404
908.267	1739
908.367	1242
908.468	1465
908.569	1142
908.670	1892
908.770	1942
908.871	2479
908.971	2126
909.072	2244
909.173	1599
909.273	1308
909.374	1340
909.474	1433
909.575	1699
909.675	1805
909.776	1531
909.876	1184
909.977	1916
910.077	2345
910.177	1962
910.278	2134
910.378	1401
910.478	1361
910.579	1740
910.679	1842
910.779	1662
910.879	1351
910.980	470
911.080	1370
911.180	1219
911.280	1615
911.380	991
911.480	1307
911.580	749
911.680	1937
911.780	872
911.880	1632
911.980	1481
912.080	1584
912.180	1532
912.280	1835
912.380	1265
912.480	1571
912.580	1319
912.679	2136
912.779	2285
912.879	734
912.979	1328
913.078	1294
913.178	1285
913.278	2421
913.377	553
913.477	792
913.577	564
913.676	1987
913.776	1095
913.875	1859
913.975	1612
914.074	2094
914.174	1547
914.273	1725
914.373	2061
914.472	1553
914.572	1452
914.671	1160
914.770	1089
914.870	2124
914.969	691
915.068	1486
915.167	955
915.267	1682
915.366	858
915.465	1380
915.564	1170
915.663	1602
915.763	536
915.862	1335
915.961	1740
916.060	1334
916.159	-256
916.258	1846
916.357	271
916.456	1442
916.555	734
916.654	2105
916.752	1730
916.851	1944
916.950	1605
917.049	945
917.148	58
917.247	1520
917.345	1022
917.444	2214
917.543	1387
917.642	1412
917.740	1237
917.839	1739
917.937	1275
918.036	1298
918.135	145
918.233	2309
918.332	1358
918.430	1815
918.529	338
918.627	1229
918.726	1231
918.824	1641
918.923	225
919.021	1441
919.119	1261
919.218	1132
919.316	1503
919.414	1602
919.512	1076
919.611	1743
919.709	1232
919.807	1359
919.905	1452
920.003	2161
920.102	1168
920.200	1348
920.298	495
920.396	1507
920.494	1583
920.592	577
920.690	-2
920.788	850
920.886	969
920.984	2508
921.082	865
921.180	1305
921.277	1029
921.375	470
921.473	1173
921.571	1716
921.669	219
921.766	1649
921.864	757
921.962	1548
922.060	472
922.157	1616
922.255	1586
922.352	1807
922.450	955
922.548	1334
922.645	1372
922.743	2029
922.840	1056
922.938	1702
923.035	1033
923.133	2351
923.230	-6
923.327	1403
923.425	758
923.522	1942
923.619	1207
923.717	1630
923.814	660
923.911	1811
924.008	1872
924.106	1786
924.203	1598
924.300	1964
924.397	1075
924.494	1966
924.591	1844
924.688	621
924.786	1194
924.883	1405
924.979	1311
925.077	1907
925.173	1723
925.270	1218
925.367	1685
925.464	2061
925.561	1510
925.658	645
925.755	953
925.852	2301
925.948	1555
926.045	2015
926.142	1197
926.239	1913
926.335	1874
926.432	1759
926.529	2060
926.625	2359
926.722	1061
926.818	1537
926.915	955
927.011	1064
927.108	1261
927.204	1376
927.301	735
927.397	1784
927.494	621
927.590	1139
927.687	219
927.783	1163
927.879	567
927.976	452
928.072	1507
928.168	1437
928.264	137
928.361	1335
928.457	860
928.553	1439
928.649	216
928.745	1118
928.841	627
928.937	628
929.033	787
929.129	1232
929.225	667
929.321	1342
929.417	464
929.513	1044
929.609	510
929.705	1263
929.801	768
929.897	1043
929.993	941
930.089	1370
930.184	1135
930.280	1857
930.376	556
930.471	1301
930.567	1354
930.663	1401
930.758	898
930.854	1295
930.950	917
931.045	1121
931.141	788
931.236	1198
931.332	156
931.427	1080
931.523	239
931.618	1044
931.714	539
931.809	674
931.905	1095
932.000	974
932.095	1089
932.191	883
932.286	531
932.381	1681
932.476	661
932.572	717
932.667	714
932.762	1084
932.857	962
932.952	1096
933.047	1183
933.142	1374
933.237	544
933.332	862
933.427	1594
933.522	2531
933.617	468
933.712	141
933.807	584
933.902	1444
933.997	910
934.092	972
934.187	-72
934.282	1197
934.376	622
934.471	1425
934.566	983
934.661	1229
934.755	1104
934.850	1354
934.945	726
935.039	605
935.134	1028
935.228	1077
935.323	513
935.417	376
935.512	365
935.606	828
935.701	935
935.795	1436
935.890	960
935.984	1005
936.079	614
936.173	1683
936.267	1215
936.362	542
936.456	675
936.550	862
936.644	763
936.738	1354
936.833	1772
936.927	1556
937.021	2220
937.115	1224
937.209	305
937.303	1566
937.397	561
937.491	1349
937.585	-13
937.679	670
937.773	386
937.867	700
937.961	1491
938.055	785
938.149	589
938.243	1326
938.337	975
938.430	901
938.524	1751
938.618	1936
938.712	1036
938.805	1474
938.899	-25
938.993	1066
939.086	1131
939.180	2195
939.274	2002
939.367	1105
939.461	402
939.554	449
939.648	1098
939.741	1082
939.835	564
939.928	480
940.022	920
940.115	1208
940.208	1058
940.302	1254
940.395	629
940.488	843
940.582	678
940.675	1094
940.768	924
940.861	1220
940.954	836
941.048	693
941.141	-78
941.234	1353
941.327	1325
941.420	1705
941.513	852
941.606	600
941.699	1192
941.792	527
941.885	846
941.978	667
942.071	321
942.164	-185
942.257	433
942.349	1749
942.442	940
942.535	1184
942.628	495
942.721	1602
942.813	-368
942.906	969
942.999	909
943.091	550
943.184	237
943.277	722
943.369	917
943.462	1808
943.554	516
943.647	522
943.739	584
943.832	978
943.924	-645
944.017	974
944.109	583
944.201	316
944.294	839
944.386	349
944.478	-384
944.571	-154
944.663	-41
944.755	981
944.847	379
944.940	991
945.032	600
945.124	367
945.216	1021
945.308	256
945.400	536
945.492	-220
945.584	15
945.676	418
945.768	749
945.860	1421
945.952	46
946.044	535
946.136	176
946.228	24
946.320	804
946.412	1065
946.503	-307
946.595	1434
946.687	-45
946.779	960
946.870	658
946.962	819
947.054	1462
947.145	87
947.237	505
947.329	1123
947.420	-720
947.512	1228
947.603	-8
947.695	613
947.786	-354
947.878	319
947.969	97
948.061	-9
948.152	-156
948.243	935
948.335	398
948.426	420
948.517	-528
948.609	1093
948.700	235
948.791	838
948.882	425
948.973	625
949.065	415
949.156	344
949.247	-275
949.338	948
949.429	-608
949.520	332
949.611	-1092
949.702	872
949.793	461
949.884	408
949.975	431
950.066	758
950.157	-638
950.247	1133
950.338	474
950.429	775
950.520	438
950.611	1390
950.701	772
950.792	607
950.883	87
950.973	465
951.064	468
951.155	1004
951.245	231
951.336	408
951.427	-455
951.517	162
951.608	177
951.698	637
951.788	-356
951.879	859
951.969	94
952.060	538
952.150	-405
952.240	435
952.331	-703
952.421	994
952.511	-388
952.602	671
952.692	-348
952.782	342
952.872	-154
952.962	320
953.052	-48
953.143	560
953.233	161
953.323	501
953.413	-394
953.503	132
953.593	718
953.683	441
953.773	-245
953.863	217
953.953	-518
954.042	401
954.132	-247
954.222	1000
954.312	204
954.402	1286
954.492	1192
954.581	2005
954.671	781
954.761	301
954.850	702
954.940	297
955.030	613
955.119	-215
955.209	696
955.298	482
955.388	497
955.477	430
955.567	-710
955.656	642
955.746	-252
955.835	292
955.925	498
956.014	1045
956.103	-407
956.193	751
956.282	464
956.371	164
956.461	485
956.550	-270
956.639	-600
956.728	-40
956.817	528
956.906	663
956.995	1035
957.085	1012
957.174	198
957.263	902
957.352	177
957.441	1143
957.530	371
957.619	522
957.708	-115
957.796	195
957.885	-457
957.974	752
958.063	862
958.152	744
958.241	426
958.329	314
958.418	1087
958.507	321
958.596	1487
958.684	596
958.773	1635
958.861	1616
958.950	1254
959.039	1807
959.127	1442
959.216	1306
959.304	1452
959.393	1646
959.481	958
959.570	1486
959.658	1697
959.746	1099
959.835	1672
959.923	3852
960.011	1458
960.100	1662
960.188	703
960.276	787
960.365	1062
960.453	838
960.541	-102
960.629	1170
960.717	471
960.805	802
960.893	1185
960.981	1765
961.069	405
961.158	85
961.245	564
961.333	295
961.421	-145
961.509	187
961.597	-68
961.685	598
961.773	395
961.861	630
961.949	716
962.036	341
962.124	728
962.212	474
962.299	113
962.387	-198
962.475	526
962.562	-149
962.650	-374
962.738	623
962.825	-1194
962.913	1087
963.000	-20
963.088	929
963.175	342
963.263	1139
963.350	-423
963.438	230
963.525	596
963.612	1714
963.700	4515
963.787	10037
963.874	5485
963.962	829
964.049	-425
964.136	171
964.223	-279
964.310	297
964.398	185
964.485	-97
964.572	427
964.659	1340
964.746	1594
964.833	992
964.920	-556
965.007	-166
965.094	322
965.181	-282
965.268	175
965.355	643
965.441	-614
965.528	-406
965.615	76
965.702	-18
965.789	-130
965.875	673
965.962	-1127
966.049	-495
966.136	41
966.222	-453
966.309	-395
966.395	-303
966.482	-59
966.569	-560
966.655	-696
966.742	-446
966.828	-529
966.915	-151
967.001	-75
967.087	-97
967.174	-544
967.260	326
967.347	705
967.433	3748
967.519	5828
967.605	2393
967.692	-907
967.778	-258
967.864	-1044
967.950	-602
968.036	47
968.123	-555
968.209	-591
968.295	-285
968.381	787
968.467	844
968.553	-778
968.639	766
968.725	-752
968.811	820
968.897	50
968.983	-627
969.069	-780
969.154	1256
969.240	-87
969.326	-133
969.412	-833
969.497	-15
969.583	-896
969.669	-131
969.755	-714
969.840	-526
969.926	112
970.012	116
970.097	-328
970.183	567
970.268	-399
970.354	1310
970.439	812
970.525	4464
970.610	1129
970.696	461
970.781	-633
970.866	-20
970.952	-607
971.037	-135
971.122	-615
971.208	-520
971.293	-698
971.378	-485
971.463	-642
971.549	917
971.634	-540
971.719	-429
971.804	-292
971.889	1255
971.974	-923
972.059	-328
972.144	168
972.229	-207
972.314	-498
972.399	164
972.484	-388
972.569	454
972.654	-482
972.739	2128
972.824	1633
972.908	721
972.993	-794
973.078	350
973.163	-288
973.247	-181
973.332	-1249
973.417	-314
973.501	-946
973.586	-84
973.671	-588
973.755	310
973.840	109
973.924	-155
974.009	136
974.093	-215
974.178	703
974.262	1547
974.346	1830
974.431	95
974.515	-1085
974.600	-495
974.684	-642
974.768	-770
974.852	-275
974.937	-876
975.021	-274
975.105	-194
975.189	-430
975.273	57
975.358	-702
975.442	-788
975.526	-223
975.610	-349
975.694	-134
975.778	456
975.862	89
975.946	-1135
976.030	-49
976.114	-548
976.198	-320
976.281	-511
976.365	167
976.449	114
976.533	76
976.617	-394
976.700	-955
976.784	549
976.868	-513
976.951	996
977.035	-513
977.119	168
977.202	-117
977.286	435
977.369	-371
977.453	176
977.536	-189
977.620	-660
977.703	-185
977.787	-444
977.870	536
977.953	-192
978.037	-1722
978.120	797
978.203	124
978.287	1501
978.370	840
978.453	-528
978.536	-1032
978.620	-42
978.703	502
978.786	490
978.869	-561
978.952	-1206
979.035	8
979.118	73
979.201	-538
979.284	166
979.367	-913
979.450	322
979.533	-830
979.616	160
979.699	-283
979.782	-654
979.865	-873
979.948	124
980.030	-1375
980.113	334
980.196	-1536
980.279	-245
980.361	-1292
980.444	105
980.526	-361
980.609	567
980.692	-314
980.774	-721
980.857	-1391
980.939	127
981.022	-739
981.104	-351
981.187	-903
981.269	87
981.352	-875
981.434	-744
981.516	-1736
981.599	5
981.681	-624
981.763	174
981.846	-1228
981.928	-488
982.010	-273
982.092	-811
982.174	31
982.256	-810
982.339	-509
982.421	-780
982.503	-296
982.585	-1155
982.667	-259
982.749	-694
982.831	-1291
982.913	-1343
982.995	99
983.077	-729
983.158	283
983.240	-398
983.322	-866
983.404	23
983.486	-1067
983.568	131
983.649	-1132
983.731	427
983.813	-650
983.894	-946
983.976	-1792
984.058	-210
984.139	-199
984.221	-1818
984.302	-673
984.384	-1133
984.465	-1312
984.547	-217
984.628	-1305
984.710	91
984.791	-628
984.872	-343
984.954	-829
985.035	-788
985.116	-966
985.198	-1197
985.279	-324
985.360	-1450
985.441	-840
985.522	659
985.604	-714
985.685	-1769
985.766	-344
985.847	765
985.928	-1738
986.009	-513
986.090	-1278
986.171	-33
986.252	-1599
986.333	-25
986.414	-1477
986.495	-4
986.576	-1794
986.656	-719
986.737	-1149
986.818	129
986.899	-1460
986.980	-553
987.060	-389
987.141	-1641
987.222	-1164
987.302	-496
987.383	-621
987.464	-2024
987.544	-738
987.625	-240
987.705	2
987.786	-680
987.866	-1464
987.947	-420
988.027	-1161
988.108	-1494
988.188	107
988.268	-416
988.349	-1014
988.429	369
988.509	-1418
988.589	-606
988.670	-1800
988.750	439
988.830	-1631
988.910	-264
988.990	-848
989.070	-368
989.151	-767
989.231	-1357
989.311	-1021
989.391	-866
989.471	-925
989.551	-69
989.631	-1143
989.711	-485
989.791	-2456
989.870	-975
989.950	-532
990.030	-1340
990.110	-1385
990.190	-979
990.269	-653
990.349	-217
990.429	-1180
990.509	-286
990.588	-1520
990.668	-1097
990.747	-1248
990.827	-1352
990.907	-1204
990.986	-820
991.066	-698
991.145	-1426
991.225	-591
991.304	-835
991.383	-988
991.463	-1181
991.542	-1274
991.622	-1689
991.701	-946
991.780	-897
991.859	-793
991.939	-1026
992.018	-632
992.097	-929
992.176	-624
992.256	-548
992.335	-2136
992.414	-306
992.493	-1763
992.572	-917
992.651	346
992.730	-777
992.809	-1123
992.888	-1197
992.967	-704
993.046	-388
993.125	-1901
993.203	-1505
993.282	-762
993.361	-904
993.440	-1322
993.519	-1412
993.597	-1193
993.676	-547
993.755	-1622
993.834	-995
993.912	-1079
993.991	-575
994.069	-1490
994.148	-531
994.226	-2126
994.305	-878
994.384	-1443
994.462	-379
994.540	-2283
994.619	-502
994.697	-1282
994.776	-1282
994.854	-417
994.932	-572
995.011	-1433
995.089	-728
995.167	-1004
995.245	-265
995.324	-2004
995.402	-690
995.480	-1791
995.558	-555
995.636	-1931
995.714	-916
995.792	-522
995.870	-1381
995.948	-1296
996.026	-673
996.104	-1693
996.182	-1002
996.260	-1448
996.338	-864
996.416	-2478
996.494	-1730
996.572	-524
996.649	-1589
996.727	-2030
996.805	-1148
996.883	-1767
996.960	-349
997.038	-905
997.116	-705
997.193	-2155
997.271	-1128
997.348	-1352
997.426	-376
997.504	-1908
997.581	-901
997.658	-699
997.736	-1746
997.813	-2019
997.891	-501
997.968	-1978
998.046	-1360
998.123	-1623
998.200	-1157
998.277	-1703
998.355	-512
998.432	-2523
998.509	-503
998.586	-1267
998.663	-1118
998.741	-1574
998.818	-1165
998.895	-1809
998.972	-1130
999.049	-2116
999.126	-1332
999.203	-371
999.280	-1266
999.357	-1466
999.434	-1337
999.511	-1495
999.587	-667
999.664	-1771
999.741	-1252
999.818	-529
999.895	-1272
999.971	-1106
1000.048	-508
1000.125	-923
1000.202	-1197
1000.278	-838
1000.355	-1458
1000.431	-1906
1000.508	-2009
1000.584	-1546
1000.661	-1185
1000.738	-2542
1000.814	-744
1000.890	-1048
1000.967	-1571
1001.043	-1451
1001.120	-1541
1001.196	-782
1001.272	-1388
1001.349	-1257
1001.425	-664
1001.501	-1937
1001.577	-1630
1001.654	-725
1001.730	-1414
1001.806	-1322
1001.882	-1252
1001.958	-995
1002.034	-672
1002.110	-1618
1002.186	-1390
1002.262	-2071
1002.338	-1462
1002.414	-1656
1002.490	-813
1002.566	-2666
1002.642	-1560
1002.718	-594
1002.794	-1386
1002.870	-1842
1002.945	-1574
1003.021	-1893
1003.097	-937
1003.173	-1526
1003.248	-1228
1003.324	-1502
1003.400	-1356
1003.475	-2245
1003.551	-1278
1003.626	-858
1003.702	-1741
1003.777	-2279
1003.853	-1248
1003.928	-1628
1004.004	-619
1004.079	-1841
1004.155	-1343
1004.230	-2875
1004.305	-333
1004.381	-2378
1004.456	-1611
1004.531	-1245
1004.607	-1197
1004.682	-2200
1004.757	-758
1004.832	-2107
1004.907	-1724
1004.982	-444
1005.057	-987
1005.133	-1762
1005.208	-1419
1005.283	-2621
1005.358	-645
1005.433	-1614
1005.508	-1473
1005.583	-2286
1005.657	-1147
1005.732	-2006
1005.807	-1584
1005.882	-1581
1005.957	-1491
1006.032	-830
1006.106	-1469
1006.181	-1711
1006.256	-1384
1006.331	-1774
1006.405	-1758
1006.480	-1895
1006.554	-1205
1006.629	-1615
1006.704	-1833
1006.778	-1939
1006.853	-340
1006.927	-2283
1007.002	-1514
1007.076	-2208
1007.150	-1281
1007.225	-1642
1007.299	-1248
1007.373	-2466
1007.448	-1265
1007.522	-1063
1007.596	-1368
1007.671	-1677
1007.745	-607
1007.819	-2405
1007.893	-1493
1007.967	-1682
1008.041	-2036
1008.115	-260
1008.190	-2366
1008.264	-1062
1008.338	-2443
1008.412	-1583
1008.486	-1630
1008.560	-1611
1008.633	-1524
1008.707	-1857
1008.781	-479
1008.855	-1643
1008.929	-2053
1009.003	-2294
1009.076	-2136
1009.150	-1454
1009.224	-1535
1009.298	-1675
1009.371	-2133
1009.445	-1388
1009.519	-1539
1009.592	-2382
1009.666	-1428
1009.739	-1228
1009.813	-2135
1009.886	-537
1009.960	-2070
1010.033	-1164
1010.107	-1639
1010.180	-2145
1010.253	-1638
1010.327	-1676
1010.400	-1373
1010.473	-1582
1010.547	-7
1010.620	-1304
1010.693	-1948
1010.766	-2580
1010.840	-1184
1010.913	-1972
1010.986	-1438
1011.059	-1886
1011.132	-1353
1011.205	-1292
1011.278	-1681
1011.351	-2514
1011.424	-1294
1011.497	-2520
1011.570	-1093
1011.643	-1724
1011.716	-1173
1011.789	-2454
1011.862	-1585
1011.934	-1848
1012.007	-2143
1012.080	-1817
1012.153	-1874
1012.225	-1134
1012.298	-2047
1012.371	-2728
1012.443	-1443
1012.516	-2769
1012.588	-1097
1012.661	-1679
1012.733	-1822
1012.806	-1749
1012.879	-2046
1012.951	-1608
1013.023	-1601
1013.096	-2550
1013.168	-2114
1013.241	-1189
1013.313	-1580
1013.385	-2060
1013.458	-1596
1013.530	-1146
1013.602	-2052
1013.674	-1097
1013.746	-1627
1013.819	-1498
1013.891	-1623
1013.963	-2455
1014.035	-1646
1014.107	-1901
1014.179	-906
1014.251	-1895
1014.323	-1038
1014.395	-1649
1014.467	-912
1014.539	-2145
1014.611	-1687
1014.683	-2075
1014.754	-1425
1014.826	-2195
1014.898	-1533
1014.970	-2007
1015.042	-1154
1015.113	-1667
1015.185	-1799
1015.257	-2756
1015.328	-1696
1015.400	-2055
1015.471	-2209
1015.543	-3579
1015.615	-1637
1015.686	-1577
1015.757	-1410
1015.829	-1610
1015.901	-1694
1015.972	-2066
1016.043	-1638
1016.115	-1574
1016.186	-1657
1016.257	-2476
1016.328	-953
1016.400	-1993
1016.471	-1735
1016.542	-1621
1016.613	-1540
1016.685	-1785
1016.756	-1311
1016.827	-2641
1016.898	-2206
1016.969	-2291
1017.040	-1874
1017.111	-2196
1017.182	-2409
1017.253	-1969
1017.324	-2122
1017.395	-2594
1017.466	-1580
1017.537	-2365
1017.608	-1331
1017.678	-2185
1017.749	-1584
1017.820	-1953
1017.891	-2310
1017.961	-3149
1018.032	-1384
1018.103	-1919
1018.173	-1808
1018.244	-2563
1018.315	-2013
1018.385	-1488
1018.456	-1886
1018.526	-2305
1018.597	-2174
1018.667	-1849
1018.738	-1253
1018.808	-1786
1018.878	-1791
1018.949	-2550
1019.019	-2128
1019.089	-2172
1019.160	-1538
1019.230	-2498
1019.300	-688
1019.371	-3087
1019.441	-1594
1019.511	-1840
1019.581	-2032
1019.651	-1608
1019.721	-1868
1019.791	-1626
1019.861	-1613
1019.931	-2623
1020.001	-2226
1020.071	-2013
1020.141	-2377
1020.211	-2694
1020.281	-1941
1020.351	-2607
1020.421	-1419
1020.491	-1126
1020.560	-2601
1020.630	-2002
1020.700	-1439
1020.770	-2741
1020.839	-1875
1020.909	-2046
1020.979	-2577
1021.048	-2567
1021.118	-1140
1021.187	-2623
1021.257	-2333
1021.326	-2317
1021.396	-2298
1021.465	-2764
1021.535	-2011
1021.604	-3509
1021.674	-2349
1021.743	-2237
1021.812	-1867
1021.882	-2523
1021.951	-1778
1022.020	-1868
1022.089	-1293
1022.159	-2026
1022.228	-1986
1022.297	-2905
1022.366	-1546
1022.435	-1806
1022.504	-1835
1022.573	-2143
1022.642	-2445
1022.711	-2163
1022.781	-3121
1022.849	-2112
1022.918	-2246
1022.987	-2612
1023.056	-2407
1023.125	-2432
1023.194	-2198
1023.263	-2477
1023.331	-1781
1023.400	-2671
1023.469	-1428
1023.538	-1688
1023.606	-1699
1023.675	-2287
1023.744	-2069
1023.812	-2221
1023.881	-3081
1023.949	-2423
1024.018	-1405
1024.086	-2824
1024.155	-2218
1024.223	-2707
1024.292	-1379
1024.360	-1916
1024.429	-1562
1024.497	-2608
1024.565	-2572
1024.634	-2701
1024.702	-1103
1024.770	-2285
1024.838	-2456
1024.907	-2388
1024.975	-2090
1025.043	-2374
1025.111	-3233
1025.179	-1858
1025.247	-1880
1025.315	-2177
1025.383	-2705
1025.451	-2871
1025.519	-2297
1025.587	-2098
1025.655	-2238
1025.723	-2451
1025.791	-1810
1025.859	-2165
1025.927	-1664
1025.995	-3008
1026.062	-1145
1026.130	-2038
1026.198	-2598
1026.266	-2458
1026.333	-1718
1026.401	-1754
1026.469	-1648
1026.536	-1787
1026.604	-2410
1026.671	-2153
1026.739	-1733
1026.806	-2465
1026.874	-1682
1026.941	-2392
1027.009	-1145
1027.076	-3102
1027.144	-752
1027.211	-2271
1027.278	-1753
1027.345	-3190
1027.413	-1954
1027.480	-2303
1027.547	-1511
1027.614	-2739
1027.682	-2437
1027.749	-2618
1027.816	-2065
1027.883	-2329
1027.950	-1211
1028.017	-2162
1028.084	-1927
1028.151	-2290
1028.218	-2297
1028.285	-1874
1028.352	-1722
1028.419	-2190
1028.486	-2013
1028.553	-2979
1028.619	-2149
1028.686	-2747
1028.753	-2718
1028.820	-2545
1028.886	-2512
1028.953	-2727
1029.020	-1954
1029.086	-2418
1029.153	-2129
1029.220	-2362
1029.286	-1459
1029.353	-2827
1029.419	-1722
1029.486	-2914
1029.552	-1751
1029.619	-2314
1029.685	-2194
1029.751	-2664
1029.818	-1215
1029.884	-2218
1029.951	-1704
1030.017	-2408
1030.083	-2062
1030.149	-2761
1030.216	-2808
1030.282	-2569
1030.348	-1916
1030.414	-2808
1030.480	-2816
1030.546	-3143
1030.612	-1923
1030.678	-3465
1030.744	-2588
1030.810	-2393
1030.876	-2477
1030.942	-3226
1031.008	-1909
1031.074	-2771
1031.140	-2395
1031.206	-2076
1031.272	-2422
1031.337	-1889
1031.403	-1677
1031.469	-2750
1031.534	-1603
1031.600	-2652
1031.666	-1875
1031.731	-2770
1031.797	-2030
1031.863	-2857
1031.928	-1818
1031.994	-3042
1032.059	-1828
1032.125	-2440
1032.190	-2046
1032.256	-2955
1032.321	-2043
1032.386	-2411
1032.452	-1153
1032.517	-2319
1032.582	-1870
1032.647	-2818
1032.713	-2330
1032.778	-2637
1032.843	-1614
1032.908	-2435
1032.974	-2285
1033.039	-2280
1033.104	-1838
1033.169	-2686
1033.234	-2865
1033.299	-1989
1033.364	-2453
1033.429	-2597
1033.494	-1250
1033.559	-2247
1033.624	-2047
1033.688	-2288
1033.753	-2244
1033.818	-1986
1033.883	-2131
1033.948	-2399
1034.013	-2234
1034.077	-1490
1034.142	-896
1034.207	-2446
1034.271	-1409
1034.336	-1806
1034.400	-1481
1034.465	-2595
1034.530	-1398
1034.594	-1710
1034.658	-1404
1034.723	-2238
1034.787	-1960
1034.852	-2261
1034.916	-2376
1034.981	-2179
1035.045	-885
1035.109	-1813
1035.173	-1792
1035.238	-3094
1035.302	-1376
1035.366	-2280
1035.430	-2639
1035.495	-2356
1035.559	-1740
1035.623	-2183
1035.687	-2314
1035.751	-2379
1035.815	-2214
1035.879	-2535
1035.943	-1735
1036.007	-2752
1036.071	-1660
1036.135	-2537
1036.198	-2089
1036.262	-2624
1036.326	-2047
1036.390	-2076
1036.454	-1849
1036.517	-1890
1036.581	-2260
1036.645	-1490
1036.709	-1594
1036.772	-2277
1036.836	-818
1036.900	-2735
1036.963	-2409
1037.026	-2223
1037.090	-1869
1037.154	-2192
1037.217	-1868
1037.280	-2832
1037.344	-1717
1037.407	-1959
1037.471	-1694
1037.534	-2115
1037.597	-2060
1037.661	-2855
1037.724	-2543
1037.787	-3128
1037.850	-2348
1037.913	-1406
1037.977	-1939
1038.040	-2808
1038.103	-1299
1038.166	-2756
1038.229	-2477
1038.292	-2884
1038.355	-2021
1038.418	-2316
1038.481	-2319
1038.544	-2406
1038.607	-2682
1038.670	-1606
1038.732	-2246
1038.795	-2248
1038.858	-1495
1038.921	-1869
1038.984	-1196
1039.046	-2534
1039.109	-2519
1039.172	-1913
1039.234	-2586
1039.297	-2206
1039.360	-1922
1039.422	-2337
1039.485	-2032
1039.547	-1956
1039.610	-1328
1039.672	-3012
1039.734	-2054
1039.797	-2322
1039.859	-1694
1039.922	-3142
1039.984	-2089
1040.046	-2832
1040.109	-2561
1040.171	-2649
1040.233	-1184
1040.295	-2512
1040.358	-1881
1040.420	-3256
1040.482	-1673
1040.544	-1804
1040.606	-1983
1040.668	-2784
1040.730	-1874
1040.792	-2062
1040.854	-2333
1040.916	-2349
1040.978	-1826
1041.040	-2677
1041.102	-1855
1041.164	-2881
1041.225	-2377
1041.287	-2275
1041.349	-1828
1041.411	-2381
1041.472	-2520
1041.534	-1975
1041.596	-1877
1041.657	-2564
1041.719	-1645
1041.781	-3117
1041.842	-2634
1041.904	-2532
1041.965	-2196
1042.027	-2450
1042.088	-1873
1042.150	-1724
1042.211	-1818
1042.272	-2298
1042.334	-1899
1042.395	-2597
1042.456	-1297
1042.518	-2796
1042.579	-1601
1042.640	-1965
1042.701	-1694
1042.763	-2107
1042.824	-1836
1042.885	-2424
1042.946	-1999
1043.007	-2699
1043.068	-1547
1043.129	-1623
1043.190	-1689
1043.251	-1668
1043.312	-2052
1043.373	-1579
1043.434	-2102
1043.495	-2207
1043.556	-1501
1043.616	-1274
1043.677	-2074
1043.738	-2036
1043.799	-1202
1043.859	-1678
1043.920	-1955
1043.981	-1655
1044.041	-1753
1044.102	-1987
1044.162	-2722
1044.223	-2575
1044.284	-1301
1044.344	-2298
1044.405	-1538
1044.465	-2963
1044.525	-1747
1044.586	-1860
1044.646	-1988
1044.707	-891
1044.767	-1437
1044.827	-2028
1044.887	-1361
1044.948	-1777
1045.008	-1864
1045.068	-1804
1045.128	-1707
1045.188	-2573
1045.249	-1632
1045.309	-2290
1045.369	-2128
1045.429	-1707
1045.489	-1702
1045.549	-2315
1045.609	-2487
1045.669	-2085
1045.729	-2362
1045.789	-1789
1045.848	-1656
1045.908	-1845
1045.968	-1384
1046.028	-1921
1046.088	-1346
1046.147	-2361
1046.207	-1839
1046.267	-1827
1046.326	-1533
1046.386	-1344
1046.446	-1183
1046.505	-1872
1046.565	-633
1046.624	-1474
1046.684	-1360
1046.743	-1102
1046.803	-469
1046.862	-1022
1046.922	0
