'Start Wavelength	183.907
'End Wavelength	1046.922
'Gate Delay	5.000
'Gate Width (ms)	1.050
'Laser Output Level	0.000
'X Position	0.000
'Y Position	0.000
'Z Position	0.000
'Grid Point Number	1.000
'Shot Number	100.000
183.907	493.000
183.977	139.000
184.047	377
184.116	-200
184.186	725
184.256	199
184.325	63
184.395	82
184.465	348
184.534	539
184.604	-272
184.674	-93
184.743	-595
184.813	157
184.883	528
184.952	31
185.022	285
185.092	354
185.161	110
185.231	103
185.301	-138
185.370	557
185.440	16
185.509	650
185.579	434
185.649	-199
185.718	-47
185.788	626
185.857	348
185.927	367
185.996	-546
186.066	224
186.136	165
186.205	-209
186.275	-25
186.344	155
186.414	368
186.483	406
186.553	589
186.622	822
186.692	-1066
186.761	368
186.831	221
186.900	-145
186.970	288
187.039	350
187.109	430
187.178	763
187.248	250
187.317	620
187.387	-82
187.456	218
187.526	1333
187.595	-108
187.664	11
187.734	1321
187.803	534
187.873	1390
187.942	482
188.012	887
188.081	-123
188.150	-408
188.220	427
188.289	959
188.358	646
188.428	467
188.497	107
188.567	511
188.636	-202
188.705	929
188.775	213
188.844	526
188.913	648
188.983	202
189.052	-320
189.121	1064
189.191	-28
189.260	1038
189.329	367
189.399	249
189.468	690
189.537	391
189.606	404
189.676	1022
189.745	597
189.814	712
189.883	273
189.953	322
190.022	1047
190.091	1453
190.161	1658
190.230	622
190.299	-9
190.368	1018
190.437	80
190.507	575
190.576	597
190.645	100
190.714	855
190.783	104
190.853	494
190.922	875
190.991	655
191.060	342
191.129	-394
191.198	474
191.268	263
191.337	272
191.406	428
191.475	617
191.544	414
191.613	234
191.682	475
191.752	507
191.821	261
191.890	440
191.959	-33
192.028	994
192.097	722
192.166	400
192.235	995
192.304	747
192.373	775
192.442	402
192.511	-354
192.580	-104
192.650	46
192.719	747
192.788	610
192.857	376
192.926	291
192.995	712
193.064	163
193.133	1510
193.202	1749
193.271	1715
193.340	1040
193.409	1845
193.478	1811
193.547	2633
193.615	1815
193.684	2285
193.753	1102
193.822	1297
193.891	524
193.960	691
194.029	750
194.098	699
194.167	-563
194.236	849
194.305	711
194.374	928
194.443	-351
194.512	714
194.580	582
194.649	607
194.718	1056
194.787	842
194.856	463
194.925	834
194.994	1369
195.062	1289
195.131	47
195.200	1010
195.269	876
195.338	666
195.407	1262
195.475	931
195.544	1416
195.613	993
195.682	1423
195.751	1263
195.819	1481
195.888	1597
195.957	1539
196.026	2289
196.094	1313
196.163	1030
196.232	1001
196.301	1024
196.369	197
196.438	1434
196.507	716
196.576	680
196.644	1078
196.713	1157
196.782	1406
196.850	997
196.919	1025
196.988	671
197.056	-1
197.125	1365
197.194	1227
197.262	655
197.331	587
197.400	12
197.468	775
197.537	246
197.606	407
197.674	1763
197.743	1935
197.812	839
197.880	2888
197.949	2339
198.017	2757
198.086	1445
198.155	617
198.223	1437
198.292	2345
198.360	2101
198.429	1441
198.497	527
198.566	1509
198.635	3260
198.703	1443
198.772	1380
198.840	2535
198.909	2819
198.977	757
199.046	1639
199.114	1158
199.183	1932
199.251	1040
199.320	646
199.388	1116
199.457	1154
199.525	237
199.594	1065
199.662	1233
199.731	338
199.799	1229
199.867	836
199.936	843
200.004	1116
200.073	1897
200.141	515
200.210	11
200.278	781
200.346	1584
200.415	1328
200.483	2036
200.552	852
200.620	1266
200.688	999
200.757	892
200.825	1238
200.893	485
200.962	928
201.030	802
201.098	1205
201.167	1694
201.235	1005
201.303	421
201.372	749
201.440	764
201.508	1483
201.577	1270
201.645	1282
201.713	844
201.781	1308
201.850	710
201.918	1465
201.986	1460
202.055	1110
202.123	1617
202.191	1775
202.259	1699
202.327	1354
202.396	2047
202.464	1674
202.532	691
202.600	2610
202.669	975
202.737	1483
202.805	957
202.873	1407
202.941	1286
203.009	1508
203.078	54
203.146	2142
203.214	892
203.282	1466
203.350	1847
203.418	1481
203.487	659
203.555	1476
203.623	1533
203.691	1459
203.759	52
203.827	1187
203.895	1641
203.963	1399
204.031	1780
204.099	259
204.168	1102
204.236	1906
204.304	1318
204.372	1554
204.440	1566
204.508	1511
204.576	770
204.644	1734
204.712	1203
204.780	1582
204.848	1490
204.916	1193
204.984	1480
205.052	1335
205.120	433
205.188	1294
205.256	1037
205.324	1596
205.392	899
205.460	1633
205.528	1248
205.596	1202
205.664	2088
205.732	2322
205.799	3236
205.867	5514
205.935	1923
206.003	2343
206.071	1633
206.139	1844
206.207	1899
206.275	2370
206.343	1511
206.411	1654
206.478	1413
206.546	1591
206.614	1133
206.682	1680
206.750	1365
206.818	1837
206.885	2154
206.953	978
207.021	2235
207.089	1711
207.157	564
207.225	2726
207.292	1525
207.360	1434
207.428	2462
207.496	2059
207.563	1912
207.631	1873
207.699	2375
207.767	1419
207.834	1664
207.902	2173
207.970	1612
208.038	2330
208.105	2216
208.173	3035
208.241	3027
208.309	3280
208.376	2555
208.444	3693
208.512	2923
208.579	1127
208.647	2185
208.715	1605
208.782	2239
208.850	1658
208.918	2695
208.985	2686
209.053	1641
209.120	2381
209.188	2185
209.256	1867
209.323	1412
209.391	2328
209.459	1966
209.526	1594
209.594	2474
209.661	2951
209.729	2478
209.796	2876
209.864	1993
209.932	1734
209.999	2384
210.067	2724
210.134	2741
210.202	1724
210.269	3557
210.337	2555
210.404	2001
210.472	2057
210.539	2530
210.607	3026
210.674	2906
210.742	3240
210.809	1828
210.877	2587
210.944	3822
211.012	2042
211.079	2933
211.146	2063
211.214	2405
211.281	3142
211.349	2381
211.416	2178
211.484	3767
211.551	2575
211.618	2490
211.686	2422
211.753	2696
211.821	2980
211.888	2484
211.955	2412
212.023	2044
212.090	2643
212.157	3112
212.225	3214
212.292	4725
212.359	7417
212.427	11951
212.494	7568
212.561	4821
212.629	4291
212.696	3900
212.763	3471
212.831	2891
212.898	3367
212.965	2632
213.032	3574
213.100	2563
213.167	2503
213.234	3436
213.301	2972
213.369	2263
213.436	2518
213.503	2173
213.570	3439
213.638	3385
213.705	2210
213.772	2575
213.839	4129
213.906	4642
213.973	3441
214.041	2861
214.108	3704
214.175	3189
214.242	3528
214.309	2777
214.376	3633
214.444	2726
214.511	3349
214.578	2861
214.645	3455
214.712	3083
214.779	4275
214.846	3621
214.913	4150
214.980	3560
215.048	4056
215.115	4278
215.182	3943
215.249	3821
215.316	3202
215.383	2867
215.450	3360
215.517	3185
215.584	3070
215.651	2819
215.718	3545
215.785	3620
215.852	3370
215.919	3327
215.986	3476
216.053	2653
216.120	2889
216.187	3071
216.254	3506
216.321	3379
216.388	3291
216.455	4296
216.522	4249
216.589	3377
216.656	5087
216.722	5434
216.789	5074
216.856	4443
216.923	4365
216.990	4062
217.057	4737
217.124	4566
217.191	4526
217.258	5069
217.324	5607
217.391	4805
217.458	4738
217.525	4444
217.592	3412
217.659	3706
217.725	4861
217.792	4029
217.859	4918
217.926	3595
217.993	3464
218.059	3679
218.126	3051
218.193	3520
218.260	3655
218.327	2783
218.393	3043
218.460	2611
218.527	3170
218.594	3680
218.660	4946
218.727	5377
218.794	3371
218.860	2814
218.927	2319
218.994	2768
219.061	3033
219.127	3441
219.194	4465
219.261	3870
219.327	3294
219.394	2829
219.461	2315
219.527	2656
219.594	3214
219.661	2539
219.727	2942
219.794	2955
219.860	3415
219.927	3635
219.994	4485
220.060	6156
220.127	5101
220.193	5016
220.260	4913
220.326	6497
220.393	8224
220.460	7970
220.526	7297
220.593	5753
220.659	7249
220.726	6304
220.792	9785
220.859	10405
220.925	10921
220.992	12837
221.058	12763
221.125	12439
221.191	8276
221.258	6090
221.324	4866
221.391	4418
221.457	4140
221.524	3882
221.590	5730
221.657	10808
221.723	8797
221.789	7673
221.856	7308
221.922	4064
221.989	4560
222.055	3666
222.121	3779
222.188	4668
222.254	3356
222.321	3971
222.387	3253
222.453	3453
222.520	3368
222.586	2775
222.652	4113
222.719	2816
222.785	4209
222.851	2787
222.918	2646
222.984	3793
223.050	3682
223.116	2215
223.183	3663
223.249	2674
223.315	1732
223.382	3046
223.448	2861
223.514	2337
223.580	2977
223.647	2169
223.713	3060
223.779	3601
223.845	3363
223.911	3410
223.978	2327
224.044	2423
224.110	2988
224.176	1985
224.242	2788
224.309	2145
224.375	3348
224.441	2139
224.507	2687
224.573	2942
224.639	3588
224.705	2499
224.772	3091
224.838	2544
224.904	3015
224.970	2894
225.036	3011
225.102	2631
225.168	2797
225.234	2351
225.300	2428
225.366	2373
225.432	3378
225.499	2399
225.565	2988
225.631	3173
225.697	3963
225.763	4978
225.829	4971
225.895	4934
225.961	5800
226.027	5869
226.093	5825
226.159	6725
226.225	9717
226.291	16313
226.357	20100
226.423	13638
226.489	9981
226.554	6601
226.620	6687
226.686	7717
226.752	11051
226.818	16405
226.884	24107
226.950	21098
227.016	12707
227.082	8890
227.148	6580
227.214	6095
227.279	5394
227.345	3792
227.411	4546
227.477	4215
227.543	4967
227.609	5828
227.674	5332
227.740	3681
227.806	4331
227.872	4068
227.938	4372
228.003	5170
228.069	3311
228.135	3167
228.201	3968
228.267	2795
228.332	4056
228.398	4272
228.464	3760
228.530	3022
228.595	3644
228.661	2917
228.727	4076
228.792	4289
228.858	3671
228.924	2590
228.990	4303
229.055	3293
229.121	4539
229.187	3095
229.252	2573
229.318	3183
229.384	3317
229.449	3754
229.515	1827
229.581	1108
229.646	4348
229.712	2833
229.777	5205
229.843	5291
229.909	5655
229.974	5765
230.040	6264
230.105	5480
230.171	5830
230.236	6396
230.302	8364
230.368	6407
230.433	4728
230.499	5301
230.564	6233
230.630	3943
230.695	4712
230.761	4633
230.826	2666
230.892	5124
230.957	4060
231.023	4588
231.088	3982
231.154	4391
231.219	4361
231.284	4876
231.350	5542
231.415	2693
231.481	4445
231.546	4096
231.612	3635
231.677	3409
231.742	2992
231.808	4272
231.873	2634
231.939	1436
232.004	5372
232.069	5022
232.135	4075
232.200	3717
232.265	4021
232.331	2799
232.396	3217
232.461	3225
232.527	3358
232.592	2042
232.657	3281
232.723	3333
232.788	3619
232.853	3603
232.918	3751
232.984	2531
233.049	2794
233.114	2677
233.179	4426
233.245	3988
233.310	4861
233.375	2641
233.440	3342
233.506	2169
233.571	2705
233.636	2434
233.701	2847
233.766	2619
233.832	4752
233.897	2503
233.962	2237
234.027	4330
234.092	4456
234.157	2718
234.222	3159
234.288	4245
234.353	7584
234.418	7525
234.483	6579
234.548	5631
234.613	5401
234.678	5851
234.743	5500
234.808	8828
234.873	7146
234.938	5191
235.004	4934
235.069	4849
235.134	4428
235.199	5137
235.264	4970
235.329	3235
235.394	4510
235.459	4407
235.524	4215
235.589	5012
235.654	3917
235.719	2986
235.784	4782
235.849	4723
235.913	5658
235.978	5950
236.043	5804
236.108	3791
236.173	4307
236.238	4592
236.303	3845
236.368	4508
236.433	6352
236.498	7088
236.563	8837
236.627	15442
236.692	32337
236.757	29772
236.822	16153
236.887	10796
236.952	10566
237.017	8345
237.081	9322
237.146	11250
237.211	21352
237.276	32315
237.341	40476
237.405	27999
237.470	15811
237.535	10128
237.600	8593
237.664	7135
237.729	6270
237.794	7522
237.859	13836
237.923	8796
237.988	6369
238.053	6287
238.118	5777
238.182	10886
238.247	10547
238.312	5420
238.376	5682
238.441	3681
238.506	5682
238.570	2631
238.635	4823
238.700	2860
238.764	3770
238.829	5660
238.893	6122
238.958	6255
239.023	6388
239.087	4475
239.152	4588
239.216	3754
239.281	4967
239.346	4177
239.410	3595
239.475	3956
239.539	9615
239.604	6520
239.668	5496
239.733	3962
239.797	4760
239.862	5149
239.926	7968
239.991	4652
240.055	3260
240.120	3217
240.184	3921
240.249	2598
240.313	3360
240.378	3344
240.442	5990
240.507	8396
240.571	4253
240.635	5065
240.700	6022
240.764	3574
240.829	3659
240.893	2354
240.957	3666
241.022	5456
241.086	8148
241.151	4266
241.215	2220
241.279	4030
241.344	4914
241.408	5957
241.472	5761
241.537	6954
241.601	6299
241.665	5341
241.730	6285
241.794	6096
241.858	4310
241.922	5787
241.987	6073
242.051	4864
242.115	5336
242.179	5242
242.244	4508
242.308	6105
242.372	6280
242.436	5556
242.501	5046
242.565	4767
242.629	5136
242.693	4811
242.757	3504
242.822	4024
242.886	4811
242.950	4781
243.014	4626
243.078	5375
243.142	5187
243.206	3862
243.271	6365
243.335	5443
243.399	9359
243.463	24083
243.527	45505
243.591	17302
243.655	8974
243.719	6064
243.783	7534
243.847	9539
243.911	11871
243.975	10590
244.040	7350
244.104	5946
244.168	5477
244.232	6265
244.296	7948
244.360	11222
244.424	6238
244.488	5159
244.552	5538
244.615	3811
244.679	4444
244.743	4391
244.807	5029
244.871	3629
244.935	4646
244.999	2414
245.063	3711
245.127	5476
245.191	8152
245.255	7482
245.319	5711
245.383	4615
245.446	5721
245.510	3570
245.574	4097
245.638	4554
245.702	3422
245.766	8540
245.829	5857
245.893	4592
245.957	4570
246.021	5732
246.085	5273
246.149	6398
246.212	12336
246.276	15724
246.340	8371
246.404	7194
246.467	7988
246.531	7369
246.595	7262
246.659	5996
246.722	4875
246.786	6824
246.850	7361
246.913	8088
246.977	4240
247.041	4816
247.104	5028
247.168	5270
247.232	11245
247.295	21061
247.359	11014
247.423	6474
247.486	9269
247.550	6605
247.614	5656
247.677	5870
247.741	5013
247.804	4777
247.868	6404
247.932	10115
247.995	19350
248.059	8045
248.122	5754
248.186	7351
248.249	11195
248.313	30308
248.376	31202
248.440	21542
248.503	9974
248.567	9351
248.630	11431
248.694	15650
248.757	20810
248.821	32446
248.884	22710
248.948	20722
249.011	27872
249.075	37690
249.138	32616
249.202	15854
249.265	11226
249.328	11121
249.392	10067
249.455	9348
249.519	8165
249.582	9272
249.645	13368
249.709	10403
249.772	9263
249.835	8340
249.899	9158
249.962	7458
250.025	7665
250.089	15295
250.152	18739
250.215	11306
250.279	8454
250.342	9285
250.405	9690
250.468	8253
250.532	11498
250.595	17913
250.658	47886
250.721	67830
250.785	32059
250.848	18095
250.911	12048
250.974	12532
251.038	14290
251.101	22769
251.164	14841
251.227	15395
251.290	14867
251.354	23132
251.417	62807
251.480	64032
251.543	55125
251.606	94026
251.669	80213
251.732	42915
251.795	38238
251.859	38712
251.922	69125
251.985	46758
252.048	22855
252.111	15711
252.174	14332
252.237	23186
252.300	42338
252.363	49770
252.426	77301
252.489	39560
252.552	20945
252.615	16176
252.678	17434
252.741	33850
252.804	48778
252.867	82674
252.930	54133
252.993	30636
253.056	19505
253.119	13509
253.182	11976
253.245	20336
253.308	15526
253.371	11299
253.434	10171
253.497	10891
253.559	18372
253.622	12422
253.685	14359
253.748	15045
253.811	7833
253.874	9229
253.937	8343
254.000	8980
254.062	14028
254.125	19946
254.188	19070
254.251	14613
254.314	7349
254.376	12601
254.439	14303
254.502	11153
254.565	13414
254.628	22490
254.690	12611
254.753	7386
254.816	6567
254.878	7022
254.941	14197
255.004	13606
255.067	7156
255.129	7246
255.192	5913
255.255	3717
255.317	5754
255.380	3638
255.443	3623
255.505	3092
255.568	2418
255.631	3182
255.693	4991
255.756	3270
255.819	4244
255.881	3389
255.944	3005
256.006	4044
256.069	3544
256.132	3829
256.194	5265
256.257	7880
256.319	6205
256.382	5530
256.444	6556
256.507	6182
256.569	5435
256.632	6378
256.694	9764
256.757	24550
256.819	58416
256.882	28789
256.944	13312
257.007	10490
257.069	9707
257.132	7941
257.194	8340
257.257	6871
257.319	5859
257.381	7773
257.444	19249
257.506	61539
257.569	67763
257.631	28883
257.693	18194
257.756	10524
257.818	7992
257.880	7398
257.943	6213
258.005	5135
258.067	6004
258.130	5734
258.192	6832
258.254	9070
258.317	7070
258.379	6231
258.441	11532
258.503	10950
258.566	11164
258.628	12887
258.690	5396
258.753	8242
258.815	10986
258.877	7295
258.939	6962
259.001	6597
259.064	6055
259.126	6512
259.188	6909
259.250	6773
259.312	7121
259.375	8900
259.437	7552
259.499	5708
259.561	5883
259.623	5921
259.685	5736
259.747	5898
259.809	10402
259.872	15645
259.934	24807
259.996	26110
260.058	10530
260.120	5527
260.182	4871
260.244	4336
260.306	4326
260.368	5096
260.430	5214
260.492	9609
260.554	13162
260.616	7105
260.678	15001
260.740	16242
260.802	6539
260.864	6406
260.926	4731
260.988	6084
261.050	5698
261.112	13260
261.174	24445
261.236	13956
261.298	7619
261.359	8629
261.421	11463
261.483	5491
261.545	5843
261.607	3823
261.669	5073
261.731	5624
261.793	12304
261.854	6984
261.916	6672
261.978	5366
262.040	5846
262.102	4717
262.164	5118
262.225	4706
262.287	4759
262.349	10016
262.411	7746
262.472	4866
262.534	5587
262.596	8149
262.658	5719
262.719	3173
262.781	5075
262.843	7753
262.904	5036
262.966	4775
263.028	6214
263.090	27212
263.151	63897
263.213	23858
263.275	14664
263.336	6991
263.398	6336
263.459	3878
263.521	4436
263.583	9689
263.644	6518
263.706	3667
263.767	2730
263.829	2936
263.891	2769
263.952	1236
264.014	2925
264.075	6553
264.137	16436
264.198	8343
264.260	3743
264.321	4043
264.383	9919
264.444	24623
264.506	8262
264.567	6039
264.629	11280
264.690	21713
264.752	8406
264.813	5537
264.875	4959
264.936	4678
264.998	3164
265.059	2842
265.120	4075
265.182	7615
265.243	34548
265.305	36097
265.366	10499
265.427	5923
265.489	5830
265.550	3379
265.611	4540
265.673	3980
265.734	3664
265.795	3951
265.857	2935
265.918	4255
265.979	11577
266.040	51188
266.102	47367
266.163	15410
266.224	11922
266.286	7209
266.347	4557
266.408	3670
266.469	4449
266.530	3240
266.592	2724
266.653	6429
266.714	10222
266.775	3816
266.836	2957
266.898	3115
266.959	6993
267.020	5093
267.081	4617
267.142	3088
267.203	3187
267.264	3012
267.326	4798
267.387	3164
267.448	3390
267.509	4256
267.570	4060
267.631	3009
267.692	2631
267.753	3411
267.814	3980
267.875	7856
267.936	15852
267.997	11797
268.058	10596
268.119	6095
268.180	5216
268.241	4426
268.302	4419
268.363	2837
268.424	4194
268.485	4344
268.546	3008
268.607	2476
268.668	3184
268.729	2696
268.790	3540
268.851	4913
268.912	9860
268.972	9228
269.033	5985
269.094	3556
269.155	3965
269.216	3690
269.277	3781
269.338	2850
269.398	4020
269.459	4186
269.520	6205
269.581	6449
269.642	7780
269.702	5414
269.763	6126
269.824	4592
269.885	5585
269.945	8019
270.006	4472
270.067	3967
270.128	3722
270.188	3386
270.249	4034
270.310	2823
270.370	3740
270.431	3793
270.492	2707
270.553	3758
270.613	6699
270.674	13042
270.734	6576
270.795	3510
270.856	5279
270.916	3864
270.977	3740
271.038	4450
271.098	4805
271.159	6187
271.219	5759
271.280	3656
271.340	2862
271.401	2939
271.462	6179
271.522	4075
271.583	3941
271.643	3080
271.704	3572
271.764	5362
271.825	10976
271.885	33249
271.946	40816
272.006	14324
272.066	19746
272.127	32038
272.187	10795
272.248	5921
272.308	7904
272.369	21864
272.429	12437
272.489	10212
272.550	10717
272.610	10864
272.671	7381
272.731	6127
272.791	8609
272.852	6024
272.912	5196
272.972	3376
273.033	3619
273.093	4790
273.153	6644
273.214	4342
273.274	5758
273.334	17815
273.394	30953
273.455	12009
273.515	12365
273.575	26282
273.635	11068
273.696	12740
273.756	26564
273.816	10649
273.876	5721
273.936	9150
273.997	15781
274.057	5661
274.117	5215
274.177	8454
274.237	37101
274.297	28878
274.358	15327
274.418	22137
274.478	18076
274.538	6580
274.598	5094
274.658	11566
274.718	13963
274.778	6964
274.838	4550
274.898	7718
274.958	19971
275.018	26640
275.078	17892
275.138	7382
275.198	5221
275.258	3411
275.318	4426
275.378	9115
275.438	9239
275.498	6570
275.558	10924
275.618	23134
275.678	19255
275.738	12597
275.798	10668
275.858	7206
275.918	4165
275.978	5297
276.038	4929
276.098	3461
276.157	7718
276.217	21578
276.277	10081
276.337	6727
276.397	4742
276.457	4928
276.517	4331
276.576	2880
276.636	2492
276.696	5651
276.756	12546
276.815	9355
276.875	4253
276.935	4928
276.995	4977
277.055	4002
277.114	4128
277.174	5868
277.234	17900
277.293	6712
277.353	4265
277.413	3443
277.472	3893
277.532	4178
277.592	3562
277.651	8044
277.711	13158
277.771	5360
277.830	20498
277.890	15611
277.950	11422
278.009	29365
278.069	11560
278.128	10784
278.188	13310
278.248	7107
278.307	15330
278.367	10398
278.426	4290
278.486	3702
278.545	3438
278.605	2725
278.664	3425
278.724	4108
278.783	11959
278.843	27682
278.902	9765
278.962	5030
279.021	5706
279.081	5663
279.140	5916
279.199	6302
279.259	6624
279.318	4196
279.378	6325
279.437	9841
279.496	29547
279.556	68588
279.615	48634
279.675	13791
279.734	9977
279.793	16223
279.853	23280
279.912	9678
279.971	6689
280.031	4887
280.090	9788
280.149	15568
280.208	12267
280.268	49244
280.327	44894
280.386	10251
280.445	13006
280.505	12743
280.564	6599
280.623	5491
280.682	9475
280.742	13794
280.801	4169
280.860	3876
280.919	4017
280.978	3003
281.037	2407
281.097	2512
281.156	3633
281.215	2864
281.274	4552
281.333	18028
281.392	13756
281.451	3892
281.510	3370
281.569	3491
281.628	3164
281.688	2343
281.747	3804
281.806	2904
281.865	1852
281.924	2324
281.983	3486
282.042	1916
282.101	2504
282.160	2290
282.219	2059
282.278	3229
282.337	11371
282.396	6904
282.454	3002
282.513	3516
282.572	16826
282.631	9078
282.690	3364
282.749	2489
282.808	4240
282.867	4186
282.926	4508
282.985	2238
283.043	2251
283.102	2823
283.161	3997
283.220	8577
283.279	18068
283.338	7633
283.396	4078
283.455	3343
283.514	4839
283.573	6298
283.631	4455
283.690	3630
283.749	3797
283.808	7782
283.866	8838
283.925	3239
283.984	3830
284.043	4516
284.101	5128
284.160	2481
284.219	4515
284.277	4013
284.336	6541
284.395	21034
284.453	16907
284.512	5903
284.570	8207
284.629	6527
284.688	5499
284.746	4606
284.805	6220
284.863	7047
284.922	9278
284.981	9612
285.039	14861
285.098	25916
285.156	64402
285.215	129781
285.273	132352
285.332	78651
285.390	39869
285.449	24982
285.507	16455
285.566	13024
285.624	9232
285.683	8124
285.741	6454
285.799	4869
285.858	5245
285.916	5115
285.975	3712
286.033	3932
286.091	3477
286.150	2473
286.208	3670
286.267	4017
286.325	4516
286.383	7475
286.442	6000
286.500	3709
286.558	3222
286.616	2820
286.675	3670
286.733	3751
286.791	3224
286.850	4288
286.908	5572
286.966	9738
287.024	5054
287.083	3124
287.141	3147
287.199	3802
287.257	5219
287.315	4104
287.374	4452
287.432	12066
287.490	8444
287.548	3723
287.606	4569
287.664	2898
287.723	5265
287.781	7244
287.839	5167
287.897	6463
287.955	8915
288.013	15390
288.071	34734
288.129	102451
288.187	205173
288.245	115255
288.303	46006
288.361	26551
288.419	19385
288.477	13873
288.535	10023
288.593	7744
288.651	6112
288.709	4892
288.767	4246
288.825	3974
288.883	3243
288.941	3831
288.999	3162
289.057	2990
289.115	2727
289.173	2271
289.231	3529
289.289	3312
289.346	3547
289.404	3209
289.462	5345
289.520	4614
289.578	3541
289.636	3449
289.694	2914
289.751	1614
289.809	1586
289.867	2526
289.925	4067
289.983	5222
290.040	3506
290.098	2149
290.156	3331
290.214	3474
290.271	2740
290.329	2102
290.387	2162
290.444	2348
290.502	2383
290.560	2588
290.617	3244
290.675	2301
290.733	2433
290.790	2702
290.848	2514
290.906	3593
290.963	2904
291.021	2458
291.078	3253
291.136	3963
291.194	11527
291.251	23099
291.309	6330
291.366	3165
291.424	2845
291.481	2623
291.539	2929
291.596	1972
291.654	1914
291.711	2467
291.769	2491
291.826	4613
291.884	3326
291.941	2469
291.999	2315
292.056	2335
292.114	3183
292.171	2629
292.228	3204
292.286	2993
292.343	6138
292.401	7462
292.458	3799
292.515	2937
292.573	3531
292.630	3337
292.687	2952
292.745	2718
292.802	4866
292.859	13858
292.917	19573
292.974	11275
293.031	4169
293.089	2922
293.146	2701
293.203	2079
293.260	2316
293.318	2936
293.375	6502
293.432	3327
293.489	2285
293.546	2021
293.604	5693
293.661	11541
293.718	32262
293.775	16668
293.832	6571
293.889	4753
293.947	4257
294.004	3042
294.061	4359
294.118	10793
294.175	22055
294.232	30146
294.289	11485
294.346	6536
294.403	7852
294.460	4507
294.517	3778
294.574	3752
294.631	3237
294.688	5092
294.745	11831
294.802	38886
294.859	45984
294.916	15467
294.973	8479
295.030	6528
295.087	6012
295.144	4636
295.201	4375
295.258	3466
295.315	5474
295.372	14063
295.429	25649
295.486	11630
295.542	8308
295.599	22340
295.656	36578
295.713	22907
295.770	25990
295.827	10837
295.883	6042
295.940	5787
295.997	8541
296.054	7232
296.111	4784
296.167	4091
296.224	3381
296.281	3267
296.338	3327
296.394	3424
296.451	4985
296.508	12513
296.564	23072
296.621	16585
296.678	32153
296.734	44481
296.791	17131
296.848	9450
296.904	9530
296.961	19666
297.018	30306
297.074	22268
297.131	9769
297.187	7726
297.244	10522
297.301	27743
297.357	49509
297.414	17447
297.470	8545
297.527	6276
297.583	5490
297.640	4528
297.696	4652
297.753	3059
297.809	3108
297.866	2757
297.922	2914
297.979	2672
298.035	4730
298.092	6696
298.148	17087
298.204	15114
298.261	8996
298.317	15829
298.374	37761
298.430	20027
298.486	8868
298.543	6443
298.599	7861
298.656	9078
298.712	14930
298.768	36656
298.824	26431
298.881	9088
298.937	6022
298.993	5948
299.050	6358
299.106	6748
299.162	4735
299.218	5711
299.275	4305
299.331	5825
299.387	9737
299.443	31585
299.500	30422
299.556	10911
299.612	6693
299.668	6050
299.724	5909
299.780	4317
299.837	4514
299.893	7823
299.949	24785
300.005	27408
300.061	23725
300.117	42517
300.173	20606
300.229	9192
300.285	11228
300.341	13499
300.397	7081
300.453	4632
300.510	4649
300.566	3857
300.622	4640
300.678	9051
300.734	21675
300.790	23591
300.845	29078
300.901	16599
300.957	23616
301.013	18599
301.069	7618
301.125	5697
301.181	5802
301.237	4963
301.293	4118
301.349	3091
301.405	3504
301.461	3840
301.516	6655
301.572	5366
301.628	8385
301.684	7265
301.740	11960
301.796	19943
301.851	12416
301.907	20791
301.963	21878
302.019	33772
302.074	83369
302.130	82161
302.186	39379
302.242	16856
302.297	11381
302.353	10982
302.409	20041
302.464	17330
302.520	14037
302.576	31366
302.631	35467
302.687	20487
302.743	9320
302.798	5641
302.854	4759
302.910	5681
302.965	7422
303.021	10647
303.076	10459
303.132	12878
303.187	15199
303.243	8633
303.299	5896
303.354	4786
303.410	5539
303.465	3872
303.521	4556
303.576	4238
303.632	6399
303.687	10560
303.743	28091
303.798	23946
303.853	10671
303.909	6363
303.964	6252
304.020	9003
304.075	12584
304.130	10280
304.186	18859
304.241	19279
304.297	16176
304.352	8307
304.358	8107
304.407	6482
304.449	5720
304.463	5467
304.518	6141
304.539	5468
304.573	4393
304.629	5246
304.630	5318
304.684	8780
304.720	16734
304.739	20733
304.794	32559
304.811	27559
304.850	15408
304.902	8020
304.905	7566
304.960	5897
304.992	6207
305.015	6383
305.071	6351
305.083	6185
305.126	5592
305.173	4055
305.181	3819
305.236	3091
305.264	4004
305.292	4916
305.347	4932
305.354	5022
305.402	5618
305.445	6125
305.457	6246
305.512	6874
305.535	6935
305.567	7089
305.622	8741
305.626	8937
305.678	14064
305.716	26091
305.733	30312
305.788	33739
305.807	29424
305.843	22081
305.897	28169
305.898	28227
305.953	28721
305.988	20050
306.008	15293
306.063	10669
306.078	9594
306.118	7066
306.168	5272
306.173	5139
306.228	4227
306.259	4252
306.283	4324
306.338	3560
306.349	3701
306.393	4318
306.440	4928
306.448	5043
306.503	5399
306.530	5754
306.558	7101
306.613	14991
306.620	15980
306.668	22603
306.711	29079
306.723	29629
306.778	23432
306.801	18418
306.833	12505
306.888	6708
306.892	6492
306.943	5453
306.982	5140
306.997	5036
307.052	4432
307.072	4452
307.107	4883
307.162	6423
307.163	6447
307.217	8832
307.253	9538
307.272	9621
307.327	10687
307.343	10125
307.381	8780
307.434	8398
307.436	8606
307.491	15473
307.524	22500
307.546	24827
307.600	27101
307.614	24639
307.655	15361
307.704	9258
307.710	9089
307.765	10081
307.795	11749
307.819	13692
307.874	20781
307.885	21019
307.929	18810
307.975	17150
307.984	17818
308.038	25685
308.065	32315
308.093	51310
308.148	101099
308.156	110976
308.202	163781
308.246	197822
308.257	192798
308.312	120290
308.336	89611
308.366	68606
308.421	41752
308.426	39515
308.475	26964
308.517	19390
308.530	18022
308.585	14954
308.607	14038
308.639	13416
308.694	13369
308.697	13420
308.748	19264
308.787	26226
308.803	26444
308.857	21790
308.877	19609
308.912	18021
308.967	18221
308.967	18246
309.021	25054
309.058	31320
309.076	39411
309.130	68745
309.148	80834
309.185	131496
309.238	214142
309.239	214876
309.293	231259
309.328	224235
309.348	199591
309.402	112669
309.418	89924
309.457	63643
309.508	38031
309.511	37247
309.566	28629
309.598	24174
309.620	23191
309.674	21609
309.688	21565
309.729	20190
309.778	17829
309.783	17645
309.837	16021
309.868	15445
309.892	19268
309.946	29917
309.959	33144
310.001	44124
310.049	54075
310.055	52365
310.109	31923
310.139	20200
310.163	16036
310.218	9896
310.229	8839
310.272	7475
310.319	6329
310.326	6269
310.381	5870
310.409	5842
310.435	5768
310.489	5439
310.499	5438
310.543	5518
310.589	5478
310.598	5504
310.652	5961
310.679	5950
310.706	5468
310.760	4624
310.769	4485
310.814	4218
310.859	4071
310.868	4125
310.923	4427
310.948	4584
310.977	4906
311.031	5542
311.038	5631
311.085	5513
311.128	5118
311.139	5107
311.193	5260
311.218	5293
311.247	5190
311.301	4950
311.308	4925
311.356	5074
311.398	5148
311.410	5155
311.464	5169
311.488	5187
311.518	5119
311.572	4879
311.578	4857
311.626	5967
311.668	6950
311.680	7042
311.734	7301
311.758	7436
311.788	7029
311.842	6275
311.847	6190
311.896	8567
311.937	10699
311.950	10619
312.004	10137
312.027	9905
312.058	8196
312.112	5139
312.117	4833
312.165	5157
312.207	5436
312.297	9139
312.386	7498
312.476	6609
312.566	10647
312.656	6364
312.745	4555
312.835	5294
312.925	6558
313.015	5871
313.104	4746
313.194	4894
313.284	5377
313.374	7030
313.463	5833
313.553	4727
313.643	4900
313.732	4729
313.822	4297
313.912	5930
314.001	5642
314.091	6813
314.180	9530
314.270	7764
314.360	7741
314.449	6791
314.539	4490
314.628	4458
314.718	5200
314.808	6575
314.897	5250
314.987	4644
315.076	6034
315.166	6968
315.255	6526
315.345	7158
315.434	6097
315.524	6430
315.613	5434
315.703	7106
315.792	6838
315.881	7244
315.971	5785
316.060	9296
316.150	13068
316.239	13670
316.328	7128
316.418	4789
316.507	4654
316.597	5079
316.686	4965
316.775	6915
316.865	14218
316.954	5202
317.043	3185
317.133	4622
317.222	4166
317.311	4612
317.400	3833
317.490	6352
317.579	6392
317.668	4949
317.757	6072
317.847	7096
317.936	10675
318.025	13404
318.114	8080
318.203	7033
318.293	13914
318.382	31585
318.471	23220
318.560	30609
318.649	60678
318.738	13787
318.828	8163
318.917	9431
319.006	10744
319.095	20374
319.184	70762
319.273	36923
319.362	18007
319.451	6246
319.540	6794
319.629	12392
319.718	20168
319.807	12192
319.896	21694
319.985	85000
320.074	31296
320.163	8440
320.252	11366
320.341	11463
320.430	11423
320.519	10977
320.608	7195
320.697	6665
320.786	6968
320.875	7219
320.964	8085
321.053	12943
321.142	16813
321.230	19415
321.319	15151
321.408	34218
321.497	16237
321.586	13467
321.675	14808
321.764	15960
321.852	11534
321.941	19286
322.030	14032
322.119	14286
322.207	33118
322.296	22115
322.385	13781
322.474	13039
322.562	38658
322.651	22598
322.740	13323
322.829	18332
322.917	18948
323.006	12059
323.095	10660
323.183	9198
323.272	12276
323.361	20305
323.449	54836
323.538	20536
323.626	38580
323.715	24737
323.804	11821
323.892	34060
323.981	21500
324.069	7898
324.158	18168
324.246	18961
324.335	8247
324.424	12989
324.512	7093
324.601	10331
324.689	21162
324.778	41316
324.866	14944
324.954	6170
325.043	6244
325.131	9530
325.220	15183
325.308	16751
325.397	12906
325.485	8822
325.574	3915
325.662	4859
325.750	4453
325.839	5418
325.927	4399
326.015	5391
326.104	7372
326.192	9381
326.280	4839
326.369	5263
326.457	6326
326.545	11896
326.634	6515
326.722	4109
326.810	4655
326.898	4566
326.987	5464
327.075	9688
327.163	10787
327.251	8003
327.340	16512
327.428	25899
327.516	5742
327.604	4585
327.692	4021
327.781	5605
327.869	7906
327.957	5320
328.045	5758
328.133	4386
328.221	4672
328.309	5225
328.397	4345
328.485	6445
328.574	7082
328.662	21349
328.750	13085
328.838	6649
328.926	5321
329.014	5249
329.102	6639
329.190	18165
329.278	12732
329.366	5944
329.454	5013
329.542	6137
329.630	6120
329.718	7113
329.806	9541
329.893	13195
329.981	20123
330.069	41692
330.157	130248
330.245	282043
330.333	180335
330.421	44323
330.509	20691
330.597	31308
330.684	23174
330.772	11803
330.860	13330
330.948	18050
331.036	9286
331.123	5136
331.211	6205
331.299	7981
331.387	13588
331.475	24397
331.562	7758
331.650	4596
331.738	5054
331.825	6065
331.913	4236
332.001	4167
332.089	5645
332.176	10064
332.264	17527
332.352	15549
332.439	6730
332.527	4829
332.614	4059
332.702	5144
332.790	5078
332.877	8438
332.965	15871
333.052	4752
333.140	4655
333.228	7827
333.315	4630
333.403	4326
333.490	10993
333.578	9244
333.665	6887
333.753	6791
333.840	4502
333.928	5161
334.015	12584
334.103	22418
334.190	79436
334.278	21676
334.365	7476
334.452	5604
334.540	4746
334.627	5262
334.715	7113
334.802	12495
334.889	58057
334.977	60472
335.064	8935
335.151	5486
335.239	6112
335.326	10115
335.413	40844
335.501	61746
335.588	8965
335.675	6018
335.762	6966
335.850	13972
335.937	7683
336.024	16846
336.111	70581
336.199	29942
336.286	6366
336.373	4164
336.460	3388
336.547	2800
336.635	4765
336.722	5033
336.809	4837
336.896	7215
336.983	25356
337.070	64453
337.157	88878
337.245	46262
337.332	30422
337.419	5956
337.506	4718
337.593	7046
337.680	20160
337.767	68355
337.854	17955
337.941	19300
338.028	16003
338.115	6887
338.202	9740
338.289	14127
338.376	41792
338.463	16922
338.550	37157
338.637	42535
338.724	10143
338.811	13746
338.898	4887
338.984	4324
339.071	5715
339.158	5804
339.245	13491
339.332	9010
339.419	9978
339.506	9752
339.593	3342
339.679	3815
339.766	3451
339.853	5446
339.940	10628
340.027	4974
340.113	4468
340.200	5840
340.287	4049
340.374	5058
340.460	9092
340.547	4687
340.634	7749
340.720	25101
340.807	16082
340.894	3953
340.980	4081
341.067	3013
341.154	4489
341.240	6299
341.327	12498
341.414	4345
341.500	5664
341.587	4139
341.674	3921
341.760	8848
341.847	10039
341.933	3929
342.020	1880
342.106	2754
342.193	4139
342.279	7222
342.366	5142
342.452	8558
342.539	5519
342.625	10699
342.712	27541
342.798	12406
342.885	5724
342.971	3201
343.058	1946
343.144	2868
343.230	2987
343.317	3086
343.403	3141
343.490	2657
343.576	2450
343.662	3692
343.749	4306
343.835	5424
343.921	10760
344.008	52865
344.094	126406
344.180	29868
344.267	11042
344.353	32765
344.439	36357
344.525	14563
344.612	11223
344.698	11371
344.784	6647
344.870	4310
344.957	3404
345.043	6130
345.129	4236
345.215	8342
345.301	5811
345.387	3882
345.474	2288
345.560	2605
345.646	4039
345.732	3512
345.818	3616
345.904	3253
345.990	3922
346.076	3720
346.162	8221
346.249	3823
346.335	3577
346.421	4549
346.507	14014
346.593	48762
346.679	13684
346.765	4869
346.851	2859
346.937	3441
347.023	3188
347.108	4064
347.194	3389
347.280	3430
347.366	3668
347.452	13116
347.538	57183
347.624	43814
347.710	35525
347.796	5976
347.882	3602
347.967	3552
348.053	5534
348.139	4281
348.225	2703
348.311	2418
348.397	2307
348.482	4159
348.568	5071
348.654	2349
348.740	2761
348.825	1943
348.911	6707
348.997	25107
349.083	54136
349.168	10592
349.254	4102
349.340	4145
349.425	2943
349.511	5006
349.597	5235
349.682	9385
349.768	35052
349.854	18189
349.939	4250
350.025	3409
350.110	3187
350.196	3150
350.282	2368
350.367	2636
350.453	4225
350.538	4186
350.624	4954
350.709	5002
350.795	2598
350.880	2848
350.966	3841
351.051	4537
351.137	3421
351.222	3611
351.308	10449
351.393	30428
351.479	8508
351.564	3884
351.649	3646
351.735	3032
351.820	3239
351.906	3605
351.991	4970
352.076	18314
352.162	29527
352.247	6177
352.332	4337
352.418	8142
352.503	10710
352.588	41823
352.673	32860
352.759	7428
352.844	4915
352.929	4167
353.014	4685
353.100	4020
353.185	4398
353.270	9165
353.355	9251
353.441	3885
353.526	3646
353.611	8434
353.696	9877
353.781	6521
353.866	2640
353.952	4531
354.037	8068
354.122	18509
354.207	16849
354.292	7437
354.377	3103
354.462	3160
354.547	4572
354.632	5094
354.717	5998
354.802	4975
354.887	3375
354.972	2873
355.057	3173
355.142	2144
355.227	3937
355.312	5793
355.397	12855
355.482	27975
355.567	14984
355.652	10827
355.737	12166
355.822	37554
355.907	33267
355.991	6189
356.076	3044
356.161	2827
356.246	2936
356.331	3975
356.416	9183
356.501	59085
356.585	66808
356.670	10249
356.755	7449
356.840	9643
356.924	36780
357.009	137859
357.094	55618
357.179	12314
357.263	8065
357.348	7910
357.433	8957
357.517	7212
357.602	5769
357.687	4658
357.771	8480
357.856	36547
357.941	23816
358.025	33504
358.110	145011
358.195	73013
358.279	11492
358.364	8365
358.448	23579
358.533	69968
358.617	51186
358.702	51675
358.787	20327
358.871	10444
358.956	9153
359.040	3474
359.125	2974
359.209	3378
359.294	16243
359.378	30537
359.462	9961
359.547	5041
359.631	3722
359.716	2782
359.800	3750
359.885	6790
359.969	3540
360.053	3661
360.138	4008
360.222	5646
360.306	9770
360.391	8984
360.475	16901
360.559	38784
360.644	26997
360.728	18928
360.812	31554
360.896	93895
360.981	41886
361.065	21063
361.149	7045
361.233	5787
361.318	3383
361.402	5256
361.486	5569
361.570	4353
361.654	5703
361.739	12504
361.823	55122
361.907	96159
361.991	18120
362.075	8778
362.159	17849
362.243	12838
362.327	8357
362.411	8782
362.495	5467
362.580	4265
362.664	3494
362.748	2990
362.832	3866
362.916	4641
363.000	13552
363.084	52085
363.168	105824
363.252	26649
363.336	10078
363.420	12712
363.503	56797
363.587	73035
363.671	13141
363.755	7268
363.839	10304
363.923	5058
364.007	10646
364.091	12314
364.175	19301
364.258	91913
364.342	49071
364.426	18384
364.510	11788
364.594	12547
364.677	17623
364.761	79911
364.845	60600
364.929	17931
365.013	14361
365.096	11615
365.180	15145
365.264	22852
365.347	95844
365.431	44725
365.515	11747
365.598	3783
365.682	6633
365.766	10113
365.849	14510
365.933	5902
366.017	8083
366.100	7727
366.184	2917
366.267	3975
366.351	3583
366.435	2952
366.518	2809
366.602	2839
366.685	2493
366.769	4130
366.852	9254
366.936	14915
367.019	7756
367.103	6925
367.186	15923
367.270	5274
367.353	1831
367.436	3503
367.520	2590
367.603	4314
367.687	5021
367.770	10457
367.853	6942
367.937	24099
368.020	43283
368.104	9892
368.187	8448
368.270	14009
368.353	14064
368.437	12694
368.520	26957
368.603	18703
368.687	27739
368.770	56742
368.853	15234
368.936	12987
369.020	15916
369.103	5604
369.186	5006
369.269	4974
369.352	7374
369.436	11079
369.519	7608
369.602	3379
369.685	5412
369.768	4766
369.851	4360
369.934	3412
370.018	4369
370.101	8276
370.184	9034
370.267	7782
370.350	12974
370.433	18111
370.516	43485
370.599	50859
370.682	12307
370.765	28478
370.848	34300
370.931	66250
371.014	28405
371.097	6126
371.180	4900
371.263	2917
371.346	2356
371.429	3341
371.511	2267
371.594	6280
371.677	13445
371.760	17082
371.843	12527
371.926	53074
372.009	130890
372.091	44519
372.174	23860
372.257	65133
372.340	26933
372.423	19399
372.505	26690
372.588	10639
372.671	17853
372.754	62759
372.836	34947
372.919	28082
373.002	61632
373.085	17674
373.167	10914
373.250	26315
373.332	63680
373.415	79994
373.498	166206
373.580	64569
373.663	71105
373.746	105233
373.828	26186
373.911	11590
373.993	12590
374.076	54641
374.159	54468
374.241	18103
374.324	52835
374.406	38030
374.489	45906
374.571	140113
374.654	60506
374.736	26763
374.819	84007
374.901	115039
374.983	123604
375.066	24677
375.148	9904
375.231	41208
375.313	87709
375.395	33135
375.478	7517
375.560	5509
375.643	6361
375.725	22111
375.807	100007
375.890	80189
375.972	27782
376.054	15949
376.136	21742
376.219	11432
376.301	27533
376.383	87914
376.465	34976
376.548	17757
376.630	23426
376.712	74421
376.794	36813
376.877	5336
376.959	3147
377.041	4386
377.123	12170
377.205	16339
377.287	3709
377.369	3652
377.452	2806
377.534	3314
377.616	2436
377.698	3034
377.780	2367
377.862	3066
377.944	2941
378.026	1980
378.108	2828
378.190	2522
378.272	3150
378.354	2102
378.436	2900
378.518	6133
378.600	23330
378.682	18900
378.764	38376
378.846	31491
378.928	9668
379.010	11652
379.091	7265
379.173	2844
379.255	3027
379.337	4479
379.419	16154
379.501	54654
379.583	24525
379.664	6078
379.746	11649
379.828	36449
379.910	51294
379.991	46111
380.073	9060
380.155	4566
380.237	3662
380.318	2897
380.400	3338
380.482	7012
380.564	10817
380.645	8447
380.727	9550
380.809	6948
380.890	4202
380.972	2308
381.053	3249
381.135	4580
381.217	12386
381.298	39293
381.380	20286
381.461	14902
381.543	68915
381.624	92064
381.706	18446
381.787	9424
381.869	11147
381.951	28718
382.032	120697
382.113	81161
382.195	17606
382.276	11206
382.358	20038
382.439	66171
382.521	72528
382.602	115573
382.684	49595
382.765	85596
382.846	73195
382.928	46780
383.009	27178
383.090	20572
383.172	64664
383.253	96622
383.334	50584
383.416	92554
383.497	48776
383.578	14047
383.659	22105
383.741	63688
383.822	151155
383.903	82910
383.984	52890
384.066	119787
384.147	78515
384.228	15729
384.309	9764
384.390	6975
384.471	4964
384.553	6362
384.634	8944
384.715	9153
384.796	4218
384.877	7015
384.958	31390
385.039	42392
385.120	15378
385.201	7140
385.282	7674
385.363	10387
385.444	6831
385.525	14426
385.606	55326
385.687	50181
385.768	12186
385.849	14432
385.930	58211
386.011	110289
386.092	31719
386.173	7066
386.254	5465
386.335	6706
386.416	6769
386.496	22745
386.577	39458
386.658	14325
386.739	8725
386.820	9436
386.901	7185
386.981	6596
387.062	4744
387.143	7393
387.224	33389
387.304	35558
387.385	12077
387.466	8374
387.547	12148
387.627	6702
387.708	12920
387.789	62297
387.869	83385
387.950	23913
388.031	5148
388.111	4629
388.192	14395
388.273	21194
388.353	12864
388.434	6828
388.514	12560
388.595	61268
388.676	84052
388.756	39279
388.837	33902
388.917	21588
388.998	5869
389.078	5074
389.159	3976
389.239	3433
389.320	7490
389.400	4915
389.480	14432
389.561	43151
389.641	22723
389.722	6661
389.802	11449
389.883	17138
389.963	50186
390.043	31480
390.124	10395
390.204	15285
390.284	41852
390.365	28456
390.445	39074
390.525	107047
390.605	94862
390.686	28862
390.766	9220
390.846	5036
390.927	3594
391.007	3594
391.087	5590
391.167	4711
391.247	3223
391.328	6869
391.408	12126
391.488	10765
391.568	3116
391.648	5035
391.728	7367
391.808	6519
391.888	7395
391.969	21433
392.049	39230
392.129	18329
392.209	17943
392.289	48193
392.369	27158
392.449	24744
392.529	14699
392.609	8882
392.689	11616
392.769	42064
392.849	38390
392.929	22979
393.009	63481
393.089	42055
393.169	15521
393.248	40114
393.328	211279
393.408	244261
393.488	50762
393.568	13927
393.648	9058
393.728	6810
393.807	5637
393.887	6794
393.967	7896
394.047	10385
394.127	13567
394.206	25203
394.286	84490
394.366	328378
394.446	381096
394.525	116259
394.605	33046
394.685	20735
394.764	37861
394.844	62451
394.924	44422
395.003	13037
395.083	9368
395.163	8436
395.242	8024
395.322	8662
395.402	5915
395.481	9824
395.561	22898
395.640	66864
395.720	44912
395.799	74560
395.879	66711
395.958	44865
396.038	130299
396.117	419995
396.197	486837
396.276	195289
396.356	67680
396.435	41243
396.515	23802
396.594	17793
396.673	20817
396.753	54978
396.832	205261
396.912	173494
396.991	46751
397.070	12894
397.150	6009
397.229	5498
397.308	5494
397.388	6897
397.467	5866
397.546	4508
397.625	2693
397.705	6043
397.784	6185
397.863	4334
397.942	2846
398.022	4620
398.101	18899
398.180	65436
398.259	35765
398.338	8877
398.417	5010
398.497	3828
398.576	5006
398.655	3181
398.734	3347
398.813	3937
398.892	17501
398.971	69229
399.050	36074
399.129	4394
399.208	3030
399.287	3966
399.366	2334
399.445	2865
399.524	3571
399.603	1415
399.682	5883
399.761	16961
399.840	71003
399.919	59488
399.998	8727
400.077	2830
400.156	1346
400.235	4491
400.313	2283
400.392	3197
400.471	18583
400.550	31967
400.629	8586
400.708	4432
400.786	4845
400.865	15761
400.944	16977
401.023	8028
401.102	1672
401.180	1959
401.259	2857
401.338	3427
401.416	4608
401.495	3522
401.574	4116
401.652	2955
401.731	4668
401.810	2749
401.888	2026
401.967	1198
402.046	2717
402.124	4183
402.203	5210
402.281	3690
402.360	5363
402.438	18975
402.517	14358
402.596	5059
402.674	4317
402.753	2623
402.831	2667
402.910	2732
402.988	7339
403.066	21923
403.145	13823
403.223	8607
403.302	18235
403.380	14067
403.459	11126
403.537	6157
403.615	3015
403.694	1408
403.772	2806
403.850	2079
403.929	2262
404.007	1609
404.085	5274
404.164	2929
404.242	3822
404.320	15338
404.398	56860
404.477	63187
404.555	98550
404.633	93279
404.711	46430
404.789	29396
404.868	6943
404.946	3018
405.024	2398
405.102	2320
405.180	1679
405.258	1016
405.336	2804
405.415	2362
405.493	5895
405.571	5120
405.649	1852
405.727	2443
405.805	5237
405.883	3753
405.961	4533
406.039	5678
406.117	1579
406.195	4871
406.273	18336
406.351	77419
406.429	50865
406.507	9282
406.585	4184
406.663	3212
406.740	3600
406.818	2921
406.896	2625
406.974	2904
407.052	6056
407.130	42563
407.208	67479
407.285	14394
407.363	2724
407.441	3480
407.519	2077
407.596	2569
407.674	6216
407.752	17109
407.830	22612
407.907	11208
407.985	2730
408.063	2658
408.141	1148
408.218	5158
408.296	3707
408.373	2095
408.451	2564
408.529	2737
408.606	1279
408.684	946
408.762	1505
408.839	944
408.917	525
408.994	1068
409.072	1365
409.149	1655
409.227	2669
409.304	2423
409.382	1740
409.459	1362
409.537	2553
409.614	2642
409.692	1715
409.769	1304
409.846	1706
409.924	3728
410.001	4153
410.079	2707
410.156	2692
410.233	2990
410.311	2066
410.388	1926
410.465	3384
410.543	3757
410.620	2187
410.697	2233
410.775	2261
410.852	-40
410.929	3373
411.006	5452
411.083	2935
411.161	7997
411.238	10010
411.315	4364
411.392	1951
411.469	4505
411.547	5058
411.624	1813
411.701	2615
411.778	2525
411.855	4914
411.932	2775
412.009	1511
412.086	1890
412.163	1856
412.240	2923
412.317	5121
412.394	4493
412.471	1710
412.548	1039
412.625	1424
412.702	2503
412.779	7061
412.856	5692
412.933	1542
413.010	1461
413.087	3836
413.164	16409
413.241	26500
413.318	7058
413.395	3982
413.471	6629
413.548	3287
413.625	2484
413.702	1738
413.779	2480
413.855	1503
413.932	1206
414.009	591
414.086	1391
414.162	2439
414.239	3704
414.316	15853
414.393	39643
414.469	14850
414.546	2368
414.623	2035
414.699	1806
414.776	1632
414.853	2037
414.929	1513
415.006	1878
415.082	3219
415.159	2303
415.236	2499
415.312	2274
415.389	3207
415.465	4267
415.542	3237
415.618	1546
415.695	3393
415.771	1946
415.848	2011
415.924	2749
416.000	2420
416.077	1904
416.153	336
416.230	525
416.306	1372
416.383	1220
416.459	1988
416.535	708
416.612	463
416.688	262
416.764	1484
416.841	452
416.917	505
416.993	2077
417.069	2918
417.146	3804
417.222	8621
417.298	3775
417.374	1912
417.451	1961
417.527	2115
417.603	1720
417.679	2096
417.755	2267
417.831	901
417.908	1501
417.984	438
418.060	800
418.136	3821
418.212	5266
418.288	2953
418.364	1696
418.440	1352
418.516	3003
418.592	4759
418.668	8691
418.744	10000
418.820	8185
418.896	2236
418.972	361
419.048	1508
419.124	4820
419.200	3404
419.276	1042
419.352	319
419.428	868
419.504	1283
419.579	2195
419.655	1441
419.731	1647
419.807	6202
419.883	11822
419.959	8151
420.034	3247
420.110	4944
420.186	23020
420.262	21205
420.337	4075
420.413	2281
420.489	1446
420.565	2415
420.640	1245
420.716	1973
420.792	396
420.867	1915
420.943	900
421.019	2593
421.094	1824
421.170	1439
421.245	702
421.321	1669
421.397	1600
421.472	3031
421.548	8353
421.623	7382
421.699	2739
421.774	2240
421.850	1403
421.925	3744
422.001	3959
422.076	2549
422.152	2563
422.227	4234
422.302	5506
422.378	6179
422.453	10301
422.529	26558
422.604	109053
422.679	248367
422.755	142761
422.830	35349
422.905	11309
422.981	6667
423.056	3463
423.131	3031
423.207	2596
423.282	3254
423.357	7182
423.432	5163
423.508	4295
423.583	9477
423.658	8527
423.733	2634
423.808	3415
423.883	3749
423.959	3069
424.034	1764
424.109	1985
424.184	354
424.259	1008
424.334	864
424.409	467
424.484	940
424.559	1830
424.634	700
424.709	2166
424.784	3276
424.859	1247
424.934	2835
425.009	14859
425.084	27493
425.159	9799
425.234	2579
425.309	1654
425.384	8081
425.459	16966
425.534	5694
425.609	2111
425.683	1427
425.758	432
425.833	1827
425.908	2688
425.983	7801
426.058	26595
426.132	13232
426.207	3478
426.282	5961
426.357	4962
426.431	1288
426.506	1499
426.581	1761
426.655	2307
426.730	1546
426.805	374
426.879	2198
426.954	2183
427.029	4448
427.103	22307
427.178	67060
427.253	32874
427.327	5005
427.402	5950
427.476	19470
427.551	10565
427.625	3299
427.700	2626
427.774	2110
427.849	2285
427.923	544
427.998	1422
428.072	1774
428.147	4700
428.221	11885
428.296	28649
428.370	14671
428.444	3723
428.519	6117
428.593	14857
428.667	12352
428.742	14275
428.816	11423
428.890	26052
428.965	39350
429.039	19048
429.113	16232
429.188	6522
429.262	2067
429.336	3750
429.410	12635
429.485	8916
429.559	12066
429.633	11062
429.707	2499
429.781	6356
429.855	31045
429.930	45613
430.004	34019
430.078	64996
430.152	51278
430.226	44376
430.300	44043
430.374	7580
430.448	5004
430.522	19714
430.596	62855
430.670	36097
430.744	43856
430.818	77302
430.892	18647
430.966	3978
431.040	2583
431.114	821
431.188	744
431.262	1571
431.336	1099
431.410	6400
431.484	17681
431.557	10804
431.631	1613
431.705	1225
431.779	3655
431.853	20555
431.927	15289
432.000	3148
432.074	2452
432.148	2521
432.222	2873
432.295	1291
432.369	1360
432.443	3313
432.516	24372
432.590	69070
432.664	27453
432.737	3372
432.811	708
432.885	576
432.958	986
433.032	1138
433.106	550
433.179	1123
433.253	1781
433.326	906
433.400	433
433.473	1050
433.547	-76
433.620	201
433.694	2363
433.767	2966
433.841	1015
433.914	715
433.988	1173
434.061	1052
434.134	1575
434.208	328
434.281	1104
434.355	204
434.428	1886
434.501	639
434.575	-14
434.648	394
434.721	708
434.795	641
434.868	129
434.941	486
435.014	338
435.088	557
435.161	1714
435.234	1792
435.307	3101
435.381	1334
435.454	1004
435.527	710
435.600	457
435.673	337
435.746	-58
435.819	397
435.892	228
435.966	827
436.039	866
436.112	1177
436.185	548
436.258	928
436.331	-139
436.404	-31
436.477	629
436.550	-56
436.623	973
436.696	532
436.769	1196
436.842	452
436.915	946
436.987	2240
437.060	1222
437.133	665
437.206	91
437.279	1619
437.352	-202
437.425	448
437.498	1431
437.570	4435
437.643	4281
437.716	1333
437.789	1125
437.861	4466
437.934	13260
438.007	6625
438.080	1051
438.152	1293
438.225	4614
438.298	30411
438.370	95868
438.443	45997
438.516	13098
438.588	3076
438.661	1066
438.734	1485
438.806	1277
438.879	2269
438.951	3223
439.024	6639
439.096	2308
439.169	1627
439.241	1307
439.314	698
439.386	3000
439.459	3749
439.531	6177
439.604	3020
439.676	941
439.749	699
439.821	353
439.893	1302
439.966	971
440.038	2007
440.110	2899
440.183	1212
440.255	1245
440.327	2463
440.400	13271
440.472	57187
440.544	40834
440.617	5746
440.689	4209
440.761	5820
440.833	10062
440.905	6514
440.978	1185
441.050	756
441.122	605
441.194	690
441.266	730
441.338	470
441.411	1893
441.483	16165
441.555	26310
441.627	6026
441.699	3461
441.771	4501
441.843	1674
441.915	726
441.987	1131
442.059	1364
442.131	1095
442.203	3289
442.275	3504
442.347	2784
442.419	2068
442.491	5395
442.563	16513
442.635	10082
442.706	14493
442.778	13121
442.850	2078
442.922	637
442.994	1079
443.066	2657
443.137	2454
443.209	1041
443.281	1884
443.353	4045
443.425	11526
443.496	32349
443.568	29094
443.640	10040
443.711	3923
443.783	1632
443.855	1570
443.926	541
443.998	1691
444.070	2005
444.141	2479
444.213	3338
444.285	3562
444.356	2200
444.428	2536
444.499	920
444.571	656
444.642	351
444.714	881
444.785	2426
444.857	4075
444.928	11605
445.000	6255
445.071	7119
445.143	8169
445.214	3584
445.285	5826
445.357	18054
445.428	28728
445.500	61658
445.571	40393
445.642	17341
445.714	13130
445.785	19077
445.856	4933
445.928	3501
445.999	3722
446.070	3690
446.141	2432
446.213	4021
446.284	1359
446.355	2382
446.426	1804
446.497	1644
446.569	3231
446.640	5116
446.711	2456
446.782	1187
446.853	1947
446.924	2137
446.995	1198
447.066	1460
447.138	4527
447.209	2991
447.280	-26
447.351	914
447.422	700
447.493	1969
447.564	1951
447.635	3063
447.706	509
447.777	73
447.847	733
447.918	540
447.989	2173
448.060	3659
448.131	8413
448.202	6840
448.273	4210
448.344	1898
448.414	1851
448.485	741
448.556	919
448.627	521
448.698	1594
448.768	1087
448.839	776
448.910	4141
448.981	3945
449.051	1635
449.122	1207
449.193	1803
449.263	1194
449.334	1318
449.405	2020
449.475	5143
449.546	4080
449.616	5978
449.687	5187
449.758	2673
449.828	2125
449.899	1879
449.969	1829
450.040	753
450.110	2717
450.181	2358
450.251	1385
450.322	1886
450.392	2847
450.463	817
450.533	1402
450.604	2127
450.674	1158
450.744	1442
450.815	1657
450.885	1227
450.955	1191
451.026	1417
451.096	1056
451.166	1942
451.237	4672
451.307	14273
451.377	5311
451.447	1640
451.518	664
451.588	736
451.658	1746
451.728	2691
451.799	13516
451.869	16289
451.939	3719
452.009	1816
452.079	1408
452.149	1806
452.219	3033
452.289	15852
452.360	11720
452.430	2529
452.500	1691
452.570	2236
452.640	2795
452.710	8653
452.780	14105
452.850	9011
452.920	7551
452.990	2322
453.060	1889
453.129	2865
453.199	4148
453.269	16735
453.339	37885
453.409	59089
453.479	55034
453.549	82208
453.619	88243
453.688	34915
453.758	6087
453.828	3196
453.898	2306
453.968	1740
454.037	1803
454.087	1980
454.107	2045
454.168	1119
454.177	973
454.247	1128
454.249	1145
454.316	1261
454.330	1300
454.386	1369
454.411	3519
454.456	6940
454.492	9429
454.525	11645
454.574	6926
454.595	4881
454.655	2193
454.665	1781
454.734	2269
454.736	2350
454.804	4403
454.817	6090
454.873	12575
454.898	13548
454.943	15023
454.979	9950
455.013	5521
455.060	3040
455.082	2069
455.141	3682
455.152	3931
455.221	9852
455.222	10027
455.291	20478
455.303	19691
455.360	15180
455.384	19479
455.430	26038
455.465	21259
455.499	16780
455.546	14719
455.569	13736
455.627	9401
455.638	8686
455.707	2273
455.708	2280
455.777	1173
455.789	1271
455.846	1934
455.869	1721
455.916	1194
455.950	1472
455.985	1711
456.031	1736
456.054	1684
456.112	1435
456.124	1426
456.193	1068
456.193	1054
456.262	2025
456.274	2096
456.332	2342
456.355	2422
456.401	2292
456.436	1853
456.470	1538
456.516	1420
456.540	1331
456.597	667
456.609	544
456.678	1433
456.678	1429
456.747	791
456.759	716
456.817	472
456.840	504
456.886	465
456.920	730
456.955	1059
457.001	961
457.024	842
457.082	1763
457.093	2041
457.162	2283
457.163	2300
457.232	2445
457.243	2347
457.301	1747
457.324	1467
457.370	1085
457.405	1370
457.439	1706
457.485	1207
457.508	917
457.566	1009
457.577	1072
457.646	1670
457.647	1684
457.715	2165
457.727	2232
457.784	2702
457.808	2862
457.853	2878
457.889	3270
457.922	3565
457.969	3053
457.991	2780
458.050	2508
458.060	2554
458.129	3085
458.130	3135
458.198	4284
458.211	4046
458.267	2857
458.292	2311
458.336	1405
458.372	1232
458.405	1664
458.453	2579
458.474	2907
458.533	3721
458.543	3837
458.611	6251
458.614	6312
458.680	5599
458.694	4935
458.749	3118
458.775	2602
458.818	1798
458.855	1535
458.887	1497
458.936	1435
458.955	1384
459.016	1440
459.024	1477
459.093	2602
459.097	2608
459.162	2069
459.177	1976
459.230	2142
459.257	2453
459.299	2959
459.338	3234
459.368	3240
459.418	3667
459.437	3575
459.499	2600
459.505	2587
459.574	1690
459.579	1734
459.643	1715
459.659	1548
459.711	1837
459.740	2101
459.780	1895
459.820	1708
459.849	1924
459.900	2520
459.917	2551
459.981	2538
459.986	2529
460.054	2241
460.061	2227
460.123	2410
460.141	2453
460.191	2650
460.222	2926
460.260	3231
460.302	3789
460.328	3777
460.382	3168
460.397	3108
460.462	2304
460.465	2335
460.534	4394
460.543	4559
460.602	11348
460.623	14182
460.671	21331
460.703	29190
460.739	30295
460.783	28337
460.808	24492
460.864	6220
460.876	4475
460.944	2623
460.945	2606
461.013	2575
461.024	2606
461.081	2493
461.104	2453
461.150	2645
461.184	2652
461.218	2493
461.264	2148
461.286	2135
461.345	2578
461.355	2627
461.423	2870
461.425	2867
461.491	2282
461.505	2303
461.559	4904
461.585	6098
461.628	9860
461.665	13516
461.696	15204
461.745	20355
461.764	18711
461.825	7369
461.832	7015
461.901	2913
461.905	2864
461.969	2537
461.985	2441
462.037	2822
462.065	2984
462.105	3136
462.145	3394
462.173	4737
462.225	7255
462.241	7970
462.305	11909
462.310	11672
462.378	7770
462.385	6975
462.446	3718
462.465	3188
462.514	3023
462.545	3043
462.582	3175
462.625	3478
462.650	3142
462.705	2237
462.718	2548
462.785	4118
462.786	4129
462.854	4590
462.865	4749
462.922	6598
462.945	7436
462.990	5767
463.025	3862
463.058	3393
463.104	2648
463.126	2458
463.184	2668
463.194	2817
463.262	3364
463.264	3403
463.330	3598
463.344	3498
463.398	3854
463.424	4159
463.466	3911
463.504	3674
463.533	3948
463.583	4445
463.601	4374
463.663	3952
463.669	4048
463.737	5292
463.743	5402
463.805	8215
463.823	9018
463.873	13099
463.903	15901
463.940	17901
463.982	20656
464.008	17558
464.062	8959
464.076	8143
464.142	3640
464.144	3613
464.211	3688
464.221	3761
464.279	3448
464.301	3243
464.347	3653
464.381	4098
464.414	4391
464.461	4685
464.482	5232
464.540	6836
464.550	6619
464.617	4905
464.620	4840
464.685	5692
464.699	5877
464.753	7437
464.779	8230
464.820	9145
464.859	10106
464.888	9608
464.938	8378
464.956	8601
465.018	9519
465.023	9401
465.091	7740
465.098	7549
465.158	7532
465.177	7579
465.226	7712
465.257	7676
465.293	8035
465.336	8474
465.361	8736
465.416	9386
465.428	10053
465.495	13681
465.496	13741
465.563	20164
465.575	21326
465.631	26234
465.654	28516
465.698	19858
465.734	11749
465.765	10354
465.813	8400
465.833	8238
465.893	8230
465.900	8366
465.968	9405
465.972	9467
466.035	9084
466.052	8967
466.102	9117
466.131	9166
466.170	9571
466.210	9995
466.237	10217
466.290	10568
466.304	10729
466.369	11458
466.372	11508
466.439	12449
466.449	12569
466.506	13224
466.528	13469
466.573	16495
466.607	18666
466.641	23921
466.687	31295
466.708	34135
466.766	41936
466.775	39591
466.842	21468
466.845	20564
466.909	17082
466.925	16321
466.977	15650
467.004	15282
467.044	15581
467.083	15865
467.111	16434
467.163	17423
467.178	18003
467.242	20300
467.245	20199
467.312	17465
467.321	17077
467.379	16467
467.400	16203
467.446	16809
467.480	17200
467.559	15812
467.638	12567
467.717	12900
467.796	12911
467.875	14422
467.955	12615
468.034	16644
468.113	33050
468.192	47702
468.271	18452
468.350	10421
468.429	9604
468.508	10030
468.588	8920
468.667	10086
468.746	9445
468.825	10114
468.904	8227
468.983	11254
469.062	13761
469.141	17708
469.220	9525
469.299	9855
469.378	10092
469.456	14049
469.535	12274
469.614	10568
469.693	10922
469.772	14126
469.851	16397
469.930	13058
470.009	9231
470.088	9490
470.166	9487
470.245	9077
470.324	9248
470.403	9855
470.482	8630
470.560	8865
470.639	7824
470.718	10294
470.797	7574
470.875	9848
470.954	11794
471.033	13803
471.111	8551
471.190	6885
471.269	6604
471.347	7441
471.426	7996
471.505	10337
471.583	10636
471.662	10417
471.740	8984
471.819	8650
471.898	7784
471.976	8301
472.055	7537
472.133	9245
472.212	11616
472.290	12010
472.369	8852
472.447	7607
472.526	7900
472.604	7787
472.683	7443
472.761	8004
472.839	7916
472.918	7202
472.996	7572
473.075	8561
473.153	7644
473.231	7658
473.310	8464
473.388	8600
473.466	6938
473.545	9543
473.623	11512
473.701	9510
473.780	8152
473.858	6676
473.936	8044
474.014	7602
474.093	7046
474.171	11508
474.249	14973
474.327	11860
474.405	6635
474.484	7347
474.562	6504
474.640	7966
474.718	8097
474.796	10050
474.874	8933
474.952	8711
475.030	7736
475.108	9555
475.187	11453
475.265	11708
475.343	10835
475.421	10271
475.499	9212
475.577	9415
475.655	9893
475.733	18035
475.811	28257
475.889	27761
475.966	19590
476.044	7571
476.122	6660
476.200	7643
476.278	6549
476.356	6208
476.434	6595
476.512	7375
476.590	7756
476.667	8165
476.745	5999
476.823	7607
476.901	6797
476.979	7325
477.056	7449
477.134	7117
477.212	7075
477.290	8127
477.367	5097
477.445	6294
477.523	5695
477.601	6035
477.678	6254
477.756	7837
477.834	7946
477.911	5648
477.989	5311
478.066	6059
478.144	5809
478.222	5979
478.299	6469
478.377	7179
478.454	5617
478.532	5282
478.609	6071
478.687	6393
478.764	5363
478.842	5657
478.919	5651
478.997	7027
479.074	5189
479.152	7034
479.229	7671
479.307	6365
479.384	4085
479.461	4829
479.539	4446
479.616	6965
479.694	5671
479.771	6008
479.848	5886
479.926	8115
480.003	10707
480.080	4971
480.157	4863
480.235	5284
480.312	4977
480.389	6219
480.467	8590
480.544	13217
480.621	7637
480.698	5173
480.775	6703
480.853	6570
480.930	5825
481.007	6781
481.084	7540
481.161	8759
481.238	7654
481.315	5445
481.392	5199
481.470	5437
481.547	4544
481.624	5535
481.701	4118
481.778	6082
481.855	6045
481.932	9182
482.009	13761
482.086	12849
482.163	4369
482.240	5871
482.317	6027
482.393	6228
482.470	5073
482.547	5384
482.624	5079
482.701	5805
482.778	5409
482.855	4069
482.932	4568
483.009	4374
483.085	4519
483.162	6794
483.239	5950
483.316	4777
483.393	4662
483.469	5365
483.546	5701
483.623	6089
483.699	4936
483.776	5623
483.853	6488
483.930	9975
484.006	22899
484.083	44536
484.160	32197
484.236	44586
484.313	37158
484.389	27415
484.466	22840
484.543	21479
484.619	20822
484.696	22050
484.772	21965
484.849	24137
484.925	20665
485.002	20313
485.078	21405
485.155	21466
485.231	18845
485.308	18930
485.384	18904
485.461	22687
485.537	30326
485.614	38748
485.690	20799
485.766	18155
485.843	17961
485.919	21298
485.995	22429
486.072	16821
486.148	17161
486.224	16382
486.301	16406
486.377	19101
486.453	18667
486.530	20228
486.606	25300
486.682	31025
486.758	31269
486.835	33930
486.911	26915
486.987	37552
487.063	37533
487.139	39207
487.215	30951
487.292	21639
487.368	18241
487.444	19140
487.520	21070
487.596	21300
487.672	20015
487.748	25179
487.824	30736
487.900	24014
487.976	18494
488.052	18537
488.128	22802
488.204	18851
488.280	17488
488.356	19019
488.432	31862
488.508	50349
488.584	23209
488.660	14908
488.736	15580
488.812	15581
488.888	19482
488.964	21843
489.039	32377
489.115	48812
489.191	37738
489.267	17902
489.343	16162
489.418	14924
489.494	13413
489.570	13590
489.646	14286
489.722	13954
489.797	14001
489.873	19354
489.949	36174
490.024	37260
490.100	13868
490.176	12458
490.251	14069
490.327	16369
490.403	13754
490.478	12737
490.554	10183
490.629	12576
490.705	10783
490.781	11941
490.856	11276
490.932	13472
491.007	12759
491.083	13477
491.158	11742
491.234	14863
491.309	27849
491.385	32364
491.460	12650
491.536	12953
491.611	11887
491.686	11300
491.762	14869
491.837	20915
491.913	35124
491.988	45748
492.063	59621
492.139	26395
492.214	17223
492.289	10145
492.365	8939
492.440	11209
492.515	11055
492.590	11572
492.666	8445
492.741	11532
492.816	16971
492.891	12297
492.967	9487
493.042	8765
493.117	9408
493.192	10293
493.267	15184
493.342	46225
493.418	73827
493.493	18717
493.568	8869
493.643	7580
493.718	9491
493.793	12758
493.868	14822
493.943	9875
494.018	8251
494.093	8535
494.168	8079
494.243	8288
494.318	6779
494.393	7546
494.468	8150
494.543	7285
494.618	7792
494.693	7777
494.768	7636
494.842	8243
494.917	6366
494.992	7300
495.067	6883
495.142	7942
495.217	8207
495.292	8702
495.366	9093
495.441	11236
495.516	13395
495.591	16515
495.665	36788
495.740	90582
495.815	55511
495.890	13662
495.964	9947
496.039	13066
496.114	11741
496.188	12101
496.263	13015
496.338	11986
496.412	13068
496.487	15756
496.561	14922
496.636	16437
496.710	14493
496.785	16449
496.860	16690
496.934	15698
497.009	15468
497.083	16936
497.158	18046
497.232	19183
497.307	24167
497.381	23870
497.455	26321
497.530	32277
497.604	28838
497.679	30624
497.753	40748
497.827	54777
497.902	57004
497.976	60264
498.050	86432
498.125	249422
498.199	318375
498.273	86588
498.348	68224
498.422	59066
498.496	52650
498.570	47356
498.645	39398
498.719	36645
498.793	36635
498.867	41038
498.941	47436
499.016	97523
499.090	266013
499.164	144251
499.238	23137
499.312	18108
499.386	19964
499.460	19732
499.534	16707
499.609	18193
499.683	24722
499.757	25531
499.831	40348
499.905	157227
499.979	199105
500.053	34440
500.127	26579
500.201	18253
500.275	13699
500.349	14020
500.422	14948
500.496	17709
500.570	29284
500.644	82069
500.718	181996
500.792	63812
500.866	13473
500.940	15650
501.013	15620
501.087	13286
501.161	19116
501.235	25548
501.309	48697
501.382	144215
501.456	163480
501.530	33626
501.603	48445
501.677	27633
501.751	9227
501.825	12273
501.898	18718
501.972	57268
502.046	49894
502.119	12261
502.193	23639
502.266	63704
502.340	42794
502.413	26583
502.487	56837
502.561	36859
502.634	13053
502.708	9238
502.781	7251
502.855	7485
502.928	5654
503.002	6786
503.075	5143
503.149	7608
503.222	7357
503.295	7868
503.369	9670
503.442	12761
503.516	37620
503.589	109128
503.662	88506
503.736	26376
503.809	46150
503.882	48239
503.956	55584
504.029	64139
504.102	19628
504.175	17912
504.249	8661
504.322	9432
504.395	9071
504.468	7343
504.542	6305
504.615	6072
504.688	5685
504.761	4687
504.834	7362
504.907	6832
504.980	10769
505.053	8055
505.127	6045
505.200	11205
505.273	9688
505.346	7517
505.419	5035
505.492	5926
505.565	4695
505.638	4250
505.711	4168
505.784	4165
505.857	4379
505.930	6711
506.003	4414
506.076	6801
506.149	7718
506.221	9714
506.294	9245
506.367	19279
506.440	76411
506.513	59716
506.586	10865
506.659	7230
506.731	4624
506.804	5841
506.877	7038
506.950	7197
507.022	4687
507.095	5305
507.168	8409
507.241	5526
507.313	3981
507.386	3771
507.459	5622
507.531	4774
507.604	3274
507.677	4891
507.749	2354
507.822	6077
507.894	12725
507.967	20410
508.040	13232
508.112	10082
508.185	9455
508.257	8508
508.330	10611
508.402	8665
508.475	8691
508.547	9066
508.620	8195
508.692	13096
508.765	9963
508.837	7650
508.909	7121
508.982	6931
509.054	8097
509.127	6278
509.199	6352
509.271	6694
509.344	6483
509.416	6592
509.488	6363
509.560	7281
509.633	7066
509.705	8108
509.777	7244
509.849	9437
509.922	8202
509.994	8523
510.066	8116
510.138	7290
510.210	18127
510.283	19436
510.355	15024
510.427	12602
510.499	11238
510.571	10737
510.643	9472
510.715	13436
510.787	11458
510.859	10502
510.931	10144
511.003	13621
511.076	13656
511.148	9517
511.219	8795
511.291	14612
511.363	16982
511.435	10156
511.507	7881
511.579	8812
511.651	9332
511.723	8337
511.795	7509
511.867	8695
511.939	8335
512.010	15416
512.082	15497
512.154	8290
512.226	8745
512.298	12937
512.369	19640
512.441	15785
512.513	13469
512.585	11482
512.656	11185
512.728	11834
512.800	10459
512.871	10273
512.943	10352
513.015	8426
513.086	9182
513.158	10769
513.230	9429
513.301	11307
513.373	13138
513.444	9480
513.516	9131
513.588	9656
513.659	8771
513.731	9722
513.802	8772
513.874	14389
513.945	22259
514.016	12683
514.088	8415
514.159	7923
514.231	11443
514.302	17434
514.374	15514
514.445	12401
514.516	23027
514.588	19848
514.659	12220
514.730	19390
514.802	20822
514.873	18990
514.944	24854
515.016	19048
515.087	16209
515.158	17635
515.229	25762
515.301	22906
515.372	37201
515.443	27403
515.514	17934
515.585	12732
515.656	12069
515.728	10889
515.799	8567
515.870	10108
515.941	9206
516.012	9479
516.083	13152
516.154	12605
516.225	13126
516.296	13218
516.367	10561
516.438	10251
516.509	12621
516.580	14623
516.651	28518
516.722	91508
516.793	73807
516.864	19130
516.935	17507
517.006	18034
517.077	20109
517.148	34788
517.219	75907
517.289	145716
517.360	97518
517.431	51914
517.502	12070
517.573	11483
517.643	11365
517.714	14098
517.785	13466
517.856	11979
517.926	15369
517.997	15438
518.068	14196
518.138	18751
518.209	19830
518.280	47520
518.350	186601
518.421	116149
518.492	19298
518.562	13620
518.633	12502
518.703	11020
518.774	13480
518.845	17948
518.915	19245
518.986	15206
519.056	14797
519.127	21518
519.197	33936
519.268	83383
519.338	77852
519.408	17809
519.479	16298
519.549	13259
519.620	10568
519.690	8723
519.760	8813
519.831	8461
519.901	9263
519.971	8282
520.042	8039
520.112	9332
520.182	10658
520.253	12497
520.323	9545
520.393	11545
520.463	20752
520.534	12629
520.604	27738
520.674	17710
520.744	11949
520.814	25437
520.885	29649
520.955	27394
521.025	103446
521.095	64262
521.165	11630
521.235	8252
521.305	8441
521.375	7544
521.445	9185
521.515	8892
521.585	10499
521.655	10258
521.725	9611
521.795	10511
521.865	6318
521.935	12678
522.005	11846
522.075	7345
522.145	7656
522.215	8083
522.285	11497
522.355	14750
522.424	26842
522.494	26412
522.564	12958
522.634	16716
522.704	47961
522.774	29487
522.843	9116
522.913	7335
522.983	7992
523.053	7696
523.122	6878
523.192	8626
523.262	20860
523.331	28603
523.401	9883
523.471	6328
523.540	6488
523.610	5334
523.680	5287
523.749	6142
523.819	7371
523.888	7869
523.958	5380
524.027	6144
524.097	6881
524.166	5901
524.236	4924
524.305	8096
524.375	5065
524.444	5989
524.514	7252
524.583	5205
524.653	7650
524.722	9125
524.791	6021
524.861	6704
524.930	5158
524.999	5583
525.069	8276
525.138	7862
525.207	8506
525.277	7195
525.346	5592
525.415	6985
525.484	5255
525.554	5782
525.623	7851
525.692	6340
525.761	5195
525.830	5302
525.900	5047
525.969	8558
526.038	9095
526.107	9673
526.176	25006
526.245	25764
526.314	14271
526.383	18529
526.452	20476
526.522	31333
526.591	45581
526.660	28649
526.729	15584
526.797	15208
526.867	27153
526.935	125778
527.004	150027
527.073	74897
527.142	12093
527.211	8108
527.280	7062
527.349	7896
527.418	3818
527.487	6200
527.555	3656
527.624	3431
527.693	3645
527.762	5608
527.831	3373
527.899	4750
527.968	4101
528.037	3661
528.106	5989
528.174	9604
528.243	9154
528.312	10820
528.380	13895
528.449	6235
528.518	5596
528.586	2651
528.655	4880
528.723	3844
528.792	3360
528.861	4712
528.929	3323
528.998	5479
529.066	3897
529.135	3942
529.203	4000
529.272	3853
529.340	5153
529.409	5916
529.477	3120
529.545	5411
529.614	8108
529.682	5452
529.751	9354
529.819	8954
529.887	6500
529.956	4638
530.024	4815
530.092	3913
530.161	4802
530.229	7231
530.297	4690
530.365	5215
530.434	3920
530.502	4204
530.570	4384
530.638	3354
530.707	5018
530.775	6309
530.843	3726
530.911	4007
530.979	4428
531.047	4547
531.115	4207
531.183	4569
531.252	4852
531.320	4067
531.388	3013
531.456	5073
531.524	2300
531.592	5078
531.660	5951
531.728	3901
531.796	4346
531.864	3696
531.932	3896
532.000	4011
532.067	4752
532.135	5601
532.203	6243
532.271	6048
532.339	9081
532.407	20208
532.475	16918
532.542	9796
532.610	9053
532.678	8888
532.746	33374
532.814	112205
532.881	40469
532.949	8412
533.017	5630
533.084	5240
533.152	4547
533.220	4844
533.287	4601
533.355	4998
533.423	5088
533.490	4504
533.558	4477
533.625	5922
533.693	7047
533.761	6133
533.828	6665
533.896	4570
533.963	9773
534.031	13026
534.098	15014
534.166	9857
534.233	5411
534.300	7435
534.368	6262
534.435	6659
534.503	5300
534.570	6582
534.637	4726
534.705	5823
534.772	4896
534.840	5966
534.907	12315
534.974	19128
535.041	7416
535.109	7471
535.176	5062
535.243	4509
535.310	4258
535.378	4850
535.445	3975
535.512	4550
535.579	4363
535.646	4187
535.714	5356
535.781	8216
535.848	7828
535.915	9051
535.982	8526
536.049	8325
536.116	8102
536.183	6664
536.250	5399
536.317	6651
536.384	6983
536.451	9429
536.518	8055
536.585	6357
536.652	8899
536.719	10514
536.786	8450
536.853	8179
536.920	9817
536.987	14731
537.053	12470
537.120	47247
537.187	60313
537.254	8164
537.321	4938
537.388	6676
537.454	4665
537.521	4430
537.588	4206
537.654	5525
537.721	7427
537.788	7064
537.855	6034
537.921	6219
537.988	5721
538.055	7139
538.121	5429
538.188	6282
538.254	7118
538.321	13649
538.388	9930
538.454	6466
538.521	5474
538.587	5203
538.654	4101
538.720	5965
538.787	5338
538.853	5534
538.920	7300
538.986	7601
539.053	5973
539.119	5885
539.185	5982
539.252	7269
539.318	9076
539.385	9031
539.451	7850
539.517	9274
539.583	9503
539.650	15530
539.716	42618
539.782	19041
539.849	5947
539.915	7275
539.981	5042
540.047	6884
540.114	6770
540.180	8614
540.246	5616
540.312	8354
540.378	13274
540.444	16336
540.510	15084
540.576	45222
540.643	22416
540.709	6267
540.775	6930
540.841	6264
540.907	7962
540.973	15219
541.039	11911
541.105	11075
541.171	7435
541.237	5975
541.303	7334
541.369	8688
541.435	8654
541.500	12232
541.566	8536
541.632	6887
541.698	5425
541.764	6447
541.830	6197
541.896	5941
541.961	6145
542.027	5809
542.093	6817
542.159	6958
542.224	6511
542.290	11645
542.356	12458
542.421	16314
542.487	9414
542.553	8270
542.618	8457
542.684	7683
542.750	7020
542.815	8744
542.881	10964
542.947	35967
543.012	39753
543.078	7632
543.143	5852
543.209	8060
543.274	6313
543.340	9205
543.405	13617
543.471	27871
543.536	9359
543.602	7974
543.667	5425
543.732	7517
543.798	6391
543.863	7452
543.928	5962
543.994	6845
544.059	6478
544.124	7156
544.190	5835
544.255	6906
544.320	7392
544.386	5828
544.451	7954
544.516	9627
544.581	8772
544.646	21496
544.712	46288
544.777	14688
544.842	9554
544.907	9911
544.972	9349
545.037	8824
545.102	9679
545.168	9693
545.233	10190
545.298	10016
545.363	11634
545.428	12973
545.493	15219
545.558	32705
545.623	21233
545.688	10217
545.753	9879
545.818	9172
545.883	9665
545.947	9942
546.012	10665
546.077	10615
546.142	10378
546.207	9161
546.272	10981
546.337	11198
546.401	9622
546.466	9767
546.531	9357
546.596	10981
546.661	10215
546.725	10044
546.790	8590
546.855	9224
546.919	7796
546.984	9932
547.049	9509
547.113	11601
547.178	9893
547.243	11260
547.307	11611
547.372	12846
547.436	13752
547.501	11633
547.565	11581
547.630	11747
547.695	12485
547.759	14489
547.823	13000
547.888	10699
547.952	10512
548.017	10938
548.081	12455
548.146	14870
548.210	14778
548.274	11348
548.339	10591
548.403	10179
548.468	9294
548.532	9900
548.596	10148
548.660	10226
548.725	10959
548.789	11700
548.853	14019
548.917	11453
548.982	13900
549.046	17392
549.110	9941
549.174	10511
549.238	10310
549.303	10527
549.367	11552
549.431	11509
549.495	9797
549.559	10793
549.623	11093
549.687	12542
549.751	16288
549.815	14710
549.879	13137
549.943	12178
550.007	12832
550.071	13199
550.135	15332
550.199	14089
550.263	11878
550.327	13243
550.391	15395
550.455	14390
550.519	12555
550.582	13854
550.646	14817
550.710	18795
550.774	14108
550.838	14030
550.901	13909
550.965	15880
551.029	14603
551.093	16630
551.156	18830
551.220	30162
551.284	38360
551.347	20253
551.411	34475
551.475	47663
551.538	18223
551.602	14216
551.666	13122
551.729	11378
551.793	12901
551.856	12825
551.920	11935
551.983	12620
552.047	12166
552.110	13301
552.174	11141
552.237	11700
552.301	11727
552.364	11893
552.428	11672
552.491	12086
552.554	12565
552.618	12592
552.681	12967
552.745	12288
552.808	14442
552.871	15924
552.934	14593
552.998	14248
553.061	13316
553.124	13352
553.187	13910
553.251	15084
553.314	16484
553.377	16218
553.440	21274
553.503	52875
553.567	115738
553.630	34041
553.693	13675
553.756	13841
553.819	12443
553.882	11968
553.945	11561
554.008	12275
554.071	9660
554.134	11966
554.197	10213
554.260	10618
554.323	11946
554.386	11507
554.449	11109
554.512	12082
554.575	9889
554.638	12319
554.701	11721
554.764	11329
554.827	10545
554.889	10574
554.952	9493
555.015	9510
555.078	10085
555.141	10804
555.203	9623
555.266	10496
555.329	10275
555.391	10201
555.454	10359
555.517	10258
555.580	10265
555.642	8863
555.705	8147
555.768	9797
555.830	9924
555.893	8867
555.955	10107
556.018	10861
556.080	9898
556.143	9045
556.206	8785
556.268	9516
556.330	10349
556.393	10162
556.455	10018
556.518	13110
556.580	15036
556.643	10404
556.705	8666
556.767	8003
556.830	9946
556.892	10144
556.955	11827
557.017	11671
557.079	9620
557.142	9433
557.204	9964
557.266	15613
557.328	14429
557.391	9500
557.453	8898
557.515	9907
557.577	9527
557.639	10715
557.701	8771
557.764	8248
557.826	8501
557.888	9436
557.950	8629
558.012	8721
558.074	9429
558.136	12726
558.198	23409
558.260	16367
558.322	9865
558.384	11460
558.446	11399
558.508	11027
558.570	13624
558.632	17530
558.694	25807
558.756	22079
558.818	39602
558.880	117367
558.942	56192
559.003	26040
559.065	18719
559.127	11776
559.189	11373
559.251	11680
559.312	12752
559.374	20171
559.436	61480
559.498	50028
559.559	11953
559.621	11271
559.683	12454
559.744	16938
559.806	32951
559.868	56401
559.929	20075
559.991	13528
560.052	13837
560.114	23166
560.176	20975
560.237	17401
560.299	25638
560.360	14271
560.422	10509
560.483	11209
560.545	9958
560.606	10314
560.667	9439
560.729	9145
560.790	9367
560.852	10789
560.913	10619
560.974	10158
561.036	9921
561.097	9488
561.158	10443
561.220	11260
561.281	9860
561.342	10618
561.403	11581
561.465	12674
561.526	19762
561.587	29681
561.648	14527
561.709	11335
561.771	9763
561.832	10822
561.893	10758
561.954	11066
562.015	10211
562.076	10882
562.137	10510
562.198	10603
562.259	10575
562.320	10434
562.381	10461
562.442	13106
562.503	13498
562.564	11140
562.625	10947
562.686	10436
562.747	11008
562.808	11237
562.869	11355
562.930	14245
562.991	13336
563.051	13322
563.112	11213
563.173	11214
563.234	10760
563.294	11376
563.355	10670
563.416	11893
563.477	11271
563.537	11889
563.598	11690
563.659	12443
563.720	11105
563.780	12590
563.841	12163
563.901	12304
563.962	11812
564.023	11489
564.083	11961
564.144	12387
564.204	11382
564.265	12754
564.325	13462
564.386	20496
564.446	21269
564.507	13079
564.567	12659
564.628	12916
564.688	11869
564.749	12214
564.809	12974
564.869	15732
564.930	12828
564.990	13521
565.050	12767
565.111	12975
565.171	13193
565.231	13904
565.292	12725
565.352	12525
565.412	13204
565.472	14674
565.532	13170
565.593	14588
565.653	14412
565.713	14839
565.773	15886
565.833	16426
565.893	18914
565.953	16576
566.013	15759
566.074	18190
566.134	20717
566.194	25468
566.254	27999
566.314	23628
566.374	20152
566.434	20918
566.494	22321
566.554	22668
566.614	24113
566.673	24201
566.733	25427
566.793	27762
566.853	29916
566.913	30955
566.973	31979
567.033	31390
567.092	30585
567.152	30003
567.212	29660
567.272	31511
567.331	33882
567.391	34835
567.451	36488
567.511	40756
567.570	41412
567.630	34844
567.690	33055
567.749	35104
567.809	36276
567.868	41485
567.928	45952
567.988	54691
568.047	65090
568.107	79052
568.166	105192
568.226	158825
568.285	229602
568.345	221319
568.404	184143
568.464	160557
568.523	147063
568.582	145429
568.642	154050
568.701	182028
568.761	246186
568.820	372717
568.879	410812
568.939	327233
568.998	255568
569.057	203901
569.116	163395
569.176	134653
569.235	112367
569.294	95560
569.353	81684
569.413	72569
569.472	62728
569.531	55820
569.590	50051
569.649	46818
569.708	41131
569.767	39156
569.827	37217
569.886	33425
569.945	29874
570.004	28616
570.063	27102
570.122	26396
570.181	26199
570.240	24554
570.299	24300
570.358	25088
570.417	20839
570.475	20226
570.534	19499
570.593	18976
570.652	18406
570.711	19293
570.770	17325
570.829	18229
570.887	15835
570.946	17431
571.005	14544
571.064	14788
571.122	14712
571.181	15637
571.240	15099
571.299	14580
571.357	14730
571.416	14561
571.475	14908
571.533	15889
571.592	12657
571.650	14234
571.709	12920
571.768	12739
571.826	12678
571.885	12996
571.943	11725
572.002	11431
572.060	11960
572.119	11918
572.177	11717
572.236	12399
572.294	10794
572.352	12092
572.411	11850
572.469	11346
572.528	10968
572.586	11967
572.644	11426
572.703	14311
572.761	12537
572.819	11924
572.877	10781
572.936	10735
572.994	10398
573.052	10425
573.110	10747
573.169	10663
573.227	9703
573.285	11250
573.343	9885
573.401	10810
573.459	10087
573.517	10820
573.576	9985
573.634	10312
573.692	10392
573.750	10761
573.808	10593
573.866	10606
573.924	12415
573.982	12670
574.040	10025
574.098	11005
574.155	9859
574.213	9795
574.271	9287
574.329	10781
574.387	8329
574.445	9346
574.503	9003
574.560	9416
574.618	9061
574.676	9466
574.734	8896
574.792	10280
574.849	9178
574.907	8934
574.965	8759
575.022	9589
575.080	9110
575.138	9511
575.195	10311
575.253	10258
575.311	10084
575.368	9963
575.426	8774
575.483	9867
575.541	9231
575.598	9703
575.656	9703
575.713	10574
575.771	9041
575.828	9636
575.886	9108
575.943	10932
576.001	9911
576.058	10414
576.115	11297
576.173	11349
576.230	11054
576.287	12798
576.345	12019
576.402	11789
576.459	10835
576.517	10271
576.574	11682
576.631	12325
576.688	10559
576.746	10752
576.803	10123
576.860	10540
576.917	9819
576.974	10786
577.031	10111
577.089	10782
577.146	11209
577.203	10786
577.260	11030
577.317	12167
577.374	11538
577.431	11891
577.488	11341
577.545	10450
577.602	11023
577.659	12026
577.716	11360
577.773	12359
577.830	10512
577.886	11105
577.943	10621
578.000	11369
578.057	12003
578.114	12806
578.171	13512
578.227	15814
578.284	15324
578.341	14072
578.398	12184
578.454	12664
578.511	13055
578.568	13745
578.625	12373
578.681	11900
578.738	11157
578.794	11229
578.851	10959
578.908	11058
578.964	12267
579.021	12967
579.077	11601
579.134	12040
579.190	10913
579.247	11674
579.303	11057
579.360	10920
579.416	11510
579.473	12026
579.529	10197
579.586	11939
579.642	11793
579.698	11539
579.755	11938
579.811	12632
579.867	13652
579.924	12884
579.980	13165
580.036	14119
580.093	15708
580.149	19620
580.205	21949
580.261	19195
580.317	16570
580.374	15172
580.430	15349
580.486	15336
580.542	13166
580.598	14238
580.619	14004
580.654	13608
580.692	13237
580.710	13071
580.765	13168
580.767	13179
580.823	13764
580.838	13731
580.879	13702
580.911	13763
580.935	13819
580.984	12888
580.991	12773
581.047	14404
581.057	14416
581.103	14480
581.130	14583
581.159	14717
581.203	15856
581.215	16157
581.270	15421
581.276	15382
581.326	15180
581.349	15321
581.382	15506
581.422	15028
581.438	14854
581.494	14602
581.494	14599
581.550	14732
581.567	14673
581.606	14581
581.640	14298
581.661	14134
581.713	16056
581.717	16214
581.773	15052
581.786	15152
581.829	15441
581.859	15886
581.885	16294
581.932	16006
581.940	15952
581.996	16274
582.004	16239
582.052	16067
582.077	15935
582.107	15809
582.150	16100
582.163	16205
582.219	16182
582.223	16223
582.274	16630
582.296	16559
582.330	16543
582.368	17232
582.386	17511
582.441	16846
582.441	16846
582.497	16753
582.514	17167
582.552	18192
582.587	18495
582.608	18586
582.659	17549
582.663	17476
582.719	18500
582.732	18332
582.774	17861
582.805	18576
582.830	19168
582.877	18679
582.885	18593
582.941	18225
582.950	18188
582.996	18035
583.023	18953
583.052	20014
583.095	20246
583.107	20341
583.162	22021
583.168	22131
583.218	23094
583.240	23053
583.273	22569
583.313	21365
583.328	21083
583.384	21453
583.385	21442
583.439	20754
583.458	20965
583.494	21401
583.531	21208
583.549	21181
583.603	21560
583.605	21575
583.660	21506
583.676	21730
583.715	22177
583.748	22879
583.770	23416
583.820	22987
583.825	22934
583.881	22748
583.893	22921
583.936	23584
583.965	23312
583.991	23059
584.038	23854
584.046	23989
584.101	23834
584.110	23943
584.156	24715
584.183	25278
584.211	25890
584.255	26005
584.266	25910
584.321	24827
584.328	24897
584.376	26057
584.400	26157
584.431	26257
584.472	27427
584.486	27800
584.541	27591
584.545	27610
584.596	28261
584.617	28501
584.651	28939
584.689	29712
584.706	29987
584.761	31008
584.762	31001
584.816	31004
584.834	31141
584.871	31430
584.906	31812
584.926	32022
584.978	32360
584.980	32393
585.035	34257
585.051	34497
585.090	35198
585.123	35651
585.145	35785
585.195	36672
585.200	36859
585.254	37949
585.267	38381
585.309	39598
585.340	41249
585.364	42272
585.412	42209
585.419	42222
585.473	42954
585.484	42938
585.528	43486
585.556	44981
585.583	46886
585.628	49458
585.637	50603
585.692	60247
585.700	62126
585.747	71031
585.772	71009
585.801	65099
585.845	54460
585.856	53002
585.910	50073
585.917	49872
585.965	50607
585.989	51494
586.019	52893
586.061	53379
586.074	53508
586.128	55548
586.133	55646
586.183	58059
586.205	58864
586.237	59711
586.277	60996
586.292	61320
586.346	62345
586.349	62364
586.401	64824
586.421	65818
586.455	67423
586.493	69357
586.509	71156
586.564	77603
586.565	77755
586.618	90476
586.637	93522
586.672	91020
586.709	84981
586.727	83542
586.781	83388
586.781	83465
586.835	86446
586.853	87281
586.889	89156
586.925	90911
586.944	92553
586.996	98333
586.998	98547
587.052	101319
587.068	102554
587.106	106542
587.140	109254
587.161	111279
587.212	116952
587.215	117364
587.269	123378
587.284	124800
587.323	128941
587.356	133305
587.377	137021
587.427	144868
587.431	145565
587.485	154331
587.499	156385
587.539	164364
587.571	170654
587.593	175424
587.643	185477
587.648	186748
587.702	199744
587.715	202976
587.755	215811
587.786	225026
587.810	232774
587.858	250030
587.864	252596
587.917	275118
587.930	280376
587.971	302626
588.001	318648
588.025	332802
588.073	361180
588.079	365959
588.133	408489
588.145	417583
588.187	456325
588.217	484284
588.241	511564
588.288	565036
588.295	574314
588.348	652086
588.360	668324
588.402	746539
588.431	801413
588.456	858750
588.503	972235
588.510	994180
588.564	1169139
588.575	1205360
588.617	1391343
588.646	1519640
588.671	1655645
588.718	1914230
588.725	1958605
588.778	2278175
588.789	2334984
588.832	2449622
588.861	2492412
588.886	2314730
588.932	1895190
588.939	1851843
588.993	1510048
589.004	1476462
589.047	2042308
589.075	2414091
589.100	2518704
589.147	2617361
589.154	2593089
589.207	2327944
589.218	2269259
589.261	2131222
589.290	2040630
589.314	2053422
589.361	2087168
589.368	2113281
589.421	2314300
589.433	2351649
589.475	2399579
589.504	2395424
589.528	2203137
589.576	1759633
589.582	1787153
589.635	2141120
589.647	2215771
589.689	2335050
589.718	2360681
589.742	2177079
589.790	1774062
589.795	1740492
589.849	1397969
589.861	1318542
589.902	1143533
589.932	1014620
589.955	945084
590.004	798326
590.009	789447
590.062	683489
590.075	657204
590.115	599057
590.146	553168
590.168	528166
590.218	471204
590.222	468639
590.275	426267
590.289	414842
590.328	387283
590.360	364079
590.381	352549
590.431	324088
590.435	323339
590.488	300769
590.503	294195
590.541	280513
590.574	267488
590.594	261042
590.645	244258
590.647	244211
590.700	230258
590.716	225756
590.753	216856
590.787	207861
590.806	203936
590.859	192289
590.859	192526
590.912	184159
590.930	181181
590.965	176735
591.001	171549
591.018	169298
591.071	161691
591.072	161277
591.124	155271
591.143	152625
591.177	148661
591.214	143795
591.230	142698
591.283	138466
591.285	137984
591.336	133498
591.356	131432
591.389	129335
591.427	126013
591.442	124589
591.495	118318
591.498	117613
591.547	116069
591.569	114987
591.600	112862
591.640	109362
591.653	109282
591.706	107985
591.711	107588
591.759	104846
591.782	103173
591.811	103216
591.853	102661
591.864	101992
591.917	97314
591.924	96401
591.969	94913
591.995	93779
592.022	92751
592.066	90417
592.075	90747
592.127	91522
592.137	91431
592.180	92180
592.208	92334
592.233	89652
592.279	83757
592.285	83763
592.338	82244
592.350	81683
592.390	79982
592.421	78380
592.443	78184
592.491	77138
592.495	77259
592.548	76282
592.562	75821
592.600	74950
592.633	73854
592.653	73517
592.704	71761
592.705	72137
592.775	70202
592.846	67983
592.916	68852
592.987	67577
593.058	64885
593.128	62921
593.199	62179
593.270	61728
593.341	59758
593.411	59137
593.482	56943
593.553	56988
593.623	55329
593.694	54050
593.764	55718
593.835	54820
593.906	51275
593.976	50334
594.047	50627
594.117	54790
594.188	53905
594.258	47629
594.329	47594
594.399	46506
594.470	44297
594.540	45457
594.611	43657
594.681	43673
594.751	43165
594.822	44689
594.892	45014
594.963	44144
595.033	42390
595.103	41994
595.174	44065
595.244	50795
595.314	60135
595.384	43049
595.455	39944
595.525	40100
595.595	38560
595.665	39887
595.736	38670
595.806	38690
595.876	36869
595.946	37473
596.016	36113
596.087	36823
596.157	35532
596.227	35944
596.297	36313
596.367	36618
596.437	38690
596.507	43581
596.577	50836
596.647	38784
596.717	35328
596.787	34465
596.857	34698
596.927	34768
596.997	33880
597.067	34565
597.137	36600
597.207	35737
597.277	33485
597.347	33816
597.417	32759
597.487	34021
597.557	33580
597.626	34142
597.696	34124
597.766	38531
597.836	46695
597.906	36438
597.975	31087
598.045	31412
598.115	30259
598.185	31016
598.254	31968
598.324	32935
598.394	31665
598.464	32480
598.533	31044
598.603	31223
598.672	31439
598.742	31109
598.812	29321
598.881	31158
598.951	30521
599.020	29896
599.090	29041
599.159	30203
599.229	28804
599.299	28449
599.368	27828
599.437	28830
599.507	28895
599.576	28595
599.646	29728
599.715	30027
599.785	28085
599.854	30058
599.924	30706
599.993	29696
600.062	27964
600.132	27366
600.201	28550
600.270	29319
600.340	27639
600.409	27443
600.478	27891
600.547	27073
600.617	27982
600.686	26844
600.755	26371
600.824	26492
600.894	26106
600.963	26636
601.032	24809
601.101	25561
601.170	24135
601.239	25318
601.308	25311
601.378	26006
601.447	24420
601.516	24701
601.585	24591
601.654	25096
601.723	24675
601.792	25949
601.861	25590
601.930	28837
601.999	27029
602.068	24782
602.137	24908
602.206	25021
602.275	25625
602.343	26852
602.412	27621
602.481	25411
602.550	24360
602.619	25221
602.688	25424
602.756	24939
602.825	24119
602.894	24083
602.963	23467
603.032	24772
603.100	23022
603.169	23438
603.238	23177
603.307	24034
603.375	23379
603.444	24928
603.513	23193
603.581	23632
603.650	24288
603.719	23754
603.787	22174
603.856	23662
603.924	24031
603.993	23448
604.061	23201
604.130	24000
604.198	23216
604.267	24723
604.335	22141
604.404	23187
604.472	23139
604.541	24041
604.609	22680
604.678	24249
604.746	23438
604.815	23700
604.883	23334
604.951	23403
605.020	22938
605.088	24913
605.156	24303
605.225	23565
605.293	22919
605.361	24188
605.429	23104
605.498	24358
605.566	23642
605.634	23527
605.702	23989
605.771	24582
605.839	24094
605.907	23883
605.975	23627
606.043	24964
606.111	23388
606.180	24236
606.248	25322
606.316	28470
606.384	24608
606.452	27301
606.520	27715
606.588	23943
606.656	21359
606.724	22143
606.792	20165
606.860	20761
606.928	19482
606.996	20259
607.064	19141
607.132	19353
607.200	19042
607.267	20282
607.335	19242
607.403	20082
607.471	19638
607.539	18742
607.607	19776
607.674	17969
607.742	18597
607.810	19630
607.878	18799
607.946	19147
608.013	17902
608.081	19977
608.149	19491
608.216	19064
608.284	19149
608.352	19726
608.419	20460
608.487	26436
608.555	22701
608.622	20261
608.690	19948
608.757	19617
608.825	20498
608.893	20998
608.960	22703
609.028	26524
609.095	28181
609.163	21793
609.230	19870
609.298	19608
609.365	17929
609.432	19126
609.500	19593
609.567	20978
609.635	22075
609.702	22532
609.769	22267
609.837	22311
609.904	20515
609.971	18877
610.039	21762
610.106	26399
610.173	40407
610.241	81854
610.308	87514
610.375	53784
610.442	26395
610.509	20266
610.577	20118
610.644	19928
610.711	19483
610.778	19491
610.845	18847
610.912	20978
610.980	22124
611.047	28549
611.114	24332
611.181	20161
611.248	18650
611.315	19696
611.382	18420
611.449	19766
611.516	20046
611.583	20072
611.650	19805
611.717	20166
611.784	20048
611.851	21587
611.918	23700
611.984	26600
612.051	33663
612.118	60649
612.185	138702
612.252	117755
612.319	30972
612.386	23397
612.452	22508
612.519	23668
612.586	28609
612.653	25823
612.719	21412
612.786	20814
612.853	19580
612.919	19366
612.986	19539
613.053	19222
613.120	17938
613.186	18452
613.253	19473
613.319	18342
613.386	18391
613.453	18280
613.519	20287
613.586	23329
613.652	30383
613.719	25520
613.785	23796
613.852	19755
613.918	18420
613.985	20702
614.051	25807
614.118	44199
614.184	48501
614.250	21865
614.317	18926
614.383	18554
614.449	18826
614.516	19242
614.582	19087
614.648	19641
614.715	18612
614.781	18436
614.847	19050
614.914	20901
614.980	21188
615.046	21880
615.112	22008
615.179	25611
615.245	34034
615.311	52488
615.377	104819
615.443	142480
615.509	77291
615.575	42489
615.642	32556
615.708	31648
615.774	33374
615.840	41941
615.906	58286
615.972	104830
616.038	225942
616.104	308627
616.170	281781
616.236	238841
616.302	69546
616.368	41937
616.434	32673
616.500	30574
616.565	28732
616.631	29591
616.697	27251
616.763	26334
616.829	31795
616.895	44786
616.961	48208
617.026	31710
617.092	22555
617.158	22941
617.224	20846
617.289	20747
617.355	19981
617.421	20072
617.487	20364
617.552	20439
617.618	18172
617.684	18743
617.749	19742
617.815	18782
617.880	18103
617.946	18318
618.012	19228
618.077	18948
618.143	18756
618.208	19526
618.274	19185
618.339	20761
618.405	18563
618.470	20167
618.536	19618
618.601	22549
618.667	20541
618.732	20324
618.798	19261
618.863	19572
618.928	18054
618.994	21238
619.059	21125
619.124	26511
619.190	21872
619.255	18648
619.320	19491
619.386	19228
619.451	17889
619.516	18165
619.581	19293
619.647	18636
619.712	18728
619.777	19215
619.842	19228
619.907	19854
619.972	19030
620.038	19126
620.103	18361
620.168	17690
620.233	17795
620.298	17757
620.363	17269
620.428	18619
620.493	18580
620.558	19115
620.623	17639
620.688	18249
620.753	17507
620.818	17656
620.883	18608
620.948	18306
621.013	17516
621.078	18797
621.143	17550
621.207	21638
621.272	20421
621.337	21290
621.402	21632
621.467	26354
621.532	29380
621.596	24846
621.661	22228
621.726	21596
621.791	20582
621.855	22178
621.920	22342
621.985	23464
622.049	26331
622.114	24917
622.179	22735
622.243	24035
622.308	23086
622.373	24459
622.437	22537
622.502	20867
622.566	21779
622.631	21642
622.695	22683
622.760	22920
622.824	22681
622.889	22185
622.953	23241
623.018	30844
623.082	30493
623.147	23108
623.211	21753
623.276	22938
623.340	21559
623.404	21160
623.469	20682
623.533	21753
623.597	20596
623.662	20514
623.726	20444
623.790	19342
623.854	19573
623.919	20557
623.983	20597
624.047	21333
624.111	19223
624.176	20735
624.240	22150
624.304	25072
624.368	19434
624.432	20401
624.496	20369
624.560	21557
624.625	22630
624.689	21261
624.753	18768
624.817	19509
624.881	17467
624.945	19522
625.009	18239
625.073	19784
625.137	20442
625.201	24432
625.265	23716
625.329	20283
625.393	20218
625.456	20622
625.520	20319
625.584	22232
625.648	25896
625.712	38017
625.776	80808
625.839	101945
625.903	45726
625.967	22433
626.031	34796
626.095	57630
626.158	25378
626.222	17365
626.286	16579
626.349	17336
626.413	15747
626.477	18077
626.540	16441
626.604	16363
626.668	16313
626.731	15321
626.795	16819
626.858	18100
626.922	16357
626.986	16564
627.049	14807
627.113	15896
627.176	15695
627.240	15959
627.303	14914
627.366	15963
627.430	15848
627.493	16698
627.557	15622
627.620	16611
627.684	14892
627.747	15332
627.810	14127
627.874	15822
627.937	14116
628.000	16096
628.064	15169
628.127	12932
628.190	14899
628.253	15607
628.317	14001
628.380	13803
628.443	13232
628.506	14609
628.569	13944
628.632	13214
628.696	12611
628.759	13642
628.822	12494
628.885	12746
628.948	13148
629.011	13685
629.074	13497
629.137	13340
629.200	13221
629.263	15688
629.326	11491
629.389	12955
629.452	13410
629.515	13258
629.578	12642
629.641	15244
629.704	13046
629.767	13624
629.830	12638
629.892	12982
629.955	11228
630.018	13886
630.081	12569
630.144	16806
630.207	12963
630.269	14585
630.332	15461
630.395	13445
630.458	12202
630.520	10532
630.583	11537
630.646	11413
630.708	11844
630.771	11940
630.834	10455
630.896	10721
630.959	10934
631.021	10804
631.084	11681
631.146	12724
631.209	13855
631.272	11508
631.334	11637
631.397	11118
631.459	10760
631.522	12520
631.584	10848
631.646	11980
631.709	11122
631.771	14348
631.834	12344
631.896	11435
631.958	10089
632.021	12037
632.083	10473
632.145	11403
632.208	10273
632.270	11931
632.332	9965
632.395	9813
632.457	11447
632.519	11142
632.581	10832
632.643	10537
632.706	10922
632.768	10563
632.830	9923
632.892	10167
632.954	9595
633.016	11260
633.078	9429
633.141	10220
633.203	9595
633.265	10491
633.327	9284
633.389	9853
633.451	10641
633.513	12660
633.575	12725
633.637	11640
633.698	11059
633.760	11244
633.822	9583
633.884	10663
633.946	9930
634.008	9956
634.070	9739
634.132	12265
634.193	10083
634.255	10725
634.317	8197
634.379	10311
634.441	9619
634.502	9269
634.564	9580
634.626	9566
634.687	9457
634.749	10148
634.811	10163
634.873	8646
634.934	8515
634.996	9927
635.057	8900
635.119	9411
635.181	8510
635.242	9504
635.304	7155
635.365	10269
635.427	8097
635.488	9791
635.550	7498
635.611	9336
635.673	8037
635.734	10404
635.796	9641
635.857	10868
635.918	7830
635.980	11051
636.041	8737
636.102	9558
636.164	8950
636.225	11259
636.286	8114
636.348	9960
636.409	8387
636.470	8394
636.531	8772
636.593	10270
636.654	10085
636.715	8805
636.776	7788
636.838	7512
636.899	8692
636.960	8805
637.021	7915
637.082	8692
637.143	8614
637.204	7019
637.265	7581
637.326	7510
637.387	7802
637.448	7004
637.509	7484
637.570	8614
637.631	8073
637.692	7422
637.753	6169
637.814	8336
637.875	6693
637.936	8287
637.997	6824
638.058	8297
638.119	8691
638.179	7353
638.240	6906
638.301	8217
638.362	6606
638.423	7596
638.483	8340
638.544	6138
638.605	6772
638.666	6992
638.726	7320
638.787	7257
638.848	7333
638.908	7358
638.969	7312
639.030	7388
639.090	6018
639.151	6651
639.211	8008
639.272	8908
639.332	13243
639.393	10378
639.453	7461
639.514	6527
639.574	7360
639.635	7584
639.695	7572
639.756	6002
639.816	7604
639.877	8414
639.937	11421
639.997	15224
640.058	7405
640.118	6621
640.178	6670
640.239	6554
640.299	6252
640.359	6517
640.420	7041
640.480	7083
640.540	6311
640.600	6624
640.661	6849
640.721	6268
640.781	9568
640.841	7804
640.901	7545
640.961	7105
641.021	6534
641.082	7360
641.142	9337
641.202	9022
641.262	5582
641.322	7296
641.382	5974
641.442	6408
641.502	6159
641.562	7611
641.622	6138
641.682	6885
641.742	6126
641.802	6295
641.861	6915
641.921	6841
641.981	6999
642.041	7877
642.101	8133
642.161	6323
642.221	5388
642.280	5975
642.340	5125
642.400	5145
642.460	6717
642.519	6278
642.579	5531
642.639	7129
642.698	3997
642.758	8176
642.818	5836
642.877	5673
642.937	6379
642.997	6910
643.056	9666
643.116	6577
643.175	7341
643.235	5635
643.294	6477
643.354	7284
643.414	6243
643.473	7342
643.532	6436
643.592	8318
643.651	10045
643.711	16985
643.770	26627
643.830	60519
643.889	145751
643.948	46654
644.008	9400
644.067	6699
644.126	5434
644.186	6188
644.245	6414
644.304	4548
644.363	7138
644.423	4242
644.482	5176
644.541	6205
644.600	4113
644.659	6711
644.719	5851
644.778	7991
644.837	7555
644.896	12729
644.955	25606
645.014	13927
645.073	8406
645.132	6188
645.191	5963
645.250	5153
645.309	7256
645.368	5524
645.427	6069
645.486	5480
645.545	8786
645.604	6200
645.663	4923
645.722	5740
645.781	5529
645.840	6277
645.898	5174
645.957	8535
646.016	8239
646.075	14750
646.134	22281
646.192	54676
646.251	97936
646.310	20192
646.369	6754
646.427	6866
646.486	4983
646.545	5563
646.603	5147
646.662	6071
646.721	4771
646.779	4248
646.838	3661
646.896	5545
646.955	5244
647.014	6472
647.072	7760
647.131	16690
647.189	10809
647.248	4898
647.306	4609
647.365	6050
647.423	3109
647.481	6197
647.540	3359
647.598	5043
647.657	4369
647.715	5906
647.773	3374
647.832	5307
647.890	3488
647.948	4738
648.007	4887
648.065	4165
648.123	4229
648.181	6496
648.240	6245
648.298	6197
648.356	4852
648.414	5398
648.472	4588
648.531	5994
648.589	4044
648.647	4833
648.705	3844
648.763	4706
648.821	4320
648.879	4528
648.937	5005
648.995	5735
649.053	4586
649.111	6040
649.169	7825
649.227	11062
649.285	16357
649.343	46249
649.401	31354
649.459	16099
649.516	13533
649.574	8314
649.632	16089
649.690	22539
649.748	9730
649.806	9212
649.863	15885
649.921	14171
649.979	9479
650.037	5494
650.094	3242
650.152	4880
650.210	4034
650.268	5555
650.325	4163
650.383	4815
650.440	2941
650.498	4756
650.556	3746
650.613	3700
650.671	4319
650.728	3678
650.786	4551
650.843	4544
650.901	1997
650.958	4238
651.016	3415
651.073	4183
651.131	3227
651.188	3713
651.246	4080
651.303	2867
651.360	3982
651.418	3431
651.475	3623
651.532	3035
651.590	3710
651.647	3639
651.704	3751
651.762	4291
651.819	4264
651.876	3417
651.933	4050
651.990	4858
652.048	2272
652.105	3015
652.162	4660
652.219	3631
652.276	3298
652.333	4348
652.390	2994
652.448	3940
652.505	3266
652.562	3730
652.619	4556
652.676	6621
652.733	6963
652.790	5147
652.847	1392
652.904	4108
652.961	1669
653.017	3229
653.074	3700
653.131	4178
653.188	3188
653.245	3306
653.302	3380
653.359	3223
653.415	3731
653.472	3097
653.529	2694
653.586	3408
653.642	2782
653.699	3582
653.756	2479
653.813	2866
653.869	2941
653.926	3029
653.983	2630
654.039	3717
654.096	2342
654.152	4595
654.209	2803
654.266	3581
654.322	2909
654.379	4573
654.435	3756
654.492	4446
654.548	5131
654.605	8465
654.661	5454
654.717	3899
654.774	4092
654.830	3837
654.887	3614
654.943	3708
655.000	4500
655.056	3138
655.112	3434
655.168	3086
655.225	3345
655.281	3900
655.337	4794
655.394	9023
655.450	6911
655.506	4575
655.562	7675
655.618	8724
655.675	2578
655.731	3803
655.787	2809
655.843	4597
655.899	2177
655.955	4174
656.011	3120
656.067	2341
656.123	4096
656.179	3990
656.235	3892
656.291	3124
656.347	3869
656.403	3162
656.459	3984
656.515	4600
656.571	3857
656.627	3524
656.683	2904
656.739	4149
656.795	2757
656.850	3769
656.906	3626
656.962	4756
657.018	2214
657.074	3091
657.129	2817
657.185	3597
657.241	3554
657.297	3078
657.352	3115
657.408	3154
657.464	4746
657.519	3790
657.575	2080
657.630	3380
657.686	2619
657.742	2531
657.797	2656
657.853	2962
657.908	4517
657.964	2698
658.019	2010
658.075	2885
658.130	3570
658.186	3055
658.241	3016
658.297	2567
658.352	2184
658.407	3739
658.463	2450
658.518	3373
658.573	3139
658.629	3156
658.684	3109
658.739	3147
658.795	2649
658.850	3586
658.905	2956
658.960	3629
659.016	1591
659.071	3093
659.126	3351
659.181	3020
659.236	5877
659.291	6178
659.346	3567
659.401	3417
659.457	4332
659.512	4993
659.567	4382
659.622	3577
659.677	3196
659.732	2749
659.787	2441
659.842	3952
659.897	4187
659.952	2632
660.007	3022
660.061	3411
660.116	1994
660.171	2592
660.226	2940
660.281	3603
660.336	1759
660.391	3167
660.445	2255
660.500	3157
660.555	3068
660.610	2562
660.664	3867
660.719	3210
660.774	3032
660.828	3577
660.883	3146
660.938	3349
660.992	1881
661.047	3314
661.101	1955
661.156	2435
661.211	2307
661.265	2866
661.320	2665
661.374	3342
661.429	2916
661.483	3775
661.538	2208
661.592	2869
661.647	2941
661.701	3778
661.755	2914
661.810	2713
661.864	1967
661.919	2952
661.973	3201
662.027	2894
662.081	1753
662.136	3319
662.190	2957
662.244	4140
662.299	2329
662.353	3290
662.407	2128
662.461	2321
662.515	3417
662.569	2787
662.624	3585
662.678	2438
662.732	2787
662.786	2791
662.840	2421
662.894	3550
662.948	2222
663.002	2496
663.056	2220
663.110	1758
663.164	2011
663.218	2837
663.272	2518
663.326	2908
663.380	2454
663.434	3241
663.488	2475
663.542	2453
663.595	2341
663.649	2906
663.703	2570
663.757	3049
663.811	2053
663.864	2899
663.918	3053
663.972	2702
664.026	2464
664.079	3037
664.133	2748
664.187	3027
664.240	2151
664.294	2546
664.348	2312
664.401	2529
664.455	2143
664.508	2629
664.562	2246
664.615	3081
664.669	1480
664.722	2897
664.776	2177
664.829	3131
664.883	2254
664.936	2092
664.990	2580
665.043	3079
665.097	2695
665.150	4583
665.203	2452
665.257	2662
665.310	2753
665.363	3729
665.417	2319
665.470	3410
665.523	2716
665.576	3074
665.630	2296
665.683	3095
665.736	2846
665.789	2920
665.842	2630
665.895	3421
665.949	2335
666.002	2885
666.055	2880
666.108	3885
666.161	3012
666.214	3259
666.267	2824
666.320	3467
666.373	3462
666.426	2667
666.479	2107
666.532	3633
666.585	3318
666.638	4571
666.691	3228
666.744	4165
666.796	3187
666.849	3709
666.902	4063
666.955	3144
667.008	2116
667.060	2611
667.113	2278
667.166	2971
667.219	2632
667.271	3724
667.324	2418
667.377	3061
667.430	2652
667.482	3141
667.535	3134
667.587	3483
667.640	2433
667.693	3805
667.745	3824
667.798	6400
667.850	3780
667.903	3121
667.955	2943
668.008	3633
668.060	3057
668.113	3249
668.165	3952
668.218	3970
668.270	2701
668.322	3709
668.375	2636
668.427	3726
668.479	2936
668.532	3733
668.584	3177
668.636	2577
668.689	3412
668.741	3079
668.793	2849
668.845	3023
668.898	3034
668.950	3271
669.002	3688
669.054	2313
669.106	2486
669.158	4367
669.211	3079
669.263	3808
669.315	3514
669.367	5227
669.419	4263
669.471	5161
669.523	3691
669.575	5413
669.627	4764
669.679	3519
669.731	3576
669.783	3623
669.835	4544
669.886	4332
669.938	3299
669.990	3701
670.042	2670
670.094	3618
670.146	2960
670.197	4239
670.249	5484
670.301	6187
670.353	8583
670.404	11332
670.456	16874
670.508	26144
670.560	43412
670.611	76257
670.663	132865
670.715	292024
670.766	541308
670.818	192896
670.869	29908
670.921	13989
670.972	10084
671.024	8720
671.075	6685
671.127	6397
671.178	4463
671.230	4617
671.281	4234
671.333	3945
671.384	4329
671.436	4271
671.487	4765
671.538	4048
671.590	3826
671.641	5731
671.692	5635
671.744	7971
671.795	7594
671.846	5290
671.897	3580
671.949	3369
672.000	3079
672.051	3657
672.102	3461
672.153	2400
672.204	3499
672.256	2861
672.307	3710
672.358	3304
672.409	3390
672.460	3170
672.511	2257
672.562	2975
672.613	2639
672.664	2395
672.715	3212
672.766	3322
672.817	2836
672.868	2653
672.919	2504
672.970	3593
673.021	2198
673.071	1911
673.122	2674
673.173	3167
673.224	2393
673.275	2543
673.326	2361
673.376	3424
673.427	1709
673.478	2791
673.528	2724
673.579	2676
673.630	1818
673.680	2963
673.731	2582
673.782	2848
673.832	2894
673.883	3053
673.934	2102
673.984	2613
674.035	2791
674.085	3511
674.136	2502
674.186	3175
674.237	3698
674.287	4695
674.338	3321
674.388	2609
674.438	1747
674.489	2571
674.539	3121
674.589	2946
674.640	1687
674.690	3373
674.740	2298
674.791	3301
674.841	3503
674.891	3284
674.942	2162
674.992	2827
675.042	1441
675.092	2255
675.142	1495
675.193	2171
675.243	966
675.293	2636
675.343	2116
675.393	2367
675.443	2789
675.493	1933
675.543	1905
675.593	3032
675.643	1943
675.693	2073
675.743	2557
675.793	3160
675.843	1599
675.893	2418
675.943	2293
675.993	2444
676.043	1858
676.093	2066
676.142	1224
676.192	2847
676.242	2699
676.292	2182
676.341	2046
676.391	2275
676.441	1554
676.491	2167
676.540	1580
676.590	2415
676.640	2109
676.689	1473
676.739	1001
676.789	1770
676.838	1824
676.888	2561
676.937	1749
676.987	1905
677.037	1022
677.086	2377
677.136	1167
677.185	2073
677.235	1361
677.284	1595
677.333	1382
677.383	1536
677.432	1526
677.482	2248
677.531	1175
677.580	1581
677.630	1820
677.679	1741
677.728	1873
677.778	1327
677.827	1245
677.876	2627
677.925	1270
677.975	1992
678.024	1980
678.073	1369
678.122	1384
678.171	2176
678.220	841
678.269	2251
678.319	2533
678.368	1502
678.417	2002
678.466	2249
678.515	2598
678.564	2388
678.613	2200
678.662	2007
678.711	1849
678.760	2182
678.809	2027
678.857	1991
678.906	1347
678.955	1960
679.004	1880
679.053	2089
679.102	1010
679.151	2575
679.199	1763
679.248	1232
679.297	985
679.346	2197
679.394	1538
679.443	2275
679.492	1926
679.540	1972
679.589	2385
679.638	1540
679.686	2118
679.735	1889
679.784	1642
679.832	1796
679.881	1161
679.929	1594
679.978	1022
680.026	1273
680.075	1036
680.123	1650
680.172	1761
680.220	2377
680.268	1617
680.317	1626
680.365	1621
680.414	1564
680.462	1879
680.510	2592
680.559	1024
680.607	1486
680.655	627
680.703	1752
680.752	997
680.800	1508
680.848	1081
680.896	2146
680.945	1175
680.993	968
681.041	609
681.089	2030
681.137	1415
681.185	1818
681.233	1199
681.258	1662
681.281	2086
681.329	1141
681.377	945
681.380	987
681.425	1423
681.473	2064
681.502	1724
681.521	1459
681.569	1941
681.617	1104
681.624	1253
681.665	2099
681.713	1117
681.745	1737
681.761	2015
681.809	1562
681.857	2317
681.867	2117
681.904	1347
681.952	1691
681.989	1773
682.000	1780
682.048	2043
682.096	1233
682.111	1322
682.143	1474
682.191	2171
682.233	2584
682.239	2627
682.286	1345
682.334	2617
682.354	2242
682.382	1710
682.430	1930
682.476	2516
682.477	2516
682.525	2119
682.572	1423
682.598	1850
682.620	2210
682.667	2111
682.715	2825
682.720	2768
682.763	2027
682.810	2051
682.841	1551
682.857	1292
682.905	1993
682.952	2391
682.963	2501
683.000	2822
683.047	1904
683.085	2429
683.095	2552
683.142	2174
683.190	2825
683.206	2575
683.237	2109
683.284	2872
683.328	2073
683.332	1988
683.379	2041
683.426	2291
683.449	2228
683.473	2178
683.521	1863
683.568	2771
683.571	2759
683.615	2415
683.662	3415
683.693	2971
683.709	2723
683.757	2341
683.804	3046
683.814	2902
683.851	2368
683.898	1644
683.936	2314
683.945	2467
683.992	2206
684.039	2895
684.057	2839
684.086	2735
684.133	2777
684.179	2966
684.180	2957
684.227	3816
684.274	3217
684.300	3164
684.321	3151
684.368	2592
684.415	4409
684.422	4157
684.462	2600
684.509	3056
684.543	3136
684.556	3143
684.603	3002
684.649	2567
684.665	2905
684.696	3653
684.743	2751
684.786	3799
684.790	3877
684.837	3151
684.883	3968
684.908	3697
684.930	3435
684.977	3742
685.023	4072
685.029	4123
685.070	4254
685.117	3262
685.150	3781
685.164	4052
685.210	3669
685.257	4276
685.272	4266
685.303	4088
685.350	4370
685.393	3518
685.396	3452
685.443	4192
685.490	3491
685.514	4110
685.536	4630
685.583	4001
685.629	3898
685.636	3929
685.675	4071
685.722	3903
685.757	3811
685.768	3777
685.815	4529
685.861	4752
685.878	4637
685.908	4471
685.954	4293
686.000	4991
686.000	4999
686.047	4927
686.093	5973
686.121	5382
686.139	4887
686.185	5068
686.232	4611
686.242	4567
686.278	4395
686.324	3856
686.363	4058
686.370	4126
686.416	4055
686.463	5232
686.484	5116
686.509	4854
686.555	4821
686.601	4293
686.606	4340
686.647	4917
686.693	4174
686.727	4285
686.739	4305
686.785	4592
686.831	4515
686.848	4372
686.877	4141
686.923	4927
686.969	4255
686.969	4250
687.015	4539
687.061	4364
687.090	4580
687.107	4732
687.153	4226
687.199	4540
687.211	4468
687.245	4395
687.291	5232
687.332	5022
687.336	4987
687.382	5509
687.428	5219
687.453	4978
687.474	4676
687.520	4837
687.565	4867
687.574	4691
687.611	4358
687.657	4967
687.695	4912
687.702	4885
687.748	5538
687.794	5268
687.816	5402
687.839	5435
687.885	4921
687.931	4719
687.937	4694
687.976	4633
688.022	5001
688.058	5063
688.067	5097
688.113	5234
688.158	4839
688.179	4919
688.204	4960
688.249	4699
688.295	5290
688.300	5232
688.340	5141
688.386	6108
688.421	5961
688.431	5797
688.477	5540
688.522	5028
688.542	5194
688.567	5626
688.613	4828
688.658	5285
688.663	5236
688.703	4831
688.749	5558
688.784	5370
688.794	5297
688.839	5500
688.884	4536
688.905	4849
688.930	5299
688.975	5268
689.020	5404
689.026	5410
689.065	5579
689.110	5517
689.146	5476
689.155	5425
689.201	5535
689.246	5365
689.267	5514
689.291	5762
689.336	5487
689.381	5645
689.388	5591
689.426	5382
689.471	5671
689.509	5296
689.516	5215
689.561	5684
689.606	5531
689.630	5732
689.651	5931
689.696	5388
689.741	5725
689.750	5638
689.785	5518
689.830	6316
689.871	6203
689.875	6174
689.920	6224
689.965	5740
689.992	6043
690.010	6274
690.054	5714
690.099	5645
690.112	5649
690.144	5725
690.189	5867
690.233	5169
690.233	5174
690.278	6108
690.323	5766
690.354	6107
690.367	6211
690.412	6247
690.457	6060
690.474	6195
690.501	6490
690.546	6667
690.590	6175
690.595	6227
690.635	6828
690.680	7004
690.716	7163
690.724	7243
690.769	7491
690.813	8507
690.836	8563
690.857	9196
690.902	11105
690.946	12562
690.957	13130
690.991	17361
691.035	22608
691.077	28602
691.080	28748
691.124	27982
691.168	27462
691.198	26989
691.213	25228
691.257	20747
691.301	15844
691.318	14096
691.346	12984
691.390	11260
691.434	9500
691.439	9198
691.478	8131
691.522	8311
691.559	7495
691.567	7387
691.611	7640
691.655	7212
691.680	7039
691.699	7136
691.743	7250
691.787	7637
691.800	7520
691.831	7115
691.875	7413
691.919	7389
691.921	7365
691.964	7242
692.008	7674
692.041	7871
692.052	7885
692.096	7370
692.139	7915
692.162	7540
692.183	7197
692.227	6918
692.271	6719
692.282	6803
692.315	7366
692.359	7390
692.402	7569
692.403	7585
692.447	7490
692.490	7742
692.523	7908
692.534	7950
692.578	7857
692.622	7806
692.643	7798
692.666	7700
692.709	7391
692.753	7276
692.763	7225
692.797	7473
692.840	7832
692.884	7623
692.884	7637
692.928	7759
692.971	7913
693.004	8000
693.015	7979
693.059	7529
693.102	7501
693.124	7368
693.146	7607
693.189	8218
693.233	8653
693.245	8816
693.276	9025
693.320	9287
693.363	9194
693.365	9171
693.407	9608
693.450	10267
693.485	10727
693.493	11050
693.537	13078
693.580	14626
693.605	15574
693.624	17057
693.667	20313
693.710	24095
693.725	25430
693.753	32969
693.797	45358
693.840	57794
693.845	58994
693.883	59018
693.926	58002
693.966	57713
693.970	56659
694.013	44908
694.056	33173
694.086	25102
694.099	23987
694.142	20292
694.185	16760
694.206	14992
694.229	14348
694.272	13084
694.315	12221
694.326	11785
694.358	11297
694.401	10780
694.444	10584
694.446	10553
694.487	10434
694.530	9823
694.566	9616
694.573	9626
694.616	9173
694.659	9009
694.686	8798
694.702	8648
694.745	8361
694.787	7711
694.806	7651
694.830	7929
694.873	8083
694.916	8078
694.926	8113
694.959	8140
695.002	8040
695.044	7884
695.046	7873
695.087	8240
695.130	8242
695.166	8224
695.172	8200
695.215	7751
695.258	7850
695.286	7637
695.301	7728
695.343	7859
695.386	8351
695.406	8350
695.428	8088
695.471	7693
695.514	7535
695.526	7449
695.556	7723
695.599	8021
695.641	8042
695.646	8067
695.684	8006
695.726	7760
695.766	7622
695.769	7662
695.811	7650
695.854	8039
695.886	8027
695.896	7971
695.938	8003
695.981	7678
696.005	7584
696.023	7685
696.065	7881
696.108	8188
696.125	8200
696.150	8085
696.192	7948
696.235	7740
696.245	7717
696.277	7858
696.319	7760
696.361	7872
696.365	7853
696.404	8096
696.446	8353
696.485	8484
696.488	8520
696.530	8753
696.572	8939
696.604	9144
696.614	9116
696.656	8750
696.698	8659
696.724	8337
696.740	8154
696.783	7888
696.825	7556
696.844	7416
696.867	7633
696.909	7849
696.951	8221
696.964	8272
696.992	8339
697.034	8402
697.076	8554
697.083	8544
697.118	8515
697.160	8463
697.202	8497
697.203	8472
697.244	8287
697.286	8120
697.323	7889
697.327	7923
697.369	8132
697.411	8192
697.442	8314
697.453	8407
697.494	8589
697.536	8825
697.562	8933
697.578	8833
697.620	8507
697.661	8172
697.682	7998
697.703	8137
697.744	8321
697.786	8674
697.801	8678
697.828	8625
697.869	8705
697.911	8663
697.921	8655
697.952	8702
697.994	8618
698.035	8617
698.040	8589
698.077	8546
698.118	8476
698.160	8406
698.160	8383
698.201	8517
698.243	8684
698.279	8764
698.284	8787
698.325	8799
698.367	8801
698.399	8757
698.408	8765
698.449	8726
698.491	8619
698.518	8581
698.532	8606
698.573	8559
698.614	8520
698.638	8467
698.656	8646
698.697	9028
698.738	9391
698.757	9548
698.779	9318
698.820	8812
698.862	8307
698.877	8100
698.903	8396
698.944	8833
698.985	9264
698.996	9362
699.026	9220
699.067	8988
699.116	8690
699.235	9433
699.354	8302
699.474	9121
699.593	9514
699.713	9571
699.832	8746
699.951	9755
700.070	8790
700.190	8274
700.309	8733
700.428	9236
700.547	9541
700.667	8795
700.786	8648
700.905	9136
701.024	8580
701.143	9370
701.262	8191
701.381	8483
701.500	7503
701.619	8471
701.738	8211
701.857	8166
701.976	6933
702.095	6806
702.214	8799
702.333	9060
702.452	7591
702.571	7288
702.690	7701
702.809	8055
702.928	6616
703.047	8135
703.165	7023
703.284	7225
703.403	7690
703.522	8340
703.640	8011
703.759	8343
703.878	11219
703.997	7710
704.115	7459
704.234	7557
704.353	7308
704.471	7872
704.590	7604
704.708	6832
704.827	7233
704.946	7314
705.064	7711
705.183	7738
705.301	8307
705.420	11367
705.538	10634
705.656	9121
705.775	9782
705.893	15262
706.012	20041
706.130	9460
706.249	10364
706.367	9860
706.485	9859
706.604	9020
706.722	8912
706.840	10519
706.958	10784
707.077	9542
707.195	9217
707.313	8909
707.431	7845
707.549	8703
707.668	8231
707.786	8440
707.904	8071
708.022	8507
708.140	7408
708.258	8359
708.376	9091
708.494	7815
708.612	7768
708.730	12247
708.848	11438
708.966	10672
709.084	10577
709.202	9591
709.320	9632
709.438	10391
709.556	9778
709.674	10723
709.791	10676
709.909	9724
710.027	10513
710.145	9603
710.263	9236
710.380	9884
710.498	9382
710.616	10211
710.733	9672
710.851	9837
710.969	9446
711.086	9718
711.204	9529
711.322	9119
711.439	8651
711.557	10289
711.674	9712
711.792	9274
711.909	9280
712.027	10877
712.144	9011
712.262	9322
712.379	10281
712.497	12505
712.614	13178
712.732	11512
712.849	10118
712.966	11546
713.084	12525
713.201	12138
713.318	10356
713.436	10732
713.553	10485
713.670	10947
713.787	10786
713.905	11064
714.022	10431
714.139	9511
714.256	10523
714.373	11272
714.490	12543
714.608	15682
714.725	40175
714.842	50867
714.959	11720
715.076	10073
715.193	9838
715.310	9000
715.427	9325
715.544	9759
715.661	9989
715.778	9393
715.895	9758
716.011	10450
716.128	9193
716.245	9266
716.362	9690
716.479	10502
716.596	9388
716.713	9146
716.829	9145
716.946	9454
717.063	7978
717.180	8082
717.296	8561
717.413	8855
717.530	8224
717.646	8673
717.763	8743
717.880	8715
717.996	7948
718.113	8752
718.229	8339
718.346	7309
718.462	7827
718.579	9556
718.695	11758
718.812	11371
718.928	9850
719.045	9092
719.161	7492
719.277	7907
719.394	7051
719.510	8917
719.626	7986
719.743	8398
719.859	8471
719.975	9272
720.092	14062
720.208	26673
720.324	9832
720.440	8044
720.557	8739
720.673	10328
720.789	14926
720.905	27212
721.021	12899
721.137	7590
721.253	6659
721.369	7745
721.486	8498
721.602	10975
721.718	8153
721.834	7314
721.950	6671
722.066	6902
722.181	7281
722.297	7438
722.413	6680
722.529	7265
722.645	6318
722.761	7329
722.877	7140
722.993	6763
723.108	7104
723.224	6261
723.340	6686
723.456	7088
723.571	6603
723.687	6555
723.803	6949
723.918	6435
724.034	7186
724.150	6395
724.265	7008
724.381	10971
724.497	15310
724.612	7072
724.728	5807
724.843	5702
724.959	5992
725.074	10883
725.190	14628
725.305	6440
725.421	6009
725.536	5674
725.651	5033
725.767	5904
725.882	6313
725.997	6009
726.113	6252
726.228	5268
726.343	5487
726.459	5571
726.574	6001
726.689	5733
726.804	5979
726.920	5932
727.035	5755
727.150	6029
727.265	5312
727.380	5699
727.495	5564
727.610	5387
727.725	6094
727.841	7037
727.956	9818
728.071	8977
728.186	5565
728.301	5284
728.416	5317
728.531	6335
728.645	4670
728.760	5658
728.875	5542
728.990	6166
729.105	5417
729.220	4917
729.335	4982
729.449	5386
729.564	5550
729.679	4627
729.794	5278
729.908	5327
730.023	5101
730.138	4676
730.253	4625
730.367	4940
730.482	4971
730.596	4300
730.711	5862
730.826	5043
730.940	5176
731.055	5165
731.169	5018
731.284	5016
731.398	4569
731.513	4631
731.627	4545
731.742	5214
731.856	4804
731.970	4400
732.085	4011
732.199	4652
732.313	5328
732.428	7428
732.542	12192
732.656	9301
732.771	5180
732.885	4472
732.999	4597
733.113	5694
733.227	4818
733.342	4685
733.456	3918
733.570	4466
733.684	3847
733.798	4469
733.912	3908
734.026	3984
734.140	3859
734.254	4532
734.368	6153
734.482	8524
734.596	3565
734.710	4959
734.824	3664
734.938	3986
735.052	3512
735.166	4910
735.280	4436
735.393	3549
735.507	3540
735.621	4955
735.735	7278
735.849	5325
735.962	4342
736.076	4011
736.190	4838
736.303	4888
736.417	6222
736.531	4272
736.644	4320
736.758	3807
736.872	4115
736.985	3664
737.099	3803
737.212	4361
737.326	3486
737.439	4048
737.553	3721
737.666	3497
737.780	3292
737.893	3872
738.007	3318
738.120	4240
738.233	3731
738.347	4276
738.460	3953
738.573	4192
738.687	4455
738.800	4351
738.913	3805
739.026	4219
739.140	3644
739.253	4308
739.366	3585
739.479	4055
739.592	3510
739.705	3711
739.818	2882
739.932	4176
740.045	3596
740.158	3854
740.271	4206
740.384	4326
740.497	3957
740.610	4369
740.723	3151
740.836	4953
740.949	3271
741.062	5386
741.174	5073
741.287	3691
741.400	3813
741.513	3783
741.626	4673
741.739	4454
741.851	3302
741.964	3328
742.077	3482
742.189	3133
742.302	4089
742.415	4711
742.527	3051
742.640	3453
742.753	3292
742.865	3141
742.978	3113
743.090	3838
743.203	2391
743.316	4373
743.428	2500
743.541	2958
743.653	3056
743.766	3323
743.878	3253
743.990	3911
744.103	3908
744.215	3826
744.327	2925
744.440	4198
744.552	4376
744.664	4546
744.777	3465
744.889	3746
745.001	4210
745.113	2669
745.226	3133
745.338	3151
745.450	3198
745.562	3379
745.674	2648
745.786	3015
745.898	2858
746.010	3372
746.122	3215
746.234	3020
746.347	3621
746.459	3004
746.570	2101
746.682	3532
746.794	3630
746.906	3237
747.018	3538
747.130	4008
747.242	2947
747.354	3283
747.466	2950
747.577	2879
747.689	3151
747.801	3728
747.913	3055
748.024	3081
748.136	2909
748.248	2244
748.359	3013
748.471	2957
748.583	3572
748.694	3997
748.806	4383
748.918	3272
749.029	3491
749.141	3204
749.252	3714
749.364	4161
749.475	4294
749.587	5469
749.698	3376
749.809	3464
749.921	2356
750.032	3335
750.144	2472
750.255	2131
750.366	2658
750.478	3231
750.589	3111
750.700	2840
750.811	3028
750.923	4049
751.034	4258
751.145	5985
751.256	2926
751.367	3633
751.479	2706
751.590	3268
751.701	3130
751.812	2787
751.923	3192
752.034	3086
752.145	1403
752.256	2683
752.367	3301
752.478	2912
752.589	3812
752.700	2872
752.811	2767
752.922	3108
753.032	2376
753.143	3689
753.254	2267
753.365	3359
753.476	2872
753.586	3534
753.697	3143
753.808	3140
753.919	3209
754.029	3075
754.140	2979
754.251	2930
754.361	2576
754.472	2637
754.582	2826
754.693	2776
754.804	3229
754.914	3064
755.025	3139
755.135	3306
755.246	2815
755.356	2649
755.466	3006
755.577	2829
755.687	3509
755.798	2982
755.908	3543
756.018	2814
756.129	3508
756.239	2781
756.349	2565
756.460	3183
756.570	2981
756.680	2944
756.790	3141
756.900	3751
757.011	2250
757.121	3767
757.231	3334
757.341	2911
757.451	2883
757.561	3286
757.671	3729
757.781	3779
757.891	2904
758.001	3095
758.111	3504
758.221	3363
758.331	3576
758.441	3624
758.551	3792
758.661	4193
758.771	3207
758.880	3456
758.990	4034
759.100	3390
759.210	3672
759.320	4387
759.429	2750
759.539	3683
759.649	3423
759.758	3594
759.868	4250
759.978	3533
760.087	3994
760.197	4527
760.307	4138
760.416	4079
760.526	3663
760.635	4802
760.745	4343
760.854	4739
760.964	4621
761.073	4534
761.182	4017
761.292	4255
761.401	5679
761.511	4398
761.620	4980
761.729	5730
761.839	5554
761.948	5490
762.057	4832
762.166	6123
762.276	4949
762.385	6521
762.494	5600
762.603	6188
762.712	6399
762.822	6494
762.931	6952
763.040	6095
763.149	6610
763.258	7495
763.367	7919
763.476	7626
763.585	7740
763.694	8443
763.803	8789
763.912	9216
764.021	10705
764.130	11066
764.238	11428
764.347	11533
764.456	12306
764.565	12762
764.674	13981
764.783	14594
764.891	16069
765.000	19308
765.109	20382
765.217	25043
765.326	30078
765.435	35391
765.543	42592
765.652	53708
765.761	70802
765.869	99597
765.978	146581
766.086	240265
766.195	414877
766.303	748725
766.412	959098
766.520	868266
766.629	661790
766.737	349293
766.846	204834
766.954	135243
767.062	96160
767.171	72955
767.279	56251
767.387	45002
767.496	36508
767.604	33357
767.712	28368
767.820	25306
767.928	24031
768.037	21075
768.145	20167
768.253	20096
768.361	18855
768.469	18328
768.577	18704
768.685	20393
768.793	21243
768.901	23618
769.009	26541
769.117	33900
769.225	42920
769.333	61186
769.441	95741
769.549	168100
769.657	340576
769.765	696227
769.873	830711
769.981	609153
770.088	274034
770.196	140281
770.304	86068
770.412	61588
770.519	45207
770.627	36340
770.735	28328
770.842	25160
770.950	20742
771.058	18813
771.165	15883
771.273	15217
771.380	13134
771.488	12890
771.595	10572
771.703	10872
771.810	10069
771.918	9353
772.025	8650
772.133	8115
772.240	7957
772.348	7616
772.455	6323
772.562	6713
772.670	6247
772.777	6509
772.884	6108
772.991	5905
773.099	5834
773.206	5412
773.313	5782
773.420	5340
773.528	4913
773.635	4720
773.742	5355
773.849	4936
773.956	4989
774.063	4515
774.170	4873
774.277	4624
774.384	3356
774.491	3685
774.598	4270
774.705	4517
774.812	4252
774.919	4501
775.026	3539
775.133	3799
775.239	3553
775.346	3415
775.453	3989
775.560	2985
775.667	3723
775.773	3775
775.880	3945
775.987	3107
776.093	4067
776.200	3110
776.307	3143
776.413	3527
776.520	2869
776.627	3154
776.733	3347
776.840	3081
776.946	3996
777.053	3220
777.159	3909
777.266	3006
777.372	4762
777.478	2844
777.585	3130
777.691	3309
777.798	3080
777.904	3499
778.010	4366
778.117	2631
778.223	3364
778.329	2875
778.435	2736
778.542	3090
778.648	2248
778.754	2445
778.860	2963
778.966	2654
779.072	2630
779.178	2593
779.284	2790
779.391	3148
779.497	2224
779.603	6063
779.708	5802
779.815	17594
779.920	62294
780.026	107146
780.132	17454
780.238	3890
780.344	2573
780.450	3024
780.556	2279
780.661	2084
780.767	2531
780.873	1917
780.979	2091
781.085	1860
781.190	2621
781.296	1717
781.402	1981
781.507	1533
781.613	2136
781.719	1819
781.824	2033
781.930	3320
782.035	1864
782.141	1875
782.246	1705
782.352	1869
782.457	1912
782.563	2059
782.668	1445
782.773	1685
782.879	1419
782.984	2198
783.090	2325
783.195	2949
783.300	1887
783.405	1748
783.511	1130
783.616	1757
783.721	2593
783.826	1789
783.932	1849
784.037	2107
784.142	1724
784.247	1623
784.352	1733
784.457	1625
784.562	1741
784.667	1816
784.772	2163
784.877	1219
784.982	2000
785.087	2048
785.192	1510
785.297	1468
785.402	2178
785.507	1653
785.611	1557
785.716	1682
785.821	2161
785.926	1253
786.031	1907
786.135	1598
786.240	1110
786.345	1233
786.450	1861
786.554	1159
786.659	958
786.763	428
786.868	1366
786.973	2066
787.077	1024
787.182	911
787.286	2050
787.391	1014
787.495	-431
787.600	1785
787.704	668
787.809	1590
787.913	589
788.017	1317
788.122	1694
788.226	1863
788.330	177
788.435	988
788.539	955
788.643	541
788.747	1023
788.852	1742
788.956	1365
789.060	1428
789.164	1331
789.268	705
789.372	1082
789.476	822
789.580	1412
789.684	45
789.788	698
789.892	582
789.996	1398
790.100	822
790.204	1146
790.308	1020
790.412	750
790.516	1667
790.620	1660
790.724	1133
790.828	1282
790.931	593
791.035	2293
791.139	1924
791.242	506
791.346	1226
791.450	297
791.554	821
791.657	848
791.761	1862
791.864	1191
791.968	1978
792.072	822
792.175	1569
792.279	343
792.382	1705
792.486	1878
792.589	837
792.693	988
792.796	822
792.899	1426
793.003	1364
793.106	313
793.209	730
793.313	1764
793.416	903
793.519	1863
793.623	1100
793.726	1317
793.829	2038
793.932	902
794.035	834
794.138	2594
794.242	1253
794.345	2614
794.448	4121
794.551	8591
794.654	31284
794.757	54115
794.860	10997
794.963	1525
795.066	1025
795.169	2069
795.272	943
795.375	1361
795.477	1845
795.580	978
795.683	937
795.786	1367
795.889	47
795.991	1476
796.094	1776
796.197	290
796.300	1616
796.402	754
796.505	610
796.608	392
796.710	1586
796.813	866
796.915	615
797.018	850
797.120	1095
797.223	581
797.326	1635
797.428	400
797.530	455
797.633	28
797.735	1439
797.838	1403
797.940	2071
798.042	252
798.145	1018
798.247	629
798.349	-190
798.452	1271
798.554	359
798.656	-590
798.758	861
798.860	642
798.962	227
799.065	620
799.167	-210
799.269	1674
799.371	1190
799.473	1574
799.575	510
799.677	1201
799.779	2627
799.881	125
799.983	-38
800.085	542
800.187	714
800.289	501
800.390	550
800.492	644
800.594	1147
800.696	463
800.798	385
800.899	22
801.001	915
801.103	-225
801.205	554
801.306	635
801.408	381
801.509	887
801.611	869
801.713	1188
801.814	73
801.916	517
802.017	1516
802.119	-103
802.220	998
802.322	-675
802.423	2284
802.525	127
802.626	963
802.727	618
802.829	763
802.930	-735
803.031	1278
803.133	459
803.234	149
803.335	570
803.436	-73
803.538	-188
803.639	43
803.740	863
803.841	267
803.942	373
804.043	881
804.144	214
804.245	469
804.346	-326
804.447	-124
804.548	551
804.649	1430
804.750	-87
804.851	219
804.952	742
805.053	467
805.154	-18
805.255	789
805.355	30
805.456	-313
805.557	-158
805.658	-387
805.758	621
805.859	870
805.960	20
806.061	440
806.161	-922
806.262	1079
806.362	-237
806.463	105
806.564	99
806.664	149
806.765	744
806.865	1251
806.966	107
807.066	577
807.166	738
807.267	715
807.367	303
807.468	994
807.568	-969
807.668	1012
807.769	293
807.869	-324
807.969	840
808.069	1063
808.170	159
808.270	360
808.370	1022
808.470	766
808.570	-457
808.670	130
808.770	740
808.870	-631
808.970	-353
809.070	497
809.170	-876
809.271	548
809.370	183
809.470	861
809.570	420
809.670	601
809.770	498
809.870	536
809.970	483
810.070	702
810.169	652
810.269	-851
810.369	879
810.469	-391
810.568	-307
810.668	120
810.768	153
810.867	955
810.967	78
811.066	97
811.166	-561
811.265	962
811.365	-255
811.464	506
811.564	952
811.663	820
811.763	-438
811.862	1063
811.962	573
812.061	735
812.160	308
812.260	631
812.359	718
812.458	511
812.557	1923
812.657	2520
812.756	1332
812.855	1586
812.954	798
813.053	913
813.153	936
813.252	21
813.351	1178
813.450	447
813.549	-4
813.648	1202
813.747	-184
813.846	1390
813.945	306
814.044	812
814.143	1121
814.242	1180
814.341	643
814.439	1197
814.538	973
814.637	1072
814.736	882
814.835	1575
814.933	1221
815.032	2146
815.131	988
815.229	2082
815.328	1794
815.427	1536
815.525	1967
815.624	2008
815.722	1399
815.821	2949
815.919	2657
816.018	1397
816.116	2826
816.215	2681
816.313	2601
816.412	3645
816.510	3697
816.609	4097
816.707	3895
816.805	4020
816.904	4531
817.002	5763
817.100	6447
817.198	7203
817.296	8069
817.395	9720
817.493	13200
817.591	15327
817.689	21005
817.787	28089
817.885	42447
817.983	71943
818.081	134973
818.179	274491
818.277	541151
818.375	540549
818.473	263156
818.571	124472
818.669	77984
818.767	62489
818.865	59214
818.963	68546
819.061	88482
819.158	136983
819.256	238053
819.354	442223
819.452	698278
819.549	584110
819.647	326817
819.745	170783
819.842	101891
819.940	69688
820.038	49390
820.135	37341
820.233	29368
820.330	23691
820.428	19028
820.525	16303
820.623	13651
820.720	12142
820.818	10903
820.915	9548
821.012	8886
821.110	7155
821.207	6787
821.304	5812
821.402	5155
821.499	5756
821.596	5291
821.693	5072
821.791	4100
821.888	3490
821.985	5367
822.082	3888
822.179	3643
822.276	2305
822.373	2804
822.470	2434
822.567	1355
822.664	1702
822.761	2282
822.858	1603
822.955	2188
823.052	2124
823.149	1130
823.246	2115
823.343	1681
823.440	1467
823.536	810
823.633	1102
823.730	639
823.827	960
823.923	1530
824.020	2986
824.117	239
824.213	585
824.310	1263
824.407	939
824.503	84
824.600	12
824.696	936
824.793	983
824.889	0
824.986	773
825.082	364
825.179	871
825.275	125
825.371	166
825.468	859
825.564	382
825.660	213
825.757	562
825.853	1812
825.949	621
826.045	326
826.142	-334
826.238	71
826.334	810
826.430	447
826.526	373
826.622	-1059
826.718	292
826.814	189
826.910	1014
827.006	-158
827.102	-366
827.198	511
827.294	48
827.390	-566
827.486	975
827.582	-1366
827.678	114
827.774	467
827.869	-1004
827.965	438
828.061	-241
828.157	-86
828.252	359
828.348	-854
828.444	633
828.539	-1115
828.635	-585
828.731	317
828.826	752
828.922	-214
829.017	-236
829.113	702
829.208	-258
829.304	-725
829.399	217
829.495	-936
829.590	-345
829.685	-876
829.781	-223
829.876	-294
829.971	-929
830.066	-852
830.162	281
830.257	-584
830.352	32
830.447	49
830.543	-192
830.638	-1336
830.733	-304
830.828	-46
830.923	506
831.018	-533
831.113	-582
831.208	-602
831.303	63
831.398	-151
831.493	2
831.588	-126
831.683	-397
831.778	-883
831.873	42
831.967	163
832.062	-948
832.157	-547
832.252	736
832.346	-717
832.441	-1239
832.536	1136
832.631	711
832.725	1346
832.820	-238
832.914	-778
833.009	-775
833.104	-435
833.198	145
833.293	-146
833.387	-341
833.482	-239
833.576	-955
833.670	-191
833.765	-949
833.859	-1169
833.954	225
834.048	-878
834.142	680
834.237	-985
834.331	-746
834.425	1
834.519	-883
834.613	248
834.708	-1133
834.802	-173
834.896	-863
834.990	-145
835.084	0
835.178	-337
835.272	-152
835.366	-1209
835.460	169
835.554	204
835.648	312
835.742	-1244
835.836	-1141
835.930	-974
836.024	-623
836.117	275
836.211	-68
836.305	492
836.399	603
836.493	-655
836.586	247
836.680	-1454
836.774	-1181
836.867	606
836.961	-1104
837.055	-878
837.148	-442
837.242	-606
837.335	-614
837.429	-407
837.522	-935
837.616	-314
837.709	458
837.803	-513
837.896	184
837.989	-486
838.083	184
838.176	1116
838.269	845
838.363	1323
838.456	-903
838.549	-271
838.642	392
838.735	1907
838.829	665
838.922	-1145
839.015	-747
839.108	-1865
839.201	-865
839.294	-358
839.387	-447
839.480	-1565
839.573	-284
839.666	-394
839.759	-612
839.852	-1260
839.945	-677
840.038	-578
840.131	-1334
840.223	-52
840.316	760
840.409	-1085
840.502	-1098
840.594	414
840.687	-788
840.780	462
840.873	-1001
840.965	-701
841.058	301
841.150	802
841.243	853
841.336	53
841.428	-193
841.521	-1160
841.613	-979
841.706	-883
841.798	-438
841.890	-474
841.983	-1370
842.075	264
842.167	-191
842.260	231
842.352	-307
842.444	-305
842.537	865
842.629	1692
842.721	-130
842.813	-1306
842.905	-1172
842.997	-1083
843.090	-130
843.182	39
843.274	1383
843.366	3114
843.458	7576
843.550	5591
843.642	983
843.734	-336
843.826	-373
843.918	-61
844.009	-244
844.101	-646
844.193	-448
844.285	-1339
844.377	-476
844.469	-832
844.560	-517
844.652	-421
844.744	-192
844.835	-473
844.927	-145
845.019	-389
845.110	-295
845.202	-601
845.293	-93
845.385	-1766
845.476	-1222
845.568	64
845.659	-112
845.751	-68
845.842	-673
845.934	-1154
846.025	-1459
846.116	-1093
846.208	-368
846.299	-525
846.390	353
846.482	-554
846.573	-153
846.664	-269
846.755	-197
846.846	486
846.937	-2047
847.029	-725
847.120	-597
847.211	-886
847.302	389
847.393	-1547
847.484	-476
847.575	-695
847.666	-205
847.757	-934
847.847	-328
847.938	-156
848.029	-694
848.120	-1128
848.211	-145
848.302	-782
848.392	-909
848.483	-566
848.574	-1285
848.664	-422
848.755	-474
848.846	155
848.936	-937
849.027	-574
849.118	-334
849.208	-891
849.299	-637
849.389	548
849.480	-177
849.570	-844
849.661	-123
849.751	820
849.841	90
849.932	-831
850.022	-869
850.112	-592
850.203	-1098
850.293	-1796
850.383	-736
850.474	-1807
850.564	-692
850.654	-143
850.744	-139
850.834	-1080
850.924	-1234
851.014	-1038
851.104	-1208
851.194	-804
851.284	-570
851.374	-122
851.464	-953
851.554	-863
851.644	-782
851.734	9
851.824	-101
851.914	-984
852.004	1178
852.094	-178
852.183	-1184
852.273	-697
852.363	-1607
852.452	-1649
852.542	-835
852.632	-2487
852.721	-723
852.811	-1192
852.901	-168
852.990	-1381
853.080	-617
853.169	-726
853.259	-413
853.348	-666
853.438	-1162
853.527	97
853.617	-1027
853.706	-282
853.795	63
853.885	1490
853.974	2322
854.063	6453
854.152	10297
854.242	4349
854.331	-80
854.420	-689
854.509	-375
854.598	-296
854.687	-497
854.777	-409
854.866	-266
854.955	-812
855.044	-1164
855.133	-896
855.222	-657
855.311	-1309
855.400	-811
855.488	-1238
855.577	-904
855.666	-1150
855.755	-1035
855.844	-243
855.933	-11
856.021	-936
856.110	-200
856.199	-1189
856.288	-342
856.376	-2168
856.465	-1393
856.554	-194
856.642	-1185
856.731	-632
856.819	-869
856.908	-1327
856.996	-866
857.085	-860
857.173	-1008
857.262	-1135
857.350	-718
857.438	-613
857.527	-1190
857.615	-1211
857.703	-840
857.792	-631
857.880	-1770
857.968	-937
858.056	-1298
858.145	-960
858.233	-1187
858.321	-1100
858.409	-1335
858.497	-1278
858.585	-1094
858.673	-687
858.761	-1286
858.849	-1524
858.937	-841
859.025	-931
859.113	48
859.201	-1417
859.289	-737
859.377	-535
859.465	-122
859.552	-753
859.640	-476
859.728	-821
859.816	-978
859.903	-379
859.991	-1542
860.079	-694
860.166	-661
860.254	-902
860.342	-1068
860.429	-1413
860.517	-1301
860.604	-564
860.692	-421
860.779	-1400
860.867	-935
860.954	-683
861.042	-745
861.129	-1100
861.216	-659
861.304	-1549
861.391	-278
861.478	-1306
861.565	-210
861.653	-443
861.740	-368
861.827	-545
861.914	-340
862.001	-1250
862.089	-835
862.176	-1118
862.263	-533
862.350	-802
862.437	-1118
862.524	-1742
862.611	-657
862.698	-995
862.785	-1022
862.871	-848
862.958	-1358
863.045	-1165
863.132	-813
863.219	-1608
863.306	-1447
863.392	-415
863.479	-182
863.566	-1333
863.652	-779
863.739	-829
863.826	-556
863.912	-396
863.999	-1023
864.086	-1254
864.172	-1088
864.259	-1313
864.345	-385
864.432	-125
864.518	-1256
864.604	-1041
864.691	-659
864.777	-235
864.863	-372
864.950	-577
865.036	-1096
865.122	-798
865.209	-331
865.295	-892
865.381	-1111
865.467	-1252
865.553	-673
865.639	-927
865.726	-574
865.812	341
865.898	1043
865.984	1486
866.070	3545
866.156	5642
866.242	1086
866.328	-479
866.414	-1132
866.499	-1762
866.585	-951
866.671	-747
866.757	-464
866.843	-894
866.928	-1278
867.014	-1236
867.100	-369
867.186	-1246
867.271	-400
867.357	-275
867.442	-544
867.528	-120
867.614	-395
867.699	-392
867.785	-969
867.870	-412
867.956	449
868.041	-817
868.127	-605
868.212	-1406
868.297	137
868.383	-644
868.468	-37
868.553	-343
868.639	-233
868.724	513
868.809	1576
868.894	-616
868.979	398
869.065	-504
869.150	-1381
869.235	-964
869.320	-1511
869.405	-646
869.490	-1531
869.575	-1758
869.660	-946
869.745	-1059
869.830	-906
869.915	-1756
870.000	-1190
870.085	-1459
870.169	-847
870.254	-725
870.339	-2
870.424	-1158
870.509	-418
870.593	-1582
870.678	-1342
870.763	-1533
870.847	-988
870.932	-1208
871.016	-464
871.101	-830
871.186	-1258
871.270	-999
871.355	-628
871.439	-765
871.523	-1695
871.608	-1232
871.692	-937
871.777	-812
871.861	-142
871.945	-471
872.030	-1056
872.114	-1525
872.198	-862
872.282	-779
872.367	-556
872.451	-1280
872.535	-517
872.619	-1115
872.703	-1263
872.787	-1042
872.871	-1456
872.955	-1280
873.039	-1005
873.123	-803
873.207	-813
873.291	-1413
873.375	-1721
873.459	-872
873.543	-1343
873.627	-899
873.711	-1053
873.794	-592
873.878	-1689
873.962	-1763
874.045	-916
874.129	-1821
874.137	-1771
874.213	-1271
874.245	-1361
874.296	-1511
874.352	-1643
874.380	-1708
874.460	-943
874.464	-912
874.547	-814
874.568	-818
874.631	-835
874.676	-672
874.714	-547
874.784	-758
874.798	-798
874.881	413
874.892	173
874.965	-1461
874.999	-1178
875.048	-834
875.107	-832
875.131	-824
875.215	-913
875.215	-913
875.298	-770
875.323	-749
875.381	-703
875.430	-846
875.465	-955
875.538	-1177
875.548	-1208
875.631	-1287
875.646	-1240
875.714	-1003
875.753	-923
875.798	-789
875.861	-832
875.881	-862
875.964	-1155
875.968	-1126
876.047	-645
876.076	-801
876.130	-1068
876.183	-1257
876.213	-1369
876.291	-413
876.296	-348
876.379	-910
876.398	-1022
876.462	-1383
876.506	-1001
876.545	-649
876.613	-294
876.628	-229
876.711	-1298
876.721	-1229
876.794	-526
876.828	-601
876.877	-872
876.935	-1069
876.960	-1108
877.043	-1012
877.043	-1010
877.125	-421
877.150	-329
877.208	-212
877.258	-529
877.291	-633
877.365	-410
877.374	-423
877.456	-1045
877.472	-960
877.539	-366
877.579	-368
877.622	-511
877.687	-496
877.704	-436
877.787	-376
877.794	-371
877.869	-282
877.901	-256
877.952	-366
878.008	-395
878.034	-368
878.115	-269
878.117	-270
878.199	-896
878.222	-978
878.282	-813
878.329	-195
878.364	131
878.437	-472
878.447	-587
878.529	-1080
878.544	-1153
878.611	-1133
878.651	-874
878.694	-595
878.758	-580
878.776	-621
878.858	-570
878.865	-570
878.941	-607
878.972	-666
879.023	-573
879.078	-568
879.105	-578
879.185	-127
879.187	-121
879.269	-661
879.292	-847
879.351	-1259
879.399	-894
879.433	-438
879.506	422
879.516	447
879.598	-234
879.613	-388
879.680	-626
879.720	-430
879.762	-268
879.827	-633
879.844	-680
879.926	-538
879.933	-465
880.007	-164
880.040	-443
880.089	-699
880.147	-332
880.171	-216
880.253	-711
880.254	-712
880.335	-479
880.360	-407
880.417	-68
880.467	378
880.499	695
880.574	975
880.580	954
880.662	603
880.680	422
880.744	-114
880.787	-380
880.825	-478
880.893	-358
880.907	-394
880.989	-233
881.000	-275
881.070	-234
881.106	-138
881.152	-25
881.213	-471
881.233	-632
881.315	-341
881.319	-335
881.396	-0
881.426	-95
881.478	-307
881.532	-212
881.559	-237
881.639	-681
881.641	-685
881.722	-459
881.745	-518
881.803	-521
881.852	-428
881.885	-477
881.958	-374
881.966	-321
882.047	-141
882.064	-51
882.129	80
882.171	155
882.210	266
882.277	409
882.291	439
882.372	-379
882.383	-308
882.454	212
882.489	-1
882.535	-426
882.596	-147
882.616	26
882.697	-570
882.702	-558
882.778	-266
882.808	-191
882.859	35
882.914	-2
882.940	-169
883.020	-513
883.021	-510
883.102	-647
883.127	-729
883.183	-536
883.233	155
883.264	548
883.339	183
883.345	113
883.426	-102
883.445	-118
883.507	339
883.551	41
883.587	-303
883.657	-58
883.668	-65
883.749	-222
883.763	-301
883.830	-83
883.869	60
883.910	65
883.975	350
883.991	465
884.072	214
884.081	243
884.152	14
884.187	-199
884.233	-198
884.292	-133
884.314	-55
884.394	447
884.398	444
884.475	-44
884.504	3
884.555	367
884.610	281
884.636	75
884.716	-160
884.716	-154
884.797	-111
884.821	22
884.877	255
884.927	332
884.958	291
885.033	7
885.038	11
885.118	550
885.139	503
885.199	39
885.244	4
885.279	249
885.350	523
885.359	516
885.439	381
885.456	307
885.520	414
885.561	625
885.600	630
885.667	859
885.680	859
885.760	294
885.773	224
885.840	279
885.878	398
885.920	529
885.984	307
886.000	190
886.080	-91
886.089	-111
886.160	-48
886.195	-46
886.240	177
886.300	421
886.320	357
886.400	169
886.406	149
886.480	316
886.511	355
886.560	484
886.616	604
886.640	570
886.720	509
886.722	501
886.800	252
886.827	168
886.879	37
886.932	-120
886.959	-23
887.038	310
887.039	316
887.119	267
887.143	264
887.198	397
887.248	552
887.278	580
887.354	483
887.358	484
887.437	510
887.459	444
887.517	359
887.564	472
887.596	654
887.669	878
887.676	846
887.755	406
887.774	277
887.835	413
887.880	589
887.914	641
887.985	566
887.994	527
888.073	331
888.090	245
888.153	582
888.195	819
888.232	625
888.300	307
888.311	323
888.391	344
888.405	352
888.470	317
888.510	250
888.549	286
888.615	358
888.628	387
888.708	597
888.720	621
888.787	558
888.825	464
888.866	486
888.930	616
888.945	684
889.024	954
889.035	987
889.103	788
889.140	666
889.182	825
889.245	1073
889.261	1028
889.340	775
889.349	741
889.419	883
889.454	956
889.498	844
889.559	663
889.577	682
889.656	768
889.664	774
889.735	768
889.768	763
889.814	960
889.873	1215
889.978	691
890.083	630
890.187	1136
890.292	1214
890.397	613
890.501	989
890.606	636
890.710	1288
890.815	638
890.919	1115
891.024	803
891.128	928
891.233	746
891.337	231
891.442	1010
891.546	377
891.650	252
891.755	-37
891.859	1386
891.963	113
892.068	307
892.172	1500
892.276	197
892.380	-151
892.484	289
892.589	431
892.693	639
892.797	715
892.901	-24
893.005	1059
893.109	895
893.213	745
893.317	999
893.421	1156
893.525	-301
893.629	458
893.733	-270
893.837	1019
893.941	655
894.045	1059
894.148	343
894.252	1519
894.356	1158
894.460	1278
894.564	548
894.667	-172
894.771	893
894.875	236
894.978	744
895.082	42
895.186	765
895.289	1498
895.393	426
895.496	1061
895.600	650
895.703	465
895.807	-2
895.910	871
896.014	-44
896.117	596
896.221	359
896.324	231
896.427	-290
896.531	200
896.634	-151
896.737	671
896.840	661
896.944	562
897.047	221
897.150	512
897.253	192
897.356	941
897.460	959
897.563	810
897.666	178
897.769	12
897.872	-160
897.975	719
898.078	403
898.181	1149
898.284	623
898.387	-704
898.490	706
898.593	835
898.695	246
898.798	-19
898.901	378
899.004	1043
899.107	607
899.209	1261
899.312	116
899.415	691
899.518	24
899.620	474
899.723	227
899.826	1724
899.928	1111
900.031	495
900.133	428
900.236	607
900.338	525
900.441	753
900.543	258
900.646	325
900.748	-155
900.851	872
900.953	-422
901.055	499
901.158	61
901.260	1527
901.362	324
901.465	335
901.567	691
901.669	902
901.771	83
901.873	-212
901.976	346
902.078	-276
902.180	767
902.282	18
902.384	288
902.486	156
902.588	746
902.690	449
902.792	-253
902.894	430
902.996	-52
903.098	-228
903.200	-191
903.302	144
903.404	301
903.505	97
903.607	195
903.709	368
903.811	460
903.913	-198
904.014	270
904.116	673
904.218	686
904.319	467
904.421	401
904.523	480
904.624	282
904.726	223
904.827	326
904.929	263
905.030	489
905.132	376
905.233	177
905.335	43
905.436	-383
905.537	-146
905.639	-239
905.740	-512
905.841	-387
905.943	453
906.044	-53
906.145	745
906.247	168
906.348	7
906.449	-166
906.550	169
906.651	-26
906.752	280
906.854	-207
906.955	-54
907.056	488
907.157	197
907.258	460
907.359	582
907.460	1096
907.561	-104
907.662	-889
907.762	487
907.863	-388
907.964	-55
908.065	-399
908.166	208
908.267	-101
908.367	142
908.468	539
908.569	526
908.670	531
908.770	487
908.871	-83
908.971	-102
909.072	128
909.173	96
909.273	598
909.374	580
909.474	-82
909.575	660
909.675	3
909.776	924
909.876	-677
909.977	15
910.077	1324
910.177	-708
910.278	-436
910.378	118
910.478	-148
910.579	-391
910.679	125
910.779	-311
910.879	21
910.980	266
911.080	13
911.180	-727
911.280	117
911.380	-299
911.480	132
911.580	-68
911.680	-132
911.780	-20
911.880	-243
911.980	638
912.080	557
912.180	-102
912.280	22
912.380	-99
912.480	397
912.580	304
912.679	-360
912.779	-45
912.879	313
912.979	469
913.078	64
913.178	373
913.278	400
913.377	196
913.477	-55
913.577	-236
913.676	687
913.776	319
913.875	701
913.975	48
914.074	545
914.174	134
914.273	-333
914.373	223
914.472	620
914.572	48
914.671	-299
914.770	316
914.870	383
914.969	120
915.068	-105
915.167	-193
915.267	-201
915.366	-240
915.465	41
915.564	-92
915.663	-368
915.763	-652
915.862	293
915.961	-332
916.060	-687
916.159	-271
916.258	42
916.357	319
916.456	-131
916.555	22
916.654	60
916.752	-711
916.851	206
916.950	-300
917.049	77
917.148	185
917.247	491
917.345	-344
917.444	183
917.543	425
917.642	58
917.740	-201
917.839	-488
917.937	43
918.036	899
918.135	192
918.233	129
918.332	612
918.430	200
918.529	-340
918.627	-16
918.726	-1396
918.824	265
918.923	848
919.021	176
919.119	78
919.218	-42
919.316	-453
919.414	-137
919.512	131
919.611	678
919.709	10
919.807	-414
919.905	-554
920.003	159
920.102	165
920.200	424
920.298	-58
920.396	-306
920.494	197
920.592	-762
920.690	127
920.788	-42
920.886	-126
920.984	417
921.082	240
921.180	870
921.277	131
921.375	936
921.473	-19
921.571	-241
921.669	-185
921.766	247
921.864	563
921.962	769
922.060	614
922.157	-273
922.255	279
922.352	272
922.450	-371
922.548	-529
922.645	-709
922.743	472
922.840	169
922.938	357
923.035	310
923.133	-414
923.230	156
923.327	236
923.425	118
923.522	456
923.619	325
923.717	306
923.814	645
923.911	-10
924.008	530
924.106	600
924.203	277
924.300	512
924.397	332
924.494	522
924.591	-16
924.688	494
924.786	1291
924.883	-807
924.979	218
925.077	-10
925.173	160
925.270	39
925.367	643
925.464	92
925.561	558
925.658	152
925.755	-171
925.852	-76
925.948	369
926.045	853
926.142	-312
926.239	-267
926.335	747
926.432	652
926.529	-210
926.625	663
926.722	570
926.818	-422
926.915	355
927.011	-161
927.108	292
927.204	163
927.301	93
927.397	-127
927.494	837
927.590	-458
927.687	147
927.783	131
927.879	-373
927.976	468
928.072	-133
928.168	-120
928.264	610
928.361	402
928.457	-590
928.553	8
928.649	41
928.745	2
928.841	-276
928.937	370
929.033	230
929.129	-701
929.225	-96
929.321	428
929.417	-264
929.513	-305
929.609	-224
929.705	-331
929.801	-96
929.897	294
929.993	-391
930.089	111
930.184	442
930.280	265
930.376	528
930.471	-325
930.567	254
930.663	70
930.758	-463
930.854	350
930.950	-1162
931.045	135
931.141	668
931.236	-295
931.332	570
931.427	332
931.523	499
931.618	-145
931.714	466
931.809	-227
931.905	-451
932.000	-312
932.095	-74
932.191	211
932.286	-286
932.381	-170
932.476	175
932.572	577
932.667	-455
932.762	800
932.857	208
932.952	-142
933.047	200
933.142	14
933.237	-68
933.332	335
933.427	155
933.522	-740
933.617	118
933.712	479
933.807	766
933.902	-474
933.997	330
934.092	-94
934.187	-387
934.282	-286
934.376	756
934.471	-392
934.566	-278
934.661	-331
934.755	87
934.850	-305
934.945	947
935.039	331
935.134	350
935.228	384
935.323	-278
935.417	-63
935.512	-111
935.606	228
935.701	-277
935.795	-598
935.890	-304
935.984	376
936.079	145
936.173	486
936.267	-417
936.362	-238
936.456	-300
936.550	501
936.644	528
936.738	239
936.833	99
936.927	309
937.021	752
937.115	460
937.209	-675
937.303	451
937.397	-299
937.491	-125
937.585	271
937.679	-558
937.773	-74
937.867	-299
937.961	182
938.055	-553
938.149	555
938.243	284
938.337	-1131
938.430	-13
938.524	-78
938.618	572
938.712	1010
938.805	547
938.899	-370
938.993	-243
939.086	-49
939.180	651
939.274	16
939.367	433
939.461	101
939.554	-64
939.648	-188
939.741	-719
939.835	353
939.928	-178
940.022	474
940.115	85
940.208	-256
940.302	630
940.395	486
940.488	-90
940.582	92
940.675	-875
940.768	371
940.861	-873
940.954	28
941.048	-367
941.141	-26
941.234	191
941.327	-67
941.420	772
941.513	-770
941.606	-98
941.699	495
941.792	-222
941.885	29
941.978	84
942.071	-119
942.164	-100
942.257	-184
942.349	372
942.442	-309
942.535	-342
942.628	226
942.721	349
942.813	-1233
942.906	261
942.999	247
943.091	-582
943.184	-3
943.277	-601
943.369	104
943.462	-676
943.554	-227
943.647	-737
943.739	39
943.832	-340
943.924	-783
944.017	-179
944.109	-783
944.201	-147
944.294	-428
944.386	-347
944.478	-1107
944.571	214
944.663	-842
944.755	308
944.847	135
944.940	-581
945.032	-146
945.124	-431
945.216	-344
945.308	-266
945.400	84
945.492	-1195
945.584	-418
945.676	-671
945.768	-453
945.860	-123
945.952	-844
946.044	-688
946.136	-291
946.228	-320
946.320	-637
946.412	-738
946.503	-1084
946.595	736
946.687	-139
946.779	-761
946.870	365
946.962	-313
947.054	26
947.145	-48
947.237	-541
947.329	-882
947.420	-777
947.512	-791
947.603	-464
947.695	-821
947.786	-894
947.878	-175
947.969	-657
948.061	-913
948.152	-704
948.243	-544
948.335	-545
948.426	-651
948.517	-298
948.609	-987
948.700	-411
948.791	-711
948.882	-261
948.973	-258
949.065	-503
949.156	373
949.247	-838
949.338	38
949.429	-751
949.520	-880
949.611	-306
949.702	-996
949.793	-505
949.884	-511
949.975	-820
950.066	-1061
950.157	-1353
950.247	-473
950.338	-1046
950.429	-1031
950.520	-464
950.611	-68
950.701	-344
950.792	-15
950.883	-114
950.973	-187
951.064	-494
951.155	-612
951.245	-56
951.336	-1005
951.427	-1062
951.517	-840
951.608	-426
951.698	-179
951.788	-239
951.879	-149
951.969	-556
952.060	70
952.150	-276
952.240	205
952.331	-1399
952.421	-26
952.511	-593
952.602	-292
952.692	-1071
952.782	-845
952.872	-954
952.962	-989
953.052	-647
953.143	-1152
953.233	373
953.323	-559
953.413	-1034
953.503	-206
953.593	-749
953.683	-349
953.773	-639
953.863	-925
953.953	-281
954.042	-1247
954.132	-989
954.222	709
954.312	-695
954.402	-1060
954.492	-692
954.581	-75
954.671	-433
954.761	-1420
954.850	-236
954.940	-1114
955.030	-136
955.119	-118
955.209	-476
955.298	-460
955.388	198
955.477	-719
955.567	-1620
955.656	-89
955.746	-89
955.835	-562
955.925	-840
956.014	-744
956.103	-1052
956.193	-378
956.282	62
956.371	-85
956.461	-33
956.550	-998
956.639	-1457
956.728	-1258
956.817	-611
956.906	-1159
956.995	-222
957.085	-1396
957.174	-496
957.263	-1382
957.352	14
957.441	-593
957.530	-462
957.619	-787
957.708	326
957.796	-256
957.885	-715
957.974	-787
958.063	-622
958.152	-1152
958.241	-1256
958.329	-203
958.418	-363
958.507	-904
958.596	84
958.684	-197
958.773	-33
958.861	66
958.950	-198
959.039	-435
959.127	-339
959.216	-134
959.304	-202
959.393	-561
959.481	-348
959.570	53
959.658	95
959.746	-64
959.835	406
959.923	-493
960.011	-688
960.100	-483
960.188	247
960.276	-979
960.365	-413
960.453	-1146
960.541	135
960.629	-24
960.717	-447
960.805	-494
960.893	-807
960.981	-1162
961.069	7
961.158	-1026
961.245	-393
961.333	-882
961.421	-836
961.509	-275
961.597	-324
961.685	-746
961.773	47
961.861	-350
961.949	-1118
962.036	-719
962.124	-42
962.212	-595
962.299	-1002
962.387	-757
962.475	-30
962.562	-1761
962.650	-369
962.738	-183
962.825	-835
962.913	-1321
963.000	-935
963.088	-301
963.175	-123
963.263	-517
963.350	-628
963.438	-526
963.525	-1332
963.612	192
963.700	806
963.787	4356
963.874	1764
963.962	-70
964.049	-240
964.136	-955
964.223	-973
964.310	-449
964.398	-553
964.485	-405
964.572	-596
964.659	-133
964.746	-308
964.833	-988
964.920	-32
965.007	-1352
965.094	-824
965.181	-1534
965.268	-59
965.355	-583
965.441	-1115
965.528	-1498
965.615	-506
965.702	-616
965.789	-678
965.875	-422
965.962	-1016
966.049	-693
966.136	-387
966.222	-605
966.309	-810
966.395	-712
966.482	-1497
966.569	-450
966.655	-887
966.742	-896
966.828	-641
966.915	-1768
967.001	-438
967.087	-1322
967.174	-1127
967.260	-785
967.347	-733
967.433	221
967.519	1891
967.605	243
967.692	-648
967.778	-462
967.864	-1298
967.950	-1197
968.036	-629
968.123	-625
968.209	-189
968.295	-727
968.381	-100
968.467	-650
968.553	-1751
968.639	-913
968.725	-891
968.811	103
968.897	-670
968.983	47
969.069	-1625
969.154	-585
969.240	-139
969.326	-1214
969.412	-1440
969.497	-704
969.583	-1345
969.669	-579
969.755	-1703
969.840	-1437
969.926	-1429
970.012	-1747
970.097	-406
970.183	-1154
970.268	-1355
970.354	-499
970.439	-1054
970.525	869
970.610	-661
970.696	-242
970.781	-917
970.866	-1640
970.952	-614
971.037	-899
971.122	-1622
971.208	-1553
971.293	-1001
971.378	-1557
971.463	-703
971.549	-1095
971.634	-661
971.719	-1096
971.804	-1700
971.889	-154
971.974	-1595
972.059	-1655
972.144	-404
972.229	-1421
972.314	-1206
972.399	-706
972.484	-1144
972.569	-966
972.654	-1266
972.739	137
972.824	210
972.908	-290
972.993	-1132
973.078	-1049
973.163	-1558
973.247	-689
973.332	-2204
973.417	-100
973.501	-990
973.586	-829
973.671	-953
973.755	-1019
973.840	-1065
973.924	-1425
974.009	-906
974.093	-1112
974.178	291
974.262	-802
974.346	-477
974.431	-1598
974.515	-1824
974.600	-891
974.684	-882
974.768	-1624
974.852	-517
974.937	-1831
975.021	-270
975.105	-861
975.189	-1507
975.273	-614
975.358	-1499
975.442	-1615
975.526	-669
975.610	-1985
975.694	-1790
975.778	340
975.862	-1805
975.946	-2483
976.030	120
976.114	-1218
976.198	-1229
976.281	-999
976.365	-1224
976.449	-1296
976.533	-1082
976.617	-926
976.700	-540
976.784	-1541
976.868	-718
976.951	-534
977.035	-832
977.119	-1444
977.202	-654
977.286	-1488
977.369	-1275
977.453	-828
977.536	-1743
977.620	-1407
977.703	-956
977.787	-1539
977.870	-510
977.953	-799
978.037	-1512
978.120	-525
978.203	-1108
978.287	-643
978.370	-703
978.453	-1342
978.536	-1144
978.620	-891
978.703	-362
978.786	-856
978.869	-1801
978.952	-2210
979.035	-712
979.118	-476
979.201	-1829
979.284	-786
979.367	-1413
979.450	-1142
979.533	-1860
979.616	-1718
979.699	-1339
979.782	-755
979.865	-1585
979.948	-1527
980.030	-1935
980.113	-1759
980.196	-1694
980.279	-922
980.361	-1575
980.444	-1556
980.526	-1456
980.609	-1506
980.692	-882
980.774	-570
980.857	-2180
980.939	-517
981.022	-1711
981.104	-2478
981.187	-1391
981.269	-759
981.352	-736
981.434	-2195
981.516	-1311
981.599	-701
981.681	-1669
981.763	-1396
981.846	-1766
981.928	-1624
982.010	-1011
982.092	-1415
982.174	-728
982.256	-1588
982.339	-1798
982.421	-1837
982.503	-1158
982.585	-1848
982.667	-1312
982.749	-1295
982.831	-1433
982.913	-1848
982.995	-1428
983.077	-1346
983.158	56
983.240	-2524
983.322	-808
983.404	-1071
983.486	-2238
983.568	-1859
983.649	-1449
983.731	-1231
983.813	-1889
983.894	-467
983.976	-1566
984.058	-1787
984.139	-917
984.221	-1511
984.302	-232
984.384	-1950
984.465	-1575
984.547	-1411
984.628	-1559
984.710	-1470
984.791	-2027
984.872	-1383
984.954	-1828
985.035	-2002
985.116	-2320
985.198	-2423
985.279	-1228
985.360	-1823
985.441	-1390
985.522	-809
985.604	-1312
985.685	-2950
985.766	121
985.847	-1078
985.928	-2466
986.009	-1859
986.090	-1745
986.171	-1227
986.252	-1772
986.333	-1289
986.414	-2187
986.495	-1125
986.576	-1544
986.656	-1700
986.737	-1704
986.818	-1583
986.899	-1497
986.980	-1281
987.060	-856
987.141	-1785
987.222	-1301
987.302	-927
987.383	-729
987.464	-772
987.544	-696
987.625	-1000
987.705	-896
987.786	-1166
987.866	-1499
987.947	-1891
988.027	-1597
988.108	-2010
988.188	-1036
988.268	-1569
988.349	-2171
988.429	-1365
988.509	-959
988.589	-1029
988.670	-2279
988.750	-781
988.830	-1997
988.910	-1862
988.990	-1920
989.070	-1061
989.151	-1622
989.231	-1739
989.311	-667
989.391	-1081
989.471	-1112
989.551	-1374
989.631	-1537
989.711	-1421
989.791	-1935
989.870	-1911
989.950	-857
990.030	-3000
990.110	-1825
990.190	-1425
990.269	-1634
990.349	-1286
990.429	-1666
990.509	-958
990.588	-2124
990.668	-855
990.747	-1543
990.827	-1806
990.907	-1308
990.986	-2405
991.066	-1338
991.145	-1687
991.225	-1309
991.304	-1085
991.383	-1558
991.463	-1693
991.542	-1551
991.622	-1826
991.701	-1858
991.780	-1537
991.859	-1000
991.939	-1476
992.018	-1566
992.097	-873
992.176	-1251
992.256	-1344
992.335	-1586
992.414	-831
992.493	-1351
992.572	-1158
992.651	-461
992.730	-1052
992.809	-906
992.888	-1553
992.967	-1144
993.046	-895
993.125	-1741
993.203	-1414
993.282	-1480
993.361	-1450
993.440	-1419
993.519	-2180
993.597	-598
993.676	-1118
993.755	-553
993.834	-591
993.912	-2081
993.991	-648
994.069	-1957
994.148	-2072
994.226	-1385
994.305	-1208
994.384	-1666
994.462	-931
994.540	-1914
994.619	-1554
994.697	-806
994.776	-1397
994.854	-260
994.932	-1576
995.011	-1095
995.089	-1965
995.167	-1411
995.245	-1514
995.324	-1742
995.402	-1199
995.480	-1619
995.558	-1391
995.636	-1949
995.714	-2413
995.792	150
995.870	-1515
995.948	-1367
996.026	-1053
996.104	-1886
996.182	-774
996.260	-1386
996.338	-1160
996.416	-1045
996.494	-1043
996.572	-506
996.649	-754
996.727	-1710
996.805	-1559
996.883	-1569
996.960	-1239
997.038	-1357
997.116	-644
997.193	-1599
997.271	-1163
997.348	-1554
997.426	-1138
997.504	-1251
997.581	-1100
997.658	-1390
997.736	-1233
997.813	-1251
997.891	-1537
997.968	-1361
998.046	-484
998.123	-779
998.200	-1165
998.277	-1742
998.355	-707
998.432	-2669
998.509	-903
998.586	-1543
998.663	-833
998.741	-832
998.818	-1481
998.895	-1580
998.972	-1332
999.049	-550
999.126	-1605
999.203	-618
999.280	-1908
999.357	-1374
999.434	-868
999.511	-1207
999.587	-467
999.664	-1632
999.741	-1173
999.818	-1196
999.895	-1228
999.971	-1426
1000.048	-1156
1000.125	-1132
1000.202	-1509
1000.278	-1578
1000.355	-1156
1000.431	-451
1000.508	-1928
1000.584	-1869
1000.661	-1448
1000.738	-2681
1000.814	-1389
1000.890	-630
1000.967	-1994
1001.043	-855
1001.120	-2620
1001.196	-791
1001.272	-1721
1001.349	-1040
1001.425	-840
1001.501	-967
1001.577	-1914
1001.654	-1347
1001.730	-2972
1001.806	-1112
1001.882	-2361
1001.958	-1570
1002.034	-1046
1002.110	-1132
1002.186	-1846
1002.262	-2187
1002.338	-2379
1002.414	-839
1002.490	-1330
1002.566	-1346
1002.642	-837
1002.718	-1480
1002.794	-1478
1002.870	-2329
1002.945	-1468
1003.021	-1690
1003.097	-1835
1003.173	-664
1003.248	-1538
1003.324	-1323
1003.400	-971
1003.475	-1938
1003.551	-952
1003.626	-1116
1003.702	-1366
1003.777	-1205
1003.853	-2016
1003.928	-2081
1004.004	-1585
1004.079	-1787
1004.155	-1355
1004.230	-1619
1004.305	-450
1004.381	-2092
1004.456	-1474
1004.531	-1164
1004.607	-1626
1004.682	-1454
1004.757	-1938
1004.832	-2540
1004.907	-1858
1004.982	-792
1005.057	-1067
1005.133	-1448
1005.208	-2023
1005.283	-1773
1005.358	-872
1005.433	-2199
1005.508	-334
1005.583	-1713
1005.657	-2324
1005.732	-1333
1005.807	-2144
1005.882	-1002
1005.957	-1407
1006.032	-1613
1006.106	-965
1006.181	-1480
1006.256	-1156
1006.331	-2536
1006.405	-2114
1006.480	-1346
1006.554	-1878
1006.629	-1774
1006.704	-2053
1006.778	-994
1006.853	-929
1006.927	-1888
1007.002	-1956
1007.076	-1648
1007.150	-1813
1007.225	-2105
1007.299	-1567
1007.373	-2277
1007.448	-1063
1007.522	-716
1007.596	-1338
1007.671	-2237
1007.745	-837
1007.819	-2381
1007.893	-1409
1007.967	-543
1008.041	-2258
1008.115	-1740
1008.190	-1346
1008.264	-1448
1008.338	-2881
1008.412	-1640
1008.486	-1331
1008.560	-1811
1008.633	-2448
1008.707	-2051
1008.781	-1265
1008.855	-1995
1008.929	-2025
1009.003	-1886
1009.076	-1822
1009.150	-1939
1009.224	-1481
1009.298	-1906
1009.371	-2895
1009.445	-757
1009.519	-1862
1009.592	-2372
1009.666	-823
1009.739	-405
1009.813	-2701
1009.886	-1760
1009.960	-2593
1010.033	-1224
1010.107	-1367
1010.180	-2472
1010.253	-1598
1010.327	-1072
1010.400	-2092
1010.473	-2299
1010.547	-840
1010.620	-2735
1010.693	-1577
1010.766	-2468
1010.840	-1333
1010.913	-1102
1010.986	-2476
1011.059	-1586
1011.132	-1812
1011.205	-1093
1011.278	-1576
1011.351	-2031
1011.424	-1683
1011.497	-2297
1011.570	-2360
1011.643	-1835
1011.716	-1523
1011.789	-2007
1011.862	-1546
1011.934	-1775
1012.007	-2450
1012.080	-1583
1012.153	-1128
1012.225	-1169
1012.298	-2468
1012.371	-1574
1012.443	-2108
1012.516	-2991
1012.588	-2334
1012.661	-1813
1012.733	-2268
1012.806	-1927
1012.879	-2372
1012.951	-1563
1013.023	-1910
1013.096	-1073
1013.168	-2273
1013.241	-1030
1013.313	-2814
1013.385	-2115
1013.458	-1385
1013.530	-2076
1013.602	-2155
1013.674	-1185
1013.746	-2477
1013.819	-2557
1013.891	-1721
1013.963	-2770
1014.035	-2481
1014.107	-2035
1014.179	-2708
1014.251	-3135
1014.323	-1963
1014.395	-1641
1014.467	-2389
1014.539	-1935
1014.611	-2651
1014.683	-2117
1014.754	-2356
1014.826	-2504
1014.898	-2143
1014.970	-3080
1015.042	-949
1015.113	-2398
1015.185	-2202
1015.257	-3104
1015.328	-1213
1015.400	-1698
1015.471	-2116
1015.543	-2513
1015.615	-1510
1015.686	-2256
1015.757	-934
1015.829	-1992
1015.901	-2396
1015.972	-1395
1016.043	-2512
1016.115	-2296
1016.186	-1900
1016.257	-2722
1016.328	-1649
1016.400	-1561
1016.471	-2174
1016.542	-2714
1016.613	-2099
1016.685	-2349
1016.756	-1918
1016.827	-1805
1016.898	-1841
1016.969	-2246
1017.040	-2402
1017.111	-2996
1017.182	-2620
1017.253	-1888
1017.324	-2707
1017.395	-2616
1017.466	-1490
1017.537	-2079
1017.608	-1762
1017.678	-1862
1017.749	-2191
1017.820	-1612
1017.891	-1771
1017.961	-2411
1018.032	-2506
1018.103	-1663
1018.173	-2442
1018.244	-2271
1018.315	-1730
1018.385	-1458
1018.456	-2316
1018.526	-2596
1018.597	-1813
1018.667	-1465
1018.738	-2934
1018.808	-1938
1018.878	-2221
1018.949	-2436
1019.019	-1872
1019.089	-1924
1019.160	-1794
1019.230	-2932
1019.300	-1690
1019.371	-2848
1019.441	-1749
1019.511	-1496
1019.581	-1864
1019.651	-1634
1019.721	-2849
1019.791	-2035
1019.861	-2413
1019.931	-1346
1020.001	-2339
1020.071	-1108
1020.141	-2161
1020.211	-1783
1020.281	-3288
1020.351	-1941
1020.421	-2050
1020.491	-1712
1020.560	-2514
1020.630	-1285
1020.700	-1696
1020.770	-1574
1020.839	-2398
1020.909	-1272
1020.979	-1455
1021.048	-1988
1021.118	-1906
1021.187	-2101
1021.257	-1979
1021.326	-1831
1021.396	-1785
1021.465	-1849
1021.535	-2312
1021.604	-3291
1021.674	-1801
1021.743	-1788
1021.812	-2208
1021.882	-3040
1021.951	-2243
1022.020	-2400
1022.089	-2303
1022.159	-2571
1022.228	-2214
1022.297	-2576
1022.366	-1929
1022.435	-2582
1022.504	-2449
1022.573	-2736
1022.642	-2616
1022.711	-2918
1022.781	-1973
1022.849	-2475
1022.918	-2216
1022.987	-2020
1023.056	-2499
1023.125	-2720
1023.194	-2174
1023.263	-2480
1023.331	-3239
1023.400	-1769
1023.469	-2095
1023.538	-2152
1023.606	-2233
1023.675	-1892
1023.744	-2600
1023.812	-2319
1023.881	-1904
1023.949	-2036
1024.018	-2227
1024.086	-1877
1024.155	-2006
1024.223	-2365
1024.292	-2653
1024.360	-2329
1024.429	-1238
1024.497	-1523
1024.565	-2124
1024.634	-2272
1024.702	-2052
1024.770	-1169
1024.838	-1961
1024.907	-1629
1024.975	-2333
1025.043	-2047
1025.111	-2710
1025.179	-2169
1025.247	-2914
1025.315	-1880
1025.383	-1880
1025.451	-1532
1025.519	-1738
1025.587	-2181
1025.655	-1998
1025.723	-1594
1025.791	-2040
1025.859	-1315
1025.927	-2325
1025.995	-2752
1026.062	-877
1026.130	-2196
1026.198	-2663
1026.266	-1453
1026.333	-2285
1026.401	-2037
1026.469	-2148
1026.536	-1354
1026.604	-2393
1026.671	-1602
1026.739	-1459
1026.806	-2318
1026.874	-2449
1026.941	-1908
1027.009	-2164
1027.076	-2599
1027.144	-1564
1027.211	-2366
1027.278	-2627
1027.345	-1807
1027.413	-1931
1027.480	-2562
1027.547	-1304
1027.614	-2731
1027.682	-1279
1027.749	-2440
1027.816	-2649
1027.883	-2464
1027.950	-1847
1028.017	-1509
1028.084	-1688
1028.151	-2898
1028.218	-2137
1028.285	-1765
1028.352	-2265
1028.419	-2507
1028.486	-1770
1028.553	-1966
1028.619	-1898
1028.686	-2060
1028.753	-2306
1028.820	-2949
1028.886	-2337
1028.953	-2075
1029.020	-2571
1029.086	-2112
1029.153	-3313
1029.220	-2114
1029.286	-1868
1029.353	-2113
1029.419	-2069
1029.486	-2554
1029.552	-2272
1029.619	-1867
1029.685	-2128
1029.751	-1829
1029.818	-2075
1029.884	-2544
1029.951	-1313
1030.017	-2315
1030.083	-1807
1030.149	-2038
1030.216	-2300
1030.282	-2399
1030.348	-2463
1030.414	-2537
1030.480	-2612
1030.546	-2813
1030.612	-2418
1030.678	-2505
1030.744	-1094
1030.810	-1834
1030.876	-2067
1030.942	-2624
1031.008	-2321
1031.074	-2882
1031.140	-2364
1031.206	-1287
1031.272	-2962
1031.337	-2402
1031.403	-2052
1031.469	-2538
1031.534	-1799
1031.600	-2091
1031.666	-2519
1031.731	-2624
1031.797	-3093
1031.863	-2673
1031.928	-1715
1031.994	-2030
1032.059	-3015
1032.125	-2235
1032.190	-2231
1032.256	-2664
1032.321	-2826
1032.386	-2176
1032.452	-2695
1032.517	-2233
1032.582	-2328
1032.647	-1978
1032.713	-2520
1032.778	-1610
1032.843	-2631
1032.908	-2192
1032.974	-2377
1033.039	-2489
1033.104	-2509
1033.169	-2583
1033.234	-2684
1033.299	-1338
1033.364	-2025
1033.429	-2791
1033.494	-2408
1033.559	-2534
1033.624	-2783
1033.688	-1831
1033.753	-2875
1033.818	-2543
1033.883	-2455
1033.948	-1983
1034.013	-2138
1034.077	-1459
1034.142	-2775
1034.207	-3266
1034.271	-2807
1034.336	-1784
1034.400	-2025
1034.465	-2016
1034.530	-1993
1034.594	-2536
1034.658	-2987
1034.723	-2567
1034.787	-2716
1034.852	-2019
1034.916	-2572
1034.981	-2839
1035.045	-1740
1035.109	-2577
1035.173	-2735
1035.238	-1852
1035.302	-2036
1035.366	-2352
1035.430	-1665
1035.495	-2636
1035.559	-1928
1035.623	-2306
1035.687	-2552
1035.751	-2635
1035.815	-3311
1035.879	-2693
1035.943	-1871
1036.007	-2511
1036.071	-2423
1036.135	-2522
1036.198	-2296
1036.262	-2082
1036.326	-2081
1036.390	-2249
1036.454	-3079
1036.517	-2669
1036.581	-2516
1036.645	-2022
1036.709	-2223
1036.772	-2647
1036.836	-2305
1036.900	-2446
1036.963	-1952
1037.026	-1979
1037.090	-2784
1037.154	-2307
1037.217	-2269
1037.280	-2403
1037.344	-2658
1037.407	-1568
1037.471	-3018
1037.534	-2229
1037.597	-3325
1037.661	-2279
1037.724	-2787
1037.787	-2909
1037.850	-2153
1037.913	-2504
1037.977	-2041
1038.040	-2577
1038.103	-2240
1038.166	-2447
1038.229	-1761
1038.292	-2981
1038.355	-2569
1038.418	-2966
1038.481	-2416
1038.544	-1811
1038.607	-2574
1038.670	-2359
1038.732	-2499
1038.795	-2557
1038.858	-2597
1038.921	-2581
1038.984	-2205
1039.046	-2517
1039.109	-2000
1039.172	-1938
1039.234	-2802
1039.297	-2389
1039.360	-3370
1039.422	-2252
1039.485	-2218
1039.547	-2378
1039.610	-2256
1039.672	-2599
1039.734	-3040
1039.797	-2205
1039.859	-2175
1039.922	-3216
1039.984	-1766
1040.046	-2189
1040.109	-2830
1040.171	-2251
1040.233	-2142
1040.295	-2216
1040.358	-2712
1040.420	-1964
1040.482	-2457
1040.544	-2643
1040.606	-3265
1040.668	-2577
1040.730	-2864
1040.792	-2782
1040.854	-1899
1040.916	-2878
1040.978	-2270
1041.040	-2379
1041.102	-2852
1041.164	-1953
1041.225	-2450
1041.287	-2520
1041.349	-2113
1041.411	-2534
1041.472	-2782
1041.534	-2235
1041.596	-2845
1041.657	-2202
1041.719	-2583
1041.781	-2568
1041.842	-2093
1041.904	-2253
1041.965	-2835
1042.027	-1976
1042.088	-2397
1042.150	-2465
1042.211	-2594
1042.272	-3008
1042.334	-1888
1042.395	-3064
1042.456	-2114
1042.518	-2929
1042.579	-2267
1042.640	-2528
1042.701	-2278
1042.763	-3236
1042.824	-2440
1042.885	-3036
1042.946	-2439
1043.007	-2272
1043.068	-2688
1043.129	-2563
1043.190	-3093
1043.251	-2364
1043.312	-2727
1043.373	-2239
1043.434	-3188
1043.495	-2252
1043.556	-1906
1043.616	-1995
1043.677	-2193
1043.738	-2626
1043.799	-2092
1043.859	-2293
1043.920	-2639
1043.981	-2926
1044.041	-2515
1044.102	-2647
1044.162	-1934
1044.223	-2394
1044.284	-2363
1044.344	-2218
1044.405	-2498
1044.465	-2614
1044.525	-2351
1044.586	-2346
1044.646	-2804
1044.707	-2254
1044.767	-2774
1044.827	-2605
1044.887	-2503
1044.948	-1741
1045.008	-2367
1045.068	-2380
1045.128	-2451
1045.188	-2148
1045.249	-1759
1045.309	-2322
1045.369	-1768
1045.429	-3064
1045.489	-2326
1045.549	-2155
1045.609	-1906
1045.669	-2374
1045.729	-2372
1045.789	-2101
1045.848	-2841
1045.908	-1966
1045.968	-1914
1046.028	-2395
1046.088	-1358
1046.147	-2151
1046.207	-1977
1046.267	-2057
1046.326	-1600
1046.386	-2153
1046.446	-2058
1046.505	-1087
1046.565	-979
1046.624	-1029
1046.684	-1280
1046.743	-705
1046.803	-732
1046.862	-1297
1046.922	0
