'Start Wavelength	183.907
'End Wavelength	1046.922
'Gate Delay	5.000
'Gate Width (ms)	1.050
'Laser Output Level	0.000
'X Position	0.000
'Y Position	0.000
'Z Position	0.000
'Grid Point Number	1.000
'Shot Number	100.000
183.907	530.000
183.977	-965.000
184.047	-126
184.116	109
184.186	349
184.256	-56
184.325	114
184.395	-821
184.465	14
184.534	-497
184.604	110
184.674	-509
184.743	-353
184.813	711
184.883	467
184.952	378
185.022	593
185.092	392
185.161	214
185.231	423
185.301	-808
185.370	-134
185.440	-521
185.509	363
185.579	-339
185.649	467
185.718	50
185.788	-174
185.857	-287
185.927	-238
185.996	468
186.066	-983
186.136	417
186.205	-451
186.275	180
186.344	-237
186.414	772
186.483	-303
186.553	380
186.622	57
186.692	166
186.761	402
186.831	-84
186.900	-436
186.970	986
187.039	-143
187.109	227
187.178	216
187.248	281
187.317	-531
187.387	-156
187.456	-14
187.526	630
187.595	-846
187.664	-235
187.734	399
187.803	173
187.873	-176
187.942	187
188.012	-89
188.081	-313
188.150	-59
188.220	181
188.289	98
188.358	451
188.428	550
188.497	360
188.567	-81
188.636	-203
188.705	-232
188.775	-38
188.844	-46
188.913	468
188.983	501
189.052	129
189.121	-140
189.191	-297
189.260	-87
189.329	309
189.399	-685
189.468	196
189.537	354
189.606	415
189.676	332
189.745	528
189.814	197
189.883	-58
189.953	211
190.022	116
190.091	248
190.161	323
190.230	-36
190.299	-291
190.368	-143
190.437	20
190.507	101
190.576	-197
190.645	208
190.714	-20
190.783	50
190.853	265
190.922	262
190.991	351
191.060	517
191.129	-572
191.198	-402
191.268	130
191.337	-226
191.406	192
191.475	293
191.544	-391
191.613	152
191.682	-110
191.752	-244
191.821	-533
191.890	-256
191.959	-194
192.028	-70
192.097	490
192.166	150
192.235	-43
192.304	335
192.373	305
192.442	172
192.511	-173
192.580	-50
192.650	-158
192.719	-79
192.788	45
192.857	1012
192.926	-8
192.995	-45
193.064	313
193.133	-336
193.202	727
193.271	-247
193.340	477
193.409	-12
193.478	728
193.547	119
193.615	158
193.684	-168
193.753	613
193.822	549
193.891	361
193.960	611
194.029	340
194.098	65
194.167	148
194.236	644
194.305	681
194.374	130
194.443	531
194.512	-460
194.580	535
194.649	-102
194.718	290
194.787	638
194.856	59
194.925	-363
194.994	-311
195.062	440
195.131	226
195.200	-280
195.269	-560
195.338	59
195.407	759
195.475	-664
195.544	475
195.613	314
195.682	111
195.751	362
195.819	314
195.888	-544
195.957	717
196.026	21
196.094	837
196.163	361
196.232	698
196.301	111
196.369	47
196.438	235
196.507	-227
196.576	415
196.644	-233
196.713	109
196.782	796
196.850	801
196.919	353
196.988	-326
197.056	154
197.125	-107
197.194	481
197.262	-629
197.331	318
197.400	-137
197.468	369
197.537	-269
197.606	267
197.674	300
197.743	873
197.812	-324
197.880	886
197.949	-281
198.017	366
198.086	-500
198.155	744
198.223	-16
198.292	687
198.360	258
198.429	80
198.497	20
198.566	461
198.635	-10
198.703	785
198.772	167
198.840	569
198.909	216
198.977	440
199.046	-291
199.114	786
199.183	949
199.251	-306
199.320	-159
199.388	-722
199.457	-54
199.525	952
199.594	130
199.662	535
199.731	138
199.799	277
199.867	-14
199.936	-422
200.004	635
200.073	461
200.141	-344
200.210	109
200.278	268
200.346	277
200.415	-275
200.483	55
200.552	-118
200.620	268
200.688	-73
200.757	589
200.825	203
200.893	477
200.962	442
201.030	691
201.098	-286
201.167	-173
201.235	638
201.303	-39
201.372	227
201.440	-32
201.508	422
201.577	55
201.645	938
201.713	274
201.781	-1151
201.850	1079
201.918	182
201.986	465
202.055	291
202.123	489
202.191	-78
202.259	97
202.327	577
202.396	440
202.464	421
202.532	508
202.600	765
202.669	99
202.737	-285
202.805	-197
202.873	106
202.941	-44
203.009	-357
203.078	-164
203.146	290
203.214	150
203.282	-270
203.350	1267
203.418	-172
203.487	-12
203.555	-44
203.623	199
203.691	105
203.759	608
203.827	148
203.895	282
203.963	-418
204.031	735
204.099	-53
204.168	8
204.236	-41
204.304	1050
204.372	57
204.440	607
204.508	144
204.576	-534
204.644	12
204.712	-363
204.780	336
204.848	421
204.916	152
204.984	-300
205.052	-359
205.120	325
205.188	357
205.256	-364
205.324	177
205.392	301
205.460	70
205.528	29
205.596	355
205.664	716
205.732	-502
205.799	1195
205.867	1245
205.935	570
206.003	1346
206.071	29
206.139	565
206.207	251
206.275	702
206.343	705
206.411	-389
206.478	746
206.546	-4
206.614	243
206.682	589
206.750	-309
206.818	536
206.885	1240
206.953	-1110
207.021	1226
207.089	284
207.157	-346
207.225	613
207.292	812
207.360	413
207.428	714
207.496	251
207.563	398
207.631	-65
207.699	19
207.767	211
207.834	938
207.902	950
207.970	716
208.038	399
208.105	574
208.173	623
208.241	1135
208.309	529
208.376	499
208.444	1019
208.512	-56
208.579	-328
208.647	484
208.715	589
208.782	1230
208.850	593
208.918	353
208.985	275
209.053	595
209.120	477
209.188	276
209.256	481
209.323	-469
209.391	469
209.459	1595
209.526	1001
209.594	102
209.661	45
209.729	446
209.796	1313
209.864	1410
209.932	-470
209.999	1827
210.067	823
210.134	1009
210.202	319
210.269	1102
210.337	1445
210.404	250
210.472	431
210.539	572
210.607	78
210.674	921
210.742	362
210.809	986
210.877	669
210.944	1988
211.012	102
211.079	1901
211.146	38
211.214	801
211.281	217
211.349	515
211.416	184
211.484	718
211.551	-477
211.618	897
211.686	820
211.753	165
211.821	684
211.888	733
211.955	565
212.023	493
212.090	400
212.157	1060
212.225	892
212.292	1638
212.359	2268
212.427	3834
212.494	1510
212.561	856
212.629	660
212.696	329
212.763	1018
212.831	705
212.898	733
212.965	1347
213.032	264
213.100	815
213.167	616
213.234	1094
213.301	983
213.369	361
213.436	940
213.503	395
213.570	1299
213.638	331
213.705	379
213.772	380
213.839	336
213.906	1274
213.973	468
214.041	1288
214.108	800
214.175	795
214.242	350
214.309	1091
214.376	530
214.444	431
214.511	289
214.578	184
214.645	1469
214.712	582
214.779	870
214.846	1337
214.913	942
214.980	202
215.048	1060
215.115	1293
215.182	1282
215.249	1297
215.316	891
215.383	965
215.450	884
215.517	560
215.584	776
215.651	431
215.718	312
215.785	403
215.852	297
215.919	1367
215.986	1088
216.053	872
216.120	974
216.187	913
216.254	810
216.321	790
216.388	398
216.455	824
216.522	1025
216.589	921
216.656	1318
216.722	1619
216.789	1614
216.856	1743
216.923	993
216.990	1333
217.057	1237
217.124	1515
217.191	858
217.258	2295
217.324	2146
217.391	2071
217.458	1751
217.525	1853
217.592	1073
217.659	735
217.725	906
217.792	994
217.859	1459
217.926	626
217.993	789
218.059	1101
218.126	616
218.193	1976
218.260	107
218.327	759
218.393	58
218.460	1085
218.527	400
218.594	818
218.660	791
218.727	1736
218.794	111
218.860	725
218.927	410
218.994	465
219.061	234
219.127	718
219.194	-201
219.261	557
219.327	418
219.394	720
219.461	215
219.527	350
219.594	732
219.661	959
219.727	-434
219.794	1533
219.860	-28
219.927	1126
219.994	2427
220.060	938
220.127	1568
220.193	1184
220.260	797
220.326	2502
220.393	2832
220.460	3358
220.526	1761
220.593	1962
220.659	2938
220.726	1211
220.792	3190
220.859	2369
220.925	4560
220.992	5426
221.058	4012
221.125	3826
221.191	2320
221.258	1155
221.324	1487
221.391	1340
221.457	1250
221.524	562
221.590	1082
221.657	2925
221.723	671
221.789	1960
221.856	1918
221.922	1755
221.989	1517
222.055	208
222.121	34
222.188	1740
222.254	600
222.321	187
222.387	1425
222.453	932
222.520	913
222.586	532
222.652	750
222.719	383
222.785	1931
222.851	810
222.918	751
222.984	687
223.050	1364
223.116	391
223.183	1849
223.249	792
223.315	275
223.382	908
223.448	791
223.514	150
223.580	-483
223.647	863
223.713	-106
223.779	423
223.845	687
223.911	906
223.978	-116
224.044	373
224.110	330
224.176	296
224.242	415
224.309	302
224.375	936
224.441	372
224.507	-70
224.573	412
224.639	1082
224.705	394
224.772	558
224.838	-105
224.904	759
224.970	273
225.036	517
225.102	-38
225.168	620
225.234	864
225.300	-66
225.366	-44
225.432	595
225.499	662
225.565	356
225.631	748
225.697	476
225.763	662
225.829	568
225.895	505
225.961	1352
226.027	1012
226.093	834
226.159	2440
226.225	3374
226.291	5127
226.357	6753
226.423	4787
226.489	3096
226.554	1403
226.620	2053
226.686	2005
226.752	3434
226.818	5496
226.884	8381
226.950	8150
227.016	3822
227.082	2797
227.148	2060
227.214	1432
227.279	2224
227.345	1587
227.411	976
227.477	1114
227.543	1201
227.609	1252
227.674	1006
227.740	833
227.806	1333
227.872	545
227.938	1251
228.003	914
228.069	328
228.135	721
228.201	539
228.267	75
228.332	404
228.398	380
228.464	1534
228.530	84
228.595	1116
228.661	736
228.727	1227
228.792	1257
228.858	270
228.924	-762
228.990	1152
229.055	-132
229.121	422
229.187	268
229.252	339
229.318	-93
229.384	774
229.449	835
229.515	-935
229.581	-486
229.646	1969
229.712	739
229.777	1437
229.843	1037
229.909	1469
229.974	1546
230.040	620
230.105	574
230.171	923
230.236	1847
230.302	1668
230.368	553
230.433	1167
230.499	1474
230.564	1592
230.630	50
230.695	543
230.761	1459
230.826	20
230.892	1798
230.957	278
231.023	248
231.088	496
231.154	434
231.219	1031
231.284	652
231.350	1908
231.415	627
231.481	627
231.546	771
231.612	503
231.677	861
231.742	-712
231.808	1664
231.873	610
231.939	-920
232.004	1887
232.069	1607
232.135	-47
232.200	349
232.265	384
232.331	731
232.396	575
232.461	494
232.527	202
232.592	-136
232.657	459
232.723	266
232.788	448
232.853	1442
232.918	-251
232.984	85
233.049	-114
233.114	140
233.179	359
233.245	791
233.310	485
233.375	266
233.440	327
233.506	647
233.571	655
233.636	766
233.701	943
233.766	886
233.832	860
233.897	-116
233.962	39
234.027	2015
234.092	43
234.157	-86
234.222	-18
234.288	777
234.353	1325
234.418	1951
234.483	1170
234.548	1821
234.613	700
234.678	1429
234.743	1173
234.808	2145
234.873	748
234.938	1434
235.004	1179
235.069	427
235.134	-32
235.199	1269
235.264	1122
235.329	291
235.394	855
235.459	1619
235.524	-5
235.589	1199
235.654	829
235.719	-172
235.784	1387
235.849	521
235.913	719
235.978	908
236.043	911
236.108	1045
236.173	334
236.238	1275
236.303	557
236.368	593
236.433	1498
236.498	1679
236.563	2312
236.627	5068
236.692	10821
236.757	9741
236.822	4972
236.887	3177
236.952	3544
237.017	1832
237.081	2482
237.146	2921
237.211	7558
237.276	11198
237.341	13329
237.405	8821
237.470	3754
237.535	2752
237.600	2502
237.664	1856
237.729	578
237.794	1951
237.859	5219
237.923	2912
237.988	1657
238.053	1964
238.118	2014
238.182	3069
238.247	2202
238.312	602
238.376	777
238.441	-178
238.506	1599
238.570	509
238.635	1630
238.700	858
238.764	632
238.829	1533
238.893	664
238.958	1227
239.023	1151
239.087	1110
239.152	1280
239.216	261
239.281	1005
239.346	558
239.410	1084
239.475	319
239.539	2804
239.604	1516
239.668	1360
239.733	1042
239.797	584
239.862	1664
239.926	1093
239.991	1338
240.055	102
240.120	871
240.184	579
240.249	41
240.313	300
240.378	517
240.442	1058
240.507	2472
240.571	425
240.635	1064
240.700	1123
240.764	840
240.829	521
240.893	304
240.957	1044
241.022	724
241.086	2875
241.151	-164
241.215	-184
241.279	1806
241.344	1091
241.408	1450
241.472	-248
241.537	1698
241.601	1507
241.665	-249
241.730	881
241.794	1274
241.858	1255
241.922	1716
241.987	1040
242.051	832
242.115	-113
242.179	1059
242.244	299
242.308	2239
242.372	1258
242.436	-201
242.501	747
242.565	278
242.629	-342
242.693	1373
242.757	-373
242.822	744
242.886	1398
242.950	1685
243.014	11
243.078	419
243.142	667
243.206	321
243.271	1328
243.335	1179
243.399	1992
243.463	4397
243.527	13247
243.591	3857
243.655	1627
243.719	518
243.783	1635
243.847	1972
243.911	2258
243.975	2066
244.040	295
244.104	2328
244.168	563
244.232	652
244.296	1529
244.360	2700
244.424	917
244.488	1287
244.552	1166
244.615	-56
244.679	1255
244.743	1002
244.807	489
244.871	1011
244.935	628
244.999	221
245.063	-430
245.127	1203
245.191	1660
245.255	1093
245.319	698
245.383	-269
245.446	1561
245.510	164
245.574	239
245.638	1049
245.702	179
245.766	2561
245.829	1547
245.893	680
245.957	644
246.021	1329
246.085	560
246.149	1352
246.212	2363
246.276	3046
246.340	1526
246.404	1024
246.467	2173
246.531	793
246.595	2195
246.659	1899
246.722	-193
246.786	1471
246.850	1524
246.913	1894
246.977	-298
247.041	1216
247.104	417
247.168	1026
247.232	2140
247.295	4881
247.359	2483
247.423	1802
247.486	1974
247.550	1806
247.614	1030
247.677	1674
247.741	1004
247.804	941
247.868	1117
247.932	2107
247.995	5959
248.059	1918
248.122	322
248.186	2194
248.249	3279
248.313	8631
248.376	9017
248.440	5420
248.503	1661
248.567	3518
248.630	2204
248.694	4530
248.757	6205
248.821	8942
248.884	6469
248.948	5363
249.011	7342
249.075	10292
249.138	8376
249.202	4547
249.265	2113
249.328	3245
249.392	1234
249.455	2173
249.519	1605
249.582	2313
249.645	3407
249.709	3235
249.772	2897
249.835	2971
249.899	1692
249.962	1555
250.025	1572
250.089	3905
250.152	5857
250.215	2676
250.279	1227
250.342	2704
250.405	3108
250.468	2177
250.532	2479
250.595	5253
250.658	13729
250.721	21087
250.785	7795
250.848	5750
250.911	3050
250.974	3549
251.038	3708
251.101	5494
251.164	3350
251.227	3508
251.290	3431
251.354	6220
251.417	19561
251.480	18619
251.543	14090
251.606	32918
251.669	23964
251.732	10653
251.795	9842
251.859	10884
251.922	21257
251.985	14451
252.048	5802
252.111	3720
252.174	2410
252.237	5827
252.300	11331
252.363	14176
252.426	25854
252.489	10524
252.552	5727
252.615	2908
252.678	4825
252.741	8848
252.804	13239
252.867	27068
252.930	15490
252.993	8595
253.056	5213
253.119	3051
253.182	2200
253.245	4202
253.308	3884
253.371	2791
253.434	1836
253.497	3625
253.559	5281
253.622	3853
253.685	3401
253.748	3724
253.811	2289
253.874	3033
253.937	791
254.000	2212
254.062	2951
254.125	4961
254.188	6583
254.251	4089
254.314	1926
254.376	3156
254.439	3631
254.502	3275
254.565	2703
254.628	6727
254.690	3261
254.753	1101
254.816	1290
254.878	1127
254.941	3648
255.004	3003
255.067	1410
255.129	487
255.192	1756
255.255	52
255.317	1009
255.380	1317
255.443	80
255.505	468
255.568	-609
255.631	-88
255.693	807
255.756	559
255.819	866
255.881	551
255.944	933
256.006	190
256.069	762
256.132	-64
256.194	785
256.257	1984
256.319	421
256.382	1219
256.444	1687
256.507	1077
256.569	825
256.632	1286
256.694	2690
256.757	8287
256.819	20906
256.882	8397
256.944	3504
257.007	3126
257.069	2185
257.132	1750
257.194	1974
257.257	1262
257.319	1362
257.381	1510
257.444	6863
257.506	22887
257.569	24413
257.631	9914
257.693	5933
257.756	2894
257.818	2055
257.880	1432
257.943	1554
258.005	1117
258.067	533
258.130	1180
258.192	1748
258.254	2323
258.317	751
258.379	2280
258.441	1994
258.503	3672
258.566	2232
258.628	3019
258.690	-26
258.753	2434
258.815	2619
258.877	1487
258.939	1437
259.001	1739
259.064	1320
259.126	1115
259.188	861
259.250	1105
259.312	1170
259.375	2476
259.437	1689
259.499	1346
259.561	799
259.623	2064
259.685	327
259.747	1132
259.809	2771
259.872	3953
259.934	7326
259.996	7729
260.058	2632
260.120	808
260.182	1114
260.244	589
260.306	329
260.368	1422
260.430	259
260.492	2928
260.554	4084
260.616	301
260.678	4095
260.740	4475
260.802	1202
260.864	1190
260.926	755
260.988	1847
261.050	1209
261.112	2975
261.174	7593
261.236	3568
261.298	954
261.359	2056
261.421	3187
261.483	1074
261.545	425
261.607	-533
261.669	1091
261.731	1096
261.793	3192
261.854	559
261.916	1642
261.978	84
262.040	1357
262.102	557
262.164	711
262.225	1115
262.287	810
262.349	2745
262.411	925
262.472	1208
262.534	870
262.596	2079
262.658	757
262.719	41
262.781	863
262.843	1076
262.904	1293
262.966	1022
263.028	17
263.090	6449
263.151	17677
263.213	6506
263.275	2848
263.336	920
263.398	1090
263.459	393
263.521	1037
263.583	2448
263.644	1803
263.706	454
263.767	234
263.829	856
263.891	217
263.952	-266
264.014	17
264.075	1765
264.137	3956
264.198	2071
264.260	216
264.321	893
264.383	1925
264.444	6780
264.506	1747
264.567	1237
264.629	2963
264.690	6219
264.752	1644
264.813	1135
264.875	745
264.936	1398
264.998	540
265.059	523
265.120	588
265.182	2103
265.243	13121
265.305	13234
265.366	3111
265.427	1364
265.489	1618
265.550	-54
265.611	1325
265.673	421
265.734	1038
265.795	714
265.857	-180
265.918	1388
265.979	4041
266.040	19864
266.102	16553
266.163	5254
266.224	2476
266.286	1710
266.347	597
266.408	954
266.469	840
266.530	189
266.592	712
266.653	886
266.714	1974
266.775	1281
266.836	28
266.898	-271
266.959	441
267.020	889
267.081	416
267.142	739
267.203	311
267.264	-150
267.326	1043
267.387	186
267.448	-127
267.509	787
267.570	-90
267.631	91
267.692	-781
267.753	1228
267.814	-1102
267.875	1928
267.936	4236
267.997	1458
268.058	1543
268.119	759
268.180	416
268.241	433
268.302	718
268.363	765
268.424	809
268.485	-242
268.546	-570
268.607	290
268.668	-484
268.729	339
268.790	787
268.851	376
268.912	1680
268.972	2690
269.033	376
269.094	-2
269.155	621
269.216	-373
269.277	-172
269.338	174
269.398	479
269.459	959
269.520	1324
269.581	1040
269.642	1311
269.702	1199
269.763	640
269.824	280
269.885	171
269.945	2007
270.006	524
270.067	-209
270.128	827
270.188	-704
270.249	193
270.310	-633
270.370	296
270.431	936
270.492	-1241
270.553	221
270.613	1260
270.674	3965
270.734	546
270.795	547
270.856	510
270.916	123
270.977	222
271.038	669
271.098	686
271.159	1269
271.219	910
271.280	563
271.340	-84
271.401	-8
271.462	1054
271.522	656
271.583	358
271.643	378
271.704	178
271.764	885
271.825	2656
271.885	9905
271.946	11064
272.006	3814
272.066	5791
272.127	9215
272.187	2239
272.248	1039
272.308	1165
272.369	5925
272.429	2595
272.489	2373
272.550	1843
272.610	2383
272.671	1219
272.731	1758
272.791	1061
272.852	1682
272.912	740
272.972	730
273.033	440
273.093	933
273.153	1372
273.214	367
273.274	993
273.334	5480
273.394	8678
273.455	2763
273.515	3633
273.575	7606
273.635	3454
273.696	3310
273.756	6914
273.816	2920
273.876	1728
273.936	2894
273.997	3890
274.057	923
274.117	946
274.177	1905
274.237	10640
274.297	8045
274.358	3488
274.418	7453
274.478	5120
274.538	1985
274.598	722
274.658	2976
274.718	3133
274.778	314
274.838	425
274.898	1262
274.958	5121
275.018	7495
275.078	5470
275.138	1282
275.198	368
275.258	814
275.318	560
275.378	1753
275.438	1480
275.498	1313
275.558	2527
275.618	6823
275.678	4615
275.738	4025
275.798	2549
275.858	1145
275.918	785
275.978	1132
276.038	238
276.098	322
276.157	2367
276.217	6909
276.277	2669
276.337	1450
276.397	1056
276.457	1665
276.517	361
276.576	782
276.636	364
276.696	855
276.756	3204
276.815	1803
276.875	646
276.935	41
276.995	1258
277.055	-10
277.114	-146
277.174	896
277.234	4704
277.293	2003
277.353	579
277.413	209
277.472	-187
277.532	779
277.592	669
277.651	4805
277.711	7275
277.771	2350
277.830	9539
277.890	7176
277.950	4947
278.009	16102
278.069	4828
278.128	5695
278.188	8151
278.248	2791
278.307	8803
278.367	4944
278.426	1009
278.486	646
278.545	462
278.605	1113
278.664	21
278.724	1253
278.783	3368
278.843	9514
278.902	1960
278.962	244
279.021	1394
279.081	1631
279.140	1250
279.199	987
279.259	2043
279.318	1793
279.378	1870
279.437	3232
279.496	12345
279.556	36089
279.615	24724
279.675	6545
279.734	4406
279.793	6563
279.853	9892
279.912	3696
279.971	1183
280.031	1581
280.090	3541
280.149	6265
280.208	5595
280.268	24680
280.327	24028
280.386	4635
280.445	3798
280.505	3313
280.564	1806
280.623	1393
280.682	2877
280.742	4551
280.801	1478
280.860	1307
280.919	314
280.978	-30
281.037	-133
281.097	917
281.156	663
281.215	380
281.274	342
281.333	6143
281.392	3331
281.451	344
281.510	510
281.569	1455
281.628	37
281.688	794
281.747	844
281.806	317
281.865	229
281.924	-329
281.983	-664
282.042	181
282.101	-329
282.160	1076
282.219	-233
282.278	290
282.337	2904
282.396	1021
282.454	763
282.513	1579
282.572	5591
282.631	2728
282.690	473
282.749	-18
282.808	175
282.867	1202
282.926	89
282.985	282
283.043	183
283.102	372
283.161	79
283.220	2729
283.279	5325
283.338	1064
283.396	408
283.455	358
283.514	628
283.573	1141
283.631	1092
283.690	582
283.749	-73
283.808	2571
283.866	1972
283.925	-21
283.984	672
284.043	1557
284.101	1437
284.160	227
284.219	1179
284.277	1581
284.336	1159
284.395	7327
284.453	5715
284.512	1888
284.570	2979
284.629	2627
284.688	1589
284.746	2785
284.805	3270
284.863	3675
284.922	4754
284.981	5768
285.039	9750
285.098	18235
285.156	36566
285.215	49782
285.273	49645
285.332	38397
285.390	21616
285.449	13511
285.507	9144
285.566	7060
285.624	4940
285.683	4188
285.741	2488
285.799	1999
285.858	2812
285.916	1698
285.975	1597
286.033	188
286.091	1011
286.150	118
286.208	539
286.267	404
286.325	553
286.383	1953
286.442	1572
286.500	-12
286.558	-100
286.616	577
286.675	810
286.733	938
286.791	83
286.850	1112
286.908	873
286.966	2400
287.024	1304
287.083	879
287.141	44
287.199	362
287.257	780
287.315	918
287.374	565
287.432	4149
287.490	2061
287.548	279
287.606	747
287.664	700
287.723	1766
287.781	1903
287.839	743
287.897	283
287.955	1590
288.013	3462
288.071	8530
288.129	32928
288.187	80779
288.245	38505
288.303	12598
288.361	7372
288.419	3950
288.477	3876
288.535	2417
288.593	1914
288.651	837
288.709	277
288.767	-65
288.825	456
288.883	506
288.941	395
288.999	169
289.057	506
289.115	-109
289.173	27
289.231	91
289.289	61
289.346	819
289.404	1130
289.462	1085
289.520	1075
289.578	548
289.636	29
289.694	-147
289.751	-188
289.809	405
289.867	-884
289.925	1447
289.983	676
290.040	535
290.098	501
290.156	299
290.214	482
290.271	-141
290.329	106
290.387	-100
290.444	-466
290.502	-347
290.560	740
290.617	422
290.675	-255
290.733	198
290.790	48
290.848	464
290.906	178
290.963	-8
291.021	136
291.078	278
291.136	183
291.194	3235
291.251	7245
291.309	1649
291.366	12
291.424	61
291.481	-75
291.539	-346
291.596	611
291.654	98
291.711	375
291.769	565
291.826	614
291.884	76
291.941	-90
291.999	284
292.056	-502
292.114	237
292.171	258
292.228	328
292.286	134
292.343	1042
292.401	1819
292.458	403
292.515	409
292.573	226
292.630	315
292.687	246
292.745	636
292.802	900
292.859	4110
292.917	7269
292.974	4213
293.031	974
293.089	0
293.146	-77
293.203	-251
293.260	338
293.318	-548
293.375	1503
293.432	886
293.489	504
293.546	21
293.604	756
293.661	3567
293.718	11381
293.775	5337
293.832	1809
293.889	1340
293.947	701
294.004	870
294.061	655
294.118	2896
294.175	8085
294.232	10789
294.289	3774
294.346	1971
294.403	2522
294.460	1107
294.517	4
294.574	687
294.631	-436
294.688	1482
294.745	2938
294.802	13880
294.859	16762
294.916	5261
294.973	1454
295.030	1393
295.087	1844
295.144	971
295.201	1138
295.258	-121
295.315	2047
295.372	3673
295.429	9571
295.486	3596
295.542	2720
295.599	7432
295.656	14011
295.713	9149
295.770	9489
295.827	3429
295.883	1305
295.940	1094
295.997	1607
296.054	1952
296.111	1394
296.167	1489
296.224	890
296.281	311
296.338	271
296.394	315
296.451	1191
296.508	3779
296.564	8192
296.621	6025
296.678	11172
296.734	15525
296.791	5901
296.848	3415
296.904	2979
296.961	7399
297.018	10849
297.074	7634
297.131	2882
297.187	2271
297.244	2906
297.301	9797
297.357	17904
297.414	7156
297.470	2696
297.527	1385
297.583	868
297.640	1395
297.696	-604
297.753	1428
297.809	427
297.866	-182
297.922	631
297.979	985
298.035	624
298.092	1421
298.148	5638
298.204	5948
298.261	2312
298.317	5543
298.374	13377
298.430	8190
298.486	2658
298.543	1681
298.599	1271
298.656	2488
298.712	4561
298.768	10871
298.824	8098
298.881	2753
298.937	941
298.993	1390
299.050	1504
299.106	1258
299.162	287
299.218	1152
299.275	362
299.331	1526
299.387	3055
299.443	11564
299.500	11597
299.556	4719
299.612	1469
299.668	2730
299.724	1273
299.780	1546
299.837	1215
299.893	2504
299.949	9286
300.005	11278
300.061	9558
300.117	15844
300.173	8024
300.229	2748
300.285	3549
300.341	4513
300.397	1845
300.453	1362
300.510	768
300.566	1665
300.622	1177
300.678	4282
300.734	8183
300.790	9518
300.845	11567
300.901	6395
300.957	8448
301.013	7627
301.069	2953
301.125	2043
301.181	1428
301.237	767
301.293	-164
301.349	526
301.405	-84
301.461	864
301.516	1269
301.572	1151
301.628	2513
301.684	2849
301.740	3427
301.796	6836
301.851	4503
301.907	7854
301.963	8334
302.019	11867
302.074	31155
302.130	33440
302.186	16604
302.242	7418
302.297	4068
302.353	3565
302.409	6859
302.464	6962
302.520	5767
302.576	11130
302.631	12831
302.687	7676
302.743	3697
302.798	1953
302.854	1803
302.910	2604
302.965	2210
303.021	4599
303.076	3894
303.132	4517
303.187	5108
303.243	3450
303.299	1905
303.354	1298
303.410	1359
303.465	527
303.521	1102
303.576	1405
303.632	1357
303.687	3444
303.743	9966
303.798	9529
303.853	3179
303.909	1949
303.964	1457
304.020	3188
304.075	5645
304.130	3873
304.186	7031
304.241	7684
304.297	6468
304.352	3549
304.358	3366
304.407	1880
304.449	1776
304.463	1746
304.518	1167
304.539	1135
304.573	1059
304.629	1789
304.630	1807
304.684	2765
304.720	5648
304.739	7086
304.794	12380
304.811	10773
304.850	6874
304.902	2873
304.905	2618
304.960	1587
304.992	1730
305.015	1846
305.071	1118
305.083	1411
305.126	2388
305.173	1288
305.181	1124
305.236	968
305.264	912
305.292	834
305.347	1449
305.354	1419
305.402	1283
305.445	2300
305.457	2555
305.512	2588
305.535	2874
305.567	3415
305.622	3087
305.626	3194
305.678	5420
305.716	9688
305.733	11209
305.788	14668
305.807	12726
305.843	9256
305.897	10471
305.898	10478
305.953	11489
305.988	7967
306.008	6045
306.063	3628
306.078	3176
306.118	2058
306.168	1623
306.173	1589
306.228	1634
306.259	1303
306.283	1104
306.338	1456
306.349	1385
306.393	1012
306.440	1317
306.448	1394
306.503	1922
306.530	2081
306.558	2551
306.613	4672
306.620	5235
306.668	8957
306.711	11159
306.723	11319
306.778	9175
306.801	6832
306.833	4003
306.888	2313
306.892	2194
306.943	1490
306.982	1443
306.997	1302
307.052	1174
307.072	1060
307.107	1162
307.162	1668
307.163	1682
307.217	3371
307.253	3705
307.272	3715
307.327	4015
307.343	3795
307.381	3285
307.434	3196
307.436	3270
307.491	5600
307.524	8365
307.546	9299
307.600	10509
307.614	9604
307.655	6375
307.704	3806
307.710	3705
307.765	3694
307.795	4261
307.819	4909
307.874	7705
307.885	7749
307.929	6655
307.975	6112
307.984	6386
308.038	10358
308.065	13424
308.093	21568
308.148	43736
308.156	48289
308.202	71763
308.246	86716
308.257	85092
308.312	53674
308.336	39398
308.366	29048
308.421	17268
308.426	16302
308.475	10674
308.517	8379
308.530	7790
308.585	5929
308.607	5336
308.639	5066
308.694	5533
308.697	5588
308.748	8144
308.787	10524
308.803	10443
308.857	8983
308.877	8035
308.912	6859
308.967	6943
308.967	6953
309.021	9662
309.058	12416
309.076	15610
309.130	27965
309.148	33213
309.185	56296
309.238	93868
309.239	94113
309.293	101417
309.328	96627
309.348	85975
309.402	48086
309.418	37963
309.457	26581
309.508	16147
309.511	15771
309.566	12737
309.598	11469
309.620	11771
309.674	13892
309.688	14484
309.729	13373
309.778	11319
309.783	11093
309.837	8192
309.868	6865
309.892	7712
309.946	10886
309.959	12050
310.001	16113
310.049	19218
310.055	18637
310.109	11623
310.139	7406
310.163	5583
310.218	3475
310.229	3023
310.272	2412
310.319	2242
310.326	2189
310.381	1818
310.409	1658
310.435	1780
310.489	1878
310.499	1959
310.543	2020
310.589	2058
310.598	2090
310.652	2052
310.679	2115
310.706	1881
310.760	1234
310.769	1166
310.814	1453
310.859	1736
310.868	1695
310.923	1439
310.948	1251
310.977	1388
311.031	1768
311.038	1815
311.085	1407
311.128	989
311.139	1029
311.193	1317
311.218	1405
311.247	1158
311.301	663
311.308	631
311.356	1368
311.398	1849
311.410	1754
311.464	1431
311.488	1212
311.518	1411
311.572	1880
311.578	1924
311.626	1700
311.668	1579
311.680	1707
311.734	2172
311.758	2411
311.788	2154
311.842	1649
311.847	1601
311.896	2235
311.937	2793
311.950	2722
312.004	2410
312.027	2277
312.058	1997
312.112	1503
312.117	1457
312.165	1467
312.207	1481
312.297	2370
312.386	2330
312.476	2196
312.566	3217
312.656	2202
312.745	773
312.835	1624
312.925	1629
313.015	2301
313.104	1256
313.194	818
313.284	1521
313.374	1716
313.463	1560
313.553	1286
313.643	620
313.732	931
313.822	548
313.912	1215
314.001	1573
314.091	2140
314.180	1946
314.270	2194
314.360	1928
314.449	1363
314.539	110
314.628	856
314.718	580
314.808	1569
314.897	816
314.987	1132
315.076	929
315.166	1641
315.255	1783
315.345	2372
315.434	1637
315.524	1943
315.613	1851
315.703	1995
315.792	2493
315.881	3701
315.971	1571
316.060	2842
316.150	4344
316.239	5359
316.328	1551
316.418	1357
316.507	1257
316.597	2274
316.686	1466
316.775	1933
316.865	4885
316.954	1522
317.043	513
317.133	1287
317.222	22
317.311	1201
317.400	121
317.490	1982
317.579	2176
317.668	1344
317.757	1801
317.847	3028
317.936	4603
318.025	3699
318.114	2056
318.203	2280
318.293	4000
318.382	8379
318.471	5961
318.560	8635
318.649	17684
318.738	4204
318.828	2026
318.917	2668
319.006	2405
319.095	7454
319.184	22709
319.273	11378
319.362	5187
319.451	1834
319.540	1330
319.629	4011
319.718	6024
319.807	3754
319.896	6002
319.985	28854
320.074	8473
320.163	2211
320.252	3942
320.341	3131
320.430	2252
320.519	3233
320.608	820
320.697	2417
320.786	1226
320.875	2492
320.964	2670
321.053	3894
321.142	4924
321.230	6871
321.319	3904
321.408	10731
321.497	4761
321.586	4406
321.675	5099
321.764	5136
321.852	3316
321.941	6054
322.030	3502
322.119	4075
322.207	11109
322.296	8312
322.385	3542
322.474	4211
322.562	12526
322.651	7221
322.740	3414
322.829	6350
322.917	7154
323.006	4112
323.095	3179
323.183	2963
323.272	4015
323.361	7297
323.449	23961
323.538	8654
323.626	15433
323.715	10671
323.804	4113
323.892	13869
323.981	7397
324.069	2945
324.158	7424
324.246	7618
324.335	2786
324.424	4546
324.512	3319
324.601	8937
324.689	33104
324.778	80082
324.866	11460
324.954	2830
325.043	1526
325.131	3415
325.220	5646
325.308	6834
325.397	4515
325.485	3459
325.574	981
325.662	1570
325.750	304
325.839	1624
325.927	1073
326.015	1838
326.104	1766
326.192	3603
326.280	416
326.369	1236
326.457	946
326.545	3099
326.634	1927
326.722	1165
326.810	1412
326.898	2130
326.987	1167
327.075	2965
327.163	4659
327.251	6420
327.340	34213
327.428	62609
327.516	5316
327.604	1729
327.692	1436
327.781	1781
327.869	1982
327.957	2288
328.045	891
328.133	1030
328.221	515
328.309	1402
328.397	954
328.485	1299
328.574	1838
328.662	7041
328.750	3160
328.838	1847
328.926	1281
329.014	1621
329.102	1082
329.190	4835
329.278	3171
329.366	1088
329.454	173
329.542	1106
329.630	894
329.718	735
329.806	1378
329.893	1688
329.981	1013
330.069	3962
330.157	13386
330.245	35355
330.333	19231
330.421	3016
330.509	2709
330.597	8693
330.684	5124
330.772	3007
330.860	2973
330.948	4253
331.036	1300
331.123	618
331.211	949
331.299	1170
331.387	2411
331.475	5725
331.562	1211
331.650	1096
331.738	859
331.825	2106
331.913	843
332.001	722
332.089	849
332.176	3260
332.264	6384
332.352	4630
332.439	1493
332.527	1596
332.614	299
332.702	2000
332.790	971
332.877	2905
332.965	5856
333.052	2327
333.140	1783
333.228	4310
333.315	466
333.403	412
333.490	4014
333.578	3485
333.665	3677
333.753	3321
333.840	518
333.928	1817
334.015	4692
334.103	8199
334.190	25951
334.278	7009
334.365	2676
334.452	1962
334.540	1360
334.627	1803
334.715	1864
334.802	4976
334.889	25775
334.977	27932
335.064	2817
335.151	1544
335.239	1366
335.326	3287
335.413	12789
335.501	19121
335.588	1786
335.675	1615
335.762	1332
335.850	4054
335.937	1872
336.024	6435
336.111	28129
336.199	11909
336.286	1654
336.373	1315
336.460	510
336.547	1445
336.635	1487
336.722	1606
336.809	1799
336.896	2068
336.983	7416
337.070	20333
337.157	29537
337.245	19458
337.332	13006
337.419	1621
337.506	1014
337.593	1546
337.680	6046
337.767	18690
337.854	5154
337.941	5089
338.028	5304
338.115	2013
338.202	2672
338.289	4890
338.376	17042
338.463	5751
338.550	10117
338.637	12248
338.724	2797
338.811	4795
338.898	1015
338.984	1282
339.071	942
339.158	1584
339.245	4030
339.332	3132
339.419	2687
339.506	3736
339.593	740
339.679	964
339.766	755
339.853	1117
339.940	2409
340.027	1821
340.113	714
340.200	1198
340.287	1052
340.374	913
340.460	2164
340.547	608
340.634	2259
340.720	8594
340.807	4574
340.894	1281
340.980	878
341.067	-125
341.154	641
341.240	1410
341.327	4572
341.414	1422
341.500	1067
341.587	1909
341.674	890
341.760	3005
341.847	2520
341.933	1016
342.020	-244
342.106	195
342.193	854
342.279	2531
342.366	1331
342.452	2976
342.539	1477
342.625	3364
342.712	8501
342.798	3832
342.885	1347
342.971	159
343.058	251
343.144	604
343.230	778
343.317	669
343.403	504
343.490	1115
343.576	629
343.662	618
343.749	1534
343.835	1558
343.921	3822
344.008	18333
344.094	40531
344.180	9479
344.267	3461
344.353	11158
344.439	11623
344.525	5107
344.612	5802
344.698	6269
344.784	3348
344.870	1148
344.957	926
345.043	1539
345.129	586
345.215	2176
345.301	611
345.387	1053
345.474	617
345.560	1092
345.646	774
345.732	1175
345.818	1315
345.904	1289
345.990	1306
346.076	629
346.162	1815
346.249	1189
346.335	335
346.421	1386
346.507	4131
346.593	16434
346.679	3522
346.765	1096
346.851	-70
346.937	675
347.023	457
347.108	1812
347.194	413
347.280	893
347.366	454
347.452	4691
347.538	18526
347.624	14402
347.710	11118
347.796	2207
347.882	428
347.967	1214
348.053	1133
348.139	531
348.225	-71
348.311	545
348.397	727
348.482	1387
348.568	689
348.654	949
348.740	199
348.825	-307
348.911	2738
348.997	8680
349.083	18249
349.168	2606
349.254	1477
349.340	940
349.425	412
349.511	896
349.597	1362
349.682	3063
349.768	10655
349.854	5184
349.939	885
350.025	469
350.110	992
350.196	958
350.282	-665
350.367	364
350.453	1241
350.538	1012
350.624	37
350.709	1168
350.795	-318
350.880	359
350.966	933
351.051	1722
351.137	318
351.222	1029
351.308	2583
351.393	9413
351.479	1149
351.564	471
351.649	784
351.735	250
351.820	433
351.906	1056
351.991	765
352.076	5703
352.162	8419
352.247	1960
352.332	1312
352.418	2003
352.503	3318
352.588	13253
352.673	9761
352.759	1904
352.844	572
352.929	1400
353.014	1856
353.100	1784
353.185	1438
353.270	2329
353.355	2053
353.441	1240
353.526	886
353.611	2833
353.696	2407
353.781	2700
353.866	54
353.952	944
354.037	2806
354.122	6503
354.207	4880
354.292	1998
354.377	551
354.462	1075
354.547	1031
354.632	942
354.717	1042
354.802	911
354.887	17
354.972	426
355.057	45
355.142	307
355.227	344
355.312	2100
355.397	3296
355.482	9694
355.567	4432
355.652	4030
355.737	3310
355.822	13005
355.907	9385
355.991	2135
356.076	373
356.161	278
356.246	-23
356.331	1289
356.416	2882
356.501	23639
356.585	22832
356.670	3078
356.755	2198
356.840	2388
356.924	13541
357.009	51482
357.094	19797
357.179	3579
357.263	2792
357.348	2818
357.433	2405
357.517	2196
357.602	1801
357.687	1429
357.771	2704
357.856	9327
357.941	5995
358.025	12411
358.110	50761
358.195	23272
358.279	3293
358.364	1724
358.448	8054
358.533	23170
358.617	15556
358.702	17460
358.787	5612
358.871	2846
358.956	2012
359.040	652
359.125	75
359.209	1191
359.294	4045
359.378	7630
359.462	2302
359.547	1096
359.631	581
359.716	482
359.800	687
359.885	2745
359.969	601
360.053	561
360.138	229
360.222	1313
360.306	1905
360.391	3123
360.475	5003
360.559	10758
360.644	8589
360.728	5952
360.812	12701
360.896	35472
360.981	13280
361.065	6107
361.149	732
361.233	1731
361.318	988
361.402	1021
361.486	2162
361.570	1056
361.654	1238
361.739	4168
361.823	20922
361.907	34702
361.991	5601
362.075	2846
362.159	3849
362.243	4384
362.327	1653
362.411	3649
362.495	1911
362.580	1175
362.664	872
362.748	209
362.832	555
362.916	904
363.000	5499
363.084	20113
363.168	37222
363.252	8501
363.336	3142
363.420	4242
363.503	19124
363.587	23094
363.671	2861
363.755	1552
363.839	3938
363.923	324
364.007	2778
364.091	3547
364.175	5730
364.258	32062
364.342	14894
364.426	8376
364.510	3378
364.594	4128
364.677	5913
364.761	30084
364.845	20915
364.929	5330
365.013	3757
365.096	3646
365.180	4472
365.264	7620
365.347	32572
365.431	14230
365.515	2420
365.598	810
365.682	1769
365.766	1923
365.849	3447
365.933	2007
366.017	2449
366.100	1564
366.184	-550
366.267	1630
366.351	577
366.435	-166
366.518	172
366.602	1186
366.685	1002
366.769	1313
366.852	1276
366.936	3767
367.019	1843
367.103	1733
367.186	4485
367.270	1448
367.353	-265
367.436	682
367.520	-680
367.603	673
367.687	778
367.770	3534
367.853	2011
367.937	8759
368.020	13590
368.104	1861
368.187	2038
368.270	3966
368.353	3495
368.437	5059
368.520	10309
368.603	6425
368.687	8697
368.770	18279
368.853	3665
368.936	4087
369.020	4139
369.103	1625
369.186	93
369.269	1083
369.352	1963
369.436	2806
369.519	2121
369.602	242
369.685	1137
369.768	793
369.851	411
369.934	774
370.018	464
370.101	1628
370.184	3393
370.267	2307
370.350	2290
370.433	4948
370.516	13889
370.599	16354
370.682	2367
370.765	8630
370.848	11739
370.931	23192
371.014	8525
371.097	1796
371.180	1403
371.263	1227
371.346	-663
371.429	1303
371.511	146
371.594	2050
371.677	3364
371.760	4381
371.843	2742
371.926	17491
372.009	39084
372.091	13459
372.174	7835
372.257	21363
372.340	7281
372.423	5408
372.505	6110
372.588	2661
372.671	6664
372.754	21289
372.836	10946
372.919	8645
373.002	17448
373.085	4524
373.167	3818
373.250	8710
373.332	20352
373.415	29777
373.498	57774
373.580	20947
373.663	23211
373.746	32873
373.828	6776
373.911	3925
373.993	3275
374.076	17359
374.159	16271
374.241	5961
374.324	17694
374.406	12416
374.489	16073
374.571	47165
374.654	18530
374.736	9197
374.819	28714
374.901	43268
374.983	44258
375.066	7476
375.148	2833
375.231	14325
375.313	27661
375.395	9231
375.478	1243
375.560	1515
375.643	2036
375.725	9254
375.807	37229
375.890	29717
375.972	10065
376.054	5790
376.136	9162
376.219	4111
376.301	11319
376.383	33623
376.465	11357
376.548	6192
376.630	8140
376.712	28558
376.794	12152
376.877	1488
376.959	382
377.041	1981
377.123	2948
377.205	3526
377.287	215
377.369	1336
377.452	104
377.534	1129
377.616	105
377.698	857
377.780	-304
377.862	131
377.944	1128
378.026	446
378.108	888
378.190	1071
378.272	651
378.354	59
378.436	-256
378.518	807
378.600	5765
378.682	5786
378.764	11851
378.846	9581
378.928	2467
379.010	2398
379.091	2199
379.173	668
379.255	-209
379.337	960
379.419	4880
379.501	17763
379.583	7510
379.664	1434
379.746	2334
379.828	12350
379.910	15270
379.991	14837
380.073	1624
380.155	837
380.237	84
380.318	606
380.400	901
380.482	2810
380.564	2963
380.645	2500
380.727	2546
380.809	2531
380.890	733
380.972	973
381.053	738
381.135	1725
381.217	2873
381.298	13026
381.380	6007
381.461	4702
381.543	26778
381.624	33916
381.706	5633
381.787	3271
381.869	3367
381.951	10611
382.032	43528
382.113	28498
382.195	3893
382.276	4162
382.358	6600
382.439	23397
382.521	27773
382.602	43240
382.684	18130
382.765	32763
382.846	30772
382.928	38530
383.009	20567
383.090	15340
383.172	55069
383.253	87839
383.334	32775
383.416	37227
383.497	17890
383.578	8219
383.659	12146
383.741	49632
383.822	136230
383.903	67603
383.984	24709
384.066	44978
384.147	26737
384.228	5354
384.309	3080
384.390	2774
384.471	1230
384.553	1622
384.634	2321
384.715	3322
384.796	1231
384.877	2022
384.958	11244
385.039	13404
385.120	3906
385.201	2250
385.282	1714
385.363	2982
385.444	974
385.525	4574
385.606	17972
385.687	16493
385.768	2780
385.849	3800
385.930	19843
386.011	34459
386.092	7743
386.173	2325
386.254	563
386.335	1758
386.416	1616
386.496	7086
386.577	11638
386.658	3399
386.739	1791
386.820	2701
386.901	811
386.981	1612
387.062	227
387.143	1864
387.224	10721
387.304	10690
387.385	2731
387.466	1147
387.547	2783
387.627	1994
387.708	3541
387.789	21523
387.869	26280
387.950	8056
388.031	475
388.111	-181
388.192	3346
388.273	5937
388.353	2463
388.434	1513
388.514	4138
388.595	20791
388.676	27517
388.756	12267
388.837	10455
388.917	6339
388.998	-472
389.078	1389
389.159	1188
389.239	146
389.320	2376
389.400	529
389.480	4983
389.561	13504
389.641	6451
389.722	2157
389.802	2203
389.883	5633
389.963	16779
390.043	9700
390.124	1663
390.204	4705
390.284	13040
390.365	8432
390.445	11931
390.525	31417
390.605	27109
390.686	6704
390.766	2532
390.846	1586
390.927	-542
391.007	200
391.087	1728
391.167	1025
391.247	-616
391.328	2056
391.408	2679
391.488	2652
391.568	-828
391.648	640
391.728	1193
391.808	1779
391.888	1137
391.969	7266
392.049	10639
392.129	5049
392.209	4495
392.289	15903
392.369	7206
392.449	6347
392.529	2804
392.609	3321
392.689	4161
392.769	14438
392.849	10879
392.929	9249
393.009	19571
393.089	13102
393.169	6379
393.248	20122
393.328	119107
393.408	135299
393.488	25380
393.568	5937
393.648	2930
393.728	1881
393.807	1777
393.887	2932
393.967	2586
394.047	3132
394.127	4734
394.206	10150
394.286	33984
394.366	140829
394.446	151123
394.525	40144
394.605	10255
394.685	6380
394.764	10550
394.844	17525
394.924	11977
395.003	3729
395.083	2340
395.163	2112
395.242	1857
395.322	2004
395.402	660
395.481	3703
395.561	6423
395.640	19930
395.720	14372
395.799	23593
395.879	20249
395.958	15692
396.038	52929
396.117	181445
396.197	197464
396.276	66002
396.356	20159
396.435	11953
396.515	7051
396.594	6048
396.673	7030
396.753	28081
396.832	117564
396.912	88743
396.991	18033
397.070	5434
397.150	1067
397.229	1620
397.308	540
397.388	1966
397.467	1546
397.546	1216
397.625	-1100
397.705	2122
397.784	735
397.863	68
397.942	-43
398.022	963
398.101	4907
398.180	19627
398.259	9038
398.338	2323
398.417	116
398.497	-138
398.576	363
398.655	-673
398.734	243
398.813	624
398.892	4705
398.971	22619
399.050	10425
399.129	491
399.208	61
399.287	1512
399.366	-991
399.445	454
399.524	34
399.603	-1046
399.682	946
399.761	5612
399.840	23076
399.919	18526
399.998	1514
400.077	-828
400.156	-2100
400.235	1270
400.313	-285
400.392	-215
400.471	5560
400.550	10209
400.629	823
400.708	722
400.786	400
400.865	3038
400.944	2347
401.023	2475
401.102	-425
401.180	285
401.259	-387
401.338	331
401.416	757
401.495	-1046
401.574	299
401.652	234
401.731	585
401.810	-432
401.888	-257
401.967	-772
402.046	224
402.124	1255
402.203	323
402.281	1060
402.360	3
402.438	4554
402.517	1304
402.596	869
402.674	-916
402.753	-157
402.831	-28
402.910	762
402.988	1137
403.066	7552
403.145	4557
403.223	3811
403.302	6051
403.380	4841
403.459	4000
403.537	1611
403.615	-688
403.694	-1009
403.772	-129
403.850	330
403.929	-678
404.007	4
404.085	1427
404.164	1007
404.242	1431
404.320	9898
404.398	31427
404.477	30539
404.555	41992
404.633	37914
404.711	23861
404.789	16098
404.868	2518
404.946	760
405.024	454
405.102	-64
405.180	-456
405.258	-624
405.336	354
405.415	-485
405.493	777
405.571	1736
405.649	-608
405.727	-953
405.805	400
405.883	365
405.961	284
406.039	-37
406.117	-1049
406.195	1654
406.273	5967
406.351	29409
406.429	16511
406.507	2162
406.585	-127
406.663	895
406.740	-43
406.818	22
406.896	-789
406.974	1050
407.052	995
407.130	15897
407.208	22370
407.285	4564
407.363	-916
407.441	64
407.519	-853
407.596	25
407.674	2990
407.752	10453
407.830	10189
407.907	3114
407.985	-485
408.063	80
408.141	-162
408.218	919
408.296	-545
408.373	-176
408.451	248
408.529	-111
408.606	-1305
408.684	125
408.762	-468
408.839	-366
408.917	-661
408.994	-231
409.072	-1220
409.149	-266
409.227	180
409.304	-239
409.382	-395
409.459	-430
409.537	205
409.614	-104
409.692	-691
409.769	-797
409.846	-657
409.924	1076
410.001	-872
410.079	66
410.156	662
410.233	72
410.311	-316
410.388	-921
410.465	-594
410.543	-609
410.620	-403
410.697	119
410.775	-881
410.852	-1489
410.929	220
411.006	1743
411.083	-480
411.161	1602
411.238	1753
411.315	235
411.392	-1412
411.469	326
411.547	342
411.624	-647
411.701	-688
411.778	571
411.855	383
411.932	-808
412.009	-709
412.086	143
412.163	-41
412.240	-197
412.317	365
412.394	329
412.471	-481
412.548	-632
412.625	-726
412.702	-346
412.779	898
412.856	1592
412.933	-587
413.010	653
413.087	-383
413.164	4683
413.241	8118
413.318	983
413.395	25
413.471	997
413.548	-71
413.625	-322
413.702	-839
413.779	48
413.855	-764
413.932	-752
414.009	-1305
414.086	-932
414.162	-285
414.239	1105
414.316	4128
414.393	13107
414.469	3225
414.546	294
414.623	-1544
414.699	-793
414.776	-730
414.853	-1088
414.929	-408
415.006	228
415.082	-765
415.159	-105
415.236	-751
415.312	-459
415.389	725
415.465	457
415.542	-503
415.618	-435
415.695	650
415.771	-454
415.848	-644
415.924	-366
416.000	-967
416.077	496
416.153	-2019
416.230	-862
416.306	-1124
416.383	-800
416.459	-193
416.535	-538
416.612	-1644
416.688	-514
416.764	-1468
416.841	-1377
416.917	-1488
416.993	-290
417.069	169
417.146	84
417.222	1061
417.298	-212
417.374	-1880
417.451	-101
417.527	-316
417.603	-556
417.679	-880
417.755	-80
417.831	-1068
417.908	-439
417.984	-743
418.060	-1449
418.136	930
418.212	1232
418.288	-317
418.364	-51
418.440	-921
418.516	-135
418.592	-23
418.668	2286
418.744	1401
418.820	2154
418.896	-78
418.972	-1207
419.048	-293
419.124	1506
419.200	-753
419.276	72
419.352	-1472
419.428	-160
419.504	-1313
419.579	23
419.655	-610
419.731	-159
419.807	976
419.883	3267
419.959	2519
420.034	389
420.110	828
420.186	7006
420.262	6381
420.337	153
420.413	315
420.489	-423
420.565	115
420.640	-1130
420.716	-588
420.792	-1298
420.867	-267
420.943	-1351
421.019	133
421.094	-667
421.170	-600
421.245	-697
421.321	-607
421.397	-830
421.472	1248
421.548	4387
421.623	3087
421.699	13
421.774	-232
421.850	-681
421.925	47
422.001	-1
422.076	-118
422.152	0
422.227	183
422.302	1495
422.378	1372
422.453	3427
422.529	10846
422.604	47327
422.679	106808
422.755	58604
422.830	13798
422.905	3716
422.981	861
423.056	598
423.131	146
423.207	472
423.282	-278
423.357	1705
423.432	266
423.508	806
423.583	1239
423.658	2183
423.733	-372
423.808	-25
423.883	19
423.959	111
424.034	-925
424.109	490
424.184	-944
424.259	-517
424.334	-1188
424.409	-1342
424.484	-1332
424.559	-352
424.634	-956
424.709	122
424.784	1233
424.859	17
424.934	-207
425.009	4015
425.084	8493
425.159	2540
425.234	-175
425.309	-289
425.384	1225
425.459	3400
425.534	885
425.609	-673
425.683	-311
425.758	-569
425.833	-546
425.908	-230
425.983	1691
426.058	8770
426.132	3378
426.207	-360
426.282	1241
426.357	160
426.431	-494
426.506	377
426.581	-1148
426.655	-194
426.730	-1115
426.805	-235
426.879	-147
426.954	-426
427.029	-2
427.103	8559
427.178	24161
427.253	11542
427.327	1236
427.402	1328
427.476	3426
427.551	2079
427.625	-477
427.700	-32
427.774	-819
427.849	9
427.923	-1954
427.998	-476
428.072	-1085
428.147	1112
428.221	3309
428.296	11446
428.370	5177
428.444	321
428.519	816
428.593	3319
428.667	2138
428.742	3194
428.816	2858
428.890	7632
428.965	13358
429.039	5149
429.113	3673
429.188	815
429.262	-1340
429.336	532
429.410	3161
429.485	1760
429.559	2519
429.633	1905
429.707	-415
429.781	940
429.855	8906
429.930	15323
430.004	10280
430.078	18236
430.152	15245
430.226	18554
430.300	19198
430.374	2480
430.448	328
430.522	5004
430.596	18215
430.670	12697
430.744	17334
430.818	32785
430.892	7032
430.966	489
431.040	-161
431.114	-544
431.188	-868
431.262	-1006
431.336	-1028
431.410	795
431.484	3282
431.557	3104
431.631	-997
431.705	-174
431.779	837
431.853	8688
431.927	6243
432.000	319
432.074	-161
432.148	430
432.222	-1058
432.295	-589
432.369	-1699
432.443	74
432.516	8960
432.590	27427
432.664	11397
432.737	-272
432.811	-1084
432.885	61
432.958	-573
433.032	-1051
433.106	-817
433.179	-928
433.253	-1129
433.326	-738
433.400	-1504
433.473	-799
433.547	-1602
433.620	-424
433.694	-1094
433.767	223
433.841	-764
433.914	-764
433.988	-1288
434.061	-316
434.134	-1088
434.208	-540
434.281	-1856
434.355	-1262
434.428	-1330
434.501	-262
434.575	-1600
434.648	-449
434.721	-1255
434.795	-789
434.868	-1607
434.941	-253
435.014	-1017
435.088	-1382
435.161	7
435.234	-60
435.307	-118
435.381	-89
435.454	-1431
435.527	-740
435.600	-1164
435.673	-542
435.746	-1853
435.819	-538
435.892	-557
435.966	-1170
436.039	-1307
436.112	-80
436.185	-1863
436.258	-1113
436.331	-2072
436.404	-691
436.477	-1475
436.550	-592
436.623	-1305
436.696	-677
436.769	-1349
436.842	-351
436.915	-743
436.987	-962
437.060	-216
437.133	-484
437.206	-2034
437.279	-817
437.352	-978
437.425	74
437.498	-1056
437.570	303
437.643	472
437.716	-299
437.789	-1320
437.861	194
437.934	3119
438.007	1910
438.080	-1007
438.152	138
438.225	449
438.298	13244
438.370	42596
438.443	22072
438.516	3443
438.588	213
438.661	-722
438.734	-765
438.806	-775
438.879	-159
438.951	-749
439.024	2166
439.096	-348
439.169	-581
439.241	-763
439.314	-913
439.386	-1258
439.459	756
439.531	1545
439.604	114
439.676	-574
439.749	-1211
439.821	-502
439.893	-613
439.966	-1651
440.038	-259
440.110	-560
440.183	-897
440.255	-1301
440.327	482
440.400	5371
440.472	25121
440.544	19587
440.617	2181
440.689	1496
440.761	1400
440.833	2846
440.905	3039
440.978	-772
441.050	-781
441.122	-1121
441.194	-1232
441.266	-1009
441.338	-692
441.411	-517
441.483	6021
441.555	10929
441.627	2477
441.699	644
441.771	436
441.843	-511
441.915	-920
441.987	-925
442.059	-760
442.131	-760
442.203	-88
442.275	588
442.347	629
442.419	-400
442.491	2993
442.563	8247
442.635	5103
442.706	3807
442.778	4668
442.850	-167
442.922	-1223
442.994	-318
443.066	-418
443.137	398
443.209	-206
443.281	-718
443.353	899
443.425	3693
443.496	17826
443.568	19642
443.640	6357
443.711	1073
443.783	-555
443.855	-305
443.926	-95
443.998	-1193
444.070	317
444.141	-583
444.213	213
444.285	1017
444.356	1009
444.428	-417
444.499	106
444.571	-1775
444.642	-917
444.714	-1228
444.785	618
444.857	1183
444.928	3071
445.000	1972
445.071	2136
445.143	2196
445.214	1472
445.285	1070
445.357	6385
445.428	14363
445.500	37274
445.571	26147
445.642	11532
445.714	4423
445.785	7518
445.856	1223
445.928	1434
445.999	1297
446.070	427
446.141	95
446.213	504
446.284	-543
446.355	641
446.426	-293
446.497	-71
446.569	-695
446.640	671
446.711	368
446.782	-66
446.853	159
446.924	603
446.995	-768
447.066	-644
447.138	267
447.209	835
447.280	-992
447.351	-569
447.422	-498
447.493	-449
447.564	-544
447.635	1172
447.706	-510
447.777	-193
447.847	-1201
447.918	-698
447.989	-984
448.060	886
448.131	1565
448.202	2748
448.273	706
448.344	249
448.414	-509
448.485	-599
448.556	-317
448.627	-607
448.698	101
448.768	-493
448.839	-439
448.910	496
448.981	350
449.051	-379
449.122	-94
449.193	-966
449.263	-734
449.334	-49
449.405	-158
449.475	1870
449.546	586
449.616	1321
449.687	1098
449.758	152
449.828	-525
449.899	-976
449.969	-762
450.040	127
450.110	-595
450.181	746
450.251	-1309
450.322	-562
450.392	-277
450.463	47
450.533	-896
450.604	-620
450.674	-1301
450.744	180
450.815	-1132
450.885	-361
450.955	-1047
451.026	486
451.096	-1392
451.166	-535
451.237	835
451.307	5018
451.377	1837
451.447	-318
451.518	-1149
451.588	-262
451.658	-60
451.728	1092
451.799	4915
451.869	7079
451.939	752
452.009	-1000
452.079	-731
452.149	343
452.219	675
452.289	5912
452.360	5605
452.430	1738
452.500	-562
452.570	92
452.640	966
452.710	3416
452.780	5564
452.850	4362
452.920	3411
452.990	1085
453.060	-8
453.129	517
453.199	975
453.269	7375
453.339	20538
453.409	33751
453.479	27239
453.549	41941
453.619	44553
453.688	23277
453.758	3684
453.828	473
453.898	-133
453.968	477
454.037	321
454.087	394
454.107	415
454.168	-223
454.177	-332
454.247	-540
454.249	-515
454.316	-346
454.330	-120
454.386	699
454.411	1376
454.456	2343
454.492	3858
454.525	5178
454.574	3094
454.595	2210
454.655	475
454.665	180
454.734	343
454.736	393
454.804	1536
454.817	2338
454.873	5182
454.898	6237
454.943	7994
454.979	5594
455.013	3530
455.060	2106
455.082	1531
455.141	1170
455.152	1139
455.221	5782
455.222	5911
455.291	13015
455.303	14559
455.360	19688
455.384	27733
455.430	39352
455.465	31551
455.499	24869
455.546	13385
455.569	8119
455.627	5786
455.638	5445
455.707	1612
455.708	1624
455.777	845
455.789	728
455.846	91
455.869	221
455.916	479
455.950	514
455.985	458
456.031	443
456.054	433
456.112	570
456.124	600
456.193	-145
456.193	-161
456.262	356
456.274	591
456.332	1808
456.355	1560
456.401	690
456.436	896
456.470	1212
456.516	733
456.540	452
456.597	173
456.609	97
456.678	223
456.678	213
456.747	230
456.759	195
456.817	110
456.840	236
456.886	221
456.920	370
456.955	601
457.001	706
457.024	773
457.082	747
457.093	732
457.162	1408
457.163	1422
457.232	931
457.243	968
457.301	1144
457.324	1021
457.370	880
457.405	1150
457.439	1392
457.485	1084
457.508	878
457.566	1062
457.577	1159
457.646	1546
457.647	1561
457.715	1352
457.727	1393
457.784	1887
457.808	2216
457.853	2738
457.889	3145
457.922	3201
457.969	2975
457.991	2984
458.050	2893
458.060	2879
458.129	3807
458.130	3830
458.198	3568
458.211	3420
458.267	2381
458.292	1845
458.336	1241
458.372	1477
458.405	2065
458.453	2427
458.474	2639
458.533	4169
458.543	4411
458.611	5987
458.614	6062
458.680	4615
458.694	3989
458.749	2824
458.775	2578
458.818	2234
458.855	1665
458.887	1337
458.936	1321
458.955	1246
459.016	1077
459.024	1096
459.093	2000
459.097	1989
459.162	1135
459.177	1218
459.230	2015
459.257	2289
459.299	2508
459.338	2841
459.368	3184
459.418	3562
459.437	3292
459.499	2352
459.505	2361
459.574	1835
459.579	1824
459.643	1558
459.659	1654
459.711	1961
459.740	2287
459.780	2584
459.820	2276
459.849	2178
459.900	2789
459.917	2936
459.981	2588
459.986	2559
460.054	2643
460.061	2670
460.123	2859
460.141	2984
460.191	3506
460.222	3620
460.260	3734
460.302	4121
460.328	4127
460.382	4088
460.397	4129
460.462	3997
460.465	4085
460.534	6307
460.543	6656
460.602	18452
460.623	22907
460.671	35756
460.703	47414
460.739	44323
460.783	38662
460.808	33165
460.864	9712
460.876	8075
460.944	3563
460.945	3507
461.013	2876
461.024	2775
461.081	2736
461.104	3037
461.150	3191
461.184	2825
461.218	2771
461.264	2716
461.286	2634
461.345	2883
461.355	2933
461.423	3238
461.425	3235
461.491	2742
461.505	2822
461.559	4437
461.585	4824
461.628	6846
461.665	9325
461.696	10293
461.745	12914
461.764	11889
461.825	5621
461.832	5528
461.901	3498
461.905	3516
461.969	3098
461.985	2948
462.037	3110
462.065	3068
462.105	2850
462.145	3140
462.173	4318
462.225	5969
462.241	6314
462.305	8526
462.310	8382
462.378	6476
462.385	6009
462.446	4075
462.465	3686
462.514	3146
462.545	2892
462.582	2915
462.625	3198
462.650	3269
462.705	3022
462.718	2988
462.785	3344
462.786	3364
462.854	4182
462.865	4355
462.922	4923
462.945	5195
462.990	4596
463.025	3843
463.058	3754
463.104	3529
463.126	3239
463.184	2798
463.194	2930
463.262	3530
463.264	3570
463.330	3832
463.344	3773
463.398	4166
463.424	4323
463.466	3484
463.504	2959
463.533	3338
463.583	3816
463.601	3852
463.663	3800
463.669	3846
463.737	4307
463.743	4383
463.805	5962
463.823	6444
463.873	9579
463.903	11403
463.940	11961
463.982	13150
464.008	11448
464.062	6624
464.076	6330
464.142	4283
464.144	4261
464.211	3950
464.221	3952
464.279	4133
464.301	4174
464.347	4251
464.381	4423
464.414	4498
464.461	4511
464.482	4848
464.540	5702
464.550	5605
464.617	4864
464.620	4835
464.685	5978
464.699	6169
464.753	7964
464.779	9003
464.820	10545
464.859	11830
464.888	10883
464.938	9203
464.956	9308
465.018	9598
465.023	9550
465.091	8793
465.098	8673
465.158	8313
465.177	8346
465.226	8492
465.257	8386
465.293	8387
465.336	8381
465.361	8321
465.416	8088
465.428	8506
465.495	10920
465.496	10967
465.563	15480
465.575	16283
465.631	18921
465.654	20063
465.698	14884
465.734	10243
465.765	9683
465.813	8518
465.833	8291
465.893	8068
465.900	7994
465.968	7209
465.972	7151
466.035	7759
466.052	7866
466.102	7829
466.131	7795
466.170	7791
466.210	7779
466.237	8069
466.290	8669
466.304	8633
466.369	8250
466.372	8279
466.439	8782
466.449	8845
466.506	8873
466.528	8850
466.573	10665
466.607	11981
466.641	15150
466.687	19572
466.708	21640
466.766	27366
466.775	25668
466.842	12548
466.845	11901
466.909	10282
466.925	9917
466.977	9655
467.004	9515
467.044	10510
467.083	11523
467.111	12927
467.163	15465
467.178	15901
467.242	17594
467.245	17479
467.312	14406
467.321	13972
467.379	13675
467.400	13529
467.446	13611
467.480	13627
467.559	13121
467.638	12050
467.717	12482
467.796	11490
467.875	12943
467.955	12160
468.034	15380
468.113	25457
468.192	35621
468.271	14388
468.350	11011
468.429	10340
468.508	10237
468.588	10943
468.667	10343
468.746	11335
468.825	11275
468.904	10266
468.983	11324
469.062	12891
469.141	15922
469.220	10214
469.299	10141
469.378	11241
469.456	15738
469.535	13696
469.614	12342
469.693	12115
469.772	14005
469.851	15403
469.930	12690
470.009	10571
470.088	10463
470.166	10640
470.245	11736
470.324	13209
470.403	11706
470.482	10557
470.560	10009
470.639	9926
470.718	11182
470.797	9337
470.875	10581
470.954	12049
471.033	14525
471.111	9384
471.190	9515
471.269	8696
471.347	9826
471.426	9334
471.505	11164
471.583	13474
471.662	13048
471.740	10569
471.819	10513
471.898	10355
471.976	9962
472.055	9969
472.133	10905
472.212	12192
472.290	11781
472.369	9019
472.447	10138
472.526	8219
472.604	10454
472.683	9724
472.761	9353
472.839	8894
472.918	8601
472.996	9152
473.075	9959
473.153	10456
473.231	8501
473.310	9661
473.388	10015
473.466	9716
473.545	10508
473.623	11256
473.701	10448
473.780	8551
473.858	8257
473.936	10419
474.014	8873
474.093	9753
474.171	11835
474.249	12925
474.327	10356
474.405	8363
474.484	9053
474.562	8481
474.640	7756
474.718	8120
474.796	9218
474.874	8300
474.952	7392
475.030	7497
475.108	8130
475.187	8762
475.265	8742
475.343	9082
475.421	10209
475.499	8092
475.577	8488
475.655	9888
475.733	13963
475.811	19919
475.889	18453
475.966	14297
476.044	7894
476.122	7703
476.200	8995
476.278	7580
476.356	7194
476.434	8580
476.512	7950
476.590	7873
476.667	8931
476.745	7466
476.823	7939
476.901	7205
476.979	7670
477.056	7405
477.134	7902
477.212	8359
477.290	8129
477.367	7074
477.445	6586
477.523	6478
477.601	7482
477.678	7243
477.756	8376
477.834	8747
477.911	7625
477.989	7139
478.066	7596
478.144	6558
478.222	6985
478.299	7118
478.377	7958
478.454	7363
478.532	6611
478.609	6425
478.687	7613
478.764	6051
478.842	6950
478.919	6900
478.997	7021
479.074	6555
479.152	7142
479.229	6888
479.307	5951
479.384	6086
479.461	6065
479.539	5158
479.616	7229
479.694	5656
479.771	6572
479.848	7100
479.926	6949
480.003	9109
480.080	6529
480.157	6263
480.235	5480
480.312	5400
480.389	5633
480.467	7795
480.544	10160
480.621	6306
480.698	6901
480.775	7102
480.853	7607
480.930	6444
481.007	6527
481.084	6643
481.161	7560
481.238	7820
481.315	6392
481.392	5420
481.470	6285
481.547	5586
481.624	6040
481.701	5492
481.778	5968
481.855	5693
481.932	8434
482.009	10184
482.086	9213
482.163	5366
482.240	6701
482.317	7092
482.393	7487
482.470	5341
482.547	5564
482.624	5022
482.701	6024
482.778	5709
482.855	4925
482.932	5136
483.009	5078
483.085	6263
483.162	6758
483.239	7371
483.316	5719
483.393	4556
483.469	5475
483.546	6320
483.623	6783
483.699	6093
483.776	5317
483.853	6393
483.930	8550
484.006	16808
484.083	29766
484.160	28393
484.236	49767
484.313	38666
484.389	28072
484.466	23534
484.543	22580
484.619	22465
484.696	23128
484.772	22097
484.849	23471
484.925	22094
485.002	21447
485.078	21529
485.155	22243
485.231	20218
485.308	20008
485.384	20659
485.461	22050
485.537	25869
485.614	29088
485.690	19716
485.766	18178
485.843	18082
485.919	21048
485.995	21891
486.072	17930
486.148	17100
486.224	17975
486.301	18544
486.377	19293
486.453	19914
486.530	20169
486.606	27909
486.682	30765
486.758	27797
486.835	29330
486.911	25426
486.987	29968
487.063	31803
487.139	34287
487.215	27772
487.292	21218
487.368	19191
487.444	20590
487.520	21383
487.596	20745
487.672	21810
487.748	26051
487.824	30289
487.900	23007
487.976	17901
488.052	17688
488.128	20456
488.204	18104
488.280	17783
488.356	18028
488.432	25043
488.508	34224
488.584	19426
488.660	14914
488.736	15692
488.812	16702
488.888	18789
488.964	22424
489.039	28045
489.115	39371
489.191	28428
489.267	15827
489.343	16127
489.418	14921
489.494	13751
489.570	13534
489.646	15113
489.722	14642
489.797	14824
489.873	15898
489.949	25440
490.024	24937
490.100	13120
490.176	13182
490.251	14043
490.327	16544
490.403	12407
490.478	13105
490.554	11142
490.629	11933
490.705	11190
490.781	12807
490.856	11057
490.932	13145
491.007	11961
491.083	12318
491.158	10973
491.234	12668
491.309	18827
491.385	21446
491.460	11413
491.536	11656
491.611	10961
491.686	11086
491.762	12373
491.837	17397
491.913	25811
491.988	33277
492.063	42000
492.139	17991
492.214	13107
492.289	10437
492.365	8292
492.440	10638
492.515	9911
492.590	11030
492.666	8865
492.741	10578
492.816	13715
492.891	9840
492.967	10216
493.042	10554
493.117	11622
493.192	12808
493.267	22224
493.342	77146
493.418	116916
493.493	22669
493.568	9172
493.643	8531
493.718	9688
493.793	11309
493.868	12097
493.943	9712
494.018	9786
494.093	7898
494.168	8167
494.243	7657
494.318	8482
494.393	8384
494.468	7820
494.543	8248
494.618	7911
494.693	7058
494.768	6809
494.842	7779
494.917	6717
494.992	8367
495.067	6969
495.142	6860
495.217	8049
495.292	7302
495.366	9174
495.441	9248
495.516	11851
495.591	13093
495.665	28880
495.740	63758
495.815	33316
495.890	10548
495.964	8457
496.039	10790
496.114	9190
496.188	10131
496.263	10392
496.338	7763
496.412	9058
496.487	10617
496.561	10348
496.636	11271
496.710	9951
496.785	9824
496.860	10281
496.934	9592
497.009	8765
497.083	9124
497.158	9992
497.232	10662
497.307	10803
497.381	10064
497.455	10806
497.530	13829
497.604	10532
497.679	10827
497.753	15497
497.827	19387
497.902	18127
497.976	22588
498.050	41044
498.125	145828
498.199	164430
498.273	28430
498.348	18215
498.422	16755
498.496	16527
498.570	14296
498.645	12740
498.719	12448
498.793	14707
498.867	18268
498.941	21924
499.016	55935
499.090	154313
499.164	66339
499.238	9997
499.312	8494
499.386	9913
499.460	9788
499.534	8497
499.609	10598
499.683	14156
499.757	14400
499.831	24703
499.905	98135
499.979	101604
500.053	16160
500.127	13898
500.201	10488
500.275	7958
500.349	9038
500.422	10216
500.496	12125
500.570	18749
500.644	52011
500.718	102732
500.792	28454
500.866	8467
500.940	10100
501.013	8643
501.087	9080
501.161	13142
501.235	16042
501.309	29869
501.382	84074
501.456	82096
501.530	18152
501.603	26705
501.677	13680
501.751	6306
501.825	8143
501.898	12257
501.972	32477
502.046	24059
502.119	7550
502.193	14476
502.266	35948
502.340	20450
502.413	16098
502.487	31527
502.561	18333
502.634	8372
502.708	6278
502.781	5147
502.855	6252
502.928	4860
503.002	4997
503.075	4745
503.149	5614
503.222	5578
503.295	6679
503.369	7121
503.442	9093
503.516	21696
503.589	59390
503.662	41843
503.736	13800
503.809	27470
503.882	24982
503.956	34333
504.029	32909
504.102	12546
504.175	13842
504.249	7019
504.322	6828
504.395	6285
504.468	5529
504.542	4039
504.615	4595
504.688	4784
504.761	3279
504.834	5940
504.907	6115
504.980	8494
505.053	5456
505.127	4724
505.200	9256
505.273	6281
505.346	4857
505.419	3113
505.492	5076
505.565	3496
505.638	4974
505.711	3641
505.784	4366
505.857	3513
505.930	5507
506.003	2360
506.076	5675
506.149	5048
506.221	5731
506.294	5988
506.367	12791
506.440	44970
506.513	28946
506.586	6966
506.659	4031
506.731	4464
506.804	3615
506.877	5294
506.950	5308
507.022	4192
507.095	3502
507.168	6484
507.241	4360
507.313	2914
507.386	3899
507.459	6038
507.531	4291
507.604	3563
507.677	5329
507.749	3004
507.822	6622
507.894	12528
507.967	17972
508.040	11004
508.112	9887
508.185	9168
508.257	7204
508.330	10463
508.402	8036
508.475	8016
508.547	9235
508.620	7084
508.692	11307
508.765	8813
508.837	6987
508.909	6839
508.982	6646
509.054	6781
509.127	7394
509.199	6153
509.271	5912
509.344	5970
509.416	6872
509.488	6996
509.560	7377
509.633	7273
509.705	7738
509.777	8431
509.849	9909
509.922	9173
509.994	9211
510.066	9647
510.138	9137
510.210	19517
510.283	17006
510.355	13223
510.427	12620
510.499	13045
510.571	17278
510.643	10411
510.715	13232
510.787	10754
510.859	10828
510.931	10515
511.003	11392
511.076	12051
511.148	9392
511.219	10228
511.291	14635
511.363	14485
511.435	10007
511.507	8628
511.579	9923
511.651	9795
511.723	8491
511.795	7855
511.867	8532
511.939	8829
512.010	10706
512.082	11454
512.154	7048
512.226	9544
512.298	13562
512.369	17717
512.441	14996
512.513	13252
512.585	9509
512.656	10554
512.728	10014
512.800	9259
512.871	9905
512.943	9202
513.015	7982
513.086	9616
513.158	9035
513.230	8331
513.301	9696
513.373	10641
513.444	8256
513.516	7673
513.588	7890
513.659	7651
513.731	9380
513.802	6761
513.874	12047
513.945	16686
514.016	9785
514.088	7867
514.159	7617
514.231	9731
514.302	14597
514.374	11075
514.445	9906
514.516	15879
514.588	12710
514.659	9980
514.730	13386
514.802	12508
514.873	8713
514.944	11543
515.016	9828
515.087	9792
515.158	11844
515.229	15472
515.301	11124
515.372	14054
515.443	8861
515.514	8843
515.585	7459
515.656	7905
515.728	7840
515.799	7487
515.870	8169
515.941	7277
516.012	7550
516.083	10775
516.154	11538
516.225	11941
516.296	11288
516.367	9731
516.438	10142
516.509	11772
516.580	14987
516.651	31492
516.722	103032
516.793	59449
516.864	16265
516.935	15307
517.006	16980
517.077	18858
517.148	35764
517.219	103159
517.289	185384
517.360	68519
517.431	27871
517.502	9494
517.573	9954
517.643	9863
517.714	10890
517.785	12584
517.856	10508
517.926	13156
517.997	13486
518.068	15001
518.138	19717
518.209	23823
518.280	69277
518.350	272019
518.421	125574
518.492	18486
518.562	12006
518.633	9944
518.703	6728
518.774	11196
518.845	14581
518.915	15458
518.986	11005
519.056	11459
519.127	16660
519.197	21895
519.268	50767
519.338	39033
519.408	11418
519.479	11447
519.549	9769
519.620	7548
519.690	7504
519.760	5746
519.831	6737
519.901	6801
519.971	6442
520.042	6558
520.112	7026
520.182	7763
520.253	8693
520.323	7669
520.393	9260
520.463	14437
520.534	7896
520.604	18197
520.674	10587
520.744	8529
520.814	18239
520.885	18102
520.955	16750
521.025	60701
521.095	29237
521.165	7489
521.235	6896
521.305	7046
521.375	7082
521.445	7096
521.515	6941
521.585	8446
521.655	7074
521.725	7908
521.795	9800
521.865	6902
521.935	8976
522.005	7011
522.075	5438
522.145	6190
522.215	6393
522.285	8040
522.355	9211
522.424	15830
522.494	13674
522.564	8613
522.634	12142
522.704	34566
522.774	16014
522.843	6402
522.913	5532
522.983	5771
523.053	5430
523.122	5345
523.192	6421
523.262	15594
523.331	16541
523.401	6129
523.471	4761
523.540	4682
523.610	4205
523.680	5277
523.749	4221
523.819	5257
523.888	6026
523.958	4550
524.027	5163
524.097	5017
524.166	4089
524.236	3365
524.305	6314
524.375	3789
524.444	4187
524.514	5682
524.583	4067
524.653	5858
524.722	6423
524.791	3825
524.861	5847
524.930	2951
524.999	3258
525.069	5330
525.138	5319
525.207	4673
525.277	4630
525.346	4751
525.415	5532
525.484	3662
525.554	4093
525.623	4600
525.692	5424
525.761	3879
525.830	4810
525.900	4245
525.969	6109
526.038	6387
526.107	7555
526.176	20972
526.245	18372
526.314	10369
526.383	15284
526.452	15835
526.522	27072
526.591	32712
526.660	18303
526.729	11008
526.797	11515
526.867	21057
526.935	100228
527.004	102517
527.073	48425
527.142	6935
527.211	5625
527.280	5453
527.349	4851
527.418	2188
527.487	4187
527.555	3134
527.624	3683
527.693	2228
527.762	5010
527.831	2081
527.899	3795
527.968	2970
528.037	3260
528.106	4951
528.174	6115
528.243	5185
528.312	7232
528.380	8153
528.449	3641
528.518	4469
528.586	2331
528.655	3494
528.723	3061
528.792	2493
528.861	3331
528.929	2398
528.998	4957
529.066	2756
529.135	4462
529.203	1964
529.272	3041
529.340	4975
529.409	4858
529.477	3069
529.545	3326
529.614	6461
529.682	5038
529.751	6050
529.819	7842
529.887	5175
529.956	4121
530.024	5418
530.092	3033
530.161	4742
530.229	5723
530.297	3927
530.365	5198
530.434	4018
530.502	4321
530.570	4376
530.638	2655
530.707	4008
530.775	5708
530.843	2300
530.911	3809
530.979	4369
531.047	4274
531.115	4106
531.183	3508
531.252	4101
531.320	3170
531.388	3004
531.456	4322
531.524	2621
531.592	4701
531.660	6288
531.728	3210
531.796	3123
531.864	4065
531.932	4054
532.000	4177
532.067	5207
532.135	5198
532.203	7108
532.271	6211
532.339	10112
532.407	16922
532.475	12144
532.542	9129
532.610	8470
532.678	8732
532.746	27128
532.814	76679
532.881	21027
532.949	7534
533.017	5348
533.084	4934
533.152	3985
533.220	5440
533.287	3865
533.355	4484
533.423	5723
533.490	4173
533.558	4369
533.625	5403
533.693	5724
533.761	6749
533.828	6427
533.896	6599
533.963	12424
534.031	14888
534.098	15005
534.166	10651
534.233	6790
534.300	9290
534.368	8742
534.435	6945
534.503	7452
534.570	6706
534.637	4814
534.705	6121
534.772	4544
534.840	5148
534.907	12162
534.974	14397
535.041	5328
535.109	4725
535.176	3382
535.243	5065
535.310	4667
535.378	3404
535.445	4328
535.512	4618
535.579	5131
535.646	3176
535.714	4969
535.781	7092
535.848	7352
535.915	8938
535.982	10727
536.049	10029
536.116	9810
536.183	6462
536.250	5289
536.317	5445
536.384	5808
536.451	6622
536.518	6975
536.585	4754
536.652	7008
536.719	6784
536.786	5191
536.853	5201
536.920	7494
536.987	8728
537.053	8480
537.120	34017
537.187	34812
537.254	5286
537.321	3355
537.388	5530
537.454	2636
537.521	3092
537.588	3177
537.654	5206
537.721	6047
537.788	6450
537.855	4283
537.921	4330
537.988	4319
538.055	4535
538.121	3649
538.188	4176
538.254	4940
538.321	7358
538.388	6807
538.454	4732
538.521	3578
538.587	4584
538.654	3279
538.720	3457
538.787	4149
538.853	4307
538.920	4309
538.986	4238
539.053	4244
539.119	4587
539.185	3322
539.252	5498
539.318	5326
539.385	7384
539.451	6056
539.517	6593
539.583	5718
539.650	10196
539.716	27140
539.782	9300
539.849	4558
539.915	4463
539.981	3053
540.047	3658
540.114	5124
540.180	5902
540.246	3452
540.312	5427
540.378	7601
540.444	9852
540.510	10096
540.576	30481
540.643	10715
540.709	3583
540.775	3516
540.841	3363
540.907	5709
540.973	9564
541.039	7487
541.105	7309
541.171	4216
541.237	4319
541.303	5739
541.369	6004
541.435	4608
541.500	9075
541.566	5246
541.632	4078
541.698	3429
541.764	5326
541.830	2990
541.896	4013
541.961	3896
542.027	4161
542.093	3894
542.159	4710
542.224	2670
542.290	7147
542.356	7607
542.421	10235
542.487	6773
542.553	5555
542.618	5651
542.684	5145
542.750	4223
542.815	5355
542.881	6488
542.947	24141
543.012	22083
543.078	4553
543.143	3601
543.209	4337
543.274	3789
543.340	5933
543.405	9657
543.471	16600
543.536	5346
543.602	4523
543.667	3200
543.732	5034
543.798	3468
543.863	5276
543.928	4079
543.994	3155
544.059	4801
544.124	4973
544.190	4087
544.255	4091
544.320	4052
544.386	4551
544.451	5277
544.516	7014
544.581	6565
544.646	15877
544.712	27341
544.777	7931
544.842	5023
544.907	5712
544.972	3942
545.037	4497
545.102	6289
545.168	5281
545.233	5628
545.298	6601
545.363	6422
545.428	6850
545.493	9960
545.558	20439
545.623	10307
545.688	5479
545.753	5444
545.818	5733
545.883	5605
545.947	4821
546.012	5801
546.077	5447
546.142	5780
546.207	4471
546.272	6315
546.337	5828
546.401	6816
546.466	5693
546.531	4990
546.596	6084
546.661	5412
546.725	6159
546.790	3976
546.855	5347
546.919	3844
546.984	5416
547.049	5638
547.113	6412
547.178	4560
547.243	6497
547.307	6637
547.372	7338
547.436	7369
547.501	7103
547.565	6796
547.630	6911
547.695	6671
547.759	7903
547.823	5786
547.888	7043
547.952	5259
548.017	7827
548.081	7778
548.146	8726
548.210	8319
548.274	5870
548.339	6340
548.403	6115
548.468	5708
548.532	5995
548.596	5507
548.660	5976
548.725	6456
548.789	7283
548.853	8321
548.917	6475
548.982	8383
549.046	8247
549.110	5315
549.174	5474
549.238	5922
549.303	5561
549.367	7787
549.431	6066
549.495	6338
549.559	5384
549.623	7189
549.687	6595
549.751	9835
549.815	7689
549.879	8227
549.943	6318
550.007	7877
550.071	7285
550.135	8636
550.199	7467
550.263	7340
550.327	8158
550.391	8387
550.455	7987
550.519	6487
550.582	8634
550.646	8926
550.710	10853
550.774	8112
550.838	8571
550.901	8618
550.965	9524
551.029	9144
551.093	9890
551.156	10894
551.220	16563
551.284	19357
551.347	11362
551.411	18113
551.475	21507
551.538	11365
551.602	8835
551.666	6990
551.729	6489
551.793	8145
551.856	8468
551.920	8654
551.983	9228
552.047	7080
552.110	7295
552.174	8285
552.237	7260
552.301	7386
552.364	7459
552.428	6906
552.491	6939
552.554	7501
552.618	7618
552.681	8858
552.745	6387
552.808	10213
552.871	12177
552.934	9530
552.998	8929
553.061	8434
553.124	10173
553.187	10777
553.251	11907
553.314	13372
553.377	14084
553.440	22899
553.503	82308
553.567	157286
553.630	29607
553.693	10318
553.756	8259
553.819	7103
553.882	7930
553.945	7231
554.008	7401
554.071	6490
554.134	7379
554.197	5496
554.260	6470
554.323	8032
554.386	6929
554.449	5782
554.512	7486
554.575	6325
554.638	6540
554.701	6730
554.764	6544
554.827	6253
554.889	5489
554.952	5373
555.015	5479
555.078	4843
555.141	6528
555.203	5591
555.266	6499
555.329	4857
555.391	5543
555.454	5637
555.517	6151
555.580	5790
555.642	5003
555.705	4374
555.768	5312
555.830	5065
555.893	5253
555.955	5289
556.018	6195
556.080	5419
556.143	5722
556.206	3790
556.268	5352
556.330	5030
556.393	5249
556.455	5381
556.518	6180
556.580	6917
556.643	4721
556.705	4606
556.767	4115
556.830	4469
556.892	5481
556.955	6168
557.017	5385
557.079	4972
557.142	4977
557.204	3957
557.266	8410
557.328	8702
557.391	4731
557.453	4551
557.515	4864
557.577	5686
557.639	5104
557.701	4585
557.764	3784
557.826	3764
557.888	5035
557.950	4341
558.012	4411
558.074	4829
558.136	8141
558.198	15555
558.260	8326
558.322	4312
558.384	5559
558.446	5512
558.508	6260
558.570	7209
558.632	11407
558.694	15762
558.756	14695
558.818	32152
558.880	89591
558.942	32144
559.003	17414
559.065	10984
559.127	6047
559.189	6243
559.251	6943
559.312	7188
559.374	14942
559.436	49177
559.498	30131
559.559	6279
559.621	6160
559.683	6264
559.744	10167
559.806	22701
559.868	36393
559.929	10139
559.991	7440
560.052	7039
560.114	15559
560.176	12360
560.237	10962
560.299	16110
560.360	6939
560.422	4468
560.483	4862
560.545	4014
560.606	4426
560.667	3472
560.729	3830
560.790	4109
560.852	4392
560.913	3734
560.974	3656
561.036	3892
561.097	3923
561.158	4056
561.220	5778
561.281	4077
561.342	4836
561.403	6167
561.465	5985
561.526	10795
561.587	14888
561.648	5422
561.709	4108
561.771	5095
561.832	5201
561.893	3898
561.954	4919
562.015	4515
562.076	4055
562.137	3608
562.198	4511
562.259	4403
562.320	4728
562.381	4859
562.442	5096
562.503	5325
562.564	4989
562.625	4389
562.686	5291
562.747	4662
562.808	4679
562.869	4248
562.930	6054
562.991	5164
563.051	4954
563.112	4560
563.173	4284
563.234	3985
563.294	5259
563.355	3969
563.416	4714
563.477	4430
563.537	4993
563.598	4717
563.659	5171
563.720	5183
563.780	6048
563.841	4880
563.901	5479
563.962	5004
564.023	4515
564.083	5060
564.144	4989
564.204	3774
564.265	4803
564.325	5884
564.386	9209
564.446	8609
564.507	5023
564.567	4530
564.628	5536
564.688	4480
564.749	5196
564.809	6010
564.869	5537
564.930	4966
564.990	5078
565.050	4493
565.111	5340
565.171	4660
565.231	4791
565.292	4819
565.352	4580
565.412	5008
565.472	4852
565.532	4692
565.593	4840
565.653	5314
565.713	5674
565.773	5367
565.833	5730
565.893	6190
565.953	5274
566.013	5598
566.074	6597
566.134	6513
566.194	9006
566.254	9247
566.314	8039
566.374	5919
566.434	5453
566.494	6051
566.554	5901
566.614	6090
566.673	6647
566.733	6912
566.793	6622
566.853	6889
566.913	7593
566.973	7609
567.033	7607
567.092	7974
567.152	7085
567.212	7059
567.272	7686
567.331	7507
567.391	7750
567.451	8314
567.511	10553
567.570	10029
567.630	8195
567.690	7220
567.749	8277
567.809	8247
567.868	10679
567.928	9330
567.988	10571
568.047	12766
568.107	15123
568.166	18881
568.226	26130
568.285	35446
568.345	34751
568.404	29074
568.464	25159
568.523	23767
568.582	23887
568.642	25045
568.701	29702
568.761	38003
568.820	56827
568.879	62338
568.939	51304
568.998	38620
569.057	30681
569.116	25109
569.176	20650
569.235	17570
569.294	15123
569.353	13610
569.413	11674
569.472	10803
569.531	9873
569.590	8776
569.649	8405
569.708	8019
569.767	8598
569.827	8459
569.886	8444
569.945	7565
570.004	7368
570.063	6549
570.122	6565
570.181	6065
570.240	6456
570.299	6914
570.358	7076
570.417	5886
570.475	4703
570.534	5854
570.593	6493
570.652	5797
570.711	6393
570.770	5631
570.829	6294
570.887	5551
570.946	5773
571.005	5485
571.064	4597
571.122	4743
571.181	6220
571.240	5288
571.299	4428
571.357	5012
571.416	4597
571.475	3912
571.533	5562
571.592	4500
571.650	5238
571.709	4379
571.768	5612
571.826	4895
571.885	4586
571.943	4137
572.002	5068
572.060	3397
572.119	3950
572.177	4583
572.236	4655
572.294	3692
572.352	4419
572.411	4517
572.469	5002
572.528	4252
572.586	4448
572.644	5209
572.703	7160
572.761	4265
572.819	4465
572.877	3874
572.936	3679
572.994	4618
573.052	4113
573.110	3338
573.169	3638
573.227	3178
573.285	4490
573.343	4162
573.401	4216
573.459	3400
573.517	3753
573.576	3749
573.634	4801
573.692	3749
573.750	4291
573.808	2714
573.866	4672
573.924	3960
573.982	4839
574.040	3880
574.098	3909
574.155	3311
574.213	4237
574.271	3554
574.329	3596
574.387	3426
574.445	3875
574.503	3656
574.560	3607
574.618	3283
574.676	3649
574.734	3091
574.792	3848
574.849	2658
574.907	3416
574.965	3185
575.022	3225
575.080	2958
575.138	3598
575.195	3708
575.253	3616
575.311	3095
575.368	4468
575.426	3285
575.483	4060
575.541	4144
575.598	4084
575.656	3662
575.713	4098
575.771	4253
575.828	3658
575.886	3057
575.943	5096
576.001	3741
576.058	3262
576.115	4120
576.173	4360
576.230	4290
576.287	5420
576.345	4359
576.402	4646
576.459	3728
576.517	3329
576.574	4108
576.631	4511
576.688	4064
576.746	4032
576.803	4143
576.860	3540
576.917	3905
576.974	3789
577.031	4438
577.089	4421
577.146	4254
577.203	3698
577.260	4532
577.317	4882
577.374	4303
577.431	5326
577.488	4313
577.545	4249
577.602	4452
577.659	5327
577.716	6511
577.773	7461
577.830	6239
577.886	4332
577.943	5580
578.000	5503
578.057	6171
578.114	8365
578.171	10410
578.227	16773
578.284	15389
578.341	11549
578.398	8332
578.454	8091
578.511	6332
578.568	6017
578.625	5412
578.681	5211
578.738	4734
578.794	4625
578.851	4231
578.908	5107
578.964	4827
579.021	5600
579.077	4063
579.134	4946
579.190	4576
579.247	5327
579.303	4828
579.360	4562
579.416	4680
579.473	4299
579.529	3879
579.586	5416
579.642	4920
579.698	4923
579.755	5500
579.811	6346
579.867	6604
579.924	6590
579.980	8430
580.036	10204
580.093	14197
580.149	22992
580.205	27889
580.261	20514
580.317	15791
580.374	11662
580.430	10645
580.486	8999
580.542	7779
580.598	6903
580.619	6681
580.654	6302
580.692	6151
580.710	6088
580.765	5882
580.767	5880
580.823	6237
580.838	6152
580.879	5954
580.911	5862
580.935	5803
580.984	5680
580.991	5671
581.047	6249
581.057	6412
581.103	7188
581.130	7554
581.159	7943
581.203	9474
581.215	9886
581.270	10288
581.276	10046
581.326	7842
581.349	7748
581.382	7573
581.422	6704
581.438	6349
581.494	7124
581.494	7098
581.550	5027
581.567	5145
581.606	5378
581.640	5272
581.661	5216
581.713	6136
581.717	6214
581.773	5501
581.786	5478
581.829	5397
581.859	5496
581.885	5602
581.932	5485
581.940	5465
581.996	5531
582.004	5557
582.052	5729
582.077	5463
582.107	5153
582.150	5654
582.163	5802
582.219	4517
582.223	4637
582.274	6166
582.296	5718
582.330	5006
582.368	5614
582.386	5888
582.441	5998
582.441	6000
582.497	6325
582.514	6376
582.552	6648
582.587	7644
582.608	8167
582.659	7313
582.663	7244
582.719	6211
582.732	6140
582.774	6089
582.805	6061
582.830	5979
582.877	6465
582.885	6549
582.941	6404
582.950	6585
582.996	7531
583.023	7959
583.052	8617
583.095	9375
583.107	9558
583.162	12903
583.168	13154
583.218	15140
583.240	14382
583.273	13236
583.313	11241
583.328	10497
583.384	10220
583.385	10153
583.439	8155
583.458	8159
583.494	8105
583.531	7660
583.549	7537
583.603	6675
583.605	6644
583.660	6336
583.676	6371
583.715	6525
583.748	6948
583.770	7198
583.820	6818
583.825	6775
583.881	6265
583.893	6324
583.936	6514
583.965	6301
583.991	6130
584.038	5536
584.046	5477
584.101	6177
584.110	6153
584.156	5854
584.183	6088
584.211	6224
584.255	6411
584.266	6509
584.321	6610
584.328	6574
584.376	6294
584.400	6623
584.431	7093
584.472	7331
584.486	7323
584.541	6851
584.545	6837
584.596	6834
584.617	6759
584.651	6860
584.689	7381
584.706	7423
584.761	7297
584.762	7294
584.816	7105
584.834	7180
584.871	7202
584.906	7134
584.926	7098
584.978	7147
584.980	7156
585.035	7668
585.051	7728
585.090	8103
585.123	8659
585.145	8762
585.195	8790
585.200	8850
585.254	9508
585.267	9817
585.309	10727
585.340	12151
585.364	13245
585.412	12080
585.419	11709
585.473	10417
585.484	10065
585.528	9771
585.556	10362
585.583	11369
585.628	13777
585.637	14555
585.692	21189
585.700	22812
585.747	30251
585.772	27551
585.801	21529
585.845	13376
585.856	11910
585.910	10213
585.917	10051
585.965	10433
585.989	10487
586.019	10245
586.061	10154
586.074	10207
586.128	10775
586.133	10808
586.183	10833
586.205	10753
586.237	10847
586.277	11220
586.292	11245
586.346	11002
586.349	11013
586.401	11170
586.421	11395
586.455	12088
586.493	12606
586.509	13118
586.564	15401
586.565	15490
586.618	19511
586.637	19902
586.672	18506
586.709	15463
586.727	14202
586.781	13832
586.781	13830
586.835	13685
586.853	13837
586.889	14105
586.925	13909
586.944	13879
586.996	14724
586.998	14739
587.052	15485
587.068	15621
587.106	16008
587.140	16013
587.161	16055
587.212	16669
587.215	16702
587.269	17419
587.284	17685
587.323	18445
587.356	18969
587.377	19148
587.427	20074
587.431	20171
587.485	21282
587.499	21546
587.539	22311
587.571	22760
587.593	22956
587.643	24524
587.648	24718
587.702	26363
587.715	26962
587.755	28865
587.786	29946
587.810	30603
587.858	32347
587.864	32619
587.917	35700
587.930	36524
587.971	40276
588.001	43021
588.025	44695
588.073	48224
588.079	48790
588.133	54703
588.145	56231
588.187	62365
588.217	67296
588.241	71970
588.288	81530
588.295	82834
588.348	95732
588.360	98652
588.402	111216
588.431	121410
588.456	130608
588.503	150214
588.510	153530
588.564	184888
588.575	191996
588.617	224487
588.646	250700
588.671	280718
588.718	347190
588.725	361500
588.778	488508
588.789	518154
588.832	679249
588.861	796153
588.886	883998
588.932	1013491
588.939	1012373
588.993	922776
589.004	923867
589.047	943613
589.075	908969
589.100	803592
589.147	582118
589.154	559810
589.207	418460
589.218	394217
589.261	353279
589.290	334476
589.314	339878
589.361	361968
589.368	372068
589.421	476987
589.433	503493
589.475	664306
589.504	783382
589.528	850332
589.576	918848
589.582	909224
589.635	830006
589.647	801255
589.689	600426
589.718	455376
589.742	377382
589.790	246017
589.795	237859
589.849	176920
589.861	164089
589.902	137773
589.932	120477
589.955	110341
590.004	90858
590.009	89448
590.062	76305
590.075	73340
590.115	66711
590.146	61769
590.168	58733
590.218	52752
590.222	52334
590.275	47641
590.289	46431
590.328	43422
590.360	40879
590.381	39664
590.431	37522
590.435	37346
590.488	34332
590.503	33576
590.541	32422
590.574	31396
590.594	30640
590.645	29141
590.647	29090
590.700	27580
590.716	27220
590.753	25818
590.787	24454
590.806	24079
590.859	23254
590.859	23231
590.912	22045
590.930	21752
590.965	21619
591.001	21375
591.018	21019
591.071	20020
591.072	20012
591.124	19460
591.143	19305
591.177	18793
591.214	18243
591.230	18271
591.283	18390
591.285	18397
591.336	17946
591.356	17693
591.389	17643
591.427	17601
591.442	17160
591.495	15642
591.498	15528
591.547	15989
591.569	16216
591.600	15504
591.640	14520
591.653	14559
591.706	14809
591.711	14832
591.759	14557
591.782	14431
591.811	15034
591.853	15966
591.864	15673
591.917	14080
591.924	13854
591.969	14179
591.995	14380
592.022	14140
592.066	13765
592.075	13921
592.127	14881
592.137	15060
592.180	15012
592.208	14949
592.233	14594
592.279	13914
592.285	13828
592.338	13108
592.350	12936
592.390	12031
592.421	11360
592.443	11424
592.491	11592
592.495	11637
592.548	12299
592.562	12482
592.600	11995
592.633	11587
592.653	11540
592.704	11377
592.705	11439
592.775	11277
592.846	10979
592.916	11497
592.987	12091
593.058	11006
593.128	10670
593.199	10275
593.270	9577
593.341	9725
593.411	9416
593.482	9906
593.553	10255
593.623	9442
593.694	9467
593.764	10276
593.835	10179
593.906	10200
593.976	9642
594.047	9139
594.117	10971
594.188	10572
594.258	9869
594.329	9330
594.399	9263
594.470	8986
594.540	8200
594.611	8120
594.681	8881
594.751	8695
594.822	9497
594.892	9338
594.963	9095
595.033	8190
595.103	9268
595.174	9511
595.244	11621
595.314	13148
595.384	9181
595.455	8360
595.525	8966
595.595	8269
595.665	9267
595.736	8321
595.806	8006
595.876	7584
595.946	8255
596.016	8272
596.087	8628
596.157	8116
596.227	8963
596.297	8604
596.367	9131
596.437	9878
596.507	11848
596.577	13136
596.647	9788
596.717	8239
596.787	9251
596.857	8675
596.927	9188
596.997	8164
597.067	9470
597.137	11897
597.207	11425
597.277	8692
597.347	8341
597.417	7686
597.487	8394
597.557	8785
597.626	9156
597.696	8792
597.766	10431
597.836	11731
597.906	10405
597.975	8956
598.045	7874
598.115	8394
598.185	8990
598.254	8920
598.324	9621
598.394	9644
598.464	9339
598.533	8572
598.603	8481
598.672	9504
598.742	8607
598.812	7947
598.881	9010
598.951	8164
599.020	8600
599.090	9083
599.159	9406
599.229	9275
599.299	8992
599.368	8632
599.437	9255
599.507	7826
599.576	9155
599.646	10710
599.715	12210
599.785	8317
599.854	9549
599.924	8333
599.993	9665
600.062	8360
600.132	8709
600.201	8820
600.270	9897
600.340	9019
600.409	9876
600.478	9182
600.547	9323
600.617	9210
600.686	8538
600.755	8146
600.824	9099
600.894	8359
600.963	9470
601.032	8221
601.101	9083
601.170	8960
601.239	8696
601.308	8229
601.378	9551
601.447	8580
601.516	8908
601.585	8760
601.654	9340
601.723	8742
601.792	9841
601.861	10913
601.930	14368
601.999	11266
602.068	9398
602.137	9321
602.206	9436
602.275	10222
602.343	9969
602.412	10974
602.481	9624
602.550	9203
602.619	9914
602.688	10401
602.756	9649
602.825	10495
602.894	8941
602.963	8807
603.032	10283
603.100	9884
603.169	10084
603.238	9105
603.307	10057
603.375	9236
603.444	9652
603.513	9180
603.581	9811
603.650	9842
603.719	8610
603.787	8671
603.856	9626
603.924	9267
603.993	10088
604.061	9413
604.130	8606
604.198	9654
604.267	9700
604.335	10142
604.404	9608
604.472	9171
604.541	9052
604.609	9510
604.678	10413
604.746	9425
604.815	10097
604.883	10203
604.951	10461
605.020	9916
605.088	10101
605.156	8531
605.225	9948
605.293	9467
605.361	8366
605.429	9016
605.498	9367
605.566	9792
605.634	9925
605.702	10201
605.771	9851
605.839	9811
605.907	9420
605.975	9836
606.043	9158
606.111	8009
606.180	10830
606.248	13120
606.316	16009
606.384	9369
606.452	10182
606.520	9792
606.588	8794
606.656	7721
606.724	6890
606.792	7289
606.860	6737
606.928	6151
606.996	6986
607.064	6011
607.132	6441
607.200	6469
607.267	6915
607.335	6579
607.403	7339
607.471	6794
607.539	6695
607.607	7046
607.674	6186
607.742	6173
607.810	6798
607.878	6528
607.946	7188
608.013	6258
608.081	7249
608.149	7778
608.216	5856
608.284	6960
608.352	7154
608.419	5792
608.487	10235
608.555	7331
608.622	7476
608.690	6528
608.757	7460
608.825	7407
608.893	7270
608.960	7830
609.028	9762
609.095	8506
609.163	7652
609.230	6163
609.298	7252
609.365	5943
609.432	6247
609.500	6545
609.567	7635
609.635	7581
609.702	8796
609.769	8238
609.837	7730
609.904	6825
609.971	7445
610.039	9718
610.106	13086
610.173	21322
610.241	51825
610.308	67336
610.375	46160
610.442	14419
610.509	8111
610.577	8569
610.644	7812
610.711	6980
610.778	7386
610.845	6816
610.912	8700
610.980	10458
611.047	17130
611.114	12191
611.181	8443
611.248	6484
611.315	7729
611.382	6230
611.449	6787
611.516	8213
611.583	7451
611.650	7254
611.717	7701
611.784	7631
611.851	7896
611.918	9093
611.984	10241
612.051	14628
612.118	30193
612.185	73114
612.252	58541
612.319	13981
612.386	9286
612.452	8485
612.519	8978
612.586	10074
612.653	9459
612.719	8397
612.786	8148
612.853	6864
612.919	6495
612.986	8091
613.053	6685
613.120	6068
613.186	5192
613.253	7411
613.319	6160
613.386	5427
613.453	6982
613.519	7329
613.586	8180
613.652	11000
613.719	8967
613.785	9063
613.852	7670
613.918	7585
613.985	10527
614.051	15509
614.118	38524
614.184	43604
614.250	11124
614.317	7242
614.383	7758
614.449	6298
614.516	7329
614.582	6790
614.648	6397
614.715	6867
614.781	6406
614.847	6314
614.914	6515
614.980	6736
615.046	7743
615.112	6971
615.179	7004
615.245	7096
615.311	9346
615.377	12795
615.443	16690
615.509	10408
615.575	9415
615.642	7702
615.708	8343
615.774	8281
615.840	10760
615.906	13065
615.972	18261
616.038	32429
616.104	57125
616.170	106093
616.236	105036
616.302	24550
616.368	13648
616.434	9937
616.500	9931
616.565	9935
616.631	11214
616.697	9270
616.763	9359
616.829	12026
616.895	20680
616.961	21563
617.026	12516
617.092	7609
617.158	8575
617.224	7219
617.289	6548
617.355	6091
617.421	6240
617.487	7196
617.552	6274
617.618	5557
617.684	4817
617.749	6968
617.815	6137
617.880	5738
617.946	6593
618.012	6670
618.077	6639
618.143	5872
618.208	6516
618.274	6915
618.339	7382
618.405	5515
618.470	6806
618.536	6252
618.601	6584
618.667	5980
618.732	5877
618.798	5837
618.863	6261
618.928	5923
618.994	7219
619.059	6920
619.124	9347
619.190	7323
619.255	5034
619.320	6180
619.386	6075
619.451	5414
619.516	6679
619.581	6474
619.647	6876
619.712	5921
619.777	6538
619.842	6752
619.907	6253
619.972	5973
620.038	5875
620.103	6495
620.168	4729
620.233	6142
620.298	6173
620.363	5721
620.428	6106
620.493	6082
620.558	5924
620.623	5457
620.688	6208
620.753	5696
620.818	6214
620.883	5919
620.948	5749
621.013	5518
621.078	5628
621.143	5071
621.207	7140
621.272	5613
621.337	6686
621.402	6896
621.467	7983
621.532	8403
621.596	7160
621.661	6834
621.726	6116
621.791	6901
621.855	6286
621.920	7648
621.985	7113
622.049	8318
622.114	8048
622.179	6545
622.243	7095
622.308	6782
622.373	8847
622.437	7735
622.502	7079
622.566	7243
622.631	6038
622.695	7766
622.760	7407
622.824	7645
622.889	7830
622.953	6530
623.018	10924
623.082	9590
623.147	7953
623.211	6726
623.276	7380
623.340	5379
623.404	7124
623.469	6045
623.533	6532
623.597	5667
623.662	6429
623.726	5337
623.790	6844
623.854	5803
623.919	6499
623.983	6225
624.047	6969
624.111	5320
624.176	6642
624.240	6574
624.304	7276
624.368	6044
624.432	6983
624.496	6295
624.560	6563
624.625	6721
624.689	6156
624.753	5749
624.817	6132
624.881	5488
624.945	6351
625.009	6276
625.073	6172
625.137	6124
625.201	7621
625.265	7455
625.329	6398
625.393	6466
625.456	6574
625.520	5848
625.584	7211
625.648	7342
625.712	11118
625.776	22209
625.839	28275
625.903	11776
625.967	6889
626.031	10393
626.095	16613
626.158	6683
626.222	4913
626.286	5501
626.349	5246
626.413	3331
626.477	5950
626.540	5688
626.604	4329
626.668	5026
626.731	3978
626.795	5270
626.858	5447
626.922	4639
626.986	5523
627.049	3339
627.113	5094
627.176	4415
627.240	5119
627.303	4403
627.366	4464
627.430	4381
627.493	3533
627.557	4233
627.620	5028
627.684	4621
627.747	4743
627.810	2223
627.874	4755
627.937	2577
628.000	5724
628.064	4659
628.127	3694
628.190	4400
628.253	4553
628.317	3238
628.380	4427
628.443	3643
628.506	4333
628.569	4397
628.632	3826
628.696	3636
628.759	3619
628.822	2763
628.885	3376
628.948	3406
629.011	3787
629.074	3149
629.137	4486
629.200	3040
629.263	4662
629.326	2519
629.389	3931
629.452	4369
629.515	4349
629.578	2475
629.641	4600
629.704	2949
629.767	4167
629.830	4209
629.892	3837
629.955	2783
630.018	5095
630.081	3154
630.144	4790
630.207	3400
630.269	5042
630.332	3108
630.395	4194
630.458	3144
630.520	2708
630.583	3972
630.646	3659
630.708	3016
630.771	2795
630.834	3442
630.896	2824
630.959	2925
631.021	2621
631.084	2965
631.146	3518
631.209	4644
631.272	3190
631.334	3461
631.397	2396
631.459	2190
631.522	2851
631.584	3356
631.646	3214
631.709	3151
631.771	4246
631.834	3661
631.896	3472
631.958	2071
632.021	3631
632.083	1857
632.145	3363
632.208	2150
632.270	3874
632.332	2493
632.395	1655
632.457	3486
632.519	2711
632.581	2248
632.643	2589
632.706	3382
632.768	2576
632.830	2497
632.892	2168
632.954	2593
633.016	3050
633.078	1861
633.141	2880
633.203	2326
633.265	3075
633.327	2426
633.389	2284
633.451	3432
633.513	3442
633.575	3694
633.637	2491
633.698	2429
633.760	3177
633.822	2571
633.884	2864
633.946	2294
634.008	3299
634.070	3100
634.132	4734
634.193	3445
634.255	3492
634.317	2224
634.379	3997
634.441	2622
634.502	2167
634.564	2989
634.626	2498
634.687	2133
634.749	2528
634.811	2468
634.873	2288
634.934	2809
634.996	2657
635.057	2234
635.119	2625
635.181	1603
635.242	3393
635.304	518
635.365	4502
635.427	1685
635.488	2308
635.550	533
635.611	2526
635.673	859
635.734	3160
635.796	2403
635.857	3661
635.918	1569
635.980	3322
636.041	793
636.102	3103
636.164	1851
636.225	3297
636.286	988
636.348	2825
636.409	2521
636.470	1856
636.531	2167
636.593	1975
636.654	2044
636.715	2227
636.776	1637
636.838	2244
636.899	2080
636.960	1899
637.021	1732
637.082	2279
637.143	1508
637.204	1660
637.265	1174
637.326	2973
637.387	1599
637.448	1528
637.509	2008
637.570	1532
637.631	2274
637.692	1456
637.753	1153
637.814	2124
637.875	1171
637.936	1884
637.997	1115
638.058	2032
638.119	2345
638.179	2472
638.240	1420
638.301	2132
638.362	1679
638.423	1743
638.483	2360
638.544	1220
638.605	1700
638.666	1401
638.726	1150
638.787	2364
638.848	836
638.908	1741
638.969	2019
639.030	1664
639.090	552
639.151	902
639.211	1216
639.272	3113
639.332	3674
639.393	3119
639.453	924
639.514	1557
639.574	1419
639.635	1321
639.695	2204
639.756	1263
639.816	1383
639.877	1557
639.937	3960
639.997	5165
640.058	1117
640.118	650
640.178	1668
640.239	1387
640.299	890
640.359	1178
640.420	964
640.480	1737
640.540	1591
640.600	843
640.661	997
640.721	789
640.781	3040
640.841	2261
640.901	2105
640.961	2179
641.021	1364
641.082	1252
641.142	2431
641.202	2731
641.262	-312
641.322	2196
641.382	899
641.442	2410
641.502	1694
641.562	2300
641.622	755
641.682	1224
641.742	708
641.802	1777
641.861	1528
641.921	707
641.981	1731
642.041	1668
642.101	2016
642.161	480
642.221	1257
642.280	1129
642.340	760
642.400	1431
642.460	1737
642.519	1245
642.579	881
642.639	1553
642.698	-977
642.758	3436
642.818	979
642.877	519
642.937	772
642.997	1762
643.056	2283
643.116	702
643.175	2027
643.235	1717
643.294	845
643.354	1822
643.414	1586
643.473	1391
643.532	1382
643.592	3085
643.651	3883
643.711	6928
643.770	11935
643.830	30089
643.889	75019
643.948	22444
644.008	3525
644.067	2211
644.126	967
644.186	1812
644.245	1315
644.304	161
644.363	2401
644.423	272
644.482	890
644.541	1882
644.600	-1176
644.659	2637
644.719	580
644.778	1372
644.837	2483
644.896	5711
644.955	12343
645.014	5554
645.073	3891
645.132	1702
645.191	1420
645.250	1301
645.309	2139
645.368	464
645.427	1278
645.486	563
645.545	3249
645.604	1266
645.663	1248
645.722	1387
645.781	1346
645.840	1231
645.898	441
645.957	2991
646.016	2167
646.075	6286
646.134	11269
646.192	26879
646.251	49494
646.310	9227
646.369	1659
646.427	2493
646.486	315
646.545	1078
646.603	1510
646.662	1358
646.721	412
646.779	834
646.838	12
646.896	1768
646.955	1374
647.014	2318
647.072	2871
647.131	6569
647.189	3763
647.248	797
647.306	887
647.365	2235
647.423	-327
647.481	2456
647.540	-629
647.598	596
647.657	1151
647.715	1179
647.773	-153
647.832	1165
647.890	-214
647.948	1065
648.007	1241
648.065	946
648.123	431
648.181	2800
648.240	2773
648.298	2104
648.356	306
648.414	1165
648.472	716
648.531	1632
648.589	347
648.647	824
648.705	1103
648.763	531
648.821	1333
648.879	253
648.937	1356
648.995	1250
649.053	240
649.111	1550
649.169	2578
649.227	4392
649.285	7281
649.343	23170
649.401	14685
649.459	6585
649.516	5994
649.574	4673
649.632	14869
649.690	21580
649.748	6243
649.806	6646
649.863	13477
649.921	6838
649.979	2852
650.037	1454
650.094	-516
650.152	690
650.210	814
650.268	1575
650.325	560
650.383	1372
650.440	-163
650.498	1250
650.556	944
650.613	158
650.671	282
650.728	82
650.786	595
650.843	728
650.901	-1427
650.958	718
651.016	711
651.073	939
651.131	90
651.188	-379
651.246	219
651.303	-103
651.360	469
651.418	442
651.475	349
651.532	-489
651.590	897
651.647	166
651.704	333
651.762	592
651.819	95
651.876	33
651.933	-169
651.990	304
652.048	-1850
652.105	286
652.162	558
652.219	399
652.276	1090
652.333	1180
652.390	-953
652.448	966
652.505	337
652.562	643
652.619	887
652.676	4263
652.733	4941
652.790	1456
652.847	-226
652.904	849
652.961	-615
653.017	-79
653.074	806
653.131	-16
653.188	-574
653.245	671
653.302	396
653.359	-303
653.415	269
653.472	335
653.529	301
653.586	-340
653.642	-669
653.699	556
653.756	70
653.813	44
653.869	112
653.926	-674
653.983	-603
654.039	909
654.096	-214
654.152	256
654.209	-1384
654.266	935
654.322	-380
654.379	413
654.435	284
654.492	727
654.548	-109
654.605	1379
654.661	2109
654.717	519
654.774	843
654.830	661
654.887	489
654.943	135
655.000	19
655.056	939
655.112	-393
655.168	-108
655.225	222
655.281	517
655.337	-73
655.394	925
655.450	748
655.506	1119
655.562	1239
655.618	2581
655.675	-592
655.731	469
655.787	-985
655.843	489
655.899	-1151
655.955	130
656.011	157
656.067	-1476
656.123	661
656.179	768
656.235	1047
656.291	-548
656.347	319
656.403	321
656.459	-660
656.515	316
656.571	224
656.627	183
656.683	-628
656.739	740
656.795	291
656.850	357
656.906	1020
656.962	818
657.018	-423
657.074	-401
657.129	355
657.185	1259
657.241	225
657.297	-1093
657.352	170
657.408	-567
657.464	-32
657.519	-219
657.575	-1190
657.630	-14
657.686	-1061
657.742	197
657.797	-346
657.853	-199
657.908	623
657.964	-440
658.019	383
658.075	239
658.130	97
658.186	-1027
658.241	343
658.297	-751
658.352	-542
658.407	564
658.463	-869
658.518	-778
658.573	-144
658.629	-562
658.684	-180
658.739	547
658.795	-1292
658.850	320
658.905	-675
658.960	-13
659.016	-723
659.071	-306
659.126	-79
659.181	16
659.236	1355
659.291	2038
659.346	422
659.401	686
659.457	1709
659.512	3722
659.567	2286
659.622	371
659.677	379
659.732	-1038
659.787	-97
659.842	29
659.897	587
659.952	611
660.007	-519
660.061	656
660.116	-1487
660.171	177
660.226	-66
660.281	329
660.336	-1499
660.391	865
660.445	-380
660.500	833
660.555	329
660.610	-1161
660.664	2
660.719	70
660.774	-239
660.828	-128
660.883	86
660.938	94
660.992	-161
661.047	286
661.101	-514
661.156	-94
661.211	-755
661.265	-307
661.320	-297
661.374	332
661.429	127
661.483	90
661.538	-837
661.592	349
661.647	-330
661.701	550
661.755	55
661.810	519
661.864	-660
661.919	-689
661.973	-9
662.027	-784
662.081	-705
662.136	-49
662.190	-282
662.244	570
662.299	-501
662.353	1075
662.407	-400
662.461	-469
662.515	-664
662.569	291
662.624	733
662.678	435
662.732	-754
662.786	60
662.840	167
662.894	-131
662.948	213
663.002	401
663.056	159
663.110	-672
663.164	-131
663.218	74
663.272	-625
663.326	114
663.380	-677
663.434	457
663.488	-873
663.542	115
663.595	-7
663.649	232
663.703	540
663.757	757
663.811	-803
663.864	-573
663.918	-80
663.972	-689
664.026	-387
664.079	-183
664.133	74
664.187	412
664.240	69
664.294	-223
664.348	27
664.401	-77
664.455	-332
664.508	-249
664.562	362
664.615	-74
664.669	-662
664.722	776
664.776	-435
664.829	443
664.883	-486
664.936	-554
664.990	14
665.043	273
665.097	-684
665.150	330
665.203	-831
665.257	61
665.310	-474
665.363	-397
665.417	497
665.470	469
665.523	-426
665.576	-68
665.630	-104
665.683	92
665.736	-412
665.789	46
665.842	-206
665.895	62
665.949	6
666.002	113
666.055	-869
666.108	285
666.161	-50
666.214	703
666.267	-229
666.320	806
666.373	289
666.426	577
666.479	-741
666.532	1132
666.585	37
666.638	1063
666.691	-244
666.744	515
666.796	-1350
666.849	96
666.902	373
666.955	282
667.008	-1299
667.060	-318
667.113	-1099
667.166	289
667.219	-28
667.271	143
667.324	270
667.377	296
667.430	133
667.482	714
667.535	627
667.587	368
667.640	-664
667.693	517
667.745	755
667.798	874
667.850	-217
667.903	210
667.955	490
668.008	-342
668.060	-27
668.113	10
668.165	318
668.218	-93
668.270	-74
668.322	-288
668.375	-199
668.427	584
668.479	-710
668.532	430
668.584	-777
668.636	-50
668.689	602
668.741	-613
668.793	-175
668.845	-72
668.898	264
668.950	-196
669.002	-883
669.054	-675
669.106	-549
669.158	307
669.211	-248
669.263	388
669.315	1763
669.367	2172
669.419	-77
669.471	1172
669.523	723
669.575	1436
669.627	1103
669.679	779
669.731	298
669.783	1156
669.835	897
669.886	322
669.938	-4
669.990	1010
670.042	228
670.094	1069
670.146	1532
670.197	1227
670.249	1866
670.301	3510
670.353	4124
670.404	7031
670.456	9469
670.508	16350
670.560	27966
670.611	48487
670.663	85948
670.715	189089
670.766	331530
670.818	140084
670.869	25799
670.921	10619
670.972	6251
671.024	4638
671.075	3321
671.127	3171
671.178	1149
671.230	1447
671.281	1111
671.333	1255
671.384	534
671.436	540
671.487	1414
671.538	935
671.590	528
671.641	1978
671.692	1200
671.744	2942
671.795	2165
671.846	461
671.897	410
671.949	-52
672.000	-1025
672.051	67
672.102	284
672.153	67
672.204	181
672.256	536
672.307	-186
672.358	460
672.409	-225
672.460	152
672.511	-570
672.562	135
672.613	-202
672.664	71
672.715	-93
672.766	494
672.817	-464
672.868	-516
672.919	224
672.970	-189
673.021	-375
673.071	61
673.122	-247
673.173	457
673.224	-771
673.275	-474
673.326	-369
673.376	396
673.427	416
673.478	7
673.528	-202
673.579	-566
673.630	-615
673.680	1076
673.731	-723
673.782	-469
673.832	-613
673.883	376
673.934	-414
673.984	-403
674.035	105
674.085	-51
674.136	42
674.186	309
674.237	-369
674.287	964
674.338	-447
674.388	31
674.438	-835
674.489	75
674.539	-171
674.589	96
674.640	-385
674.690	-34
674.740	-1273
674.791	-478
674.841	-348
674.891	-362
674.942	-164
674.992	-239
675.042	-996
675.092	-270
675.142	-688
675.193	-857
675.243	-806
675.293	176
675.343	-433
675.393	-1004
675.443	-377
675.493	152
675.543	-510
675.593	-318
675.643	-691
675.693	101
675.743	-313
675.793	-165
675.843	-1096
675.893	581
675.943	-19
675.993	21
676.043	-815
676.093	-111
676.142	-829
676.192	-402
676.242	-342
676.292	-511
676.341	-619
676.391	-350
676.441	-199
676.491	-442
676.540	-420
676.590	73
676.640	-757
676.689	277
676.739	-1130
676.789	93
676.838	4
676.888	-210
676.937	-866
676.987	-202
677.037	73
677.086	-1013
677.136	-625
677.185	-918
677.235	-367
677.284	143
677.333	-1012
677.383	-602
677.432	-964
677.482	38
677.531	-233
677.580	-547
677.630	-801
677.679	-896
677.728	-1106
677.778	-53
677.827	-514
677.876	92
677.925	-746
677.975	-704
678.024	-484
678.073	-1076
678.122	-748
678.171	-1079
678.220	-1152
678.269	-397
678.319	-1039
678.368	-334
678.417	-641
678.466	-965
678.515	-412
678.564	46
678.613	-224
678.662	-389
678.711	-586
678.760	203
678.809	-414
678.857	-572
678.906	-871
678.955	-936
679.004	-720
679.053	22
679.102	-1163
679.151	-836
679.199	-997
679.248	-411
679.297	-1115
679.346	-357
679.394	-625
679.443	-120
679.492	-811
679.540	214
679.589	-1301
679.638	-921
679.686	-644
679.735	183
679.784	-667
679.832	-79
679.881	-790
679.929	-446
679.978	-1595
680.026	-562
680.075	-411
680.123	-885
680.172	-1368
680.220	-410
680.268	-530
680.317	-1204
680.365	-232
680.414	-718
680.462	-993
680.510	-483
680.559	-1631
680.607	-609
680.655	-898
680.703	-270
680.752	-735
680.800	-406
680.848	-1179
680.896	-1033
680.945	-1312
680.993	-663
681.041	-455
681.089	-380
681.137	-826
681.185	-990
681.233	-649
681.258	-510
681.281	-402
681.329	-594
681.377	-536
681.380	-491
681.425	-145
681.473	-9
681.502	-368
681.521	-662
681.569	1
681.617	-382
681.624	-347
681.665	-284
681.713	-184
681.745	106
681.761	216
681.809	-225
681.857	878
681.867	627
681.904	-347
681.952	103
681.989	-148
682.000	-246
682.048	546
682.096	-24
682.111	40
682.143	65
682.191	294
682.233	594
682.239	617
682.286	29
682.334	192
682.354	218
682.382	210
682.430	699
682.476	514
682.477	490
682.525	878
682.572	155
682.598	394
682.620	556
682.667	484
682.715	1004
682.720	935
682.763	134
682.810	1284
682.841	844
682.857	583
682.905	1052
682.952	1301
682.963	1255
683.000	989
683.047	868
683.085	1688
683.095	1890
683.142	473
683.190	1123
683.206	1183
683.237	1240
683.284	1317
683.328	798
683.332	740
683.379	1447
683.426	1433
683.449	1527
683.473	1565
683.521	1208
683.568	2077
683.571	2010
683.615	978
683.662	2233
683.693	1832
683.709	1564
683.757	1579
683.804	1586
683.814	1587
683.851	1577
683.898	1738
683.936	1856
683.945	1855
683.992	1801
684.039	2223
684.057	2164
684.086	2034
684.133	2111
684.179	2407
684.180	2404
684.227	3226
684.274	2104
684.300	2798
684.321	3316
684.368	1964
684.415	3016
684.422	2881
684.462	1964
684.509	2218
684.543	2591
684.556	2720
684.603	2466
684.649	2367
684.665	2472
684.696	2717
684.743	2856
684.786	3095
684.790	3104
684.837	2561
684.883	3921
684.908	3501
684.930	3023
684.977	3531
685.023	3551
685.029	3544
685.070	3374
685.117	2676
685.150	2801
685.164	2880
685.210	2956
685.257	3834
685.272	3898
685.303	3938
685.350	3639
685.393	3773
685.396	3777
685.443	4169
685.490	4058
685.514	4231
685.536	4329
685.583	3817
685.629	4068
685.636	4077
685.675	4061
685.722	4618
685.757	4300
685.768	4232
685.815	4495
685.861	4423
685.878	4423
685.908	4274
685.954	3991
686.000	4687
686.000	4697
686.047	4197
686.093	5004
686.121	5102
686.139	5043
686.185	4793
686.232	4491
686.242	4612
686.278	5016
686.324	3931
686.363	4343
686.370	4439
686.416	4647
686.463	4754
686.484	4825
686.509	4846
686.555	4795
686.601	4681
686.606	4728
686.647	5217
686.693	4932
686.727	4879
686.739	4790
686.785	5039
686.831	4915
686.848	4866
686.877	4937
686.923	4323
686.969	4888
686.969	4890
687.015	5495
687.061	4592
687.090	4873
687.107	4995
687.153	5284
687.199	4961
687.211	4918
687.245	4976
687.291	5589
687.332	5654
687.336	5654
687.382	5710
687.428	5670
687.453	5894
687.474	5952
687.520	5357
687.565	5939
687.574	5762
687.611	5312
687.657	5241
687.695	5702
687.702	5823
687.748	6754
687.794	7048
687.816	7260
687.839	7166
687.885	6768
687.931	6405
687.937	6391
687.976	6345
688.022	5855
688.058	5538
688.067	5530
688.113	5846
688.158	5573
688.179	5809
688.204	6008
688.249	6069
688.295	6071
688.300	6047
688.340	6222
688.386	6565
688.421	7025
688.431	7077
688.477	6905
688.522	6129
688.542	6260
688.567	6458
688.613	6243
688.658	6142
688.663	6155
688.703	6391
688.749	6068
688.784	6328
688.794	6392
688.839	6712
688.884	6419
688.905	6505
688.930	6738
688.975	6982
689.020	7129
689.026	7129
689.065	7127
689.110	7068
689.146	7024
689.155	7005
689.201	7130
689.246	7300
689.267	7543
689.291	7841
689.336	7041
689.381	7690
689.388	7673
689.426	7612
689.471	7748
689.509	7287
689.516	7218
689.561	7710
689.606	7203
689.630	7634
689.651	8003
689.696	7478
689.741	7489
689.750	7522
689.785	7883
689.830	8107
689.871	8026
689.875	8005
689.920	8064
689.965	8177
689.992	7791
690.010	7655
690.054	8229
690.099	8429
690.112	8485
690.144	8655
690.189	8641
690.233	8529
690.233	8544
690.278	9179
690.323	9565
690.354	9773
690.367	9868
690.412	10130
690.457	10352
690.474	10634
690.501	11288
690.546	11793
690.590	12465
690.595	12507
690.635	13812
690.680	15117
690.716	16665
690.724	17389
690.769	20463
690.813	24378
690.836	25956
690.857	29702
690.902	38218
690.946	46502
690.957	48510
690.991	68323
691.035	94749
691.077	120831
691.080	121470
691.124	126800
691.168	131601
691.198	134618
691.213	125474
691.257	98829
691.301	71326
691.318	60744
691.346	53803
691.390	42309
691.434	30907
691.439	29537
691.478	26011
691.522	22634
691.559	19139
691.567	18880
691.611	17656
691.655	15750
691.680	15119
691.699	14963
691.743	14352
691.787	13448
691.800	13119
691.831	12891
691.875	13046
691.919	12632
691.921	12596
691.964	12132
692.008	12023
692.041	12006
692.052	12131
692.096	11941
692.139	12091
692.162	12072
692.183	11874
692.227	11872
692.271	11159
692.282	11078
692.315	11250
692.359	11283
692.402	11584
692.403	11609
692.447	11135
692.490	11035
692.523	10897
692.534	11051
692.578	11810
692.622	12186
692.643	12474
692.666	12505
692.709	12090
692.753	12035
692.763	12012
692.797	12390
692.840	12759
692.884	13015
692.884	13045
692.928	13324
692.971	13329
693.004	13592
693.015	13733
693.059	13837
693.102	14342
693.124	14423
693.146	14955
693.189	16114
693.233	17091
693.245	17447
693.276	18956
693.320	20549
693.363	22206
693.365	22223
693.407	25768
693.450	29305
693.485	32222
693.493	33758
693.537	41466
693.580	48633
693.605	53041
693.624	61903
693.667	82614
693.710	103737
693.725	111016
693.753	149923
693.797	210359
693.840	271861
693.845	278680
693.883	288417
693.926	296970
693.966	305598
693.970	300315
694.013	238553
694.056	177023
694.086	134039
694.099	126030
694.142	99917
694.185	73594
694.206	61109
694.229	56668
694.272	47594
694.315	39029
694.326	36511
694.358	33569
694.401	30154
694.444	26609
694.446	26369
694.487	24571
694.530	22436
694.566	20750
694.573	20569
694.616	18941
694.659	17648
694.686	16611
694.702	16419
694.745	15963
694.787	15145
694.806	14911
694.830	14962
694.873	14742
694.916	14683
694.926	14621
694.959	14227
695.002	13584
695.044	13040
695.046	12983
695.087	13080
695.130	12949
695.166	13054
695.172	13079
695.215	12936
695.258	12806
695.286	12560
695.301	12594
695.343	12706
695.386	13039
695.406	13041
695.428	13004
695.471	12689
695.514	12721
695.526	12682
695.556	12754
695.599	12809
695.641	12763
695.646	12741
695.684	12725
695.726	12460
695.766	12163
695.769	12191
695.811	12416
695.854	12246
695.886	12344
695.896	12386
695.938	12285
695.981	12117
696.005	12026
696.023	12007
696.065	11715
696.108	11569
696.125	11483
696.150	11796
696.192	12317
696.235	12843
696.245	12944
696.277	13076
696.319	12933
696.361	13119
696.365	13078
696.404	13820
696.446	14803
696.485	15537
696.488	15542
696.530	15116
696.572	14605
696.604	14266
696.614	14241
696.656	13901
696.698	13546
696.724	13267
696.740	13237
696.783	13080
696.825	12983
696.844	12914
696.867	12775
696.909	12342
696.951	12013
696.964	11834
696.992	11608
697.034	11343
697.076	10964
697.083	10895
697.118	11419
697.160	11868
697.202	12363
697.203	12342
697.244	12026
697.286	11651
697.323	11212
697.327	11262
697.369	11527
697.411	11709
697.442	11830
697.453	11890
697.494	11950
697.536	12109
697.562	12124
697.578	12224
697.620	12481
697.661	12624
697.682	12710
697.703	12703
697.744	12500
697.786	12449
697.801	12352
697.828	12627
697.869	13007
697.911	13391
697.921	13468
697.952	13089
697.994	12427
698.035	11821
698.040	11708
698.077	11534
698.118	11310
698.160	11082
698.160	11045
698.201	11223
698.243	11372
698.279	11486
698.284	11526
698.325	11557
698.367	11587
698.399	11572
698.408	11613
698.449	11665
698.491	11672
698.518	11678
698.532	11772
698.573	11954
698.614	12099
698.638	12142
698.656	12146
698.697	12108
698.738	12041
698.757	11979
698.779	12193
698.820	12526
698.862	12873
698.877	12961
698.903	12981
698.944	12956
698.985	12931
698.996	12889
699.026	12618
699.067	12187
699.116	11642
699.235	11981
699.354	12049
699.474	11895
699.593	13133
699.713	12959
699.832	11851
699.951	12058
700.070	11175
700.190	11258
700.309	12324
700.428	12137
700.547	11663
700.667	11924
700.786	12480
700.905	12364
701.024	12362
701.143	11931
701.262	11621
701.381	11174
701.500	12245
701.619	12422
701.738	11819
701.857	10510
701.976	11385
702.095	11015
702.214	11606
702.333	11022
702.452	11034
702.571	11479
702.690	11024
702.809	10729
702.928	10376
703.047	11414
703.165	10833
703.284	10310
703.403	10553
703.522	10243
703.640	12138
703.759	12953
703.878	14177
703.997	10942
704.115	11002
704.234	10015
704.353	10743
704.471	10783
704.590	10153
704.708	10372
704.827	9970
704.946	10663
705.064	10831
705.183	10635
705.301	11978
705.420	14869
705.538	14885
705.656	13782
705.775	16616
705.893	40356
706.012	60651
706.130	14868
706.249	12904
706.367	12180
706.485	12632
706.604	13790
706.722	12753
706.840	13520
706.958	16867
707.077	13841
707.195	11630
707.313	11791
707.431	11515
707.549	11856
707.668	11489
707.786	12067
707.904	10243
708.022	10816
708.140	10618
708.258	11796
708.376	11427
708.494	11079
708.612	12367
708.730	14802
708.848	14676
708.966	14031
709.084	12802
709.202	13044
709.320	13365
709.438	12432
709.556	12875
709.674	13504
709.791	12756
709.909	12690
710.027	12854
710.145	12322
710.263	12740
710.380	12410
710.498	12593
710.616	12347
710.733	12883
710.851	12303
710.969	12433
711.086	12255
711.204	12599
711.322	12545
711.439	12273
711.557	11580
711.674	12060
711.792	12946
711.909	15074
712.027	19312
712.144	12121
712.262	11623
712.379	12648
712.497	16411
712.614	16586
712.732	14478
712.849	13548
712.966	14054
713.084	15497
713.201	14893
713.318	12951
713.436	14218
713.553	14108
713.670	13918
713.787	14758
713.905	15114
714.022	13372
714.139	12869
714.256	14075
714.373	14503
714.490	16438
714.608	23636
714.725	67399
714.842	88887
714.959	16756
715.076	12964
715.193	12527
715.310	12072
715.427	13317
715.544	11934
715.661	11967
715.778	12081
715.895	13121
716.011	12817
716.128	13111
716.245	12141
716.362	12756
716.479	13368
716.596	12082
716.713	11889
716.829	11749
716.946	12543
717.063	11149
717.180	11487
717.296	11282
717.413	11007
717.530	11582
717.646	11505
717.763	11424
717.880	11562
717.996	10069
718.113	10269
718.229	10379
718.346	10320
718.462	11043
718.579	11166
718.695	15538
718.812	14556
718.928	12645
719.045	10913
719.161	10817
719.277	9493
719.394	9753
719.510	11709
719.626	10536
719.743	11706
719.859	11769
719.975	12020
720.092	22149
720.208	45757
720.324	15159
720.440	11304
720.557	11632
720.673	14227
720.789	16591
720.905	31685
721.021	16986
721.137	10291
721.253	10004
721.369	10225
721.486	10529
721.602	13003
721.718	10673
721.834	9042
721.950	9600
722.066	9086
722.181	8801
722.297	9717
722.413	9406
722.529	9696
722.645	9401
722.761	9590
722.877	9521
722.993	9253
723.108	9577
723.224	9222
723.340	9377
723.456	8945
723.571	9269
723.687	9014
723.803	8837
723.918	9173
724.034	8516
724.150	8665
724.265	9878
724.381	13463
724.497	17667
724.612	9149
724.728	7947
724.843	8291
724.959	9378
725.074	13691
725.190	16864
725.305	9916
725.421	8057
725.536	7804
725.651	7379
725.767	7837
725.882	6984
725.997	7274
726.113	7515
726.228	8863
726.343	8124
726.459	6954
726.574	8334
726.689	7714
726.804	7493
726.920	7377
727.035	7730
727.150	8689
727.265	7180
727.380	7326
727.495	7637
727.610	7614
727.725	9075
727.841	11428
727.956	25612
728.071	23768
728.186	8685
728.301	7274
728.416	7258
728.531	8201
728.645	6702
728.760	6857
728.875	7688
728.990	7607
729.105	7419
729.220	7118
729.335	7291
729.449	6997
729.564	7120
729.679	6524
729.794	6659
729.908	7156
730.023	7354
730.138	6826
730.253	6043
730.367	6889
730.482	6762
730.596	6895
730.711	6565
730.826	8056
730.940	7846
731.055	6594
731.169	7552
731.284	6725
731.398	6639
731.513	7441
731.627	6494
731.742	7202
731.856	8324
731.970	6000
732.085	7056
732.199	6893
732.313	8496
732.428	11034
732.542	19994
732.656	15495
732.771	8149
732.885	7469
732.999	6658
733.113	6888
733.227	6406
733.342	7186
733.456	5837
733.570	5839
733.684	6378
733.798	7371
733.912	6027
734.026	5427
734.140	6471
734.254	6907
734.368	9179
734.482	11744
734.596	6140
734.710	6093
734.824	6158
734.938	6412
735.052	6055
735.166	6827
735.280	6429
735.393	5749
735.507	6575
735.621	7279
735.735	10257
735.849	6846
735.962	6589
736.076	6493
736.190	7142
736.303	7624
736.417	9390
736.531	6637
736.644	6676
736.758	6124
736.872	7170
736.985	5801
737.099	6385
737.212	5616
737.326	5928
737.439	6750
737.553	5936
737.666	6199
737.780	6237
737.893	5946
738.007	5574
738.120	6480
738.233	5864
738.347	5819
738.460	5488
738.573	6390
738.687	6130
738.800	6649
738.913	6179
739.026	6623
739.140	6514
739.253	8590
739.366	6641
739.479	5899
739.592	5061
739.705	5496
739.818	5815
739.932	6107
740.045	6106
740.158	6263
740.271	5901
740.384	6368
740.497	5609
740.610	6769
740.723	6444
740.836	6343
740.949	7536
741.062	7814
741.174	7547
741.287	5541
741.400	5777
741.513	6501
741.626	6091
741.739	6663
741.851	6616
741.964	6347
742.077	6221
742.189	5459
742.302	6584
742.415	6160
742.527	5884
742.640	5538
742.753	6384
742.865	5778
742.978	5976
743.090	6484
743.203	6238
743.316	6458
743.428	6001
743.541	6102
743.653	6466
743.766	6115
743.878	5845
743.990	6564
744.103	7406
744.215	5858
744.327	5931
744.440	6314
744.552	8242
744.664	7131
744.777	6827
744.889	5819
745.001	6373
745.113	5040
745.226	5956
745.338	6592
745.450	6110
745.562	5582
745.674	6752
745.786	5894
745.898	6349
746.010	6414
746.122	6534
746.234	6506
746.347	5769
746.459	6494
746.570	6545
746.682	5993
746.794	6019
746.906	6650
747.018	6044
747.130	5808
747.242	5707
747.354	6463
747.466	6022
747.577	6029
747.689	6595
747.801	6715
747.913	5920
748.024	6204
748.136	6054
748.248	6250
748.359	6377
748.471	6468
748.583	6374
748.694	7983
748.806	10195
748.918	7400
749.029	7123
749.141	6124
749.252	6775
749.364	6793
749.475	8561
749.587	8163
749.698	5643
749.809	6675
749.921	6112
750.032	6514
750.144	6820
750.255	7041
750.366	6175
750.478	6537
750.589	7047
750.700	7038
750.811	6943
750.923	7538
751.034	9220
751.145	10064
751.256	6733
751.367	6358
751.479	7332
751.590	6155
751.701	6847
751.812	6384
751.923	6867
752.034	7068
752.145	7166
752.256	6662
752.367	7261
752.478	7243
752.589	7399
752.700	7531
752.811	7105
752.922	6617
753.032	6894
753.143	7409
753.254	5972
753.365	6959
753.476	7702
753.586	8337
753.697	7643
753.808	7678
753.919	8016
754.029	8060
754.140	8461
754.251	7368
754.361	7270
754.472	7539
754.582	7174
754.693	8403
754.804	8581
754.914	6881
755.025	8197
755.135	8360
755.246	8598
755.356	7522
755.466	9185
755.577	8922
755.687	8383
755.798	9599
755.908	8161
756.018	9363
756.129	8666
756.239	9252
756.349	9031
756.460	9201
756.570	10163
756.680	9068
756.790	10568
756.900	10454
757.011	10180
757.121	9765
757.231	10010
757.341	10265
757.451	10108
757.561	10827
757.671	10775
757.781	9693
757.891	11235
758.001	11028
758.111	12355
758.221	11500
758.331	12617
758.441	12126
758.551	12543
758.661	12987
758.771	12264
758.880	12803
758.990	13169
759.100	12677
759.210	13457
759.320	13503
759.429	13718
759.539	13973
759.649	14688
759.758	14401
759.868	14463
759.978	15611
760.087	16878
760.197	15731
760.307	16708
760.416	16755
760.526	16142
760.635	17591
760.745	17239
760.854	18243
760.964	19229
761.073	19254
761.182	19130
761.292	19848
761.401	21484
761.511	21277
761.620	22528
761.729	22898
761.839	23395
761.948	25458
762.057	25479
762.166	26571
762.276	25942
762.385	27583
762.494	28929
762.603	29528
762.712	31479
762.822	32903
762.931	34021
763.040	34163
763.149	37040
763.258	38511
763.367	40832
763.476	42843
763.585	44699
763.694	47999
763.803	51798
763.912	54307
764.021	58002
764.130	60864
764.238	66842
764.347	71244
764.456	75065
764.565	82178
764.674	89050
764.783	98060
764.891	108174
765.000	120678
765.109	135972
765.217	154214
765.326	177821
765.435	205392
765.543	243225
765.652	290580
765.761	351217
765.869	432959
765.978	537146
766.086	657953
766.195	766283
766.303	765330
766.412	526267
766.520	481524
766.629	718737
766.737	773230
766.846	678407
766.954	552080
767.062	444340
767.171	358273
767.279	287688
767.387	234134
767.496	197010
767.604	171368
767.712	150041
767.820	132700
767.928	122785
768.037	112763
768.145	105185
768.253	102910
768.361	98300
768.469	98358
768.577	100156
768.685	104238
768.793	110208
768.901	124039
769.009	140755
769.117	166939
769.225	205903
769.333	263177
769.441	356104
769.549	493530
769.657	666288
769.765	711016
769.873	489095
769.981	626882
770.088	682311
770.196	537812
770.304	404905
770.412	307284
770.519	245117
770.627	197709
770.735	163943
770.842	138103
770.950	119252
771.058	102954
771.165	93656
771.273	83057
771.380	75067
771.488	69441
771.595	63698
771.703	57588
771.810	53085
771.918	50857
772.025	47325
772.133	43730
772.240	41043
772.348	39132
772.455	37543
772.562	34883
772.670	32801
772.777	32383
772.884	30747
772.991	29718
773.099	28651
773.206	27326
773.313	26543
773.420	24561
773.528	23749
773.635	22621
773.742	22883
773.849	21407
773.956	20639
774.063	21155
774.170	19996
774.277	20209
774.384	18419
774.491	18077
774.598	18188
774.705	17587
774.812	17235
774.919	16390
775.026	16493
775.133	15422
775.239	15550
775.346	15169
775.453	14636
775.560	14613
775.667	14563
775.773	14104
775.880	14587
775.987	12588
776.093	13036
776.200	12130
776.307	12064
776.413	12188
776.520	12627
776.627	11790
776.733	11128
776.840	10705
776.946	11463
777.053	10772
777.159	11288
777.266	9624
777.372	11716
777.478	10485
777.585	9906
777.691	9554
777.798	10380
777.904	9803
778.010	12290
778.117	11150
778.223	9358
778.329	8861
778.435	8576
778.542	8901
778.648	8766
778.754	9118
778.860	8403
778.966	8578
779.072	8486
779.178	8272
779.284	9343
779.391	9124
779.497	10113
779.603	15081
779.708	22132
779.815	45851
779.920	137962
780.026	281824
780.132	86687
780.238	21817
780.344	14064
780.450	12234
780.556	10015
780.661	8335
780.767	7452
780.873	8013
780.979	7075
781.085	6084
781.190	6868
781.296	5904
781.402	6414
781.507	5559
781.613	5631
781.719	5752
781.824	5807
781.930	5862
782.035	5330
782.141	5476
782.246	5083
782.352	5894
782.457	4970
782.563	4761
782.668	5366
782.773	5697
782.879	5142
782.984	5277
783.090	6086
783.195	5826
783.300	5826
783.405	5004
783.511	4637
783.616	4949
783.721	4942
783.826	4437
783.932	4721
784.037	4864
784.142	4486
784.247	5095
784.352	4756
784.457	4937
784.562	4809
784.667	4470
784.772	4030
784.877	3750
784.982	3980
785.087	4243
785.192	5047
785.297	3821
785.402	3265
785.507	3698
785.611	4045
785.716	3830
785.821	4191
785.926	3465
786.031	3936
786.135	4560
786.240	3838
786.345	2358
786.450	4023
786.554	3208
786.659	3582
786.763	2875
786.868	3552
786.973	3740
787.077	3885
787.182	3771
787.286	3164
787.391	4201
787.495	2967
787.600	3581
787.704	2536
787.809	3239
787.913	3286
788.017	3453
788.122	3089
788.226	3078
788.330	3432
788.435	3459
788.539	2051
788.643	2272
788.747	3679
788.852	2900
788.956	3016
789.060	3328
789.164	3402
789.268	1908
789.372	3390
789.476	2923
789.580	2322
789.684	1996
789.788	3636
789.892	2691
789.996	3433
790.100	2626
790.204	2989
790.308	3555
790.412	3050
790.516	3998
790.620	3941
790.724	3852
790.828	2853
790.931	2888
791.035	4592
791.139	2851
791.242	2972
791.346	3773
791.450	2382
791.554	2286
791.657	2174
791.761	3447
791.864	3002
791.968	2692
792.072	2631
792.175	2855
792.279	2855
792.382	3076
792.486	2698
792.589	2424
792.693	2450
792.796	2427
792.899	2428
793.003	2990
793.106	1673
793.209	2325
793.313	3262
793.416	1874
793.519	3708
793.623	3333
793.726	3803
793.829	2874
793.932	2909
794.035	2321
794.138	3756
794.242	4094
794.345	6382
794.448	10661
794.551	23603
794.654	77045
794.757	178751
794.860	53151
794.963	10732
795.066	5017
795.169	4588
795.272	3094
795.375	3236
795.477	2721
795.580	2738
795.683	1205
795.786	2381
795.889	2187
795.991	2325
796.094	2122
796.197	1722
796.300	3070
796.402	1960
796.505	1399
796.608	1783
796.710	2747
796.813	1197
796.915	1093
797.018	1698
797.120	1936
797.223	1653
797.326	2692
797.428	2065
797.530	1686
797.633	2257
797.735	2135
797.838	3124
797.940	3107
798.042	1122
798.145	1779
798.247	1814
798.349	1539
798.452	2605
798.554	1491
798.656	270
798.758	2225
798.860	2005
798.962	923
799.065	1480
799.167	636
799.269	2303
799.371	1963
799.473	2592
799.575	1362
799.677	1879
799.779	2019
799.881	1713
799.983	2616
800.085	1624
800.187	1262
800.289	1025
800.390	1467
800.492	2387
800.594	2817
800.696	1032
800.798	1445
800.899	957
801.001	1554
801.103	1422
801.205	1467
801.306	1437
801.408	187
801.509	1548
801.611	559
801.713	2320
801.814	1655
801.916	964
802.017	1933
802.119	1047
802.220	1933
802.322	595
802.423	1713
802.525	1059
802.626	1375
802.727	913
802.829	1832
802.930	-179
803.031	2944
803.133	800
803.234	1574
803.335	1123
803.436	-326
803.538	1041
803.639	187
803.740	1019
803.841	406
803.942	1649
804.043	1871
804.144	881
804.245	919
804.346	554
804.447	993
804.548	1496
804.649	2672
804.750	1314
804.851	772
804.952	276
805.053	1325
805.154	858
805.255	1443
805.355	696
805.456	537
805.557	957
805.658	476
805.758	1511
805.859	1042
805.960	731
806.061	223
806.161	1352
806.262	1168
806.362	743
806.463	1882
806.564	545
806.664	836
806.765	1599
806.865	2082
806.966	1895
807.066	544
807.166	1476
807.267	765
807.367	756
807.468	1419
807.568	555
807.668	1511
807.769	1342
807.869	1068
807.969	1350
808.069	591
808.170	1071
808.270	622
808.370	1278
808.470	1027
808.570	686
808.670	634
808.770	1041
808.870	699
808.970	1111
809.070	1175
809.170	1047
809.271	1753
809.370	918
809.470	1014
809.570	756
809.670	1371
809.770	854
809.870	353
809.970	1585
810.070	459
810.169	981
810.269	-943
810.369	1247
810.469	908
810.568	-69
810.668	368
810.768	886
810.867	918
810.967	1030
811.066	905
811.166	271
811.265	1318
811.365	342
811.464	404
811.564	203
811.663	675
811.763	329
811.862	1411
811.962	718
812.061	805
812.160	542
812.260	1617
812.359	1778
812.458	2616
812.557	4892
812.657	10297
812.756	4858
812.855	1317
812.954	1728
813.053	1303
813.153	1324
813.252	113
813.351	1593
813.450	682
813.549	883
813.648	737
813.747	975
813.846	1233
813.945	57
814.044	566
814.143	813
814.242	2068
814.341	13
814.439	1755
814.538	1603
814.637	874
814.736	1441
814.835	1691
814.933	802
815.032	717
815.131	1139
815.229	1503
815.328	1369
815.427	627
815.525	1544
815.624	676
815.722	1278
815.821	1052
815.919	1497
816.018	524
816.116	2266
816.215	1459
816.313	1880
816.412	1571
816.510	1379
816.609	2818
816.707	2547
816.805	2667
816.904	1796
817.002	3270
817.100	3682
817.198	3458
817.296	3614
817.395	3969
817.493	5242
817.591	6636
817.689	8973
817.787	11641
817.885	17607
817.983	29514
818.081	57781
818.179	124244
818.277	276876
818.375	324408
818.473	139126
818.571	58335
818.669	33686
818.767	26606
818.865	25008
818.963	28084
819.061	38168
819.158	60331
819.256	110473
819.354	220950
819.452	422606
819.549	390681
819.647	180266
819.745	81790
819.842	45638
819.940	30259
820.038	21063
820.135	15933
820.233	12900
820.330	9637
820.428	7492
820.525	7557
820.623	6742
820.720	4871
820.818	5218
820.915	4636
821.012	4745
821.110	3156
821.207	3782
821.304	2573
821.402	3197
821.499	2530
821.596	2543
821.693	2780
821.791	2952
821.888	2632
821.985	3845
822.082	3385
822.179	1905
822.276	905
822.373	1489
822.470	2148
822.567	811
822.664	1119
822.761	2405
822.858	817
822.955	963
823.052	1986
823.149	1098
823.246	784
823.343	1330
823.440	1712
823.536	1235
823.633	430
823.730	388
823.827	857
823.923	788
824.020	1661
824.117	187
824.213	235
824.310	1181
824.407	128
824.503	1368
824.600	727
824.696	780
824.793	1456
824.889	127
824.986	710
825.082	1022
825.179	997
825.275	807
825.371	49
825.468	926
825.564	-204
825.660	745
825.757	-398
825.853	1180
825.949	528
826.045	714
826.142	-725
826.238	684
826.334	429
826.430	-24
826.526	1523
826.622	41
826.718	378
826.814	-296
826.910	1734
827.006	344
827.102	528
827.198	878
827.294	532
827.390	209
827.486	1175
827.582	-361
827.678	-111
827.774	962
827.869	-628
827.965	1518
828.061	165
828.157	-540
828.252	459
828.348	-648
828.444	409
828.539	-183
828.635	-111
828.731	486
828.826	50
828.922	461
829.017	-111
829.113	604
829.208	222
829.304	44
829.399	1340
829.495	-631
829.590	413
829.685	-495
829.781	484
829.876	129
829.971	223
830.066	223
830.162	185
830.257	126
830.352	93
830.447	993
830.543	75
830.638	-556
830.733	891
830.828	119
830.923	11
831.018	728
831.113	335
831.208	62
831.303	-689
831.398	517
831.493	-8
831.588	551
831.683	-725
831.778	-285
831.873	169
831.967	554
832.062	-126
832.157	-445
832.252	1208
832.346	-429
832.441	704
832.536	1144
832.631	2299
832.725	2371
832.820	84
832.914	-176
833.009	-523
833.104	-143
833.198	626
833.293	-251
833.387	-85
833.482	-224
833.576	-1200
833.670	580
833.765	-622
833.859	-859
833.954	-298
834.048	213
834.142	-11
834.237	-908
834.331	314
834.425	-617
834.519	7
834.613	180
834.708	-826
834.802	-7
834.896	316
834.990	-613
835.084	150
835.178	-151
835.272	412
835.366	152
835.460	-414
835.554	-824
835.648	441
835.742	209
835.836	-292
835.930	-517
836.024	-102
836.117	425
836.211	446
836.305	980
836.399	885
836.493	-754
836.586	501
836.680	-106
836.774	247
836.867	1468
836.961	-348
837.055	-505
837.148	61
837.242	-21
837.335	-1035
837.429	150
837.522	-1017
837.616	16
837.709	999
837.803	699
837.896	368
837.989	560
838.083	617
838.176	1657
838.269	1323
838.363	500
838.456	-200
838.549	176
838.642	1373
838.735	2589
838.829	1329
838.922	-71
839.015	-64
839.108	-628
839.201	107
839.294	-135
839.387	190
839.480	-1029
839.573	656
839.666	189
839.759	-807
839.852	-510
839.945	368
840.038	-137
840.131	-744
840.223	-735
840.316	41
840.409	-95
840.502	-267
840.594	609
840.687	-165
840.780	1095
840.873	-917
840.965	414
841.058	375
841.150	1773
841.243	700
841.336	655
841.428	-710
841.521	-440
841.613	-701
841.706	261
841.798	-856
841.890	60
841.983	-1415
842.075	484
842.167	470
842.260	267
842.352	804
842.444	827
842.537	1174
842.629	2506
842.721	610
842.813	370
842.905	-900
842.997	355
843.090	-142
843.182	88
843.274	446
843.366	4116
843.458	7817
843.550	6550
843.642	1122
843.734	-185
843.826	104
843.918	421
844.009	412
844.101	-172
844.193	-172
844.285	-740
844.377	-446
844.469	-227
844.560	-379
844.652	-858
844.744	23
844.835	170
844.927	186
845.019	143
845.110	-296
845.202	-438
845.293	103
845.385	-278
845.476	191
845.568	66
845.659	-80
845.751	668
845.842	-560
845.934	-545
846.025	-537
846.116	24
846.208	-23
846.299	-636
846.390	840
846.482	159
846.573	-155
846.664	794
846.755	110
846.846	857
846.937	-1252
847.029	44
847.120	-234
847.211	-800
847.302	196
847.393	-804
847.484	501
847.575	-1063
847.666	-388
847.757	-347
847.847	-276
847.938	601
848.029	249
848.120	-942
848.211	-508
848.302	-339
848.392	-86
848.483	472
848.574	-567
848.664	-414
848.755	-537
848.846	528
848.936	-1382
849.027	398
849.118	-109
849.208	14
849.299	-146
849.389	-38
849.480	419
849.570	783
849.661	1986
849.751	2574
849.841	1121
849.932	-351
850.022	-772
850.112	552
850.203	-497
850.293	-360
850.383	-386
850.474	-380
850.564	-38
850.654	196
850.744	-229
850.834	189
850.924	-322
851.014	269
851.104	-39
851.194	-892
851.284	432
851.374	165
851.464	181
851.554	-767
851.644	626
851.734	1667
851.824	2802
851.914	5327
852.004	12768
852.094	16153
852.183	3760
852.273	640
852.363	-344
852.452	239
852.542	138
852.632	152
852.721	-9
852.811	-601
852.901	-568
852.990	-308
853.080	-74
853.169	-236
853.259	137
853.348	-1118
853.438	-19
853.527	331
853.617	-815
853.706	754
853.795	571
853.885	2097
853.974	5849
854.063	10717
854.152	19657
854.242	8782
854.331	29
854.420	-705
854.509	-152
854.598	-290
854.687	140
854.777	-135
854.866	-656
854.955	257
855.044	-1009
855.133	-1232
855.222	-593
855.311	-670
855.400	-611
855.488	-394
855.577	-1311
855.666	339
855.755	694
855.844	1526
855.933	817
856.021	616
856.110	126
856.199	-921
856.288	-460
856.376	-696
856.465	-690
856.554	-821
856.642	73
856.731	-261
856.819	478
856.908	-941
856.996	-136
857.085	-534
857.173	-604
857.262	-273
857.350	-369
857.438	-1319
857.527	-289
857.615	-514
857.703	58
857.792	-659
857.880	-560
857.968	-1668
858.056	-842
858.145	-662
858.233	-1290
858.321	-436
858.409	101
858.497	-521
858.585	-945
858.673	111
858.761	-423
858.849	-350
858.937	-565
859.025	-744
859.113	45
859.201	-853
859.289	-481
859.377	-829
859.465	-764
859.552	147
859.640	-659
859.728	-122
859.816	-158
859.903	-614
859.991	-595
860.079	-410
860.166	-660
860.254	-362
860.342	-87
860.429	-235
860.517	-1073
860.604	-40
860.692	154
860.779	-741
860.867	-844
860.954	-191
861.042	-709
861.129	-244
861.216	-395
861.304	-364
861.391	-247
861.478	-824
861.565	-124
861.653	138
861.740	-933
861.827	-1115
861.914	-199
862.001	-780
862.089	-538
862.176	-981
862.263	-687
862.350	-63
862.437	-703
862.524	-241
862.611	-491
862.698	-644
862.785	-1218
862.871	-451
862.958	-316
863.045	-1432
863.132	-278
863.219	-691
863.306	-981
863.392	-777
863.479	-1690
863.566	-185
863.652	-433
863.739	-861
863.826	529
863.912	-811
863.999	-1087
864.086	-1456
864.172	-1125
864.259	-1149
864.345	-1096
864.432	-372
864.518	-622
864.604	277
864.691	-249
864.777	-934
864.863	-378
864.950	-274
865.036	-1237
865.122	167
865.209	29
865.295	11
865.381	-755
865.467	-744
865.553	-594
865.639	-965
865.726	-768
865.812	470
865.898	2596
865.984	3431
866.070	6852
866.156	9450
866.242	2278
866.328	-17
866.414	-527
866.499	-527
866.585	-487
866.671	-916
866.757	-541
866.843	-549
866.928	-151
867.014	-775
867.100	-339
867.186	-810
867.271	-584
867.357	-253
867.442	83
867.528	-654
867.614	-604
867.699	-722
867.785	-371
867.870	-743
867.956	-542
868.041	-176
868.127	-739
868.212	-299
868.297	-1
868.383	-799
868.468	-356
868.553	351
868.639	1284
868.724	1406
868.809	2367
868.894	422
868.979	-1336
869.065	-63
869.150	-851
869.235	-934
869.320	-771
869.405	-668
869.490	-493
869.575	-1265
869.660	-1159
869.745	-777
869.830	-604
869.915	-557
870.000	-1162
870.085	-997
870.169	-233
870.254	-844
870.339	-879
870.424	-978
870.509	-545
870.593	-1076
870.678	-974
870.763	-428
870.847	-1050
870.932	-1210
871.016	-667
871.101	-702
871.186	-560
871.270	-257
871.355	-549
871.439	-852
871.523	-1319
871.608	-1338
871.692	-173
871.777	-1028
871.861	-247
871.945	-1349
872.030	-624
872.114	-178
872.198	-720
872.282	-1369
872.367	-741
872.451	-717
872.535	-562
872.619	-1009
872.703	-942
872.787	-782
872.871	-815
872.955	-214
873.039	-1524
873.123	-864
873.207	59
873.291	-1608
873.375	-1286
873.459	-1329
873.543	-899
873.627	-935
873.711	-579
873.794	-1078
873.878	-1718
873.962	-1003
874.045	-815
874.129	-587
874.137	-595
874.213	-680
874.245	-795
874.296	-979
874.352	-609
874.380	-435
874.460	-358
874.464	-354
874.547	-472
874.568	-479
874.631	-531
874.676	-686
874.714	-794
874.784	-356
874.798	-279
874.881	232
874.892	55
874.965	-1103
874.999	-778
875.048	-390
875.107	-1103
875.131	-1381
875.215	-24
875.215	-25
875.298	-878
875.323	-928
875.381	-1067
875.430	-859
875.465	-718
875.538	-1235
875.548	-1301
875.631	-887
875.646	-861
875.714	-783
875.753	-1009
875.798	-1246
875.861	-806
875.881	-651
875.964	-833
875.968	-812
876.047	-578
876.076	-485
876.130	-237
876.183	-395
876.213	-529
876.291	-145
876.296	-116
876.379	-438
876.398	-377
876.462	-84
876.506	-287
876.545	-561
876.613	-377
876.628	-320
876.711	-724
876.721	-682
876.794	-272
876.828	-309
876.877	-517
876.935	-472
876.960	-399
877.043	-181
877.043	-181
877.125	-73
877.150	120
877.208	466
877.258	-34
877.291	-325
877.365	-641
877.374	-674
877.456	-536
877.472	-249
877.539	910
877.579	300
877.622	-401
877.687	-67
877.704	47
877.787	-235
877.794	-264
877.869	-574
877.901	-396
877.952	-92
878.008	-153
878.034	-197
878.115	-472
878.117	-477
878.199	-613
878.222	-449
878.282	-64
878.329	-46
878.364	64
878.437	341
878.447	318
878.529	-779
878.544	-735
878.611	-102
878.651	-80
878.694	-117
878.758	-2
878.776	54
878.858	-180
878.865	-163
878.941	-466
878.972	-744
879.023	-969
879.078	-366
879.105	10
879.185	-128
879.187	-134
879.269	-621
879.292	-434
879.351	-190
879.399	-493
879.433	-444
879.506	258
879.516	298
879.598	-640
879.613	-629
879.680	-615
879.720	-492
879.762	-164
879.827	158
879.844	202
879.926	-55
879.933	-105
880.007	-627
880.040	-519
880.089	-302
880.147	-269
880.171	-239
880.253	542
880.254	544
880.335	679
880.360	612
880.417	897
880.467	1846
880.499	2295
880.574	2841
880.580	2878
880.662	1391
880.680	1068
880.744	-255
880.787	-396
880.825	-450
880.893	-830
880.907	-824
880.989	-310
881.000	-294
881.070	-458
881.106	-421
881.152	-321
881.213	-290
881.233	-296
881.315	72
881.319	79
881.396	554
881.426	461
881.478	-200
881.532	-426
881.559	-312
881.639	217
881.641	225
881.722	-50
881.745	-8
881.803	308
881.852	243
881.885	20
881.958	311
881.966	380
882.047	196
882.064	226
882.129	289
882.171	476
882.210	467
882.277	509
882.291	604
882.372	-100
882.383	-42
882.454	221
882.489	163
882.535	26
882.596	-156
882.616	-170
882.697	-369
882.702	-356
882.778	-397
882.808	-522
882.859	-340
882.914	4
882.940	27
883.020	-453
883.021	-450
883.102	94
883.127	213
883.183	89
883.233	-374
883.264	-360
883.339	357
883.345	371
883.426	-46
883.445	-135
883.507	53
883.551	234
883.587	239
883.657	452
883.668	473
883.749	266
883.763	241
883.830	223
883.869	135
883.910	145
883.975	401
883.991	350
884.072	88
884.081	40
884.152	103
884.187	83
884.233	144
884.292	142
884.314	17
884.394	-141
884.398	-159
884.475	-358
884.504	-387
884.555	79
884.610	308
884.636	24
884.716	-502
884.716	-494
884.797	374
884.821	696
884.877	254
884.927	-455
884.958	-425
885.033	268
885.038	278
885.118	-181
885.139	-237
885.199	-149
885.244	47
885.279	98
885.350	48
885.359	100
885.439	336
885.456	352
885.520	-50
885.561	43
885.600	372
885.667	365
885.680	277
885.760	-4
885.773	-47
885.840	73
885.878	160
885.920	244
885.984	36
886.000	-35
886.080	212
886.089	215
886.160	217
886.195	73
886.240	438
886.300	1193
886.320	903
886.400	-443
886.406	-534
886.480	130
886.511	392
886.560	430
886.616	522
886.640	503
886.720	291
886.722	290
886.800	577
886.827	528
886.879	441
886.932	431
886.959	522
887.038	725
887.039	733
887.119	968
887.143	980
887.198	1006
887.248	1138
887.278	1171
887.354	1144
887.358	1146
887.437	1097
887.459	1045
887.517	891
887.564	749
887.596	691
887.669	653
887.676	654
887.755	627
887.774	577
887.835	413
887.880	334
887.914	351
887.985	376
887.994	406
888.073	606
888.090	669
888.153	733
888.195	716
888.232	746
888.300	848
888.311	907
888.391	1202
888.405	1250
888.470	930
888.510	761
888.549	706
888.615	602
888.628	538
888.708	158
888.720	86
888.787	864
888.825	1327
888.866	1071
888.930	643
888.945	746
889.024	1306
889.035	1375
889.103	721
889.140	349
889.182	460
889.245	663
889.261	659
889.340	598
889.349	588
889.419	545
889.454	538
889.498	513
889.559	484
889.577	522
889.656	671
889.664	687
889.735	980
889.768	1116
889.814	1015
889.873	876
889.978	497
890.083	863
890.187	744
890.292	551
890.397	413
890.501	890
890.606	-208
890.710	1195
890.815	660
890.919	1107
891.024	638
891.128	912
891.233	328
891.337	766
891.442	869
891.546	795
891.650	710
891.755	1197
891.859	762
891.963	518
892.068	640
892.172	58
892.276	1068
892.380	1549
892.484	315
892.589	820
892.693	19
892.797	206
892.901	904
893.005	198
893.109	-171
893.213	1189
893.317	212
893.421	108
893.525	96
893.629	714
893.733	258
893.837	911
893.941	321
894.045	1960
894.148	2934
894.252	10034
894.356	7396
894.460	1552
894.564	17
894.667	191
894.771	72
894.875	892
894.978	147
895.082	787
895.186	85
895.289	1265
895.393	446
895.496	1191
895.600	71
895.703	171
895.807	-38
895.910	1012
896.014	967
896.117	241
896.221	546
896.324	-228
896.427	508
896.531	757
896.634	381
896.737	700
896.840	542
896.944	1283
897.047	157
897.150	313
897.253	479
897.356	463
897.460	86
897.563	458
897.666	-14
897.769	-268
897.872	255
897.975	923
898.078	28
898.181	737
898.284	559
898.387	63
898.490	557
898.593	461
898.695	-244
898.798	-15
898.901	918
899.004	1014
899.107	-382
899.209	280
899.312	38
899.415	211
899.518	11
899.620	602
899.723	-224
899.826	759
899.928	396
900.031	-256
900.133	388
900.236	477
900.338	-137
900.441	574
900.543	23
900.646	723
900.748	-575
900.851	622
900.953	-170
901.055	2
901.158	-876
901.260	982
901.362	-174
901.465	1498
901.567	381
901.669	355
901.771	-132
901.873	572
901.976	-316
902.078	-698
902.180	529
902.282	48
902.384	4
902.486	511
902.588	-42
902.690	714
902.792	427
902.894	936
902.996	178
903.098	-171
903.200	-72
903.302	-103
903.404	-229
903.505	254
903.607	289
903.709	244
903.811	86
903.913	-311
904.014	467
904.116	683
904.218	202
904.319	280
904.421	584
904.523	112
904.624	-225
904.726	-64
904.827	885
904.929	242
905.030	-563
905.132	1060
905.233	107
905.335	382
905.436	-107
905.537	403
905.639	625
905.740	478
905.841	153
905.943	279
906.044	505
906.145	-120
906.247	-30
906.348	827
906.449	-386
906.550	-71
906.651	158
906.752	-360
906.854	-2
906.955	-228
907.056	-428
907.157	371
907.258	-278
907.359	13
907.460	-152
907.561	811
907.662	-788
907.762	756
907.863	88
907.964	-137
908.065	159
908.166	806
908.267	230
908.367	49
908.468	-466
908.569	222
908.670	323
908.770	693
908.871	-414
908.971	936
909.072	-968
909.173	164
909.273	-113
909.374	629
909.474	-615
909.575	305
909.675	-412
909.776	633
909.876	-530
909.977	-150
910.077	34
910.177	353
910.278	450
910.378	-206
910.478	-802
910.579	-562
910.679	5
910.779	-346
910.879	51
910.980	365
911.080	203
911.180	233
911.280	-128
911.380	-64
911.480	-252
911.580	519
911.680	-514
911.780	330
911.880	44
911.980	446
912.080	-452
912.180	114
912.280	-110
912.380	359
912.480	195
912.580	20
912.679	-818
912.779	760
912.879	170
912.979	-308
913.078	-178
913.178	182
913.278	-558
913.377	256
913.477	-420
913.577	-495
913.676	704
913.776	169
913.875	-343
913.975	736
914.074	-276
914.174	468
914.273	47
914.373	858
914.472	-257
914.572	187
914.671	-92
914.770	-424
914.870	394
914.969	45
915.068	-381
915.167	764
915.267	233
915.366	820
915.465	-321
915.564	536
915.663	301
915.763	753
915.862	-675
915.961	263
916.060	449
916.159	216
916.258	-852
916.357	-245
916.456	220
916.555	258
916.654	-370
916.752	-478
916.851	11
916.950	489
917.049	-710
917.148	217
917.247	-16
917.345	564
917.444	-801
917.543	329
917.642	210
917.740	159
917.839	-912
917.937	-378
918.036	-12
918.135	768
918.233	437
918.332	-111
918.430	-28
918.529	206
918.627	-549
918.726	-454
918.824	488
918.923	62
919.021	-1358
919.119	85
919.218	-99
919.316	-306
919.414	12
919.512	-166
919.611	181
919.709	-287
919.807	-669
919.905	690
920.003	240
920.102	476
920.200	-14
920.298	-262
920.396	-112
920.494	-497
920.592	15
920.690	501
920.788	-479
920.886	166
920.984	29
921.082	-57
921.180	-309
921.277	179
921.375	24
921.473	36
921.571	46
921.669	185
921.766	-144
921.864	-47
921.962	450
922.060	-361
922.157	442
922.255	-189
922.352	577
922.450	-292
922.548	-121
922.645	-417
922.743	338
922.840	529
922.938	123
923.035	89
923.133	-657
923.230	-218
923.327	-122
923.425	556
923.522	604
923.619	585
923.717	-646
923.814	221
923.911	49
924.008	91
924.106	-542
924.203	113
924.300	-182
924.397	151
924.494	175
924.591	490
924.688	365
924.786	156
924.883	-395
924.979	554
925.077	63
925.173	-119
925.270	-77
925.367	-331
925.464	324
925.561	207
925.658	275
925.755	-179
925.852	-133
925.948	427
926.045	-181
926.142	1179
926.239	-218
926.335	412
926.432	224
926.529	-137
926.625	73
926.722	44
926.818	-263
926.915	473
927.011	-736
927.108	-255
927.204	288
927.301	548
927.397	-2
927.494	-214
927.590	-112
927.687	898
927.783	-307
927.879	-325
927.976	-375
928.072	470
928.168	121
928.264	-32
928.361	-336
928.457	385
928.553	-556
928.649	-29
928.745	1008
928.841	1084
928.937	199
929.033	-82
929.129	-495
929.225	-406
929.321	-270
929.417	-84
929.513	-294
929.609	-498
929.705	169
929.801	-834
929.897	54
929.993	-461
930.089	-508
930.184	-487
930.280	179
930.376	385
930.471	-277
930.567	858
930.663	-579
930.758	761
930.854	-852
930.950	258
931.045	-23
931.141	622
931.236	-120
931.332	633
931.427	-279
931.523	-95
931.618	-75
931.714	-456
931.809	64
931.905	1096
932.000	707
932.095	-740
932.191	-247
932.286	-37
932.381	-781
932.476	-93
932.572	-1
932.667	503
932.762	-1179
932.857	318
932.952	-403
933.047	-471
933.142	-145
933.237	292
933.332	-369
933.427	-652
933.522	-774
933.617	-737
933.712	-207
933.807	-31
933.902	-98
933.997	-157
934.092	-644
934.187	-324
934.282	-332
934.376	-352
934.471	-26
934.566	-384
934.661	-309
934.755	-64
934.850	-487
934.945	151
935.039	-611
935.134	208
935.228	-324
935.323	-363
935.417	-833
935.512	-143
935.606	-421
935.701	-88
935.795	-352
935.890	-321
935.984	-378
936.079	100
936.173	0
936.267	288
936.362	-1322
936.456	114
936.550	85
936.644	156
936.738	-388
936.833	-584
936.927	-144
937.021	-488
937.115	-744
937.209	-691
937.303	-358
937.397	-756
937.491	-350
937.585	-935
937.679	-449
937.773	-879
937.867	-1288
937.961	-1210
938.055	-279
938.149	158
938.243	-220
938.337	-158
938.430	239
938.524	-734
938.618	-462
938.712	442
938.805	239
938.899	-489
938.993	727
939.086	-328
939.180	-949
939.274	-21
939.367	-953
939.461	-222
939.554	-806
939.648	217
939.741	-352
939.835	-273
939.928	-68
940.022	-323
940.115	-683
940.208	-84
940.302	415
940.395	-855
940.488	-990
940.582	-314
940.675	-699
940.768	-107
940.861	-632
940.954	-227
941.048	-712
941.141	-191
941.234	-425
941.327	-1134
941.420	-960
941.513	-173
941.606	-1134
941.699	394
941.792	-617
941.885	-271
941.978	-654
942.071	-85
942.164	-769
942.257	-176
942.349	-797
942.442	-1148
942.535	-1959
942.628	-83
942.721	-147
942.813	-605
942.906	-965
942.999	-892
943.091	-718
943.184	-321
943.277	-207
943.369	-556
943.462	-188
943.554	-502
943.647	-729
943.739	-476
943.832	-781
943.924	-773
944.017	-855
944.109	-836
944.201	-1053
944.294	-356
944.386	-743
944.478	-165
944.571	-1382
944.663	-126
944.755	-276
944.847	-172
944.940	-743
945.032	-1395
945.124	-498
945.216	-164
945.308	-114
945.400	-626
945.492	-182
945.584	-855
945.676	-678
945.768	-818
945.860	-280
945.952	-944
946.044	-344
946.136	-845
946.228	-585
946.320	-421
946.412	-820
946.503	-194
946.595	-497
946.687	-1447
946.779	-1186
946.870	-292
946.962	-562
947.054	-657
947.145	-73
947.237	-405
947.329	-86
947.420	-652
947.512	-1633
947.603	-517
947.695	-443
947.786	-696
947.878	-1520
947.969	-394
948.061	-1207
948.152	-869
948.243	-1170
948.335	-879
948.426	-1022
948.517	-365
948.609	-847
948.700	-425
948.791	-949
948.882	-581
948.973	-880
949.065	-695
949.156	-282
949.247	-1291
949.338	-652
949.429	-1157
949.520	-537
949.611	-545
949.702	-584
949.793	-237
949.884	-844
949.975	-323
950.066	-688
950.157	-1635
950.247	-653
950.338	-594
950.429	-658
950.520	-685
950.611	-517
950.701	-11
950.792	-725
950.883	250
950.973	-48
951.064	-526
951.155	-1210
951.245	-27
951.336	-1832
951.427	-821
951.517	-55
951.608	-907
951.698	-1148
951.788	14
951.879	-1086
951.969	-707
952.060	-444
952.150	-921
952.240	-617
952.331	-1660
952.421	-54
952.511	-1272
952.602	-706
952.692	-1047
952.782	-1133
952.872	-685
952.962	-780
953.052	-953
953.143	-181
953.233	-163
953.323	-37
953.413	-991
953.503	-1939
953.593	-599
953.683	-196
953.773	-667
953.863	-1182
953.953	-385
954.042	-275
954.132	-1375
954.222	-299
954.312	-766
954.402	-582
954.492	-883
954.581	-1049
954.671	-285
954.761	-498
954.850	-659
954.940	-1304
955.030	-750
955.119	-925
955.209	-133
955.298	-869
955.388	18
955.477	-273
955.567	-616
955.656	-262
955.746	-418
955.835	-930
955.925	-1229
956.014	-435
956.103	-187
956.193	-1113
956.282	-795
956.371	-136
956.461	-724
956.550	-430
956.639	-843
956.728	-322
956.817	-572
956.906	-408
956.995	8
957.085	-1165
957.174	55
957.263	-354
957.352	73
957.441	-463
957.530	-335
957.619	197
957.708	31
957.796	-997
957.885	-139
957.974	-922
958.063	161
958.152	-873
958.241	580
958.329	-350
958.418	75
958.507	-1046
958.596	81
958.684	1
958.773	628
958.861	228
958.950	30
959.039	618
959.127	525
959.216	33
959.304	452
959.393	213
959.481	917
959.570	475
959.658	360
959.746	-61
959.835	62
959.923	1698
960.011	802
960.100	409
960.188	-68
960.276	-240
960.365	406
960.453	-91
960.541	-219
960.629	-613
960.717	-826
960.805	-172
960.893	-57
960.981	-1377
961.069	-465
961.158	-394
961.245	284
961.333	-491
961.421	-478
961.509	164
961.597	409
961.685	-569
961.773	-43
961.861	-973
961.949	-347
962.036	-810
962.124	-252
962.212	-525
962.299	-997
962.387	-1384
962.475	7
962.562	-864
962.650	-153
962.738	-748
962.825	-34
962.913	-330
963.000	-31
963.088	-1242
963.175	-79
963.263	-423
963.350	-184
963.438	-605
963.525	-404
963.612	-352
963.700	-263
963.787	987
963.874	374
963.962	-384
964.049	-993
964.136	-565
964.223	-183
964.310	-727
964.398	-456
964.485	-1082
964.572	-53
964.659	-468
964.746	-522
964.833	-298
964.920	-643
965.007	-199
965.094	-459
965.181	-895
965.268	-822
965.355	-1529
965.441	-581
965.528	-1609
965.615	248
965.702	-1190
965.789	-1628
965.875	-610
965.962	-624
966.049	-1694
966.136	-361
966.222	-535
966.309	55
966.395	-650
966.482	-1214
966.569	-663
966.655	-636
966.742	-940
966.828	-433
966.915	-1236
967.001	279
967.087	-2449
967.174	-311
967.260	-1199
967.347	276
967.433	-1050
967.519	755
967.605	-462
967.692	-503
967.778	-971
967.864	-748
967.950	-395
968.036	-335
968.123	-1250
968.209	-935
968.295	-1620
968.381	121
968.467	-65
968.553	-1398
968.639	-387
968.725	-1918
968.811	-605
968.897	-141
968.983	-1997
969.069	-965
969.154	-673
969.240	-615
969.326	-1794
969.412	-628
969.497	-1115
969.583	-1323
969.669	-545
969.755	-414
969.840	-1027
969.926	-582
970.012	-1197
970.097	-270
970.183	-1250
970.268	-1215
970.354	-893
970.439	-1428
970.525	-179
970.610	-1813
970.696	-348
970.781	-1518
970.866	-1804
970.952	-1134
971.037	-1219
971.122	-1014
971.208	-934
971.293	-369
971.378	-1587
971.463	-1109
971.549	-756
971.634	-913
971.719	-1063
971.804	-657
971.889	-1090
971.974	-1501
972.059	-673
972.144	-292
972.229	-1278
972.314	-2040
972.399	-627
972.484	-1378
972.569	-1543
972.654	-1141
972.739	-712
972.824	-468
972.908	-1974
972.993	-1198
973.078	-469
973.163	-1150
973.247	-820
973.332	-1557
973.417	-822
973.501	-1982
973.586	-157
973.671	-1117
973.755	-1326
973.840	-1002
973.924	-1313
974.009	-314
974.093	-1200
974.178	-73
974.262	-782
974.346	-1252
974.431	-1270
974.515	-1394
974.600	-1251
974.684	-1217
974.768	-1496
974.852	-632
974.937	-2190
975.021	-394
975.105	-1471
975.189	-184
975.273	-1041
975.358	-1424
975.442	-1463
975.526	-959
975.610	-1811
975.694	-1599
975.778	-771
975.862	-366
975.946	-2831
976.030	-370
976.114	-1085
976.198	-486
976.281	-872
976.365	-352
976.449	-1732
976.533	-859
976.617	-1445
976.700	-913
976.784	-1554
976.868	-1290
976.951	-836
977.035	-664
977.119	-1392
977.202	-1181
977.286	-1544
977.369	-454
977.453	-1532
977.536	-1504
977.620	-1915
977.703	-933
977.787	-1539
977.870	-1063
977.953	-1310
978.037	-1671
978.120	-535
978.203	-1631
978.287	-299
978.370	-1101
978.453	-1312
978.536	-1721
978.620	-988
978.703	-921
978.786	-916
978.869	-906
978.952	-2263
979.035	723
979.118	-1323
979.201	-1564
979.284	-802
979.367	-1594
979.450	-1078
979.533	-1143
979.616	-1192
979.699	-998
979.782	-2004
979.865	-608
979.948	-1681
980.030	-1549
980.113	-667
980.196	-1348
980.279	-1382
980.361	-1002
980.444	-1674
980.526	-947
980.609	-2458
980.692	-1032
980.774	-1513
980.857	-1865
980.939	-1542
981.022	-1687
981.104	-1286
981.187	-1111
981.269	-1333
981.352	-803
981.434	-2147
981.516	-1492
981.599	-1474
981.681	-1076
981.763	-2026
981.846	-1505
981.928	-1692
982.010	-1393
982.092	-2492
982.174	-93
982.256	-1241
982.339	-917
982.421	-1863
982.503	-396
982.585	-2487
982.667	-585
982.749	-1941
982.831	-990
982.913	-1890
982.995	-877
983.077	-2391
983.158	-653
983.240	-2725
983.322	-189
983.404	-526
983.486	-1751
983.568	-1851
983.649	-2147
983.731	-1035
983.813	-1403
983.894	-1360
983.976	-1757
984.058	-1499
984.139	-1215
984.221	-1983
984.302	-231
984.384	-1121
984.465	-886
984.547	-1810
984.628	-2075
984.710	-1224
984.791	-1874
984.872	-1284
984.954	-1023
985.035	-1143
985.116	-2194
985.198	-1750
985.279	-612
985.360	-2105
985.441	-815
985.522	-667
985.604	-1138
985.685	-2826
985.766	-886
985.847	-1157
985.928	-2257
986.009	-2137
986.090	-1164
986.171	-1251
986.252	-1443
986.333	-1018
986.414	-1674
986.495	-1325
986.576	-2396
986.656	-1138
986.737	-1657
986.818	-1970
986.899	-2076
986.980	-1744
987.060	-379
987.141	-1978
987.222	-1693
987.302	-1652
987.383	-1127
987.464	-1816
987.544	-1029
987.625	-1894
987.705	-1455
987.786	-2076
987.866	-1107
987.947	-1127
988.027	-1702
988.108	-1393
988.188	-897
988.268	-1121
988.349	-772
988.429	-1523
988.509	-1706
988.589	-1269
988.670	-2474
988.750	-820
988.830	-1631
988.910	-1457
988.990	-1509
989.070	-1348
989.151	-1865
989.231	-1676
989.311	-1073
989.391	-604
989.471	-1643
989.551	-1214
989.631	-983
989.711	-965
989.791	-1896
989.870	-2027
989.950	-1176
990.030	-2536
990.110	-1211
990.190	-1755
990.269	-1079
990.349	-902
990.429	-757
990.509	-1101
990.588	-1416
990.668	-1592
990.747	-471
990.827	-2162
990.907	-304
990.986	-1400
991.066	-861
991.145	-2210
991.225	-1123
991.304	-1308
991.383	-989
991.463	-1703
991.542	-958
991.622	-1475
991.701	-1471
991.780	-2177
991.859	-1566
991.939	-1530
992.018	-1037
992.097	-872
992.176	-1222
992.256	-1831
992.335	-1930
992.414	-794
992.493	-744
992.572	-1227
992.651	-362
992.730	-1926
992.809	-273
992.888	-2397
992.967	-2123
993.046	-948
993.125	-1825
993.203	-1801
993.282	-1348
993.361	-2009
993.440	-2048
993.519	-1994
993.597	-1621
993.676	-1682
993.755	-1532
993.834	-1761
993.912	-1638
993.991	-177
994.069	-1816
994.148	-1979
994.226	-1507
994.305	-1536
994.384	-1432
994.462	-649
994.540	-1794
994.619	-1420
994.697	-1597
994.776	-1570
994.854	-670
994.932	-1533
995.011	-1564
995.089	-2173
995.167	-1623
995.245	-1971
995.324	-1994
995.402	-1813
995.480	-1296
995.558	-857
995.636	-2098
995.714	-1736
995.792	-121
995.870	-2284
995.948	-1640
996.026	-1519
996.104	-2463
996.182	-1113
996.260	-1656
996.338	-2257
996.416	-1958
996.494	-1885
996.572	-708
996.649	-1731
996.727	-2258
996.805	-1608
996.883	-1440
996.960	-2020
997.038	-749
997.116	-1123
997.193	-1561
997.271	-1304
997.348	-1671
997.426	-1683
997.504	-1202
997.581	-1411
997.658	-1408
997.736	-2597
997.813	-2047
997.891	-1108
997.968	-1571
998.046	-1775
998.123	-2059
998.200	-2130
998.277	-2757
998.355	-1326
998.432	-1873
998.509	-1793
998.586	-869
998.663	-1339
998.741	-1821
998.818	-1856
998.895	-1633
998.972	-2040
999.049	-1458
999.126	-1413
999.203	-1224
999.280	-1059
999.357	-1875
999.434	-1796
999.511	-428
999.587	-409
999.664	-2294
999.741	-1249
999.818	-913
999.895	-1434
999.971	-1656
1000.048	-2292
1000.125	-445
1000.202	-993
1000.278	-1441
1000.355	-1943
1000.431	-1508
1000.508	-1890
1000.584	-1562
1000.661	-590
1000.738	-1524
1000.814	-1095
1000.890	-1874
1000.967	-1936
1001.043	-836
1001.120	-2259
1001.196	-1309
1001.272	-2093
1001.349	-1128
1001.425	-1408
1001.501	-1468
1001.577	-1827
1001.654	-875
1001.730	-1984
1001.806	-1653
1001.882	-3292
1001.958	-699
1002.034	-1067
1002.110	-1193
1002.186	-2044
1002.262	-1253
1002.338	-2449
1002.414	-394
1002.490	-1712
1002.566	-1466
1002.642	-2135
1002.718	-163
1002.794	-2000
1002.870	-1595
1002.945	-3150
1003.021	-2113
1003.097	-1268
1003.173	-1055
1003.248	-2084
1003.324	-1581
1003.400	-1469
1003.475	-2170
1003.551	-1964
1003.626	-781
1003.702	-2091
1003.777	-1403
1003.853	-1770
1003.928	-2204
1004.004	-1995
1004.079	-1202
1004.155	-1070
1004.230	-2091
1004.305	-1096
1004.381	-2365
1004.456	-1489
1004.531	-1656
1004.607	-1700
1004.682	-1283
1004.757	-2098
1004.832	-1323
1004.907	-1532
1004.982	-1781
1005.057	-1893
1005.133	-1628
1005.208	-1810
1005.283	-1354
1005.358	-2110
1005.433	-1813
1005.508	-1216
1005.583	-2383
1005.657	-1755
1005.732	-1708
1005.807	-2417
1005.882	-1260
1005.957	-1827
1006.032	-995
1006.106	-1987
1006.181	-638
1006.256	-2042
1006.331	-2400
1006.405	-2093
1006.480	-1369
1006.554	-1748
1006.629	-1733
1006.704	-1909
1006.778	-1662
1006.853	-1910
1006.927	-1665
1007.002	-2087
1007.076	-2375
1007.150	-2041
1007.225	-1247
1007.299	-1699
1007.373	-2422
1007.448	-1131
1007.522	-425
1007.596	-2172
1007.671	-1688
1007.745	-3154
1007.819	-2299
1007.893	-1962
1007.967	-1871
1008.041	-3314
1008.115	-1073
1008.190	-2727
1008.264	-1018
1008.338	-3209
1008.412	-1910
1008.486	-1840
1008.560	-1518
1008.633	-1832
1008.707	-2169
1008.781	-1173
1008.855	-2572
1008.929	-2181
1009.003	-2101
1009.076	-2219
1009.150	-1822
1009.224	-1943
1009.298	-853
1009.371	-2772
1009.445	-2041
1009.519	-2079
1009.592	-2243
1009.666	-2276
1009.739	-1623
1009.813	-2217
1009.886	-1750
1009.960	-2471
1010.033	-1353
1010.107	-1485
1010.180	-2619
1010.253	-2133
1010.327	-1971
1010.400	-1910
1010.473	-2158
1010.547	-1271
1010.620	-1504
1010.693	-1826
1010.766	-1435
1010.840	-1297
1010.913	-1898
1010.986	-2357
1011.059	-1782
1011.132	-2141
1011.205	-1973
1011.278	-1444
1011.351	-2230
1011.424	-2971
1011.497	-2114
1011.570	-1125
1011.643	-2058
1011.716	-2206
1011.789	-1446
1011.862	-1731
1011.934	-1176
1012.007	-2856
1012.080	-2275
1012.153	-2159
1012.225	-1418
1012.298	-2445
1012.371	-1822
1012.443	-1738
1012.516	-1996
1012.588	-2487
1012.661	-927
1012.733	-2784
1012.806	-1538
1012.879	-2937
1012.951	-1983
1013.023	-1695
1013.096	-1632
1013.168	-2268
1013.241	-1023
1013.313	-2097
1013.385	-1739
1013.458	-2446
1013.530	-2134
1013.602	-2751
1013.674	-1534
1013.746	-2558
1013.819	-2520
1013.891	-1439
1013.963	-1865
1014.035	-1835
1014.107	-1657
1014.179	-2352
1014.251	-2563
1014.323	-1827
1014.395	-2935
1014.467	-1825
1014.539	-1633
1014.611	-2520
1014.683	-2335
1014.754	-2054
1014.826	-2444
1014.898	-2010
1014.970	-2499
1015.042	-1330
1015.113	-1953
1015.185	-2583
1015.257	-2700
1015.328	-1763
1015.400	-2263
1015.471	-2430
1015.543	-3129
1015.615	-2602
1015.686	-1898
1015.757	-2314
1015.829	-1364
1015.901	-2297
1015.972	-1905
1016.043	-1545
1016.115	-2314
1016.186	-2858
1016.257	-2028
1016.328	-1990
1016.400	-1630
1016.471	-2138
1016.542	-2163
1016.613	-2871
1016.685	-1753
1016.756	-1629
1016.827	-2006
1016.898	-2595
1016.969	-1164
1017.040	-2345
1017.111	-1876
1017.182	-3002
1017.253	-1956
1017.324	-2798
1017.395	-2414
1017.466	-1458
1017.537	-2939
1017.608	-2940
1017.678	-1701
1017.749	-1798
1017.820	-2269
1017.891	-3215
1017.961	-1572
1018.032	-2195
1018.103	-1925
1018.173	-2304
1018.244	-2387
1018.315	-3045
1018.385	-1795
1018.456	-1987
1018.526	-2277
1018.597	-2358
1018.667	-2253
1018.738	-2491
1018.808	-1439
1018.878	-2867
1018.949	-2570
1019.019	-2235
1019.089	-2205
1019.160	-1951
1019.230	-2293
1019.300	-2222
1019.371	-2411
1019.441	-2147
1019.511	-1750
1019.581	-2781
1019.651	-2462
1019.721	-2251
1019.791	-2022
1019.861	-2171
1019.931	-1847
1020.001	-2773
1020.071	-1386
1020.141	-2250
1020.211	-1994
1020.281	-2799
1020.351	-2337
1020.421	-2251
1020.491	-1891
1020.560	-3281
1020.630	-3278
1020.700	-2272
1020.770	-1516
1020.839	-1878
1020.909	-2248
1020.979	-1811
1021.048	-2308
1021.118	-3043
1021.187	-1799
1021.257	-2574
1021.326	-2121
1021.396	-2158
1021.465	-1842
1021.535	-1866
1021.604	-2727
1021.674	-2968
1021.743	-2241
1021.812	-2498
1021.882	-2311
1021.951	-2532
1022.020	-2270
1022.089	-2829
1022.159	-2365
1022.228	-2242
1022.297	-2913
1022.366	-2497
1022.435	-1400
1022.504	-2182
1022.573	-2972
1022.642	-2920
1022.711	-2540
1022.781	-2123
1022.849	-1388
1022.918	-2320
1022.987	-2164
1023.056	-2888
1023.125	-2239
1023.194	-2947
1023.263	-2017
1023.331	-2300
1023.400	-2827
1023.469	-2438
1023.538	-2038
1023.606	-3337
1023.675	-1971
1023.744	-2521
1023.812	-2388
1023.881	-1767
1023.949	-2386
1024.018	-2150
1024.086	-2251
1024.155	-2391
1024.223	-2682
1024.292	-2148
1024.360	-2244
1024.429	-2731
1024.497	-2763
1024.565	-2657
1024.634	-2347
1024.702	-2810
1024.770	-2481
1024.838	-2140
1024.907	-1298
1024.975	-3046
1025.043	-1898
1025.111	-2615
1025.179	-1937
1025.247	-2368
1025.315	-2013
1025.383	-1767
1025.451	-1969
1025.519	-2579
1025.587	-2308
1025.655	-2588
1025.723	-2694
1025.791	-2546
1025.859	-2457
1025.927	-2026
1025.995	-2183
1026.062	-2716
1026.130	-1890
1026.198	-1362
1026.266	-2344
1026.333	-2118
1026.401	-1240
1026.469	-2258
1026.536	-1582
1026.604	-2192
1026.671	-2125
1026.739	-2491
1026.806	-1840
1026.874	-2639
1026.941	-1909
1027.009	-1627
1027.076	-2867
1027.144	-1718
1027.211	-1763
1027.278	-2849
1027.345	-2699
1027.413	-2685
1027.480	-1761
1027.547	-2164
1027.614	-2320
1027.682	-2344
1027.749	-1946
1027.816	-3099
1027.883	-1390
1027.950	-1763
1028.017	-2390
1028.084	-1455
1028.151	-2359
1028.218	-2846
1028.285	-1650
1028.352	-2241
1028.419	-2784
1028.486	-2126
1028.553	-1972
1028.619	-1838
1028.686	-2314
1028.753	-2183
1028.820	-2043
1028.886	-1559
1028.953	-1668
1029.020	-2612
1029.086	-2353
1029.153	-2740
1029.220	-2114
1029.286	-1622
1029.353	-2028
1029.419	-2652
1029.486	-1839
1029.552	-2772
1029.619	-2034
1029.685	-3227
1029.751	-1935
1029.818	-1437
1029.884	-2434
1029.951	-1915
1030.017	-2175
1030.083	-2007
1030.149	-1312
1030.216	-2540
1030.282	-2001
1030.348	-2290
1030.414	-2515
1030.480	-1724
1030.546	-1798
1030.612	-1237
1030.678	-1948
1030.744	-2340
1030.810	-1698
1030.876	-2407
1030.942	-2403
1031.008	-2361
1031.074	-1836
1031.140	-2795
1031.206	-1057
1031.272	-2526
1031.337	-2063
1031.403	-1583
1031.469	-2752
1031.534	-2266
1031.600	-2193
1031.666	-2336
1031.731	-2068
1031.797	-2149
1031.863	-1711
1031.928	-2214
1031.994	-2236
1032.059	-2137
1032.125	-1962
1032.190	-2491
1032.256	-1967
1032.321	-2998
1032.386	-1575
1032.452	-2088
1032.517	-2155
1032.582	-2595
1032.647	-1854
1032.713	-3201
1032.778	-2036
1032.843	-1597
1032.908	-1980
1032.974	-2844
1033.039	-1822
1033.104	-2645
1033.169	-1498
1033.234	-2499
1033.299	-1949
1033.364	-2381
1033.429	-2061
1033.494	-1375
1033.559	-2528
1033.624	-2394
1033.688	-1874
1033.753	-2661
1033.818	-1852
1033.883	-2778
1033.948	-1589
1034.013	-1435
1034.077	-2064
1034.142	-2113
1034.207	-1615
1034.271	-1466
1034.336	-1741
1034.400	-2029
1034.465	-2109
1034.530	-2094
1034.594	-1204
1034.658	-1894
1034.723	-1406
1034.787	-1860
1034.852	-1892
1034.916	-1805
1034.981	-1989
1035.045	-2450
1035.109	-1865
1035.173	-2036
1035.238	-2422
1035.302	-2081
1035.366	-2554
1035.430	-1916
1035.495	-1398
1035.559	-1533
1035.623	-1844
1035.687	-2699
1035.751	-2140
1035.815	-2141
1035.879	-2093
1035.943	-2122
1036.007	-2053
1036.071	-2004
1036.135	-1806
1036.198	-2139
1036.262	-2524
1036.326	-1912
1036.390	-1811
1036.454	-2581
1036.517	-1628
1036.581	-2250
1036.645	-1484
1036.709	-2351
1036.772	-2718
1036.836	-1717
1036.900	-1429
1036.963	-1752
1037.026	-1550
1037.090	-2928
1037.154	-1685
1037.217	-2448
1037.280	-2414
1037.344	-2361
1037.407	-1758
1037.471	-2260
1037.534	-2676
1037.597	-2665
1037.661	-2036
1037.724	-3017
1037.787	-1712
1037.850	-1990
1037.913	-2060
1037.977	-1904
1038.040	-2275
1038.103	-2264
1038.166	-1452
1038.229	-2136
1038.292	-2284
1038.355	-2701
1038.418	-2015
1038.481	-2296
1038.544	-2517
1038.607	-1837
1038.670	-2596
1038.732	-1981
1038.795	-2532
1038.858	-2583
1038.921	-1397
1038.984	-2150
1039.046	-1758
1039.109	-1888
1039.172	-2065
1039.234	-2753
1039.297	-1843
1039.360	-2639
1039.422	-2123
1039.485	-2595
1039.547	-2114
1039.610	-2878
1039.672	-2128
1039.734	-1564
1039.797	-1987
1039.859	-2547
1039.922	-1980
1039.984	-2597
1040.046	-1730
1040.109	-1465
1040.171	-2347
1040.233	-2002
1040.295	-2120
1040.358	-2401
1040.420	-1665
1040.482	-2502
1040.544	-2015
1040.606	-1906
1040.668	-3159
1040.730	-2703
1040.792	-2542
1040.854	-2655
1040.916	-2793
1040.978	-2458
1041.040	-2305
1041.102	-2585
1041.164	-1715
1041.225	-1372
1041.287	-2474
1041.349	-2183
1041.411	-1961
1041.472	-2612
1041.534	-2822
1041.596	-2553
1041.657	-2507
1041.719	-2355
1041.781	-1815
1041.842	-3371
1041.904	-2198
1041.965	-1878
1042.027	-2443
1042.088	-2119
1042.150	-2154
1042.211	-2431
1042.272	-1328
1042.334	-2259
1042.395	-1684
1042.456	-2625
1042.518	-1999
1042.579	-1872
1042.640	-2205
1042.701	-2757
1042.763	-2063
1042.824	-1643
1042.885	-2459
1042.946	-2643
1043.007	-3163
1043.068	-2116
1043.129	-1588
1043.190	-2197
1043.251	-1703
1043.312	-2386
1043.373	-1904
1043.434	-2332
1043.495	-2072
1043.556	-2239
1043.616	-1633
1043.677	-2066
1043.738	-1765
1043.799	-2866
1043.859	-2422
1043.920	-1827
1043.981	-2248
1044.041	-1513
1044.102	-1921
1044.162	-2723
1044.223	-2118
1044.284	-2451
1044.344	-2592
1044.405	-1734
1044.465	-2275
1044.525	-2959
1044.586	-2417
1044.646	-1855
1044.707	-1639
1044.767	-2302
1044.827	-2700
1044.887	-1630
1044.948	-3195
1045.008	-2145
1045.068	-1944
1045.128	-2408
1045.188	-1894
1045.249	-2725
1045.309	-2672
1045.369	-2310
1045.429	-2308
1045.489	-2920
1045.549	-1711
1045.609	-1787
1045.669	-2315
1045.729	-3349
1045.789	-2750
1045.848	-2092
1045.908	-1581
1045.968	-1697
1046.028	-2678
1046.088	-2164
1046.147	-1437
1046.207	-1724
1046.267	-1771
1046.326	-1794
1046.386	-1566
1046.446	-1290
1046.505	-1247
1046.565	-456
1046.624	-1458
1046.684	-2017
1046.743	-1441
1046.803	-959
1046.862	-1067
1046.922	0
