'Start Wavelength	183.907
'End Wavelength	1046.922
'Gate Delay	5.000
'Gate Width (ms)	1.050
'Laser Output Level	0.000
'X Position	0.000
'Y Position	0.000
'Z Position	0.000
'Grid Point Number	1.000
'Shot Number	100.000
183.907	765.000
183.977	338.000
184.047	128
184.116	468
184.186	304
184.256	263
184.325	0
184.395	-988
184.465	749
184.534	-786
184.604	-180
184.674	116
184.743	-221
184.813	448
184.883	-547
184.952	409
185.022	690
185.092	51
185.161	27
185.231	210
185.301	-30
185.370	768
185.440	-541
185.509	64
185.579	-4
185.649	295
185.718	-109
185.788	609
185.857	141
185.927	-138
185.996	693
186.066	-236
186.136	203
186.205	-397
186.275	-40
186.344	-66
186.414	-226
186.483	-272
186.553	229
186.622	422
186.692	-487
186.761	-598
186.831	-614
186.900	25
186.970	196
187.039	74
187.109	505
187.178	298
187.248	-166
187.317	-569
187.387	-531
187.456	277
187.526	95
187.595	17
187.664	96
187.734	446
187.803	287
187.873	431
187.942	130
188.012	-6
188.081	-662
188.150	-1034
188.220	218
188.289	161
188.358	405
188.428	456
188.497	-571
188.567	376
188.636	-685
188.705	38
188.775	-455
188.844	-1046
188.913	176
188.983	-583
189.052	491
189.121	-180
189.191	472
189.260	393
189.329	-13
189.399	-327
189.468	-947
189.537	-779
189.606	-812
189.676	-220
189.745	735
189.814	1061
189.883	202
189.953	-316
190.022	-319
190.091	-603
190.161	-42
190.230	237
190.299	-122
190.368	41
190.437	-211
190.507	-148
190.576	56
190.645	-386
190.714	-564
190.783	-268
190.853	138
190.922	173
190.991	-391
191.060	-164
191.129	-892
191.198	423
191.268	-213
191.337	315
191.406	-47
191.475	-707
191.544	-231
191.613	-135
191.682	33
191.752	74
191.821	-364
191.890	-221
191.959	223
192.028	96
192.097	144
192.166	45
192.235	-1059
192.304	300
192.373	-217
192.442	-537
192.511	214
192.580	-24
192.650	-218
192.719	78
192.788	126
192.857	-43
192.926	-455
192.995	678
193.064	-61
193.133	94
193.202	793
193.271	443
193.340	632
193.409	-196
193.478	236
193.547	190
193.615	-98
193.684	530
193.753	-928
193.822	240
193.891	167
193.960	784
194.029	-529
194.098	17
194.167	-520
194.236	596
194.305	117
194.374	-69
194.443	-404
194.512	-166
194.580	471
194.649	47
194.718	-78
194.787	-418
194.856	-659
194.925	83
194.994	202
195.062	-670
195.131	-129
195.200	-38
195.269	451
195.338	832
195.407	256
195.475	-594
195.544	2
195.613	-398
195.682	-483
195.751	131
195.819	-749
195.888	119
195.957	657
196.026	-481
196.094	-153
196.163	199
196.232	151
196.301	545
196.369	-527
196.438	33
196.507	-165
196.576	419
196.644	-291
196.713	-330
196.782	-498
196.850	655
196.919	-327
196.988	145
197.056	-701
197.125	-462
197.194	-366
197.262	-579
197.331	-176
197.400	36
197.468	-45
197.537	-852
197.606	-869
197.674	268
197.743	907
197.812	-422
197.880	-273
197.949	-102
198.017	559
198.086	-96
198.155	129
198.223	-321
198.292	-580
198.360	-66
198.429	-354
198.497	345
198.566	449
198.635	131
198.703	40
198.772	-30
198.840	1013
198.909	-486
198.977	-291
199.046	704
199.114	-184
199.183	317
199.251	134
199.320	485
199.388	-450
199.457	-339
199.525	30
199.594	-299
199.662	-20
199.731	-866
199.799	-41
199.867	-255
199.936	-380
200.004	-383
200.073	528
200.141	-87
200.210	-216
200.278	-905
200.346	-585
200.415	58
200.483	-88
200.552	31
200.620	287
200.688	164
200.757	383
200.825	-1
200.893	-670
200.962	-195
201.030	-546
201.098	-819
201.167	-468
201.235	828
201.303	-105
201.372	-461
201.440	-437
201.508	-140
201.577	266
201.645	441
201.713	1108
201.781	97
201.850	325
201.918	18
201.986	-614
202.055	426
202.123	-180
202.191	218
202.259	217
202.327	-800
202.396	545
202.464	288
202.532	-850
202.600	79
202.669	-868
202.737	-436
202.805	-527
202.873	59
202.941	468
203.009	93
203.078	-202
203.146	258
203.214	-797
203.282	-171
203.350	-629
203.418	384
203.487	212
203.555	-49
203.623	-425
203.691	190
203.759	184
203.827	-280
203.895	242
203.963	455
204.031	-483
204.099	296
204.168	-53
204.236	1122
204.304	-543
204.372	-543
204.440	589
204.508	96
204.576	-438
204.644	-536
204.712	-559
204.780	-715
204.848	320
204.916	-359
204.984	554
205.052	314
205.120	98
205.188	160
205.256	-450
205.324	-143
205.392	-137
205.460	-267
205.528	-390
205.596	192
205.664	203
205.732	-61
205.799	158
205.867	430
205.935	384
206.003	193
206.071	-40
206.139	-35
206.207	-358
206.275	-23
206.343	-27
206.411	556
206.478	886
206.546	138
206.614	-16
206.682	-600
206.750	-337
206.818	101
206.885	-180
206.953	-677
207.021	-148
207.089	699
207.157	-857
207.225	123
207.292	-107
207.360	-657
207.428	326
207.496	165
207.563	309
207.631	-279
207.699	488
207.767	-35
207.834	117
207.902	12
207.970	-276
208.038	205
208.105	-463
208.173	-46
208.241	-98
208.309	533
208.376	19
208.444	904
208.512	212
208.579	-381
208.647	135
208.715	377
208.782	-883
208.850	68
208.918	-98
208.985	794
209.053	383
209.120	111
209.188	-792
209.256	188
209.323	-739
209.391	-224
209.459	844
209.526	440
209.594	-816
209.661	-164
209.729	250
209.796	192
209.864	-156
209.932	-184
209.999	1076
210.067	-580
210.134	-54
210.202	-611
210.269	399
210.337	583
210.404	-360
210.472	227
210.539	270
210.607	257
210.674	-473
210.742	931
210.809	709
210.877	322
210.944	767
211.012	-37
211.079	871
211.146	332
211.214	527
211.281	526
211.349	659
211.416	504
211.484	41
211.551	-84
211.618	519
211.686	553
211.753	-502
211.821	309
211.888	-408
211.955	-76
212.023	478
212.090	-27
212.157	165
212.225	353
212.292	29
212.359	565
212.427	1527
212.494	432
212.561	944
212.629	489
212.696	-247
212.763	617
212.831	-222
212.898	711
212.965	-28
213.032	-145
213.100	300
213.167	-520
213.234	-117
213.301	-488
213.369	650
213.436	90
213.503	104
213.570	665
213.638	-112
213.705	-29
213.772	-109
213.839	-622
213.906	-73
213.973	1021
214.041	-702
214.108	422
214.175	-304
214.242	-747
214.309	568
214.376	-180
214.444	-238
214.511	-177
214.578	378
214.645	222
214.712	-59
214.779	166
214.846	-77
214.913	963
214.980	441
215.048	375
215.115	249
215.182	349
215.249	371
215.316	-28
215.383	-189
215.450	1126
215.517	-225
215.584	227
215.651	184
215.718	-269
215.785	87
215.852	260
215.919	546
215.986	289
216.053	447
216.120	-64
216.187	503
216.254	652
216.321	-236
216.388	-46
216.455	246
216.522	114
216.589	559
216.656	540
216.722	319
216.789	741
216.856	-217
216.923	-47
216.990	820
217.057	64
217.124	707
217.191	752
217.258	885
217.324	604
217.391	512
217.458	1208
217.525	-34
217.592	898
217.659	263
217.725	863
217.792	-83
217.859	507
217.926	-369
217.993	8
218.059	860
218.126	232
218.193	-208
218.260	-302
218.327	-196
218.393	434
218.460	-346
218.527	-79
218.594	347
218.660	-226
218.727	704
218.794	-75
218.860	673
218.927	-579
218.994	-779
219.061	-420
219.127	-56
219.194	605
219.261	-308
219.327	-264
219.394	-109
219.461	-339
219.527	-106
219.594	399
219.661	535
219.727	-194
219.794	259
219.860	446
219.927	-165
219.994	625
220.060	718
220.127	986
220.193	328
220.260	264
220.326	1230
220.393	1931
220.460	1515
220.526	559
220.593	740
220.659	1454
220.726	177
220.792	1402
220.859	1879
220.925	2501
220.992	3095
221.058	2728
221.125	1737
221.191	1502
221.258	139
221.324	811
221.391	356
221.457	336
221.524	113
221.590	-151
221.657	1076
221.723	524
221.789	989
221.856	1071
221.922	-240
221.989	85
222.055	210
222.121	-277
222.188	971
222.254	718
222.321	68
222.387	92
222.453	160
222.520	-187
222.586	-103
222.652	937
222.719	-624
222.785	450
222.851	-707
222.918	69
222.984	-287
223.050	67
223.116	-927
223.183	299
223.249	-673
223.315	205
223.382	-203
223.448	476
223.514	-902
223.580	-929
223.647	-169
223.713	-340
223.779	358
223.845	-389
223.911	167
223.978	-309
224.044	148
224.110	-1001
224.176	266
224.242	-231
224.309	-901
224.375	-95
224.441	184
224.507	36
224.573	-1381
224.639	460
224.705	-933
224.772	-92
224.838	139
224.904	49
224.970	-88
225.036	-300
225.102	-254
225.168	658
225.234	-458
225.300	-190
225.366	-346
225.432	-483
225.499	-774
225.565	-210
225.631	212
225.697	71
225.763	385
225.829	-97
225.895	-468
225.961	371
226.027	149
226.093	132
226.159	988
226.225	1481
226.291	2592
226.357	3762
226.423	2629
226.489	1113
226.554	990
226.620	266
226.686	627
226.752	986
226.818	2079
226.884	4371
226.950	3771
227.016	1838
227.082	292
227.148	863
227.214	1192
227.279	441
227.345	434
227.411	-290
227.477	753
227.543	1960
227.609	1538
227.674	1554
227.740	-263
227.806	566
227.872	55
227.938	11
228.003	721
228.069	155
228.135	213
228.201	-196
228.267	-272
228.332	20
228.398	-402
228.464	435
228.530	-718
228.595	-124
228.661	-243
228.727	233
228.792	566
228.858	-140
228.924	-1213
228.990	862
229.055	-1239
229.121	297
229.187	-462
229.252	-800
229.318	-752
229.384	134
229.449	-90
229.515	-860
229.581	-691
229.646	723
229.712	-300
229.777	-117
229.843	-233
229.909	-55
229.974	429
230.040	330
230.105	-421
230.171	-795
230.236	-537
230.302	757
230.368	-53
230.433	-1380
230.499	908
230.564	304
230.630	-425
230.695	383
230.761	234
230.826	-1092
230.892	791
230.957	-742
231.023	-298
231.088	-405
231.154	237
231.219	-152
231.284	-411
231.350	723
231.415	-639
231.481	759
231.546	-47
231.612	-308
231.677	-436
231.742	-612
231.808	1275
231.873	-617
231.939	-1868
232.004	1153
232.069	308
232.135	-669
232.200	31
232.265	45
232.331	-745
232.396	-418
232.461	-749
232.527	-596
232.592	-766
232.657	504
232.723	-525
232.788	-300
232.853	38
232.918	54
232.984	-431
233.049	-191
233.114	-672
233.179	-53
233.245	488
233.310	631
233.375	-1135
233.440	858
233.506	176
233.571	-557
233.636	295
233.701	-167
233.766	-315
233.832	-271
233.897	-83
233.962	-669
234.027	667
234.092	609
234.157	-750
234.222	-748
234.288	777
234.353	723
234.418	1510
234.483	763
234.548	349
234.613	976
234.678	118
234.743	537
234.808	983
234.873	-542
234.938	842
235.004	-104
235.069	674
235.134	-407
235.199	-127
235.264	-154
235.329	-641
235.394	-82
235.459	185
235.524	-432
235.589	148
235.654	-985
235.719	-825
235.784	167
235.849	-157
235.913	708
235.978	681
236.043	-822
236.108	-670
236.173	-904
236.238	644
236.303	-32
236.368	-596
236.433	1169
236.498	171
236.563	577
236.627	2132
236.692	6780
236.757	5365
236.822	2167
236.887	1314
236.952	1825
237.017	559
237.081	820
237.146	730
237.211	4279
237.276	7201
237.341	8991
237.405	4709
237.470	1887
237.535	1161
237.600	711
237.664	873
237.729	-184
237.794	-9
237.859	3233
237.923	1378
237.988	205
238.053	448
238.118	991
238.182	1313
238.247	1711
238.312	-665
238.376	540
238.441	-1641
238.506	998
238.570	-1206
238.635	554
238.700	14
238.764	-323
238.829	229
238.893	-388
238.958	337
239.023	192
239.087	-151
239.152	181
239.216	-715
239.281	94
239.346	135
239.410	354
239.475	-8
239.539	2203
239.604	47
239.668	817
239.733	-671
239.797	1123
239.862	3805
239.926	2409
239.991	1787
240.055	-233
240.120	-125
240.184	-127
240.249	-146
240.313	-264
240.378	-121
240.442	945
240.507	1110
240.571	500
240.635	68
240.700	75
240.764	115
240.829	263
240.893	-969
240.957	-210
241.022	498
241.086	1149
241.151	393
241.215	-1218
241.279	423
241.344	168
241.408	491
241.472	42
241.537	91
241.601	384
241.665	-370
241.730	-129
241.794	1071
241.858	-375
241.922	-227
241.987	375
242.051	-88
242.115	-499
242.179	108
242.244	-165
242.308	569
242.372	43
242.436	116
242.501	498
242.565	-1152
242.629	-56
242.693	611
242.757	-801
242.822	-868
242.886	605
242.950	624
243.014	-129
243.078	675
243.142	126
243.206	-874
243.271	-73
243.335	-643
243.399	1070
243.463	1722
243.527	6506
243.591	1662
243.655	561
243.719	-227
243.783	1237
243.847	544
243.911	1171
243.975	342
244.040	-174
244.104	944
244.168	593
244.232	-23
244.296	1492
244.360	850
244.424	-635
244.488	311
244.552	266
244.615	-1062
244.679	-470
244.743	-6
244.807	-914
244.871	28
244.935	357
244.999	-1451
245.063	-491
245.127	1106
245.191	469
245.255	158
245.319	600
245.383	-692
245.446	936
245.510	-792
245.574	189
245.638	1040
245.702	-746
245.766	1502
245.829	836
245.893	-704
245.957	-144
246.021	560
246.085	-411
246.149	-535
246.212	2354
246.276	1727
246.340	273
246.404	406
246.467	489
246.531	-876
246.595	1272
246.659	634
246.722	-50
246.786	1418
246.850	740
246.913	1047
246.977	-271
247.041	491
247.104	502
247.168	426
247.232	2024
247.295	2635
247.359	956
247.423	-131
247.486	1237
247.550	1120
247.614	1244
247.677	889
247.741	406
247.804	541
247.868	748
247.932	746
247.995	2988
248.059	938
248.122	22
248.186	1133
248.249	2238
248.313	5226
248.376	4473
248.440	2894
248.503	-19
248.567	1870
248.630	433
248.694	2616
248.757	4026
248.821	5090
248.884	4578
248.948	3005
249.011	5529
249.075	5845
249.138	4840
249.202	2430
249.265	419
249.328	1599
249.392	415
249.455	2063
249.519	56
249.582	558
249.645	1738
249.709	1211
249.772	966
249.835	385
249.899	491
249.962	1308
250.025	151
250.089	2494
250.152	3112
250.215	1776
250.279	730
250.342	1198
250.405	891
250.468	-314
250.532	503
250.595	1828
250.658	6060
250.721	10708
250.785	3391
250.848	1989
250.911	815
250.974	1476
251.038	1689
251.101	3022
251.164	998
251.227	1610
251.290	708
251.354	2175
251.417	9078
251.480	8000
251.543	5800
251.606	17452
251.669	12534
251.732	4027
251.795	4643
251.859	5375
251.922	10883
251.985	6552
252.048	3604
252.111	1330
252.174	767
252.237	3308
252.300	6943
252.363	7150
252.426	14078
252.489	4024
252.552	2486
252.615	-90
252.678	2436
252.741	5884
252.804	5244
252.867	13973
252.930	8823
252.993	3903
253.056	3368
253.119	1212
253.182	545
253.245	2304
253.308	1400
253.371	464
253.434	619
253.497	1434
253.559	3443
253.622	1427
253.685	3035
253.748	1994
253.811	1246
253.874	2116
253.937	524
254.000	1477
254.062	1820
254.125	2105
254.188	4254
254.251	2436
254.314	409
254.376	2052
254.439	3085
254.502	2324
254.565	1724
254.628	4743
254.690	1970
254.753	-76
254.816	245
254.878	655
254.941	2683
255.004	1875
255.067	647
255.129	-122
255.192	-301
255.255	-1058
255.317	258
255.380	-118
255.443	-530
255.505	-406
255.568	-913
255.631	251
255.693	284
255.756	-849
255.819	867
255.881	-534
255.944	-320
256.006	-453
256.069	-234
256.132	-251
256.194	-716
256.257	606
256.319	441
256.382	-101
256.444	792
256.507	442
256.569	-448
256.632	38
256.694	596
256.757	4828
256.819	12050
256.882	4577
256.944	1687
257.007	1088
257.069	788
257.132	329
257.194	912
257.257	-239
257.319	-75
257.381	-123
257.444	3992
257.506	12918
257.569	15363
257.631	6165
257.693	2706
257.756	1046
257.818	930
257.880	108
257.943	615
258.005	-561
258.067	148
258.130	115
258.192	100
258.254	738
258.317	-313
258.379	-159
258.441	825
258.503	1959
258.566	558
258.628	2048
258.690	-406
258.753	546
258.815	1693
258.877	-188
258.939	-386
259.001	476
259.064	-748
259.126	-414
259.188	333
259.250	73
259.312	29
259.375	398
259.437	876
259.499	-45
259.561	-1103
259.623	-289
259.685	-318
259.747	50
259.809	1909
259.872	2917
259.934	4667
259.996	4290
260.058	1127
260.120	-1279
260.182	241
260.244	-95
260.306	48
260.368	-356
260.430	-660
260.492	1125
260.554	2111
260.616	220
260.678	2053
260.740	1950
260.802	-27
260.864	545
260.926	-167
260.988	646
261.050	-237
261.112	1302
261.174	4352
261.236	2656
261.298	475
261.359	1078
261.421	2222
261.483	-295
261.545	337
261.607	-947
261.669	353
261.731	486
261.793	2001
261.854	-382
261.916	1171
261.978	-167
262.040	696
262.102	404
262.164	-699
262.225	85
262.287	-337
262.349	524
262.411	220
262.472	80
262.534	-348
262.596	200
262.658	-53
262.719	-1085
262.781	484
262.843	121
262.904	511
262.966	392
263.028	-132
263.090	3406
263.151	8482
263.213	2898
263.275	1871
263.336	45
263.398	-46
263.459	-678
263.521	56
263.583	1212
263.644	1273
263.706	-356
263.767	-275
263.829	382
263.891	-726
263.952	-649
264.014	-1241
264.075	-524
264.137	1794
264.198	517
264.260	-362
264.321	-945
264.383	443
264.444	3382
264.506	-152
264.567	29
264.629	1325
264.690	1734
264.752	148
264.813	340
264.875	-639
264.936	75
264.998	109
265.059	261
265.120	-85
265.182	576
265.243	8244
265.305	7867
265.366	1783
265.427	1103
265.489	1485
265.550	-1425
265.611	302
265.673	-332
265.734	-496
265.795	193
265.857	-965
265.918	-259
265.979	1729
266.040	13015
266.102	8905
266.163	2104
266.224	1139
266.286	854
266.347	-661
266.408	-57
266.469	184
266.530	-142
266.592	-281
266.653	327
266.714	909
266.775	-206
266.836	-4
266.898	-1287
266.959	95
267.020	108
267.081	1051
267.142	-592
267.203	-949
267.264	-1092
267.326	784
267.387	-651
267.448	-432
267.509	312
267.570	-8
267.631	-366
267.692	-1139
267.753	139
267.814	-792
267.875	638
267.936	2290
267.997	376
268.058	763
268.119	126
268.180	-159
268.241	-1115
268.302	-417
268.363	-903
268.424	-242
268.485	-208
268.546	-1067
268.607	-882
268.668	-386
268.729	-847
268.790	-630
268.851	-783
268.912	177
268.972	2683
269.033	203
269.094	-1062
269.155	180
269.216	-226
269.277	33
269.338	-1139
269.398	263
269.459	-749
269.520	271
269.581	741
269.642	489
269.702	-463
269.763	-267
269.824	-330
269.885	214
269.945	1455
270.006	-274
270.067	-1127
270.128	-606
270.188	-1130
270.249	-560
270.310	-1620
270.370	-144
270.431	-800
270.492	-871
270.553	-620
270.613	961
270.674	2712
270.734	-545
270.795	-535
270.856	270
270.916	-1063
270.977	-394
271.038	457
271.098	-390
271.159	416
271.219	405
271.280	-989
271.340	-104
271.401	-1194
271.462	-223
271.522	161
271.583	-441
271.643	347
271.704	116
271.764	-315
271.825	1463
271.885	6269
271.946	6749
272.006	2396
272.066	2707
272.127	6545
272.187	2662
272.248	101
272.308	113
272.369	3940
272.429	1329
272.489	1445
272.550	1130
272.610	1608
272.671	758
272.731	210
272.791	374
272.852	-12
272.912	683
272.972	-449
273.033	-169
273.093	-1031
273.153	132
273.214	116
273.274	-216
273.334	1978
273.394	4976
273.455	2231
273.515	1876
273.575	3795
273.635	1656
273.696	2163
273.756	4572
273.816	1299
273.876	1082
273.936	462
273.997	2341
274.057	-279
274.117	-56
274.177	921
274.237	7641
274.297	5366
274.358	2191
274.418	3895
274.478	2847
274.538	1086
274.598	-309
274.658	1605
274.718	1958
274.778	1236
274.838	-852
274.898	296
274.958	2661
275.018	4150
275.078	2609
275.138	1466
275.198	517
275.258	287
275.318	28
275.378	972
275.438	1592
275.498	-201
275.558	1546
275.618	3771
275.678	2838
275.738	2695
275.798	1925
275.858	198
275.918	-624
275.978	227
276.038	-458
276.098	240
276.157	297
276.217	4675
276.277	1573
276.337	231
276.397	-577
276.457	48
276.517	239
276.576	-427
276.636	-574
276.696	114
276.756	3251
276.815	1238
276.875	102
276.935	-352
276.995	-311
277.055	-490
277.114	318
277.174	33
277.234	2923
277.293	1125
277.353	776
277.413	-535
277.472	-34
277.532	-140
277.592	29
277.651	2299
277.711	4864
277.771	1386
277.830	7176
277.890	4017
277.950	2974
278.009	10204
278.069	3026
278.128	3989
278.188	5534
278.248	2700
278.307	5913
278.367	2797
278.426	-330
278.486	405
278.545	-125
278.605	-572
278.664	-375
278.724	-263
278.783	2643
278.843	4619
278.902	870
278.962	220
279.021	94
279.081	1206
279.140	719
279.199	186
279.259	440
279.318	865
279.378	1881
279.437	2336
279.496	9836
279.556	25775
279.615	16354
279.675	4190
279.734	2602
279.793	3653
279.853	5294
279.912	2037
279.971	1648
280.031	145
280.090	2029
280.149	4387
280.208	3215
280.268	16606
280.327	13835
280.386	2919
280.445	1995
280.505	2627
280.564	894
280.623	555
280.682	1573
280.742	3145
280.801	-5
280.860	-145
280.919	482
280.978	-725
281.037	-1247
281.097	-1198
281.156	404
281.215	-516
281.274	-385
281.333	3490
281.392	1568
281.451	-584
281.510	-748
281.569	-808
281.628	-622
281.688	-921
281.747	-93
281.806	-541
281.865	-233
281.924	-447
281.983	134
282.042	-826
282.101	-150
282.160	-769
282.219	-879
282.278	21
282.337	1478
282.396	1061
282.454	187
282.513	242
282.572	3639
282.631	1347
282.690	-600
282.749	-862
282.808	-422
282.867	-55
282.926	-22
282.985	-504
283.043	-729
283.102	-588
283.161	-366
283.220	1505
283.279	3313
283.338	328
283.396	-289
283.455	112
283.514	-127
283.573	738
283.631	25
283.690	103
283.749	324
283.808	1161
283.866	1766
283.925	-521
283.984	-298
284.043	-384
284.101	827
284.160	-930
284.219	406
284.277	921
284.336	1096
284.395	4497
284.453	3706
284.512	961
284.570	2127
284.629	1401
284.688	1498
284.746	1008
284.805	1783
284.863	2626
284.922	3811
284.981	4945
285.039	7560
285.098	13291
285.156	25115
285.215	25248
285.273	26851
285.332	24361
285.390	17274
285.449	10317
285.507	5814
285.566	4335
285.624	3638
285.683	2648
285.741	2039
285.799	1194
285.858	1790
285.916	860
285.975	919
286.033	946
286.091	134
286.150	179
286.208	415
286.267	-121
286.325	204
286.383	1307
286.442	898
286.500	-191
286.558	120
286.616	-377
286.675	1446
286.733	659
286.791	-1
286.850	612
286.908	571
286.966	1515
287.024	-756
287.083	-505
287.141	-166
287.199	254
287.257	1309
287.315	647
287.374	670
287.432	1919
287.490	1265
287.548	-356
287.606	507
287.664	-137
287.723	231
287.781	436
287.839	-133
287.897	-210
287.955	411
288.013	1178
288.071	3156
288.129	13473
288.187	36040
288.245	14891
288.303	4126
288.361	1967
288.419	1669
288.477	357
288.535	580
288.593	-250
288.651	62
288.709	-439
288.767	-640
288.825	-495
288.883	-150
288.941	-559
288.999	-557
289.057	-440
289.115	-1028
289.173	-920
289.231	205
289.289	-276
289.346	-670
289.404	-145
289.462	80
289.520	-298
289.578	-37
289.636	-748
289.694	148
289.751	-560
289.809	191
289.867	-482
289.925	465
289.983	530
290.040	-222
290.098	-984
290.156	97
290.214	-50
290.271	-1604
290.329	-49
290.387	-101
290.444	-528
290.502	-743
290.560	-573
290.617	-366
290.675	-227
290.733	46
290.790	-43
290.848	122
290.906	-227
290.963	-564
291.021	-318
291.078	-259
291.136	-465
291.194	1039
291.251	3070
291.309	462
291.366	-20
291.424	-505
291.481	531
291.539	-338
291.596	-599
291.654	-661
291.711	-1281
291.769	136
291.826	789
291.884	512
291.941	-577
291.999	-383
292.056	-326
292.114	-1097
292.171	-556
292.228	-479
292.286	-169
292.343	332
292.401	-76
292.458	-397
292.515	-1194
292.573	125
292.630	-150
292.687	-91
292.745	-410
292.802	-650
292.859	1143
292.917	3660
292.974	1702
293.031	357
293.089	-519
293.146	89
293.203	-730
293.260	10
293.318	-599
293.375	-418
293.432	-298
293.489	-661
293.546	-161
293.604	434
293.661	1564
293.718	5668
293.775	2777
293.832	669
293.889	196
293.947	261
294.004	-314
294.061	52
294.118	1775
294.175	3596
294.232	4125
294.289	946
294.346	314
294.403	411
294.460	624
294.517	479
294.574	311
294.631	-366
294.688	-207
294.745	1632
294.802	6118
294.859	7676
294.916	1370
294.973	775
295.030	348
295.087	273
295.144	381
295.201	294
295.258	-520
295.315	528
295.372	2553
295.429	4250
295.486	1266
295.542	733
295.599	2821
295.656	6030
295.713	3431
295.770	4541
295.827	1299
295.883	1034
295.940	-13
295.997	1681
296.054	425
296.111	-553
296.167	267
296.224	-709
296.281	-285
296.338	-83
296.394	131
296.451	368
296.508	1442
296.564	3873
296.621	2698
296.678	5596
296.734	8513
296.791	2258
296.848	1492
296.904	1714
296.961	4383
297.018	5636
297.074	2938
297.131	1357
297.187	-115
297.244	2008
297.301	5446
297.357	8784
297.414	2673
297.470	534
297.527	681
297.583	612
297.640	167
297.696	539
297.753	352
297.809	-320
297.866	-769
297.922	-342
297.979	353
298.035	134
298.092	-273
298.148	3345
298.204	3140
298.261	718
298.317	3065
298.374	6358
298.430	3422
298.486	172
298.543	290
298.599	419
298.656	662
298.712	1160
298.768	5952
298.824	3219
298.881	474
298.937	420
298.993	-61
299.050	537
299.106	701
299.162	110
299.218	180
299.275	-647
299.331	326
299.387	1936
299.443	6635
299.500	8991
299.556	4163
299.612	1134
299.668	697
299.724	3653
299.780	3895
299.837	537
299.893	1745
299.949	7344
300.005	8394
300.061	6677
300.117	10635
300.173	4206
300.229	959
300.285	2539
300.341	3122
300.397	1139
300.453	-56
300.510	548
300.566	717
300.622	1646
300.678	6851
300.734	11403
300.790	6718
300.845	5957
300.901	5811
300.957	9216
301.013	5686
301.069	1984
301.125	1033
301.181	1493
301.237	-330
301.293	-1310
301.349	312
301.405	-478
301.461	343
301.516	774
301.572	835
301.628	1180
301.684	1274
301.740	1130
301.796	3947
301.851	1912
301.907	4520
301.963	4560
302.019	6385
302.074	15522
302.130	16027
302.186	7610
302.242	2578
302.297	1499
302.353	2310
302.409	3675
302.464	2845
302.520	2795
302.576	5402
302.631	8078
302.687	4196
302.743	1222
302.798	-160
302.854	821
302.910	1089
302.965	1041
303.021	1838
303.076	2672
303.132	2045
303.187	3551
303.243	1440
303.299	954
303.354	224
303.410	251
303.465	-551
303.521	718
303.576	11
303.632	431
303.687	1397
303.743	5429
303.798	4322
303.853	1843
303.909	338
303.964	854
304.020	1055
304.075	2323
304.130	3056
304.186	4281
304.241	5256
304.297	4001
304.352	1221
304.358	1206
304.407	1079
304.449	1186
304.463	1222
304.518	274
304.539	516
304.573	885
304.629	469
304.630	475
304.684	777
304.720	2616
304.739	3533
304.794	6428
304.811	5379
304.850	2683
304.902	1060
304.905	970
304.960	1238
304.992	951
305.015	694
305.071	347
305.083	341
305.126	337
305.173	567
305.181	612
305.236	-23
305.264	241
305.292	509
305.347	711
305.354	710
305.402	859
305.445	1358
305.457	1449
305.512	1593
305.535	1891
305.567	2301
305.622	1040
305.626	1106
305.678	3233
305.716	6598
305.733	7596
305.788	8015
305.807	6765
305.843	4714
305.897	6528
305.898	6548
305.953	7122
305.988	4890
306.008	3705
306.063	2310
306.078	2082
306.118	1538
306.168	1071
306.173	1045
306.228	423
306.259	605
306.283	824
306.338	817
306.349	824
306.393	956
306.440	1420
306.448	1446
306.503	1294
306.530	1278
306.558	1960
306.613	4167
306.620	4439
306.668	6331
306.711	8573
306.723	8586
306.778	6443
306.801	5214
306.833	3932
306.888	2179
306.892	2017
306.943	885
306.982	872
306.997	921
307.052	892
307.072	1120
307.107	1662
307.162	1706
307.163	1706
307.217	2400
307.253	2567
307.272	2561
307.327	2838
307.343	2797
307.381	2715
307.434	2851
307.436	2972
307.491	5690
307.524	7884
307.546	8353
307.600	8182
307.614	7790
307.655	5430
307.704	3126
307.710	3131
307.765	3005
307.795	3703
307.819	4632
307.874	6704
307.885	6902
307.929	6911
307.975	7352
307.984	7931
308.038	12100
308.065	14997
308.093	25014
308.148	47577
308.156	51573
308.202	70462
308.246	83307
308.257	80122
308.312	51506
308.336	39035
308.366	30676
308.421	18079
308.426	16934
308.475	12324
308.517	8578
308.530	7992
308.585	6518
308.607	5919
308.639	5808
308.694	5822
308.697	5818
308.748	7946
308.787	9751
308.803	9662
308.857	8915
308.877	8410
308.912	8750
308.967	9845
308.967	9839
309.021	14743
309.058	18131
309.076	22849
309.130	39268
309.148	44905
309.185	67324
309.238	102218
309.239	102664
309.293	108038
309.328	106738
309.348	95470
309.402	58804
309.418	48680
309.457	36229
309.508	21876
309.511	21661
309.566	18352
309.598	16168
309.620	17314
309.674	20960
309.688	21934
309.729	20843
309.778	18213
309.783	17910
309.837	13741
309.868	11708
309.892	13433
309.946	17582
309.959	18821
310.001	24003
310.049	28876
310.055	27838
310.109	16459
310.139	10180
310.163	8490
310.218	5688
310.229	5120
310.272	4453
310.319	3887
310.326	3849
310.381	3392
310.409	3066
310.435	2813
310.489	2627
310.499	2530
310.543	2823
310.589	3209
310.598	3232
310.652	3332
310.679	3361
310.706	3166
310.760	2571
310.769	2500
310.814	2705
310.859	2768
310.868	2841
310.923	3108
310.948	3337
310.977	3493
311.031	3515
311.038	3543
311.085	3660
311.128	3455
311.139	3524
311.193	3885
311.218	4075
311.247	4058
311.301	3911
311.308	3873
311.356	3220
311.398	2674
311.410	2791
311.464	3162
311.488	3335
311.518	3103
311.572	2686
311.578	2621
311.626	4379
311.668	5968
311.680	5830
311.734	4953
311.758	4572
311.788	4519
311.842	4391
311.847	4357
311.896	5026
311.937	5577
311.950	5762
312.004	6460
312.027	6736
312.058	5831
312.112	4166
312.117	3984
312.165	4094
312.207	4161
312.297	4609
312.386	4744
312.476	3965
312.566	7816
312.656	4356
312.745	3900
312.835	3641
312.925	4705
313.015	3862
313.104	3666
313.194	3536
313.284	4674
313.374	4907
313.463	5478
313.553	4358
313.643	4469
313.732	3746
313.822	4472
313.912	4686
314.001	4478
314.091	4945
314.180	6720
314.270	5776
314.360	6058
314.449	5749
314.539	3804
314.628	4891
314.718	4548
314.808	4086
314.897	5674
314.987	4243
315.076	5492
315.166	6150
315.255	5261
315.345	5956
315.434	5029
315.524	4701
315.613	5661
315.703	6279
315.792	8157
315.881	15484
315.971	8811
316.060	7034
316.150	7653
316.239	8357
316.328	4438
316.418	3952
316.507	4397
316.597	5936
316.686	5262
316.775	4873
316.865	8142
316.954	4532
317.043	4273
317.133	4177
317.222	3757
317.311	3279
317.400	3140
317.490	5371
317.579	5440
317.668	3853
317.757	5881
317.847	9582
317.936	25909
318.025	15990
318.114	9502
318.203	6985
318.293	9717
318.382	20000
318.471	16301
318.560	19151
318.649	31937
318.738	9091
318.828	5447
318.917	6607
319.006	5991
319.095	10624
319.184	37160
319.273	22933
319.362	12858
319.451	4807
319.540	5054
319.629	8870
319.718	15359
319.807	8063
319.896	12043
319.985	46044
320.074	19049
320.163	5727
320.252	5890
320.341	6897
320.430	6883
320.519	8417
320.608	5816
320.697	4935
320.786	5539
320.875	6679
320.964	8165
321.053	10578
321.142	15336
321.230	16585
321.319	12373
321.408	26480
321.497	12854
321.586	13379
321.675	10775
321.764	13314
321.852	9648
321.941	15750
322.030	12101
322.119	11785
322.207	26885
322.296	15583
322.385	11189
322.474	12430
322.562	31268
322.651	17605
322.740	12261
322.829	14558
322.917	11737
323.006	9712
323.095	10320
323.183	7395
323.272	10100
323.361	12667
323.449	26432
323.538	10659
323.626	17908
323.715	11985
323.804	7360
323.892	16482
323.981	13002
324.069	5566
324.158	9042
324.246	9179
324.335	6997
324.424	11134
324.512	5340
324.601	6967
324.689	8048
324.778	12821
324.866	8207
324.954	4270
325.043	4397
325.131	5717
325.220	8999
325.308	8130
325.397	7878
325.485	6042
325.574	4328
325.662	3772
325.750	5360
325.839	4057
325.927	4472
326.015	4189
326.104	4127
326.192	5184
326.280	3832
326.369	3915
326.457	6496
326.545	9261
326.634	5849
326.722	3616
326.810	3801
326.898	4021
326.987	5111
327.075	8255
327.163	7686
327.251	4346
327.340	6032
327.428	8092
327.516	4219
327.604	3597
327.692	4319
327.781	3258
327.869	4735
327.957	4428
328.045	5077
328.133	4037
328.221	3856
328.309	4145
328.397	4171
328.485	5386
328.574	7599
328.662	18157
328.750	9257
328.838	4675
328.926	4812
329.014	4053
329.102	5662
329.190	10128
329.278	8512
329.366	3127
329.454	4334
329.542	3480
329.630	4388
329.718	4406
329.806	5203
329.893	5748
329.981	6510
330.069	11487
330.157	33655
330.245	73541
330.333	48185
330.421	12435
330.509	9003
330.597	21161
330.684	14222
330.772	5581
330.860	7298
330.948	8347
331.036	5906
331.123	3457
331.211	3390
331.299	4582
331.387	7619
331.475	13373
331.562	4834
331.650	3633
331.738	3974
331.825	4325
331.913	2881
332.001	3097
332.089	4860
332.176	5716
332.264	8355
332.352	7927
332.439	5425
332.527	3875
332.614	3250
332.702	3343
332.790	3884
332.877	5386
332.965	8390
333.052	5380
333.140	5400
333.228	9415
333.315	4497
333.403	4314
333.490	5841
333.578	6157
333.665	11842
333.753	8102
333.840	4181
333.928	4634
334.015	8340
334.103	13608
334.190	40755
334.278	14696
334.365	8910
334.452	7437
334.540	6586
334.627	6495
334.715	8534
334.802	12107
334.889	30198
334.977	35365
335.064	12445
335.151	6980
335.239	7350
335.326	8707
335.413	22867
335.501	33413
335.588	8113
335.675	6590
335.762	8819
335.850	13071
335.937	11871
336.024	19166
336.111	44884
336.199	27549
336.286	11561
336.373	6969
336.460	5339
336.547	5052
336.635	6240
336.722	5026
336.809	4820
336.896	6322
336.983	14827
337.070	33319
337.157	46062
337.245	20643
337.332	14172
337.419	4546
337.506	4461
337.593	5208
337.680	11105
337.767	34489
337.854	11676
337.941	12356
338.028	8868
338.115	4487
338.202	6802
338.289	6810
338.376	18285
338.463	9164
338.550	18244
338.637	21434
338.724	6075
338.811	7611
338.898	3370
338.984	4534
339.071	5013
339.158	4157
339.245	10586
339.332	7407
339.419	5585
339.506	6467
339.593	2392
339.679	3705
339.766	3771
339.853	3704
339.940	8564
340.027	4308
340.113	4889
340.200	5385
340.287	4119
340.374	4665
340.460	8425
340.547	4226
340.634	6514
340.720	18870
340.807	12247
340.894	3178
340.980	4277
341.067	3886
341.154	4921
341.240	6297
341.327	10817
341.414	4778
341.500	6014
341.587	3833
341.674	3795
341.760	7547
341.847	9582
341.933	4676
342.020	2362
342.106	2954
342.193	3518
342.279	7117
342.366	5147
342.452	7804
342.539	4588
342.625	9236
342.712	21402
342.798	9865
342.885	5044
342.971	3142
343.058	3554
343.144	2777
343.230	3556
343.317	3470
343.403	3332
343.490	2929
343.576	2792
343.662	3696
343.749	4160
343.835	4446
343.921	6582
344.008	26871
344.094	59171
344.180	17020
344.267	7864
344.353	16409
344.439	18330
344.525	12140
344.612	15725
344.698	18904
344.784	11541
344.870	4709
344.957	3956
345.043	5782
345.129	4611
345.215	8157
345.301	5310
345.387	3646
345.474	3063
345.560	2267
345.646	3316
345.732	3097
345.818	4051
345.904	3624
345.990	3454
346.076	2959
346.162	5132
346.249	4385
346.335	3679
346.421	3049
346.507	8221
346.593	23179
346.679	7750
346.765	3933
346.851	4333
346.937	4080
347.023	3857
347.108	4018
347.194	4453
347.280	4076
347.366	4759
347.452	10026
347.538	29969
347.624	24501
347.710	20041
347.796	5141
347.882	3648
347.967	2743
348.053	4935
348.139	3900
348.225	3959
348.311	3430
348.397	3537
348.482	3723
348.568	4602
348.654	3347
348.740	6155
348.825	7149
348.911	7217
348.997	13284
349.083	26416
349.168	7014
349.254	4030
349.340	3702
349.425	2848
349.511	4015
349.597	5628
349.682	7839
349.768	20824
349.854	10401
349.939	4535
350.025	3671
350.110	4905
350.196	4210
350.282	2340
350.367	3613
350.453	3901
350.538	3723
350.624	4285
350.709	4700
350.795	2729
350.880	2850
350.966	4824
351.051	4330
351.137	3767
351.222	3319
351.308	7807
351.393	20496
351.479	6717
351.564	3074
351.649	4216
351.735	3070
351.820	3457
351.906	3298
351.991	4793
352.076	12464
352.162	20074
352.247	5925
352.332	5056
352.418	6690
352.503	9493
352.588	27216
352.673	25659
352.759	6722
352.844	4343
352.929	4388
353.014	5962
353.100	4500
353.185	6318
353.270	8246
353.355	8817
353.441	3832
353.526	4165
353.611	7268
353.696	9088
353.781	6517
353.866	3456
353.952	3958
354.037	7331
354.122	15631
354.207	14115
354.292	7249
354.377	4747
354.462	3971
354.547	4616
354.632	4572
354.717	6738
354.802	6742
354.887	4241
354.972	3890
355.057	4209
355.142	3041
355.227	4928
355.312	5495
355.397	10734
355.482	23570
355.567	13061
355.652	10267
355.737	9631
355.822	22671
355.907	19915
355.991	6054
356.076	3270
356.161	4149
356.246	3967
356.331	4353
356.416	7000
356.501	30612
356.585	33928
356.670	8049
356.755	7998
356.840	7469
356.924	23544
357.009	75793
357.094	35125
357.179	10807
357.263	7718
357.348	7391
357.433	7837
357.517	7176
357.602	6632
357.687	6047
357.771	8383
357.856	20442
357.941	14684
358.025	21449
358.110	73784
358.195	41924
358.279	9942
358.364	7392
358.448	18082
358.533	46056
358.617	35891
358.702	33716
358.787	15144
358.871	9180
358.956	9551
359.040	4538
359.125	3818
359.209	4507
359.294	11189
359.378	19853
359.462	9614
359.547	5985
359.631	3742
359.716	2939
359.800	3836
359.885	4797
359.969	4149
360.053	3923
360.138	4588
360.222	5179
360.306	8713
360.391	7237
360.475	11676
360.559	25543
360.644	20025
360.728	13688
360.812	18186
360.896	48705
360.981	25563
361.065	14725
361.149	6474
361.233	5256
361.318	4788
361.402	5551
361.486	4914
361.570	4396
361.654	6208
361.739	9788
361.823	32167
361.907	49820
361.991	12886
362.075	8731
362.159	16933
362.243	16470
362.327	20752
362.411	25723
362.495	13573
362.580	8353
362.664	7338
362.748	7103
362.832	11346
362.916	19570
363.000	47810
363.084	77334
363.168	70574
363.252	22376
363.336	11351
363.420	11549
363.503	31618
363.587	40649
363.671	10748
363.755	8533
363.839	11807
363.923	7303
364.007	12326
364.091	14417
364.175	19438
364.258	66675
364.342	74720
364.426	91964
364.510	51804
364.594	23485
364.677	16992
364.761	42995
364.845	34418
364.929	15973
365.013	14015
365.096	9787
365.180	12742
365.264	14144
365.347	50203
365.431	24013
365.515	7998
365.598	4954
365.682	5763
365.766	7022
365.849	9702
365.933	5295
366.017	7440
366.100	6074
366.184	4102
366.267	4999
366.351	4388
366.435	3848
366.518	3715
366.602	3540
366.685	3882
366.769	4060
366.852	7431
366.936	10218
367.019	7198
367.103	4694
367.186	10357
367.270	4566
367.353	3679
367.436	4182
367.520	4027
367.603	4709
367.687	6299
367.770	9927
367.853	7299
367.937	13821
368.020	23198
368.104	7550
368.187	8117
368.270	11509
368.353	10553
368.437	8905
368.520	13455
368.603	12180
368.687	16322
368.770	32535
368.853	10881
368.936	9240
369.020	11166
369.103	5305
369.186	3926
369.269	3922
369.352	7802
369.436	9365
369.519	6818
369.602	3837
369.685	5117
369.768	4293
369.851	4538
369.934	2670
370.018	4217
370.101	8018
370.184	8504
370.267	6263
370.350	9693
370.433	12554
370.516	23596
370.599	28903
370.682	10988
370.765	23011
370.848	23924
370.931	35181
371.014	17465
371.097	5037
371.180	5362
371.263	3938
371.346	3807
371.429	4318
371.511	3733
371.594	6626
371.677	10400
371.760	11862
371.843	9651
371.926	30381
372.009	67047
372.091	30269
372.174	16426
372.257	33133
372.340	16126
372.423	13925
372.505	17013
372.588	7518
372.671	13762
372.754	35610
372.836	21503
372.919	16924
373.002	33500
373.085	12404
373.167	9059
373.250	18631
373.332	33484
373.415	43472
373.498	85191
373.580	38960
373.663	42586
373.746	59824
373.828	18244
373.911	10059
373.993	8598
374.076	28179
374.159	28904
374.241	12264
374.324	34155
374.406	24659
374.489	26024
374.571	67918
374.654	33090
374.736	16461
374.819	42847
374.901	60480
374.983	64556
375.066	16346
375.148	8327
375.231	23156
375.313	47793
375.395	19291
375.478	6107
375.560	5010
375.643	6035
375.725	14178
375.807	50717
375.890	41224
375.972	14238
376.054	9535
376.136	10865
376.219	7004
376.301	15227
376.383	44928
376.465	20308
376.548	14530
376.630	14582
376.712	38671
376.794	20946
376.877	4930
376.959	3462
377.041	4899
377.123	8190
377.205	9317
377.287	3830
377.369	3842
377.452	3869
377.534	3296
377.616	3692
377.698	3174
377.780	3225
377.862	3803
377.944	4192
378.026	3119
378.108	4187
378.190	3222
378.272	3893
378.354	3100
378.436	2941
378.518	4202
378.600	14577
378.682	13043
378.764	24122
378.846	20716
378.928	6799
379.010	10004
379.091	7262
379.173	4173
379.255	2857
379.337	4955
379.419	11571
379.501	32650
379.583	16030
379.664	4948
379.746	9445
379.828	25761
379.910	33273
379.991	30701
380.073	6781
380.155	4708
380.237	4440
380.318	3334
380.400	3584
380.482	5877
380.564	9177
380.645	8894
380.727	9019
380.809	7171
380.890	4553
380.972	3611
381.053	3952
381.135	4890
381.217	9201
381.298	28498
381.380	15972
381.461	10540
381.543	38448
381.624	50958
381.706	12570
381.787	7821
381.869	8783
381.951	17576
382.032	62430
382.113	47894
382.195	13503
382.276	9856
382.358	14344
382.439	36861
382.521	40725
382.602	61319
382.684	32604
382.765	55185
382.846	65222
382.928	91724
383.009	55141
383.090	41999
383.172	126647
383.253	182486
383.334	69595
383.416	59723
383.497	36239
383.578	21360
383.659	38308
383.741	113743
383.822	257204
383.903	144060
383.984	51902
384.066	76135
384.147	51683
384.228	14845
384.309	11762
384.390	9022
384.471	7802
384.553	8243
384.634	9488
384.715	10055
384.796	6401
384.877	7152
384.958	21904
385.039	29066
385.120	12791
385.201	7003
385.282	7848
385.363	9144
385.444	7612
385.525	11971
385.606	30819
385.687	27273
385.768	9688
385.849	11054
385.930	34336
386.011	59032
386.092	20796
386.173	7712
386.254	6290
386.335	6326
386.416	6625
386.496	16292
386.577	27907
386.658	11239
386.739	7980
386.820	7316
386.901	5958
386.981	5934
387.062	5327
387.143	7738
387.224	24178
387.304	25156
387.385	11308
387.466	7960
387.547	10756
387.627	7856
387.708	11696
387.789	39329
387.869	48223
387.950	16953
388.031	5745
388.111	4469
388.192	10044
388.273	13581
388.353	9038
388.434	5815
388.514	9655
388.595	33896
388.676	47902
388.756	26885
388.837	25994
388.917	17665
388.998	4969
389.078	5988
389.159	4747
389.239	3265
389.320	7299
389.400	5977
389.480	10145
389.561	23624
389.641	14422
389.722	7000
389.802	10211
389.883	11611
389.963	26354
390.043	18159
390.124	7320
390.204	10366
390.284	30975
390.365	20543
390.445	20970
390.525	44787
390.605	40777
390.686	18146
390.766	7979
390.846	5781
390.927	3981
391.007	4327
391.087	5310
391.167	5353
391.247	4511
391.328	5574
391.408	8870
391.488	7934
391.568	3652
391.648	5778
391.728	9083
391.808	7591
391.888	7868
391.969	14513
392.049	23647
392.129	12672
392.209	12881
392.289	27859
392.369	17651
392.449	16331
392.529	12187
392.609	10001
392.689	11966
392.769	26985
392.849	27548
392.929	20875
393.009	42581
393.089	37789
393.169	40850
393.248	103028
393.328	298455
393.408	331597
393.488	126332
393.568	44000
393.648	23555
393.728	15567
393.807	12433
393.887	12095
393.967	11379
394.047	11009
394.127	14916
394.206	23047
394.286	63487
394.366	204577
394.446	240396
394.525	89207
394.605	29312
394.685	17962
394.764	25489
394.844	38292
394.924	32892
395.003	12920
395.083	9451
395.163	9006
395.242	8461
395.322	8516
395.402	6925
395.481	9748
395.561	16452
395.640	43931
395.720	45963
395.799	50875
395.879	43748
395.958	37057
396.038	98013
396.117	256580
396.197	294972
396.276	143329
396.356	56202
396.435	34039
396.515	24303
396.594	24699
396.673	38035
396.753	104422
396.832	284690
396.912	234383
396.991	71748
397.070	25696
397.150	13960
397.229	12478
397.308	18589
397.388	35811
397.467	21604
397.546	8406
397.625	4498
397.705	7893
397.784	8391
397.863	5423
397.942	4350
398.022	4437
398.101	12161
398.180	33752
398.259	20769
398.338	7678
398.417	5605
398.497	4258
398.576	4612
398.655	2823
398.734	4357
398.813	4131
398.892	10320
398.971	36557
399.050	19458
399.129	3184
399.208	3799
399.287	4714
399.366	3364
399.445	3130
399.524	3958
399.603	2592
399.682	5558
399.761	11807
399.840	37411
399.919	31171
399.998	6115
400.077	2358
400.156	2540
400.235	4982
400.313	2911
400.392	3409
400.471	14220
400.550	24948
400.629	6910
400.708	4867
400.786	3248
400.865	9669
400.944	9577
401.023	6333
401.102	2587
401.180	3240
401.259	2051
401.338	3253
401.416	5137
401.495	3692
401.574	3588
401.652	2998
401.731	4595
401.810	3450
401.888	2820
401.967	1378
402.046	2924
402.124	4628
402.203	4043
402.281	4282
402.360	5000
402.438	10878
402.517	8059
402.596	3616
402.674	2815
402.753	2562
402.831	2731
402.910	3778
402.988	8103
403.066	26161
403.145	17696
403.223	10176
403.302	23860
403.380	19138
403.459	18956
403.537	8977
403.615	4883
403.694	2856
403.772	4141
403.850	3163
403.929	3474
404.007	3053
404.085	6471
404.164	6630
404.242	7132
404.320	21539
404.398	57136
404.477	62486
404.555	66216
404.633	60142
404.711	49750
404.789	39673
404.868	12349
404.946	5640
405.024	4176
405.102	3269
405.180	3091
405.258	1398
405.336	3550
405.415	2371
405.493	4775
405.571	5055
405.649	2505
405.727	1281
405.805	4091
405.883	3351
405.961	4226
406.039	3653
406.117	2863
406.195	3825
406.273	11564
406.351	45529
406.429	30825
406.507	6464
406.585	3400
406.663	3617
406.740	4832
406.818	3543
406.896	2360
406.974	3283
407.052	4316
407.130	26547
407.208	41592
407.285	10340
407.363	2499
407.441	2991
407.519	3363
407.596	3561
407.674	9622
407.752	36495
407.830	33005
407.907	9632
407.985	3308
408.063	2847
408.141	1789
408.218	3759
408.296	3154
408.373	3279
408.451	3901
408.529	3452
408.606	2796
408.684	2342
408.762	2828
408.839	1608
408.917	2880
408.994	1989
409.072	2825
409.149	2950
409.227	5082
409.304	5767
409.382	5854
409.459	6187
409.537	8519
409.614	8181
409.692	7414
409.769	6261
409.846	7970
409.924	10964
410.001	9234
410.079	8551
410.156	6693
410.233	5323
410.311	4488
410.388	4024
410.465	4143
410.543	4719
410.620	3859
410.697	3512
410.775	4190
410.852	1859
410.929	4448
411.006	5315
411.083	3215
411.161	6904
411.238	7399
411.315	4318
411.392	3342
411.469	3789
411.547	4792
411.624	1825
411.701	2610
411.778	2474
411.855	5934
411.932	3240
412.009	2480
412.086	2024
412.163	2709
412.240	2994
412.317	4026
412.394	3502
412.471	2936
412.548	2037
412.625	2297
412.702	3110
412.779	4623
412.856	5151
412.933	2699
413.010	2400
413.087	3681
413.164	13171
413.241	21405
413.318	6566
413.395	4858
413.471	4483
413.548	3310
413.625	2181
413.702	2535
413.779	2247
413.855	1898
413.932	1919
414.009	1551
414.086	2480
414.162	2307
414.239	3122
414.316	12804
414.393	29407
414.469	11893
414.546	1919
414.623	2412
414.699	2328
414.776	2527
414.853	1957
414.929	3098
415.006	2244
415.082	2462
415.159	1667
415.236	2327
415.312	2926
415.389	3207
415.465	4442
415.542	2324
415.618	1831
415.695	4175
415.771	2193
415.848	2259
415.924	2206
416.000	2373
416.077	2453
416.153	822
416.230	1266
416.306	1718
416.383	1346
416.459	1743
416.535	820
416.612	1193
416.688	1592
416.764	1514
416.841	610
416.917	1598
416.993	1673
417.069	1991
417.146	3784
417.222	7027
417.298	4097
417.374	1938
417.451	2356
417.527	2823
417.603	2522
417.679	2671
417.755	2165
417.831	1191
417.908	1636
417.984	2180
418.060	1305
418.136	4488
418.212	5609
418.288	3268
418.364	2608
418.440	1639
418.516	3100
418.592	3407
418.668	5706
418.744	9416
418.820	7863
418.896	2647
418.972	517
419.048	2329
419.124	5058
419.200	4163
419.276	1767
419.352	824
419.428	2105
419.504	1988
419.579	2876
419.655	2762
419.731	2443
419.807	6183
419.883	10724
419.959	7926
420.034	3235
420.110	5381
420.186	19385
420.262	16988
420.337	4276
420.413	3845
420.489	2693
420.565	3558
420.640	2278
420.716	4729
420.792	2218
420.867	4271
420.943	3121
421.019	4781
421.094	4509
421.170	4330
421.245	3877
421.321	4912
421.397	4428
421.472	10120
421.548	23547
421.623	18758
421.699	8981
421.774	8410
421.850	7788
421.925	11880
422.001	11296
422.076	12409
422.152	15570
422.227	21775
422.302	30030
422.378	42695
422.453	71121
422.529	131098
422.604	200065
422.679	195446
422.755	206655
422.830	154036
422.905	84937
422.981	50366
423.056	33257
423.131	25188
423.207	19264
423.282	15285
423.357	16946
423.432	12752
423.508	10689
423.583	15212
423.658	13075
423.733	7378
423.808	7353
423.883	7792
423.959	7014
424.034	5802
424.109	5839
424.184	5161
424.259	4025
424.334	4040
424.409	2954
424.484	3728
424.559	3148
424.634	3400
424.709	3106
424.784	4560
424.859	3509
424.934	3209
425.009	13019
425.084	22525
425.159	9237
425.234	4241
425.309	2690
425.384	7404
425.459	11326
425.534	5314
425.609	2013
425.683	2348
425.758	2346
425.833	2394
425.908	3584
425.983	7052
426.058	22850
426.132	11740
426.207	3437
426.282	4419
426.357	3307
426.431	1669
426.506	2332
426.581	2720
426.655	2604
426.730	2351
426.805	1527
426.879	2465
426.954	2258
427.029	3142
427.103	15944
427.178	40891
427.253	20482
427.327	4095
427.402	4055
427.476	11824
427.551	7013
427.625	2601
427.700	2237
427.774	1933
427.849	2500
427.923	1640
427.998	2228
428.072	2565
428.147	5274
428.221	22244
428.296	71226
428.370	41542
428.444	6326
428.519	4430
428.593	7974
428.667	8178
428.742	9434
428.816	10908
428.890	42135
428.965	75220
429.039	23815
429.113	10163
429.188	4919
429.262	2219
429.336	3908
429.410	10859
429.485	7316
429.559	6894
429.633	6518
429.707	3920
429.781	7631
429.855	44131
429.930	71116
430.004	30413
430.078	36133
430.152	39801
430.226	85087
430.300	92515
430.374	19717
430.448	7655
430.522	11606
430.596	33715
430.670	24792
430.744	61087
430.818	85394
430.892	18523
430.966	3612
431.040	2887
431.114	474
431.188	1893
431.262	1604
431.336	1697
431.410	3626
431.484	9042
431.557	8407
431.631	2127
431.705	3139
431.779	13620
431.853	62341
431.927	48359
432.000	7005
432.074	2997
432.148	2026
432.222	2375
432.295	1464
432.369	1536
432.443	2272
432.516	13918
432.590	39756
432.664	16284
432.737	2230
432.811	1070
432.885	964
432.958	1708
433.032	1286
433.106	571
433.179	1057
433.253	1544
433.326	798
433.400	468
433.473	1105
433.547	803
433.620	1090
433.694	2527
433.767	3078
433.841	449
433.914	926
433.988	819
434.061	1486
434.134	373
434.208	1011
434.281	669
434.355	17
434.428	1663
434.501	331
434.575	1027
434.648	731
434.721	836
434.795	538
434.868	1029
434.941	390
435.014	716
435.088	1510
435.161	2168
435.234	2453
435.307	3455
435.381	2592
435.454	2600
435.527	3264
435.600	3474
435.673	3258
435.746	3146
435.819	2215
435.892	3018
435.966	1765
436.039	1501
436.112	1957
436.185	1449
436.258	937
436.331	1148
436.404	1116
436.477	1095
436.550	505
436.623	725
436.696	952
436.769	1873
436.842	1034
436.915	992
436.987	1979
437.060	1488
437.133	302
437.206	1071
437.279	1631
437.352	979
437.425	1072
437.498	1501
437.570	3826
437.643	4769
437.716	1334
437.789	859
437.861	2739
437.934	7406
438.007	3280
438.080	1043
438.152	1956
438.225	3086
438.298	15718
438.370	49259
438.443	24186
438.516	7739
438.588	1927
438.661	1013
438.734	1021
438.806	1251
438.879	884
438.951	2284
439.024	4298
439.096	1363
439.169	586
439.241	546
439.314	426
439.386	1594
439.459	1677
439.531	3369
439.604	1176
439.676	997
439.749	851
439.821	947
439.893	1494
439.966	676
440.038	1597
440.110	1290
440.183	845
440.255	834
440.327	1681
440.400	7433
440.472	32788
440.544	22146
440.617	3238
440.689	3706
440.761	3993
440.833	6789
440.905	4942
440.978	825
441.050	738
441.122	1428
441.194	279
441.266	1173
441.338	961
441.411	2514
441.483	12090
441.555	18450
441.627	4591
441.699	2065
441.771	2170
441.843	1426
441.915	506
441.987	1507
442.059	1545
442.131	2266
442.203	2922
442.275	3859
442.347	4570
442.419	8774
442.491	37443
442.563	91035
442.635	37972
442.706	14179
442.778	9155
442.850	3516
442.922	1916
442.994	2934
443.066	2798
443.137	3666
443.209	4074
443.281	6552
443.353	13065
443.425	45882
443.496	142322
443.568	146386
443.640	58332
443.711	12947
443.783	5254
443.855	3799
443.926	1909
443.998	2017
444.070	3153
444.141	3090
444.213	3147
444.285	4331
444.356	2627
444.428	2873
444.499	1318
444.571	1474
444.642	909
444.714	1725
444.785	3073
444.857	3355
444.928	5458
445.000	4237
445.071	4975
445.143	6776
445.214	7063
445.285	11936
445.357	29377
445.428	90848
445.500	185029
445.571	132998
445.642	79037
445.714	26458
445.785	14903
445.856	5499
445.928	4520
445.999	3723
446.070	3086
446.141	3626
446.213	4169
446.284	1148
446.355	2694
446.426	1979
446.497	1428
446.569	2381
446.640	2969
446.711	2811
446.782	1185
446.853	1162
446.924	1106
446.995	1640
447.066	1192
447.138	2296
447.209	2080
447.280	634
447.351	64
447.422	41
447.493	547
447.564	1907
447.635	2186
447.706	489
447.777	-23
447.847	771
447.918	53
447.989	1715
448.060	1129
448.131	3572
448.202	3581
448.273	3246
448.344	627
448.414	1478
448.485	880
448.556	1066
448.627	283
448.698	1591
448.768	553
448.839	351
448.910	1837
448.981	2320
449.051	888
449.122	988
449.193	576
449.263	119
449.334	873
449.405	1634
449.475	3537
449.546	2313
449.616	2199
449.687	2146
449.758	1461
449.828	972
449.899	632
449.969	344
450.040	463
450.110	1880
450.181	1218
450.251	838
450.322	778
450.392	1301
450.463	653
450.533	622
450.604	514
450.674	718
450.744	787
450.815	1054
450.885	898
450.955	1143
451.026	179
451.096	765
451.166	392
451.237	2112
451.307	6319
451.377	2778
451.447	-131
451.518	-288
451.588	1004
451.658	667
451.728	1729
451.799	6282
451.869	7281
451.939	1378
452.009	650
452.079	913
452.149	1324
452.219	1922
452.289	7356
452.360	4419
452.430	1799
452.500	949
452.570	2036
452.640	3798
452.710	7410
452.780	12338
452.850	8537
452.920	6359
452.990	3054
453.060	1580
453.129	2551
453.199	2771
453.269	7280
453.339	15497
453.409	23757
453.479	24058
453.549	34773
453.619	37337
453.688	11519
453.758	2713
453.828	1134
453.898	1426
453.968	1056
454.037	1178
454.087	1197
454.107	1202
454.168	902
454.177	851
454.247	954
454.249	958
454.316	870
454.330	742
454.386	219
454.411	1184
454.456	2766
454.492	4034
454.525	5201
454.574	2911
454.595	1894
454.655	989
454.665	849
454.734	1103
454.736	1122
454.804	1385
454.817	2102
454.873	4991
454.898	5605
454.943	6765
454.979	4133
455.013	1738
455.060	1224
455.082	990
455.141	1223
455.152	1280
455.221	3460
455.222	3541
455.291	9417
455.303	9453
455.360	9187
455.384	14790
455.430	24984
455.465	17888
455.499	11094
455.546	7590
455.569	6009
455.627	3863
455.638	3458
455.707	1210
455.708	1216
455.777	961
455.789	1046
455.846	1366
455.869	1075
455.916	549
455.950	1130
455.985	1626
456.031	852
456.054	465
456.112	1199
456.124	1394
456.193	1034
456.193	1020
456.262	871
456.274	922
456.332	1488
456.355	1284
456.401	679
456.436	870
456.470	1044
456.516	1019
456.540	1045
456.597	826
456.609	793
456.678	1409
456.678	1402
456.747	889
456.759	834
456.817	853
456.840	791
456.886	499
456.920	574
456.955	882
457.001	1050
457.024	899
457.082	711
457.093	720
457.162	933
457.163	941
457.232	845
457.243	898
457.301	1311
457.324	1040
457.370	668
457.405	1194
457.439	1493
457.485	1551
457.508	1563
457.566	1731
457.577	1826
457.646	2310
457.647	2320
457.715	3378
457.727	3828
457.784	6558
457.808	8171
457.853	10352
457.889	13016
457.922	14125
457.969	10295
457.991	9746
458.050	10162
458.060	10267
458.129	16432
458.130	16642
458.198	21771
458.211	20306
458.267	11990
458.292	8818
458.336	5268
458.372	4342
458.405	5063
458.453	7060
458.474	8603
458.533	15345
458.543	16082
458.611	29385
458.614	29575
458.680	23901
458.694	20229
458.749	9189
458.775	6506
458.818	3546
458.855	2913
458.887	2685
458.936	2131
458.955	1872
459.016	1390
459.024	1414
459.093	2708
459.097	2706
459.162	2013
459.177	2018
459.230	2257
459.257	2506
459.299	2642
459.338	2467
459.368	2485
459.418	3105
459.437	3107
459.499	2104
459.505	2081
459.574	2640
459.579	2647
459.643	2384
459.659	2383
459.711	2392
459.740	2254
459.780	1869
459.820	1844
459.849	1922
459.900	2154
459.917	2264
459.981	2315
459.986	2298
460.054	2297
460.061	2285
460.123	2482
460.141	2641
460.191	3242
460.222	3352
460.260	3203
460.302	3590
460.328	3737
460.382	3461
460.397	3374
460.462	3077
460.465	3153
460.534	5432
460.543	5696
460.602	14653
460.623	18470
460.671	27431
460.703	38489
460.739	42120
460.783	39991
460.808	34996
460.864	8979
460.876	6097
460.944	3295
460.945	3270
461.013	2789
461.024	2812
461.081	2693
461.104	2562
461.150	2369
461.184	2386
461.218	2479
461.264	2576
461.286	2608
461.345	2410
461.355	2355
461.423	2326
461.425	2323
461.491	2514
461.505	2587
461.559	2733
461.585	2715
461.628	3334
461.665	4247
461.696	4870
461.745	6797
461.764	6712
461.825	3361
461.832	3205
461.901	2641
461.905	2657
461.969	1918
461.985	1678
462.037	2604
462.065	3093
462.105	2318
462.145	1827
462.173	2218
462.225	2507
462.241	2558
462.305	3649
462.310	3654
462.378	3176
462.385	3030
462.446	2666
462.465	2762
462.514	2358
462.545	2118
462.582	2341
462.625	2359
462.650	2356
462.705	2611
462.718	2594
462.785	2419
462.786	2424
462.854	2925
462.865	2911
462.922	2394
462.945	2513
462.990	2770
463.025	2404
463.058	2409
463.104	2697
463.126	2452
463.184	1949
463.194	2052
463.262	2434
463.264	2454
463.330	2688
463.344	2773
463.398	3430
463.424	3477
463.466	2507
463.504	2039
463.533	2511
463.583	3061
463.601	2941
463.663	2475
463.669	2527
463.737	3059
463.743	3132
463.805	3470
463.823	3498
463.873	4479
463.903	5224
463.940	5671
463.982	6379
464.008	6031
464.062	4415
464.076	4196
464.142	2966
464.144	2940
464.211	2308
464.221	2253
464.279	2646
464.301	2767
464.347	3105
464.381	3200
464.414	2952
464.461	2741
464.482	2959
464.540	3669
464.550	3613
464.617	3091
464.620	3065
464.685	4040
464.699	4286
464.753	4577
464.779	4655
464.820	5883
464.859	7282
464.888	6960
464.938	5969
464.956	5905
465.018	5650
465.023	5632
465.091	5372
465.098	5354
465.158	5378
465.177	5306
465.226	4912
465.257	4777
465.293	5063
465.336	5185
465.361	5324
465.416	5877
465.428	5910
465.495	5836
465.496	5851
465.563	6905
465.575	7090
465.631	8099
465.654	8661
465.698	7301
465.734	5512
465.765	5105
465.813	4842
465.833	4794
465.893	4778
465.900	4827
465.968	5139
465.972	5158
466.035	4343
466.052	4098
466.102	4828
466.131	5242
466.170	4937
466.210	4571
466.237	4896
466.290	5551
466.304	5591
466.369	5677
466.372	5673
466.439	5333
466.449	5272
466.506	5763
466.528	5926
466.573	6324
466.607	6649
466.641	7576
466.687	8809
466.708	9789
466.766	12627
466.775	12151
466.842	8325
466.845	8130
466.909	6588
466.925	6252
466.977	5856
467.004	5626
467.044	6458
467.083	7312
467.111	7832
467.163	8770
467.178	9120
467.242	10517
467.245	10444
467.312	8626
467.321	8376
467.379	7930
467.400	7749
467.446	8102
467.480	8338
467.559	7743
467.638	6226
467.717	7233
467.796	6971
467.875	7033
467.955	7503
468.034	8863
468.113	12598
468.192	15970
468.271	10380
468.350	8608
468.429	8985
468.508	9830
468.588	7618
468.667	8436
468.746	6811
468.825	6613
468.904	6567
468.983	6727
469.062	7046
469.141	8753
469.220	6121
469.299	6221
469.378	6712
469.456	9082
469.535	9322
469.614	7672
469.693	7542
469.772	8957
469.851	8553
469.930	7460
470.009	7443
470.088	7035
470.166	7095
470.245	7707
470.324	8358
470.403	7820
470.482	6929
470.560	7294
470.639	6453
470.718	7583
470.797	6875
470.875	7333
470.954	7386
471.033	7754
471.111	6221
471.190	6292
471.269	6501
471.347	5467
471.426	6070
471.505	7644
471.583	7459
471.662	7757
471.740	6466
471.819	7123
471.898	5965
471.976	7335
472.055	6785
472.133	6150
472.212	8152
472.290	8019
472.369	6793
472.447	6269
472.526	5715
472.604	7043
472.683	6505
472.761	6354
472.839	5756
472.918	5969
472.996	5997
473.075	5553
473.153	7114
473.231	5872
473.310	5882
473.388	7058
473.466	6368
473.545	7623
473.623	8104
473.701	7576
473.780	5832
473.858	6030
473.936	8009
474.014	6785
474.093	6465
474.171	8216
474.249	7330
474.327	6677
474.405	5858
474.484	6390
474.562	5123
474.640	5379
474.718	5831
474.796	5882
474.874	5973
474.952	5628
475.030	5813
475.108	5409
475.187	5066
475.265	6992
475.343	7798
475.421	7923
475.499	6349
475.577	6473
475.655	6935
475.733	8202
475.811	10083
475.889	9364
475.966	8215
476.044	5293
476.122	5832
476.200	6171
476.278	7290
476.356	5066
476.434	5343
476.512	5158
476.590	6494
476.667	6974
476.745	5061
476.823	6395
476.901	5318
476.979	4862
477.056	5527
477.134	5726
477.212	5951
477.290	6092
477.367	4536
477.445	5732
477.523	5128
477.601	5670
477.678	4907
477.756	6591
477.834	4936
477.911	5235
477.989	5269
478.066	5085
478.144	5538
478.222	5599
478.299	5890
478.377	7268
478.454	6129
478.532	4816
478.609	5302
478.687	6780
478.764	5052
478.842	5375
478.919	4869
478.997	5960
479.074	5318
479.152	5408
479.229	4876
479.307	4815
479.384	5063
479.461	5414
479.539	4298
479.616	4833
479.694	4594
479.771	4686
479.848	4643
479.926	4975
480.003	5583
480.080	5625
480.157	4302
480.235	3995
480.312	5106
480.389	5290
480.467	4766
480.544	5612
480.621	4865
480.698	4755
480.775	5223
480.853	5318
480.930	4688
481.007	5384
481.084	6397
481.161	8101
481.238	7401
481.315	5627
481.392	3792
481.470	4851
481.547	4736
481.624	5450
481.701	4967
481.778	4819
481.855	4951
481.932	5491
482.009	5775
482.086	6643
482.163	4155
482.240	5887
482.317	7165
482.393	6926
482.470	5279
482.547	4634
482.624	3983
482.701	5036
482.778	4555
482.855	4972
482.932	4687
483.009	4741
483.085	5561
483.162	7105
483.239	7699
483.316	5179
483.393	5640
483.469	4606
483.546	4695
483.623	5329
483.699	4872
483.776	4593
483.853	4224
483.930	5493
484.006	8816
484.083	14594
484.160	17332
484.236	29162
484.313	26435
484.389	19044
484.466	16849
484.543	15900
484.619	16383
484.696	17123
484.772	15213
484.849	16255
484.925	14554
485.002	15261
485.078	14793
485.155	16134
485.231	13838
485.308	13742
485.384	14064
485.461	14891
485.537	15823
485.614	18172
485.690	14435
485.766	13577
485.843	12785
485.919	14723
485.995	15273
486.072	12751
486.148	12205
486.224	12558
486.301	12655
486.377	13237
486.453	13313
486.530	14139
486.606	18179
486.682	20947
486.758	19038
486.835	17867
486.911	15687
486.987	19012
487.063	21468
487.139	24606
487.215	22695
487.292	18685
487.368	15272
487.444	15853
487.520	18095
487.596	20277
487.672	27092
487.748	58809
487.824	97924
487.900	60622
487.976	23130
488.052	16309
488.128	15959
488.204	14175
488.280	13248
488.356	13573
488.432	15553
488.508	19189
488.584	14504
488.660	12123
488.736	11841
488.812	12028
488.888	13673
488.964	15592
489.039	20444
489.115	29275
489.191	24366
489.267	13004
489.343	11723
489.418	10231
489.494	10693
489.570	9191
489.646	12845
489.722	10336
489.797	10285
489.873	10928
489.949	13675
490.024	15849
490.100	9676
490.176	10142
490.251	10227
490.327	12991
490.403	9656
490.478	10167
490.554	7520
490.629	10566
490.705	8730
490.781	10551
490.856	9658
490.932	10791
491.007	9988
491.083	9374
491.158	9043
491.234	10365
491.309	10982
491.385	13794
491.460	8554
491.536	8342
491.611	9201
491.686	9359
491.762	10060
491.837	13168
491.913	19126
491.988	23908
492.063	32646
492.139	15819
492.214	9921
492.289	8207
492.365	6903
492.440	8058
492.515	7432
492.590	8090
492.666	6853
492.741	8257
492.816	9264
492.891	7340
492.967	7830
493.042	7176
493.117	7039
493.192	7767
493.267	9837
493.342	25108
493.418	38656
493.493	13626
493.568	7573
493.643	6137
493.718	8320
493.793	7868
493.868	9651
493.943	8578
494.018	7420
494.093	6712
494.168	7083
494.243	7350
494.318	7145
494.393	6544
494.468	7038
494.543	6480
494.618	7517
494.693	6607
494.768	6539
494.842	7252
494.917	5673
494.992	6882
495.067	6373
495.142	6354
495.217	7293
495.292	6882
495.366	7132
495.441	7752
495.516	9170
495.591	9871
495.665	20222
495.740	47182
495.815	33653
495.890	9523
495.964	5801
496.039	10178
496.114	8980
496.188	11230
496.263	11501
496.338	7770
496.412	7049
496.487	8940
496.561	8240
496.636	9754
496.710	8681
496.785	8896
496.860	9677
496.934	8630
497.009	7128
497.083	8486
497.158	8946
497.232	9690
497.307	10202
497.381	10335
497.455	9184
497.530	10026
497.604	10161
497.679	9242
497.753	11327
497.827	13420
497.902	13161
497.976	14719
498.050	20589
498.125	58778
498.199	81920
498.273	22972
498.348	16135
498.422	14395
498.496	14575
498.570	13880
498.645	12002
498.719	10776
498.793	10220
498.867	12527
498.941	13790
499.016	25322
499.090	64106
499.164	43481
499.238	9624
499.312	8337
499.386	8667
499.460	10328
499.534	7665
499.609	8911
499.683	9375
499.757	9252
499.831	11261
499.905	39134
499.979	54081
500.053	12292
500.127	9859
500.201	8188
500.275	7573
500.349	7930
500.422	7704
500.496	8424
500.570	13636
500.644	27465
500.718	47973
500.792	22840
500.866	7364
500.940	7606
501.013	7536
501.087	6811
501.161	9694
501.235	12153
501.309	15161
501.382	36618
501.456	46428
501.530	12750
501.603	13605
501.677	10644
501.751	5079
501.825	6948
501.898	8153
501.972	15738
502.046	15546
502.119	5712
502.193	8894
502.266	17918
502.340	14451
502.413	9991
502.487	16831
502.561	12284
502.634	7088
502.708	5566
502.781	4732
502.855	6444
502.928	5588
503.002	5193
503.075	4571
503.149	5642
503.222	5575
503.295	4237
503.369	5817
503.442	6998
503.516	12063
503.589	27120
503.662	24414
503.736	10806
503.809	16384
503.882	17655
503.956	20479
504.029	28906
504.102	34975
504.175	56412
504.249	34093
504.322	14300
504.395	9902
504.468	6603
504.542	5692
504.615	5972
504.688	5909
504.761	4219
504.834	6354
504.907	6501
504.980	7977
505.053	6046
505.127	4932
505.200	9766
505.273	5420
505.346	5350
505.419	3724
505.492	5638
505.565	4145
505.638	4305
505.711	3468
505.784	2808
505.857	3401
505.930	5082
506.003	3738
506.076	6225
506.149	3826
506.221	4297
506.294	6028
506.367	6802
506.440	21840
506.513	19765
506.586	5440
506.659	4723
506.731	3965
506.804	4696
506.877	4922
506.950	5543
507.022	4770
507.095	3633
507.168	6267
507.241	5332
507.313	3730
507.386	3894
507.459	5186
507.531	5119
507.604	3710
507.677	4755
507.749	3322
507.822	5722
507.894	9033
507.967	15635
508.040	10567
508.112	8878
508.185	8092
508.257	6942
508.330	9718
508.402	7809
508.475	7161
508.547	7935
508.620	7398
508.692	8768
508.765	6332
508.837	5553
508.909	6325
508.982	6314
509.054	7360
509.127	6054
509.199	6350
509.271	5700
509.344	6345
509.416	6549
509.488	5456
509.560	7132
509.633	5495
509.705	7146
509.777	6741
509.849	9138
509.922	7696
509.994	7768
510.066	8053
510.138	7052
510.210	15111
510.283	14844
510.355	11445
510.427	10426
510.499	9109
510.571	8721
510.643	8653
510.715	10612
510.787	9534
510.859	9319
510.931	8607
511.003	10268
511.076	12542
511.148	8992
511.219	7904
511.291	10075
511.363	11523
511.435	9392
511.507	7896
511.579	8154
511.651	8461
511.723	8181
511.795	6895
511.867	7188
511.939	7637
512.010	9052
512.082	9289
512.154	6545
512.226	7265
512.298	10664
512.369	15817
512.441	12647
512.513	10881
512.585	9321
512.656	9725
512.728	10106
512.800	8694
512.871	9442
512.943	8431
513.015	7347
513.086	7959
513.158	7916
513.230	7981
513.301	8680
513.373	10003
513.444	9110
513.516	6900
513.588	8330
513.659	7373
513.731	7891
513.802	6973
513.874	11208
513.945	15408
514.016	11039
514.088	8059
514.159	7439
514.231	9564
514.302	13476
514.374	12803
514.445	9932
514.516	12147
514.588	11102
514.659	9709
514.730	10654
514.802	10914
514.873	8460
514.944	11793
515.016	10610
515.087	9276
515.158	10048
515.229	12101
515.301	9262
515.372	12477
515.443	9960
515.514	9295
515.585	7583
515.656	8367
515.728	9462
515.799	7281
515.870	8692
515.941	8724
516.012	7981
516.083	11675
516.154	10208
516.225	11383
516.296	11484
516.367	10146
516.438	10138
516.509	11017
516.580	13877
516.651	27874
516.722	86966
516.793	73407
516.864	16697
516.935	15833
517.006	14648
517.077	17539
517.148	29769
517.219	79965
517.289	172792
517.360	63288
517.431	24840
517.502	11036
517.573	10509
517.643	10013
517.714	11263
517.785	11756
517.856	10856
517.926	14066
517.997	13598
518.068	14353
518.138	17980
518.209	20642
518.280	52664
518.350	202076
518.421	151364
518.492	26331
518.562	16696
518.633	17062
518.703	18057
518.774	31201
518.845	64914
518.915	81891
518.986	35104
519.056	18286
519.127	18488
519.197	20707
519.268	32590
519.338	29871
519.408	12634
519.479	13489
519.549	12139
519.620	10331
519.690	8529
519.760	8156
519.831	9148
519.901	7956
519.971	7627
520.042	7755
520.112	8239
520.182	9590
520.253	10693
520.323	8135
520.393	9385
520.463	14458
520.534	8150
520.604	15874
520.674	11502
520.744	9085
520.814	14049
520.885	16581
520.955	12218
521.025	31079
521.095	23835
521.165	9169
521.235	7165
521.305	6725
521.375	7294
521.445	8137
521.515	8314
521.585	9345
521.655	8664
521.725	8855
521.795	8671
521.865	5772
521.935	10020
522.005	7471
522.075	6478
522.145	8037
522.215	7557
522.285	9189
522.355	9008
522.424	11857
522.494	12092
522.564	9778
522.634	11499
522.704	32275
522.774	23855
522.843	8436
522.913	6614
522.983	8750
523.053	7648
523.122	7667
523.192	7020
523.262	13955
523.331	21347
523.401	9852
523.471	6688
523.540	7914
523.610	6959
523.680	6313
523.749	8439
523.819	8889
523.888	7758
523.958	6368
524.027	6528
524.097	6752
524.166	6289
524.236	5789
524.305	8062
524.375	6239
524.444	5644
524.514	8325
524.583	5643
524.653	6257
524.722	8213
524.791	5465
524.861	6991
524.930	5208
524.999	6852
525.069	7913
525.138	6400
525.207	7065
525.277	7964
525.346	7640
525.415	8212
525.484	6853
525.554	7436
525.623	8370
525.692	10714
525.761	10955
525.830	10827
525.900	12096
525.969	16186
526.038	27719
526.107	45171
526.176	142851
526.245	164765
526.314	55426
526.383	65053
526.452	122367
526.522	137914
526.591	205138
526.660	53395
526.729	25173
526.797	24040
526.867	33460
526.935	113432
527.004	271879
527.073	251461
527.142	41416
527.211	15646
527.280	12069
527.349	10288
527.418	7648
527.487	8368
527.555	6016
527.624	6292
527.693	5789
527.762	7731
527.831	4937
527.899	6307
527.968	5688
528.037	4541
528.106	6597
528.174	8989
528.243	8695
528.312	8389
528.380	11027
528.449	7222
528.518	7341
528.586	4802
528.655	6344
528.723	5708
528.792	6198
528.861	5197
528.929	5034
528.998	7830
529.066	8828
529.135	16789
529.203	16455
529.272	18254
529.340	26973
529.409	25125
529.477	21759
529.545	23031
529.614	24868
529.682	25364
529.751	31456
529.819	32941
529.887	36426
529.956	35400
530.024	33480
530.092	30178
530.161	29954
530.229	32068
530.297	34566
530.365	34872
530.434	34202
530.502	37765
530.570	34877
530.638	28524
530.707	28391
530.775	27343
530.843	24758
530.911	30915
530.979	29591
531.047	33817
531.115	34463
531.183	29646
531.252	28645
531.320	26706
531.388	27274
531.456	30263
531.524	31951
531.592	34435
531.660	39144
531.728	35651
531.796	32834
531.864	33505
531.932	32816
532.000	32478
532.067	35515
532.135	38947
532.203	39534
532.271	42055
532.339	43654
532.407	48137
532.475	46082
532.542	39730
532.610	39236
532.678	39432
532.746	55746
532.814	106052
532.881	67956
532.949	42287
533.017	38341
533.084	36600
533.152	34541
533.220	34199
533.287	34493
533.355	38234
533.423	36367
533.490	37325
533.558	36996
533.625	35400
533.693	33342
533.761	34115
533.828	32469
533.896	31494
533.963	37939
534.031	40519
534.098	44355
534.166	39391
534.233	33708
534.300	34215
534.368	33658
534.435	31294
534.503	30307
534.570	32387
534.637	33568
534.705	33309
534.772	35525
534.840	36368
534.907	73466
534.974	133573
535.041	43272
535.109	26844
535.176	24903
535.243	27062
535.310	25337
535.378	26727
535.445	24452
535.512	23943
535.579	22979
535.646	21579
535.714	21525
535.781	24565
535.848	23883
535.915	25591
535.982	26052
536.049	27140
536.116	25928
536.183	23759
536.250	21142
536.317	21059
536.384	20695
536.451	20971
536.518	21884
536.585	20459
536.652	22616
536.719	23189
536.786	20315
536.853	19123
536.920	19970
536.987	21765
537.053	20768
537.120	44350
537.187	58408
537.254	20153
537.321	18070
537.388	18489
537.454	16043
537.521	16234
537.588	14965
537.654	15978
537.721	17388
537.788	18618
537.855	16316
537.921	16466
537.988	16549
538.055	17963
538.121	14277
538.188	14862
538.254	15092
538.321	17688
538.388	16003
538.454	14585
538.521	14665
538.587	15471
538.654	13669
538.720	14958
538.787	15198
538.853	14374
538.920	13990
538.986	13339
539.053	12398
539.119	13590
539.185	13040
539.252	14076
539.318	15642
539.385	17829
539.451	16009
539.517	16472
539.583	15441
539.650	17990
539.716	39319
539.782	23734
539.849	12849
539.915	13150
539.981	12647
540.047	13009
540.114	13764
540.180	14434
540.246	12879
540.312	13912
540.378	15978
540.444	18078
540.510	17764
540.576	40385
540.643	26155
540.709	12255
540.775	12694
540.841	13216
540.907	13625
540.973	15771
541.039	13834
541.105	15186
541.171	13241
541.237	12316
541.303	13101
541.369	14232
541.435	13373
541.500	15025
541.566	13100
541.632	11262
541.698	10770
541.764	12013
541.830	11016
541.896	11116
541.961	11894
542.027	11710
542.093	12589
542.159	12542
542.224	12223
542.290	14564
542.356	14560
542.421	16934
542.487	13990
542.553	11942
542.618	12224
542.684	12233
542.750	11001
542.815	13406
542.881	15315
542.947	32207
543.012	37872
543.078	12686
543.143	11143
543.209	12494
543.274	11356
543.340	12811
543.405	16285
543.471	28839
543.536	15207
543.602	12481
543.667	11009
543.732	12506
543.798	11162
543.863	12640
543.928	11092
543.994	11527
544.059	11504
544.124	12296
544.190	11287
544.255	11983
544.320	12580
544.386	12309
544.451	13380
544.516	13940
544.581	13086
544.646	22099
544.712	42440
544.777	19051
544.842	13835
544.907	13166
544.972	12448
545.037	12719
545.102	14578
545.168	14060
545.233	14033
545.298	14586
545.363	13608
545.428	16256
545.493	18454
545.558	31947
545.623	24100
545.688	13894
545.753	14502
545.818	14629
545.883	15069
545.947	14869
546.012	15481
546.077	15676
546.142	17482
546.207	15608
546.272	18662
546.337	17517
546.401	18061
546.466	18567
546.531	18202
546.596	20063
546.661	19710
546.725	20967
546.790	20074
546.855	23376
546.919	22484
546.984	25992
547.049	26330
547.113	31035
547.178	32489
547.243	36096
547.307	41123
547.372	45966
547.436	45880
547.501	47538
547.565	50947
547.630	49028
547.695	46826
547.759	47326
547.823	46935
547.888	47316
547.952	48379
548.017	49095
548.081	54907
548.146	54306
548.210	52697
548.274	54645
548.339	55199
548.403	50989
548.468	47400
548.532	46842
548.596	48249
548.660	47969
548.725	51248
548.789	55828
548.853	57332
548.917	54100
548.982	52377
549.046	50971
549.110	43442
549.174	43358
549.238	48731
549.303	53341
549.367	57759
549.431	54637
549.495	52331
549.559	50650
549.623	55450
549.687	64479
549.751	64043
549.815	72829
549.879	75913
549.943	71142
550.007	75208
550.071	76434
550.135	71424
550.199	67362
550.263	64317
550.327	60771
550.391	62329
550.455	68988
550.519	71030
550.582	73864
550.646	84222
550.710	90158
550.774	84425
550.838	85443
550.901	85122
550.965	91948
551.029	93109
551.093	99153
551.156	105769
551.220	111836
551.284	117844
551.347	100758
551.411	96027
551.475	97058
551.538	92374
551.602	89287
551.666	82657
551.729	78608
551.793	75145
551.856	76526
551.920	74119
551.983	74962
552.047	73024
552.110	72901
552.174	73941
552.237	76636
552.301	72344
552.364	68982
552.428	66582
552.491	67616
552.554	70363
552.618	69314
552.681	70949
552.745	68304
552.808	71151
552.871	76163
552.934	73998
552.998	71871
553.061	69265
553.124	68765
553.187	67234
553.251	69044
553.314	70469
553.377	71416
553.440	78540
553.503	105199
553.567	162859
553.630	95295
553.693	76573
553.756	75096
553.819	73912
553.882	70593
553.945	70077
554.008	71079
554.071	70435
554.134	72636
554.197	69367
554.260	67585
554.323	69720
554.386	68925
554.449	71382
554.512	72184
554.575	68313
554.638	67918
554.701	67764
554.764	68125
554.827	66114
554.889	64001
554.952	60237
555.015	58616
555.078	59234
555.141	60682
555.203	58889
555.266	58881
555.329	59267
555.391	56544
555.454	56232
555.517	55578
555.580	53348
555.642	51039
555.705	48922
555.768	50627
555.830	49047
555.893	47413
555.955	45212
556.018	44347
556.080	43904
556.143	45319
556.206	45586
556.268	45214
556.330	43374
556.393	43095
556.455	41881
556.518	41854
556.580	41753
556.643	38290
556.705	37969
556.767	37328
556.830	38199
556.892	37204
556.955	38870
557.017	35982
557.079	34362
557.142	33264
557.204	33326
557.266	36264
557.328	35973
557.391	30233
557.453	28691
557.515	29584
557.577	29435
557.639	30895
557.701	29577
557.764	28748
557.826	29225
557.888	31155
557.950	29986
558.012	32134
558.074	34569
558.136	54366
558.198	137879
558.260	87730
558.322	32458
558.384	32912
558.446	33592
558.508	34829
558.570	38340
558.632	44895
558.694	55023
558.756	67712
558.818	148685
558.880	411154
558.942	233630
559.003	149685
559.065	110971
559.127	42388
559.189	37232
559.251	39555
559.312	45644
559.374	81622
559.436	268834
559.498	229899
559.559	52477
559.621	39496
559.683	36864
559.744	49930
559.806	122254
559.868	262634
559.929	87942
559.991	40974
560.052	46532
560.114	119573
560.176	116450
560.237	67210
560.299	136684
560.360	53907
560.422	21611
560.483	20675
560.545	19419
560.606	17591
560.667	16240
560.729	17757
560.790	16085
560.852	16680
560.913	15767
560.974	15449
561.036	16347
561.097	16264
561.158	16284
561.220	16481
561.281	14702
561.342	16141
561.403	16250
561.465	16654
561.526	20218
561.587	27965
561.648	17167
561.709	15174
561.771	15245
561.832	15172
561.893	14944
561.954	13739
562.015	14719
562.076	15177
562.137	14522
562.198	14549
562.259	14474
562.320	14381
562.381	15535
562.442	16310
562.503	15187
562.564	15195
562.625	13804
562.686	14548
562.747	14127
562.808	14987
562.869	13081
562.930	15732
562.991	14743
563.051	14331
563.112	13340
563.173	13872
563.234	13572
563.294	13719
563.355	12389
563.416	13758
563.477	13781
563.537	13455
563.598	13969
563.659	13614
563.720	12390
563.780	14007
563.841	14274
563.901	13355
563.962	13268
564.023	13570
564.083	12526
564.144	13266
564.204	13611
564.265	13784
564.325	14452
564.386	15541
564.446	15458
564.507	13738
564.567	12221
564.628	13554
564.688	13833
564.749	13275
564.809	14146
564.869	13647
564.930	14501
564.990	14148
565.050	13251
565.111	13585
565.171	12922
565.231	13140
565.292	13961
565.352	12915
565.412	13415
565.472	13233
565.532	13797
565.593	14509
565.653	13494
565.713	13835
565.773	13468
565.833	14353
565.893	17222
565.953	14049
566.013	13557
566.074	13745
566.134	14278
566.194	16425
566.254	17958
566.314	15641
566.374	14708
566.434	14131
566.494	15216
566.554	15660
566.614	15024
566.673	15340
566.733	16119
566.793	16125
566.853	16456
566.913	16263
566.973	16891
567.033	17017
567.092	16645
567.152	16424
567.212	15961
567.272	16566
567.331	17104
567.391	17210
567.451	17989
567.511	19433
567.570	19165
567.630	16518
567.690	16823
567.749	17056
567.809	17623
567.868	18803
567.928	19189
567.988	20595
568.047	22121
568.107	24248
568.166	29556
568.226	36681
568.285	49122
568.345	49458
568.404	46574
568.464	41098
568.523	38542
568.582	37428
568.642	38414
568.701	44348
568.761	52165
568.820	73306
568.879	81593
568.939	72182
568.998	60740
569.057	48596
569.116	40763
569.176	35925
569.235	30849
569.294	27185
569.353	24764
569.413	22376
569.472	21103
569.531	20879
569.590	18470
569.649	17817
569.708	16667
569.767	17341
569.827	16834
569.886	15657
569.945	14760
570.004	15091
570.063	15691
570.122	15015
570.181	14467
570.240	14826
570.299	14640
570.358	15870
570.417	14305
570.475	14286
570.534	14025
570.593	14417
570.652	14019
570.711	13216
570.770	12844
570.829	12808
570.887	13210
570.946	14309
571.005	13246
571.064	13526
571.122	13647
571.181	12771
571.240	12857
571.299	12688
571.357	12664
571.416	12574
571.475	12302
571.533	12524
571.592	13243
571.650	13162
571.709	11875
571.768	12705
571.826	13163
571.885	12865
571.943	12807
572.002	12266
572.060	12089
572.119	12598
572.177	12052
572.236	11266
572.294	11666
572.352	12213
572.411	12110
572.469	11232
572.528	12159
572.586	12424
572.644	11309
572.703	13598
572.761	12022
572.819	11743
572.877	10811
572.936	11151
572.994	11115
573.052	10969
573.110	11337
573.169	11781
573.227	11080
573.285	11488
573.343	11492
573.401	11266
573.459	10766
573.517	10294
573.576	11262
573.634	11162
573.692	11080
573.750	10967
573.808	10478
573.866	10059
573.924	11187
573.982	11798
574.040	10094
574.098	11143
574.155	10519
574.213	10170
574.271	10436
574.329	10235
574.387	9944
574.445	10049
574.503	9805
574.560	9770
574.618	10297
574.676	10517
574.734	10414
574.792	10487
574.849	10736
574.907	9911
574.965	9352
575.022	9780
575.080	9802
575.138	9314
575.195	9458
575.253	9929
575.311	9209
575.368	8997
575.426	8779
575.483	10831
575.541	10257
575.598	8869
575.656	9378
575.713	9122
575.771	8900
575.828	9611
575.886	9384
575.943	10575
576.001	9528
576.058	9533
576.115	9747
576.173	9248
576.230	9609
576.287	10849
576.345	9355
576.402	9415
576.459	9638
576.517	9540
576.574	9005
576.631	9980
576.688	9694
576.746	9783
576.803	9852
576.860	9129
576.917	8523
576.974	9404
577.031	9727
577.089	9162
577.146	9368
577.203	9932
577.260	9653
577.317	9518
577.374	9216
577.431	10015
577.488	9506
577.545	9851
577.602	10767
577.659	10295
577.716	10453
577.773	11340
577.830	10524
577.886	11291
577.943	10148
578.000	11205
578.057	11148
578.114	12398
578.171	13590
578.227	16233
578.284	18474
578.341	16046
578.398	14156
578.454	13164
578.511	11093
578.568	10781
578.625	10568
578.681	10911
578.738	9694
578.794	10084
578.851	10544
578.908	10250
578.964	11840
579.021	12720
579.077	10579
579.134	11689
579.190	11188
579.247	11014
579.303	9961
579.360	10185
579.416	10797
579.473	11414
579.529	11170
579.586	11077
579.642	12137
579.698	12203
579.755	11889
579.811	11902
579.867	13020
579.924	12573
579.980	12879
580.036	15719
580.093	17305
580.149	23681
580.205	29398
580.261	24815
580.317	19369
580.374	17590
580.430	16132
580.486	15484
580.542	14112
580.598	14160
580.619	14031
580.654	13820
580.692	13630
580.710	13551
580.765	13779
580.767	13797
580.823	14220
580.838	14092
580.879	13764
580.911	13764
580.935	13787
580.984	13772
580.991	13781
581.047	14065
581.057	14209
581.103	14934
581.130	15142
581.159	15355
581.203	16088
581.215	16280
581.270	17057
581.276	16935
581.326	15897
581.349	16153
581.382	16529
581.422	15721
581.438	15392
581.494	14486
581.494	14483
581.550	14678
581.567	14812
581.606	15105
581.640	15476
581.661	15749
581.713	15189
581.717	15143
581.773	14547
581.786	14897
581.829	16108
581.859	16175
581.885	16220
581.932	16674
581.940	16771
581.996	16199
582.004	16370
582.052	17237
582.077	16817
582.107	16402
582.150	16523
582.163	16551
582.219	17421
582.223	17407
582.274	17263
582.296	17321
582.330	17452
582.368	18012
582.386	18324
582.441	18041
582.441	18041
582.497	17794
582.514	17994
582.552	18768
582.587	19228
582.608	19348
582.659	19103
582.663	19094
582.719	19933
582.732	19956
582.774	20057
582.805	20339
582.830	20664
582.877	21665
582.885	21824
582.941	22933
582.950	23310
582.996	25480
583.023	27434
583.052	29791
583.095	31238
583.107	31542
583.162	31854
583.168	32059
583.218	33288
583.240	32475
583.273	31113
583.313	28720
583.328	27753
583.384	25053
583.385	24996
583.439	23797
583.458	23701
583.494	23386
583.531	22536
583.549	22282
583.603	23055
583.605	23067
583.660	22119
583.676	21937
583.715	21750
583.748	21874
583.770	21909
583.820	21481
583.825	21455
583.881	22183
583.893	22095
583.936	21447
583.965	21124
583.991	21035
584.038	21605
584.046	21734
584.101	22034
584.110	22226
584.156	23087
584.183	23294
584.211	23424
584.255	23405
584.266	23455
584.321	23526
584.328	23598
584.376	24147
584.400	24287
584.431	24268
584.472	23822
584.486	23819
584.541	25738
584.545	25768
584.596	26140
584.617	25774
584.651	25152
584.689	25802
584.706	26169
584.761	26949
584.762	26946
584.816	27227
584.834	27340
584.871	27434
584.906	27746
584.926	27933
584.978	28107
584.980	28141
585.035	28661
585.051	28672
585.090	28315
585.123	29068
585.145	29688
585.195	30214
585.200	30307
585.254	30745
585.267	31111
585.309	32921
585.340	34373
585.364	34931
585.412	35412
585.419	35502
585.473	37372
585.484	37509
585.528	39879
585.556	43982
585.583	50317
585.628	65196
585.637	70531
585.692	119263
585.700	130172
585.747	182787
585.772	171572
585.801	134105
585.845	72509
585.856	61784
585.910	45072
585.917	43491
585.965	39618
585.989	38577
586.019	38183
586.061	38139
586.074	38065
586.128	37862
586.133	37785
586.183	37497
586.205	37381
586.237	37061
586.277	36718
586.292	36742
586.346	36236
586.349	36245
586.401	37062
586.421	37094
586.455	37289
586.493	37287
586.509	37722
586.564	39297
586.565	39328
586.618	44203
586.637	45195
586.672	43974
586.709	42056
586.727	41673
586.781	42714
586.781	42763
586.835	42012
586.853	41986
586.889	42420
586.925	42762
586.944	42907
586.996	43390
586.998	43491
587.052	45178
587.068	45686
587.106	46461
587.140	46508
587.161	47119
587.212	49638
587.215	49826
587.269	52124
587.284	52699
587.323	54147
587.356	54671
587.377	55498
587.427	58489
587.431	58806
587.485	61278
587.499	61904
587.539	63882
587.571	65342
587.593	67012
587.643	70874
587.648	71371
587.702	74942
587.715	75953
587.755	80452
587.786	83545
587.810	85895
587.858	90098
587.864	91033
587.917	99762
587.930	101603
587.971	108226
588.001	112685
588.025	117296
588.073	127139
588.079	128884
588.133	141990
588.145	145010
588.187	158887
588.217	168192
588.241	177588
588.288	195426
588.295	198849
588.348	226008
588.360	231645
588.402	258290
588.431	276721
588.456	298403
588.503	340783
588.510	349271
588.564	414149
588.575	427698
588.617	504303
588.646	556438
588.671	619792
588.718	742292
588.725	767636
588.778	954229
588.789	989836
588.832	1106951
588.861	1174318
588.886	1124079
588.932	995767
588.939	978825
588.993	819420
589.004	797159
589.047	1035969
589.075	1190281
589.100	1193316
589.147	1158869
589.154	1139818
589.207	956275
589.218	917158
589.261	842606
589.290	793556
589.314	802708
589.361	822761
589.368	839752
589.421	971619
589.433	998140
589.475	1087643
589.504	1137083
589.528	1074974
589.576	919433
589.582	931790
589.635	1055274
589.647	1078876
589.689	1049044
589.718	1004576
589.742	896053
589.790	669446
589.795	654546
589.849	504409
589.861	469389
589.902	403458
589.932	354573
589.955	329671
590.004	275797
590.009	272962
590.062	237434
590.075	228244
590.115	208745
590.146	193058
590.168	185396
590.218	167451
590.222	166814
590.275	153331
590.289	149554
590.328	141218
590.360	134037
590.381	130553
590.431	120982
590.435	120863
590.488	114065
590.503	111914
590.541	107606
590.574	103564
590.594	101716
590.645	96090
590.647	96150
590.700	91424
590.716	89719
590.753	87466
590.787	85215
590.806	84390
590.859	81192
590.859	81360
590.912	78906
590.930	77966
590.965	76496
591.001	74717
591.018	74716
591.071	73924
591.072	73722
591.124	71078
591.143	69889
591.177	69301
591.214	68323
591.230	68223
591.283	67346
591.285	67129
591.336	65128
591.356	64097
591.389	63148
591.427	61666
591.442	61589
591.495	60687
591.498	60455
591.547	59577
591.569	59034
591.600	58900
591.640	58279
591.653	58205
591.706	57183
591.711	56937
591.759	57281
591.782	57171
591.811	57606
591.853	57917
591.864	57798
591.917	56384
591.924	56029
591.969	55793
591.995	55414
592.022	55042
592.066	54104
592.075	54245
592.127	54168
592.137	54035
592.180	55396
592.208	56015
592.233	54653
592.279	51618
592.285	51761
592.338	51941
592.350	51842
592.390	51239
592.421	50564
592.443	50760
592.491	50780
592.495	50881
592.548	50451
592.562	50197
592.600	50516
592.633	50567
592.653	50405
592.704	49369
592.705	49657
592.775	49887
592.846	49217
592.916	50519
592.987	49320
593.058	47944
593.128	45839
593.199	48893
593.270	47068
593.341	46865
593.411	46048
593.482	47293
593.553	47241
593.623	46094
593.694	46552
593.764	47680
593.835	46318
593.906	45756
593.976	45535
594.047	47034
594.117	49318
594.188	49294
594.258	47099
594.329	46500
594.399	47599
594.470	47612
594.540	47966
594.611	47705
594.681	46739
594.751	48355
594.822	48313
594.892	50326
594.963	50694
595.033	51803
595.103	50305
595.174	52584
595.244	54976
595.314	59277
595.384	52831
595.455	53548
595.525	53976
595.595	56438
595.665	55825
595.736	54659
595.806	55452
595.876	55948
595.946	55352
596.016	57357
596.087	58191
596.157	58510
596.227	57710
596.297	61261
596.367	62923
596.437	65155
596.507	68116
596.577	70638
596.647	66608
596.717	67584
596.787	69096
596.857	69008
596.927	69064
596.997	70570
597.067	71346
597.137	75679
597.207	74802
597.277	73561
597.347	71101
597.417	71977
597.487	71104
597.557	72605
597.626	72622
597.696	74628
597.766	77142
597.836	78170
597.906	71742
597.975	70057
598.045	70888
598.115	74693
598.185	76098
598.254	81194
598.324	87389
598.394	89038
598.464	86197
598.533	86528
598.603	83619
598.672	83011
598.742	84911
598.812	84763
598.881	86583
598.951	87977
599.020	88674
599.090	91330
599.159	92990
599.229	92922
599.299	91372
599.368	93870
599.437	93267
599.507	92353
599.576	92495
599.646	93823
599.715	96240
599.785	93804
599.854	93627
599.924	95480
599.993	96030
600.062	96401
600.132	99248
600.201	102958
600.270	112072
600.340	115472
600.409	115639
600.478	116990
600.547	117992
600.617	118181
600.686	108766
600.755	108454
600.824	107559
600.894	108102
600.963	109908
601.032	112283
601.101	112812
601.170	114114
601.239	116120
601.308	119589
601.378	118535
601.447	122490
601.516	124247
601.585	127338
601.654	131993
601.723	133116
601.792	138968
601.861	144466
601.930	153614
601.999	156698
602.068	154703
602.137	154330
602.206	155247
602.275	155948
602.343	160699
602.412	161538
602.481	160357
602.550	162606
602.619	163907
602.688	164434
602.756	168508
602.825	165727
602.894	171134
602.963	168828
603.032	170043
603.100	171065
603.169	165840
603.238	174157
603.307	167075
603.375	166577
603.444	174553
603.513	160952
603.581	163200
603.650	175808
603.719	145424
603.787	135413
603.856	136586
603.924	140779
603.993	143640
604.061	148393
604.130	150938
604.198	155243
604.267	155185
604.335	162166
604.404	160287
604.472	167492
604.541	165251
604.609	170549
604.678	177929
604.746	180184
604.815	188733
604.883	181141
604.951	175153
605.020	180823
605.088	165630
605.156	154689
605.225	153759
605.293	152819
605.361	152891
605.429	152349
605.498	156674
605.566	153283
605.634	159584
605.702	160419
605.771	157771
605.839	168340
605.907	152393
605.975	158875
606.043	153168
606.111	144954
606.180	162422
606.248	150487
606.316	144099
606.384	156042
606.452	123862
606.520	94494
606.588	93020
606.656	92316
606.724	91065
606.792	86727
606.860	80579
606.928	73940
606.996	73284
607.064	72778
607.132	73280
607.200	77005
607.267	79731
607.335	79748
607.403	80983
607.471	80480
607.539	76907
607.607	78651
607.674	69600
607.742	70385
607.810	68906
607.878	69440
607.946	70248
608.013	72293
608.081	72117
608.149	72610
608.216	74144
608.284	77283
608.352	76130
608.419	76313
608.487	76466
608.555	72391
608.622	74793
608.690	75033
608.757	80848
608.825	81534
608.893	80445
608.960	78025
609.028	75514
609.095	76312
609.163	73701
609.230	69034
609.298	62764
609.365	65414
609.432	69756
609.500	75639
609.567	84024
609.635	95280
609.702	99706
609.769	96052
609.837	78851
609.904	69635
609.971	70276
610.039	80629
610.106	97105
610.173	155861
610.241	317704
610.308	325879
610.375	180383
610.442	95987
610.509	76331
610.577	72751
610.644	73035
610.711	72826
610.778	74825
610.845	75811
610.912	80313
610.980	85073
611.047	95497
611.114	88324
611.181	79156
611.248	77018
611.315	80812
611.382	83669
611.449	84103
611.516	87170
611.583	86601
611.650	85459
611.717	88802
611.784	89416
611.851	92643
611.918	98763
611.984	109005
612.051	140490
612.118	237705
612.185	519519
612.252	446027
612.319	147782
612.386	113848
612.452	105138
612.519	99585
612.586	99397
612.653	100098
612.719	101029
612.786	97305
612.853	91075
612.919	89230
612.986	90554
613.053	86169
613.120	81794
613.186	77587
613.253	81403
613.319	78531
613.386	81137
613.453	81066
613.519	82459
613.586	81429
613.652	86604
613.719	83588
613.785	84683
613.852	83524
613.918	82181
613.985	84466
614.051	92647
614.118	111483
614.184	112368
614.250	84437
614.317	84105
614.383	81716
614.449	83277
614.516	82233
614.582	83844
614.648	82630
614.715	81664
614.781	81054
614.847	81286
614.914	81054
614.980	78812
615.046	79253
615.112	82156
615.179	81292
615.245	83800
615.311	86065
615.377	97215
615.443	105628
615.509	96025
615.575	89991
615.642	87726
615.708	89729
615.774	94522
615.840	99353
615.906	107362
615.972	128857
616.038	189696
616.104	322522
616.170	632209
616.236	673949
616.302	210566
616.368	135173
616.434	112134
616.500	102010
616.565	102114
616.631	113399
616.697	107173
616.763	105296
616.829	127097
616.895	183735
616.961	203280
617.026	127441
617.092	94570
617.158	89139
617.224	86399
617.289	83136
617.355	78255
617.421	78474
617.487	78967
617.552	74677
617.618	73634
617.684	72722
617.749	75728
617.815	72437
617.880	70329
617.946	69909
618.012	71993
618.077	73800
618.143	72575
618.208	71293
618.274	76152
618.339	77465
618.405	67260
618.470	66959
618.536	66859
618.601	67130
618.667	64602
618.732	61751
618.798	62560
618.863	60914
618.928	60897
618.994	61707
619.059	62538
619.124	65870
619.190	64273
619.255	60320
619.320	61119
619.386	61650
619.451	60612
619.516	59218
619.581	60792
619.647	62565
619.712	60606
619.777	59753
619.842	62421
619.907	61446
619.972	61810
620.038	60657
620.103	61325
620.168	60977
620.233	62252
620.298	60387
620.363	61836
620.428	64480
620.493	65272
620.558	65184
620.623	65902
620.688	66929
620.753	65463
620.818	67510
620.883	67460
620.948	66946
621.013	66246
621.078	65940
621.143	66478
621.207	68188
621.272	67770
621.337	66141
621.402	66693
621.467	68089
621.532	69585
621.596	67752
621.661	66851
621.726	64429
621.791	65707
621.855	66741
621.920	67249
621.985	66301
622.049	68882
622.114	69180
622.179	70249
622.243	68945
622.308	71121
622.373	74148
622.437	71854
622.502	69435
622.566	68354
622.631	66297
622.695	69750
622.760	69068
622.824	68763
622.889	69060
622.953	71638
623.018	76768
623.082	76882
623.147	71353
623.211	71593
623.276	70643
623.340	68706
623.404	66507
623.469	68307
623.533	68354
623.597	65746
623.662	65726
623.726	63565
623.790	59860
623.854	60441
623.919	61279
623.983	60776
624.047	61592
624.111	61209
624.176	61929
624.240	63578
624.304	66685
624.368	62020
624.432	61408
624.496	62746
624.560	64810
624.625	65111
624.689	63882
624.753	64983
624.817	63631
624.881	62758
624.945	59787
625.009	57137
625.073	57632
625.137	58909
625.201	61533
625.265	63691
625.329	58355
625.393	58538
625.456	58522
625.520	58988
625.584	60340
625.648	63400
625.712	67829
625.776	83205
625.839	88131
625.903	61699
625.967	50987
626.031	58513
626.095	69219
626.158	56143
626.222	46217
626.286	44866
626.349	42939
626.413	40956
626.477	40879
626.540	40716
626.604	40157
626.668	40467
626.731	40767
626.795	40183
626.858	39020
626.922	38107
626.986	37389
627.049	36890
627.113	39186
627.176	38219
627.240	37552
627.303	36692
627.366	36361
627.430	36974
627.493	36227
627.557	35356
627.620	36617
627.684	36305
627.747	35819
627.810	33697
627.874	32248
627.937	30241
628.000	34542
628.064	32892
628.127	28272
628.190	29556
628.253	28448
628.317	26922
628.380	26751
628.443	27108
628.506	26632
628.569	26182
628.632	23893
628.696	24482
628.759	24091
628.822	24554
628.885	22512
628.948	23035
629.011	23242
629.074	23282
629.137	21750
629.200	21198
629.263	23114
629.326	20720
629.389	21408
629.452	21268
629.515	21912
629.578	21422
629.641	21719
629.704	21362
629.767	21140
629.830	21534
629.892	20369
629.955	20531
630.018	21310
630.081	20380
630.144	21656
630.207	19649
630.269	20857
630.332	20196
630.395	19499
630.458	18856
630.520	17232
630.583	19540
630.646	18979
630.708	18134
630.771	17607
630.834	19822
630.896	17965
630.959	18678
631.021	17798
631.084	19374
631.146	19407
631.209	20351
631.272	17300
631.334	18651
631.397	18391
631.459	17381
631.522	18444
631.584	18541
631.646	19006
631.709	19234
631.771	19039
631.834	19537
631.896	17659
631.958	17131
632.021	19610
632.083	17450
632.145	17922
632.208	17223
632.270	18378
632.332	16661
632.395	15863
632.457	18097
632.519	16702
632.581	16913
632.643	15891
632.706	18218
632.768	15207
632.830	17151
632.892	17502
632.954	16520
633.016	16928
633.078	17150
633.141	16983
633.203	17545
633.265	17462
633.327	17102
633.389	15770
633.451	17703
633.513	17382
633.575	17797
633.637	17083
633.698	17473
633.760	17835
633.822	17575
633.884	17100
633.946	18140
634.008	17953
634.070	19312
634.132	20641
634.193	19838
634.255	18853
634.317	18215
634.379	19110
634.441	17514
634.502	16830
634.564	16807
634.626	16299
634.687	16269
634.749	15644
634.811	16895
634.873	15265
634.934	15471
634.996	16187
635.057	15667
635.119	14417
635.181	15424
635.242	16170
635.304	15303
635.365	17005
635.427	16112
635.488	15824
635.550	15457
635.611	16540
635.673	14844
635.734	17237
635.796	16263
635.857	17958
635.918	15349
635.980	18370
636.041	16921
636.102	17676
636.164	18828
636.225	18761
636.286	16297
636.348	17213
636.409	16150
636.470	15111
636.531	15743
636.593	14842
636.654	16818
636.715	14308
636.776	14404
636.838	14056
636.899	15398
636.960	14345
637.021	14278
637.082	13939
637.143	14127
637.204	13341
637.265	13696
637.326	13962
637.387	14797
637.448	13220
637.509	15624
637.570	13053
637.631	14269
637.692	12970
637.753	12537
637.814	13597
637.875	13220
637.936	14537
637.997	13107
638.058	13368
638.119	13834
638.179	13239
638.240	13490
638.301	13438
638.362	12606
638.423	12200
638.483	13588
638.544	12632
638.605	13575
638.666	12566
638.726	13252
638.787	12903
638.848	12756
638.908	11967
638.969	13029
639.030	13125
639.090	11950
639.151	12107
639.211	14438
639.272	13775
639.332	16124
639.393	13783
639.453	12785
639.514	13249
639.574	13120
639.635	10877
639.695	12889
639.756	11251
639.816	12202
639.877	12485
639.937	14723
639.997	15661
640.058	12346
640.118	10989
640.178	12974
640.239	12096
640.299	12080
640.359	11988
640.420	12647
640.480	12439
640.540	12379
640.600	12608
640.661	13525
640.721	12462
640.781	15354
640.841	15224
640.901	13651
640.961	12659
641.021	11886
641.082	12764
641.142	13513
641.202	13409
641.262	10666
641.322	12450
641.382	10129
641.442	11489
641.502	11645
641.562	12807
641.622	11463
641.682	11835
641.742	11657
641.802	11846
641.861	12845
641.921	12014
641.981	12386
642.041	12284
642.101	12672
642.161	10454
642.221	11149
642.280	10744
642.340	11214
642.400	10440
642.460	12116
642.519	10932
642.579	11262
642.639	11332
642.698	9098
642.758	13552
642.818	11351
642.877	10009
642.937	11834
642.997	12135
643.056	13274
643.116	10928
643.175	12138
643.235	11144
643.294	12498
643.354	12106
643.414	13220
643.473	14269
643.532	14517
643.592	18351
643.651	26542
643.711	41082
643.770	72484
643.830	161493
643.889	368832
643.948	127159
644.008	26252
644.067	15991
644.126	13983
644.186	12622
644.245	12696
644.304	9435
644.363	12739
644.423	10019
644.482	10975
644.541	11595
644.600	10656
644.659	12283
644.719	13848
644.778	17478
644.837	24089
644.896	42672
644.955	96051
645.014	46468
645.073	16967
645.132	11320
645.191	11902
645.250	11002
645.309	13203
645.368	12072
645.427	13240
645.486	15619
645.545	24987
645.604	13745
645.663	11251
645.722	10354
645.781	11438
645.840	12655
645.898	13949
645.957	18141
646.016	23487
646.075	38133
646.134	69158
646.192	160743
646.251	283621
646.310	60286
646.369	18785
646.427	14738
646.486	12758
646.545	10622
646.603	11327
646.662	10449
646.721	10416
646.779	9563
646.838	9677
646.896	11260
646.955	13206
647.014	16202
647.072	25209
647.131	59871
647.189	40593
647.248	10196
647.306	10962
647.365	9787
647.423	7559
647.481	9791
647.540	7584
647.598	9057
647.657	8744
647.715	8870
647.773	7160
647.832	8298
647.890	7321
647.948	7128
648.007	9238
648.065	6999
648.123	8074
648.181	10043
648.240	10881
648.298	10012
648.356	6875
648.414	8194
648.472	8147
648.531	7722
648.589	7293
648.647	7455
648.705	7791
648.763	7560
648.821	7753
648.879	7433
648.937	8733
648.995	9007
649.053	9773
649.111	12641
649.169	19765
649.227	29635
649.285	54440
649.343	152051
649.401	100286
649.459	21536
649.516	16932
649.574	12301
649.632	20736
649.690	26838
649.748	16095
649.806	19038
649.863	33133
649.921	43985
649.979	37261
650.037	9106
650.094	7206
650.152	6739
650.210	5991
650.268	7621
650.325	8052
650.383	8597
650.440	6398
650.498	6499
650.556	6211
650.613	6297
650.671	6229
650.728	5947
650.786	6999
650.843	7084
650.901	5572
650.958	6017
651.016	5886
651.073	5539
651.131	5811
651.188	4303
651.246	5591
651.303	4710
651.360	6081
651.418	4609
651.475	5251
651.532	4716
651.590	5873
651.647	4551
651.704	6021
651.762	4684
651.819	5118
651.876	4510
651.933	5546
651.990	4587
652.048	4672
652.105	4798
652.162	5479
652.219	3509
652.276	5350
652.333	4614
652.390	3978
652.448	4870
652.505	5568
652.562	5250
652.619	5732
652.676	9441
652.733	12545
652.790	4954
652.847	4246
652.904	4855
652.961	4049
653.017	3750
653.074	5255
653.131	4600
653.188	3810
653.245	4346
653.302	4074
653.359	4729
653.415	5316
653.472	4546
653.529	4534
653.586	3968
653.642	4035
653.699	4893
653.756	4146
653.813	4145
653.869	4960
653.926	3576
653.983	4657
654.039	4847
654.096	4815
654.152	5495
654.209	3533
654.266	4733
654.322	3856
654.379	4694
654.435	5158
654.492	4332
654.548	5908
654.605	5738
654.661	6144
654.717	3807
654.774	4965
654.830	4749
654.887	4559
654.943	4758
655.000	6210
655.056	4433
655.112	4807
655.168	3787
655.225	4682
655.281	4392
655.337	4739
655.394	5931
655.450	5812
655.506	5097
655.562	6895
655.618	6602
655.675	4393
655.731	4009
655.787	3980
655.843	5665
655.899	3388
655.955	4148
656.011	4301
656.067	3146
656.123	4254
656.179	4262
656.235	5785
656.291	3123
656.347	5849
656.403	3380
656.459	4047
656.515	3908
656.571	4676
656.627	4280
656.683	5016
656.739	3917
656.795	3594
656.850	3879
656.906	4760
656.962	5545
657.018	3486
657.074	4483
657.129	5589
657.185	5375
657.241	10098
657.297	7887
657.352	5234
657.408	3930
657.464	5843
657.519	3622
657.575	3721
657.630	4022
657.686	4306
657.742	2616
657.797	3974
657.853	3274
657.908	4856
657.964	2750
658.019	4770
658.075	3592
658.130	4463
658.186	2322
658.241	4095
658.297	3104
658.352	3406
658.407	4558
658.463	4291
658.518	4151
658.573	4889
658.629	3511
658.684	4320
658.739	4505
658.795	3471
658.850	3512
658.905	3644
658.960	3486
659.016	3818
659.071	3843
659.126	4620
659.181	3871
659.236	5944
659.291	5655
659.346	4929
659.401	5473
659.457	6975
659.512	8802
659.567	6242
659.622	4032
659.677	3959
659.732	3390
659.787	4549
659.842	3505
659.897	5203
659.952	4711
660.007	3970
660.061	3673
660.116	4083
660.171	3116
660.226	3968
660.281	4242
660.336	3782
660.391	4076
660.445	3623
660.500	3540
660.555	3904
660.610	3330
660.664	4488
660.719	3384
660.774	4175
660.828	3468
660.883	4813
660.938	4315
660.992	2947
661.047	4183
661.101	3531
661.156	3119
661.211	2933
661.265	3875
661.320	4128
661.374	4093
661.429	3521
661.483	4672
661.538	4044
661.592	3699
661.647	4457
661.701	4389
661.755	4462
661.810	3554
661.864	3558
661.919	3957
661.973	4507
662.027	3347
662.081	3621
662.136	3279
662.190	3939
662.244	4319
662.299	3782
662.353	3941
662.407	3128
662.461	3429
662.515	3505
662.569	3719
662.624	4600
662.678	2829
662.732	3309
662.786	3025
662.840	3807
662.894	3620
662.948	3283
663.002	3228
663.056	4733
663.110	2382
663.164	3693
663.218	3982
663.272	4112
663.326	2857
663.380	3136
663.434	3173
663.488	2983
663.542	3965
663.595	3623
663.649	3224
663.703	4034
663.757	3562
663.811	2839
663.864	3021
663.918	4012
663.972	3096
664.026	4158
664.079	3392
664.133	4140
664.187	3386
664.240	3677
664.294	3688
664.348	3969
664.401	3874
664.455	3996
664.508	2957
664.562	2898
664.615	3954
664.669	2696
664.722	3176
664.776	3094
664.829	2506
664.883	3507
664.936	3102
664.990	3869
665.043	3502
665.097	3234
665.150	3718
665.203	3303
665.257	3389
665.310	3116
665.363	2541
665.417	3701
665.470	3575
665.523	3219
665.576	3164
665.630	3806
665.683	3425
665.736	4028
665.789	4081
665.842	3173
665.895	4239
665.949	4384
666.002	3455
666.055	3359
666.108	3511
666.161	3957
666.214	3774
666.267	3670
666.320	3450
666.373	4459
666.426	3844
666.479	2430
666.532	3387
666.585	4016
666.638	3606
666.691	3658
666.744	4034
666.796	3175
666.849	3141
666.902	4202
666.955	3268
667.008	3416
667.060	3500
667.113	3073
667.166	3485
667.219	3872
667.271	3892
667.324	3972
667.377	3252
667.430	3589
667.482	4804
667.535	5339
667.587	3635
667.640	3954
667.693	4259
667.745	3798
667.798	5173
667.850	3957
667.903	2929
667.955	3219
668.008	2938
668.060	4022
668.113	3882
668.165	3631
668.218	4389
668.270	3989
668.322	3662
668.375	3810
668.427	3308
668.479	4013
668.532	4085
668.584	3871
668.636	4383
668.689	4413
668.741	3499
668.793	4010
668.845	3161
668.898	3551
668.950	3522
669.002	3978
669.054	2400
669.106	2390
669.158	4290
669.211	4853
669.263	4114
669.315	5787
669.367	5846
669.419	4913
669.471	4900
669.523	4567
669.575	5576
669.627	5105
669.679	4232
669.731	4285
669.783	4317
669.835	4742
669.886	4339
669.938	4981
669.990	5385
670.042	4720
670.094	5469
670.146	6513
670.197	8296
670.249	10466
670.301	11911
670.353	16277
670.404	22209
670.456	31227
670.508	46558
670.560	71331
670.611	110850
670.663	182163
670.715	348068
670.766	504309
670.818	305106
670.869	86993
670.921	37563
670.972	23656
671.024	17077
671.075	12634
671.127	9922
671.178	8507
671.230	7121
671.281	8434
671.333	6999
671.384	6193
671.436	6371
671.487	6571
671.538	6352
671.590	8770
671.641	10194
671.692	14736
671.744	23210
671.795	22689
671.846	11490
671.897	7019
671.949	5882
672.000	5221
672.051	4365
672.102	4832
672.153	3313
672.204	3891
672.256	4203
672.307	3444
672.358	3274
672.409	3714
672.460	3465
672.511	3334
672.562	3262
672.613	3052
672.664	2406
672.715	3171
672.766	3196
672.817	3034
672.868	3235
672.919	3625
672.970	2833
673.021	3005
673.071	2786
673.122	2647
673.173	2889
673.224	2816
673.275	3185
673.326	2720
673.376	2796
673.427	1961
673.478	2300
673.528	3067
673.579	2226
673.630	2018
673.680	3639
673.731	2111
673.782	2223
673.832	3497
673.883	3221
673.934	1730
673.984	2793
674.035	3207
674.085	2910
674.136	3428
674.186	2520
674.237	2750
674.287	2979
674.338	2980
674.388	2443
674.438	2213
674.489	1807
674.539	2660
674.589	2101
674.640	2847
674.690	2594
674.740	2514
674.791	2983
674.841	2955
674.891	2324
674.942	1654
674.992	1587
675.042	1987
675.092	1707
675.142	2300
675.193	1733
675.243	2403
675.293	2648
675.343	1998
675.393	1664
675.443	3056
675.493	2320
675.543	1844
675.593	2086
675.643	2487
675.693	2263
675.743	2880
675.793	2827
675.843	2135
675.893	1917
675.943	2153
675.993	1981
676.043	2235
676.093	1839
676.142	2251
676.192	2670
676.242	2407
676.292	1675
676.341	1948
676.391	1267
676.441	2421
676.491	1352
676.540	2294
676.590	2349
676.640	1692
676.689	1995
676.739	1729
676.789	1626
676.838	2216
676.888	1945
676.937	1430
676.987	1748
677.037	2142
677.086	2047
677.136	2856
677.185	1895
677.235	1878
677.284	1364
677.333	1956
677.383	1979
677.432	1868
677.482	1985
677.531	2006
677.580	803
677.630	2121
677.679	1333
677.728	2094
677.778	2384
677.827	2184
677.876	1899
677.925	1331
677.975	1397
678.024	2166
678.073	1507
678.122	2171
678.171	2274
678.220	1858
678.269	2252
678.319	1983
678.368	1821
678.417	1867
678.466	2736
678.515	2402
678.564	1730
678.613	2407
678.662	1564
678.711	2448
678.760	1920
678.809	1821
678.857	746
678.906	1137
678.955	1874
679.004	3215
679.053	2030
679.102	1653
679.151	1571
679.199	936
679.248	1583
679.297	1613
679.346	1996
679.394	1991
679.443	1670
679.492	2055
679.540	1310
679.589	2171
679.638	1360
679.686	1487
679.735	2147
679.784	1512
679.832	1554
679.881	1625
679.929	1227
679.978	1531
680.026	1530
680.075	1837
680.123	554
680.172	1525
680.220	1197
680.268	998
680.317	1301
680.365	1386
680.414	1717
680.462	1790
680.510	1492
680.559	1257
680.607	736
680.655	1463
680.703	1242
680.752	2745
680.800	1013
680.848	1886
680.896	446
680.945	1632
680.993	1382
681.041	1927
681.089	1316
681.137	1010
681.185	540
681.233	1049
681.258	845
681.281	637
681.329	1387
681.377	467
681.380	545
681.425	1747
681.473	1597
681.502	1634
681.521	1634
681.569	2279
681.617	2007
681.624	1865
681.665	845
681.713	2378
681.745	1961
681.761	1745
681.809	1374
681.857	1744
681.867	1738
681.904	1667
681.952	1715
681.989	1335
682.000	1207
682.048	1744
682.096	1974
682.111	1893
682.143	1670
682.191	1825
682.233	1757
682.239	1735
682.286	1932
682.334	1343
682.354	1447
682.382	1546
682.430	1738
682.476	2261
682.477	2260
682.525	1843
682.572	1675
682.598	1293
682.620	956
682.667	2702
682.715	2310
682.720	2258
682.763	1616
682.810	1517
682.841	2064
682.857	2351
682.905	1490
682.952	2172
682.963	2152
683.000	1999
683.047	1944
683.085	2119
683.095	2159
683.142	1713
683.190	2193
683.206	2046
683.237	1751
683.284	2592
683.328	2580
683.332	2565
683.379	2339
683.426	2157
683.449	2193
683.473	2267
683.521	1794
683.568	2067
683.571	2068
683.615	1893
683.662	2466
683.693	2581
683.709	2618
683.757	2141
683.804	2368
683.814	2285
683.851	1944
683.898	2858
683.936	2458
683.945	2363
683.992	2838
684.039	2349
684.057	2419
684.086	2492
684.133	3133
684.179	3034
684.180	3023
684.227	2864
684.274	2987
684.300	2926
684.321	2857
684.368	2673
684.415	2870
684.422	2869
684.462	2799
684.509	2764
684.543	3169
684.556	3308
684.603	1858
684.649	3083
684.665	3118
684.696	3212
684.743	3121
684.786	3062
684.790	3053
684.837	3253
684.883	3268
684.908	3653
684.930	3911
684.977	3269
685.023	3306
685.029	3236
685.070	2664
685.117	2680
685.150	2849
685.164	2959
685.210	3515
685.257	3369
685.272	3619
685.303	4008
685.350	3297
685.393	2965
685.396	2937
685.443	3384
685.490	3711
685.514	3454
685.536	3237
685.583	3799
685.629	3403
685.636	3393
685.675	3343
685.722	3435
685.757	3890
685.768	4015
685.815	3876
685.861	4068
685.878	4030
685.908	4008
685.954	3967
686.000	3914
686.000	3908
686.047	4112
686.093	4023
686.121	4337
686.139	4529
686.185	4270
686.232	4474
686.242	4366
686.278	3954
686.324	4177
686.363	3939
686.370	3924
686.416	3982
686.463	4289
686.484	4439
686.509	4452
686.555	3850
686.601	3941
686.606	3926
686.647	3986
686.693	4059
686.727	4220
686.739	4243
686.785	4342
686.831	3833
686.848	3862
686.877	3981
686.923	4532
686.969	4622
686.969	4621
687.015	4341
687.061	3960
687.090	4021
687.107	4055
687.153	4683
687.199	4538
687.211	4512
687.245	4470
687.291	4727
687.332	4710
687.336	4713
687.382	4339
687.428	4812
687.453	4736
687.474	4584
687.520	4758
687.565	3982
687.574	4154
687.611	5158
687.657	4593
687.695	5634
687.702	5817
687.748	5794
687.794	6758
687.816	6393
687.839	5816
687.885	5652
687.931	5121
687.937	5138
687.976	5332
688.022	4554
688.058	5145
688.067	5289
688.113	5003
688.158	4562
688.179	4434
688.204	4400
688.249	4720
688.295	5252
688.300	5242
688.340	5132
688.386	5409
688.421	5148
688.431	5078
688.477	4536
688.522	5481
688.542	5217
688.567	4887
688.613	5319
688.658	4752
688.663	4792
688.703	5208
688.749	5070
688.784	5417
688.794	5535
688.839	5302
688.884	5795
688.905	5723
688.930	5473
688.975	5788
689.020	4977
689.026	5052
689.065	5901
689.110	5511
689.146	5354
689.155	5269
689.201	5447
689.246	5588
689.267	5203
689.291	4984
689.336	6225
689.381	5653
689.388	5707
689.426	5699
689.471	5317
689.509	5839
689.516	5957
689.561	5564
689.606	5502
689.630	5553
689.651	5671
689.696	5573
689.741	5781
689.750	5833
689.785	6050
689.830	6033
689.871	6053
689.875	6055
689.920	6060
689.965	5871
689.992	5888
690.010	5957
690.054	6246
690.099	6024
690.112	6294
690.144	6853
690.189	6346
690.233	6386
690.233	6396
690.278	6552
690.323	6856
690.354	7024
690.367	7054
690.412	7104
690.457	6870
690.474	7119
690.501	7651
690.546	7731
690.590	7990
690.595	8006
690.635	8281
690.680	8772
690.716	9262
690.724	9620
690.769	11296
690.813	13100
690.836	14182
690.857	16300
690.902	20410
690.946	25774
690.957	26977
690.991	37212
691.035	52338
691.077	67853
691.080	68014
691.124	64272
691.168	57213
691.198	53636
691.213	49030
691.257	36165
691.301	23769
691.318	19197
691.346	17447
691.390	14270
691.434	11088
691.439	10762
691.478	10234
691.522	9713
691.559	9488
691.567	9522
691.611	8825
691.655	8549
691.680	8314
691.699	8237
691.743	8023
691.787	8238
691.800	8188
691.831	8070
691.875	7963
691.919	7799
691.921	7777
691.964	7668
692.008	7885
692.041	7864
692.052	7876
692.096	8011
692.139	8139
692.162	7861
692.183	7628
692.227	8236
692.271	7824
692.282	7861
692.315	7958
692.359	8161
692.402	7886
692.403	7901
692.447	8256
692.490	8586
692.523	8534
692.534	8423
692.578	8372
692.622	8094
692.643	7871
692.666	7851
692.709	8041
692.753	8200
692.763	8167
692.797	8068
692.840	8155
692.884	8477
692.884	8500
692.928	8783
692.971	9348
693.004	9534
693.015	9427
693.059	9177
693.102	9001
693.124	8714
693.146	8802
693.189	9239
693.233	9508
693.245	9567
693.276	10117
693.320	11245
693.363	11717
693.365	11732
693.407	13572
693.450	15194
693.485	16818
693.493	17605
693.537	21156
693.580	25226
693.605	27476
693.624	31906
693.667	42417
693.710	53221
693.725	57387
693.753	77157
693.797	108425
693.840	141849
693.845	145140
693.883	137970
693.926	125122
693.966	114383
693.970	111721
694.013	83823
694.056	56041
694.086	37351
694.099	35343
694.142	28797
694.185	22487
694.206	19322
694.229	18194
694.272	16286
694.315	14278
694.326	13779
694.358	13386
694.401	12497
694.444	11954
694.446	11892
694.487	11547
694.530	11148
694.566	10758
694.573	10673
694.616	10228
694.659	9586
694.686	9375
694.702	9461
694.745	9372
694.787	9124
694.806	9057
694.830	9063
694.873	9257
694.916	9087
694.926	9067
694.959	9159
695.002	9370
695.044	9631
695.046	9609
695.087	9783
695.130	9859
695.166	10247
695.172	10266
695.215	9875
695.258	9722
695.286	9504
695.301	9458
695.343	9136
695.386	9315
695.406	9143
695.428	9131
695.471	9232
695.514	9342
695.526	9348
695.556	9563
695.599	9891
695.641	10104
695.646	10109
695.684	9894
695.726	9724
695.766	9271
695.769	9266
695.811	9254
695.854	8793
695.886	8720
695.896	8839
695.938	8870
695.981	9122
696.005	9255
696.023	9414
696.065	9716
696.108	10003
696.125	10088
696.150	10132
696.192	10219
696.235	10259
696.245	10229
696.277	10339
696.319	10514
696.361	10708
696.365	10702
696.404	10968
696.446	11166
696.485	11400
696.488	11419
696.530	11023
696.572	10778
696.604	10727
696.614	10752
696.656	10522
696.698	10254
696.724	10128
696.740	10156
696.783	10161
696.825	10288
696.844	10236
696.867	10166
696.909	10051
696.951	9873
696.964	9801
696.992	9790
697.034	9722
697.076	9683
697.083	9651
697.118	9988
697.160	10383
697.202	10733
697.203	10716
697.244	10739
697.286	10745
697.323	10582
697.327	10619
697.369	10861
697.411	11016
697.442	11081
697.453	11036
697.494	10838
697.536	10540
697.562	10348
697.578	10470
697.620	10719
697.661	10962
697.682	11051
697.703	11052
697.744	11073
697.786	11041
697.801	11008
697.828	11161
697.869	11239
697.911	11411
697.921	11423
697.952	11162
697.994	10796
698.035	10383
698.040	10308
698.077	10501
698.118	10693
698.160	10893
698.160	10865
698.201	10998
698.243	11107
698.279	11175
698.284	11203
698.325	11211
698.367	11190
698.399	11130
698.408	11147
698.449	11104
698.491	11086
698.518	11029
698.532	11160
698.573	11477
698.614	11750
698.638	11922
698.656	11979
698.697	12003
698.738	12033
698.757	12006
698.779	12037
698.820	12048
698.862	12047
698.877	12024
698.903	12124
698.944	12215
698.985	12318
698.996	12316
699.026	12190
699.067	11973
699.116	11687
699.235	11599
699.354	12026
699.474	11950
699.593	12226
699.713	12656
699.832	11946
699.951	11478
700.070	11942
700.190	12114
700.309	10564
700.428	11414
700.547	10956
700.667	10722
700.786	11299
700.905	10867
701.024	10436
701.143	10867
701.262	11326
701.381	11063
701.500	11189
701.619	11475
701.738	11525
701.857	11243
701.976	10738
702.095	10812
702.214	11900
702.333	10925
702.452	11099
702.571	11255
702.690	10807
702.809	10707
702.928	11167
703.047	11429
703.165	10497
703.284	10931
703.403	10840
703.522	10838
703.640	11217
703.759	10591
703.878	11716
703.997	11132
704.115	10577
704.234	9956
704.353	11021
704.471	10273
704.590	9998
704.708	10424
704.827	10384
704.946	10150
705.064	10570
705.183	11190
705.301	11123
705.420	13061
705.538	12231
705.656	11805
705.775	12061
705.893	18295
706.012	23682
706.130	12626
706.249	12099
706.367	11146
706.485	11361
706.604	10562
706.722	10237
706.840	11829
706.958	14350
707.077	13303
707.195	11275
707.313	11340
707.431	10704
707.549	10581
707.668	10801
707.786	11177
707.904	10520
708.022	10882
708.140	9996
708.258	10701
708.376	10229
708.494	9777
708.612	11114
708.730	12370
708.848	13529
708.966	11621
709.084	11498
709.202	12004
709.320	12252
709.438	11919
709.556	11023
709.674	11315
709.791	11379
709.909	11343
710.027	11698
710.145	11223
710.263	11950
710.380	10986
710.498	11342
710.616	11394
710.733	10544
710.851	10174
710.969	11108
711.086	11694
711.204	11462
711.322	10948
711.439	11511
711.557	10698
711.674	10683
711.792	10464
711.909	11624
712.027	12526
712.144	10364
712.262	10134
712.379	11573
712.497	12473
712.614	12380
712.732	12415
712.849	11558
712.966	12065
713.084	11710
713.201	11419
713.318	11871
713.436	12253
713.553	12295
713.670	11883
713.787	12299
713.905	12039
714.022	11776
714.139	11939
714.256	13250
714.373	13508
714.490	17369
714.608	32748
714.725	115045
714.842	124391
714.959	16418
715.076	13136
715.193	11699
715.310	11095
715.427	10078
715.544	11952
715.661	11970
715.778	10960
715.895	12275
716.011	11340
716.128	10831
716.245	10777
716.362	11339
716.479	10833
716.596	11166
716.713	11613
716.829	10430
716.946	11513
717.063	10711
717.180	10627
717.296	10058
717.413	10731
717.530	9971
717.646	9710
717.763	10373
717.880	9986
717.996	9739
718.113	9474
718.229	10612
718.346	9389
718.462	9306
718.579	10109
718.695	10966
718.812	11271
718.928	9854
719.045	9211
719.161	9114
719.277	9691
719.394	9698
719.510	10512
719.626	10151
719.743	11406
719.859	11688
719.975	15915
720.092	37755
720.208	75043
720.324	17187
720.440	11014
720.557	10284
720.673	10662
720.789	11827
720.905	14791
721.021	11555
721.137	9356
721.253	9902
721.369	9864
721.486	10216
721.602	10890
721.718	9288
721.834	9100
721.950	8988
722.066	8755
722.181	9231
722.297	9135
722.413	9643
722.529	9233
722.645	8696
722.761	9070
722.877	8139
722.993	8340
723.108	9470
723.224	8702
723.340	8908
723.456	8724
723.571	9570
723.687	9706
723.803	8444
723.918	8986
724.034	9085
724.150	9151
724.265	8915
724.381	9811
724.497	10757
724.612	8642
724.728	8780
724.843	8290
724.959	9047
725.074	10455
725.190	11106
725.305	8726
725.421	8017
725.536	8629
725.651	8645
725.767	7560
725.882	8413
725.997	8609
726.113	8319
726.228	7841
726.343	7901
726.459	7831
726.574	7758
726.689	7444
726.804	7440
726.920	8187
727.035	8381
727.150	8298
727.265	8094
727.380	8200
727.495	8308
727.610	7218
727.725	9031
727.841	9870
727.956	14643
728.071	12236
728.186	8508
728.301	8012
728.416	8257
728.531	8291
728.645	8204
728.760	7749
728.875	8119
728.990	7687
729.105	7876
729.220	8098
729.335	8192
729.449	8288
729.564	8100
729.679	7481
729.794	8132
729.908	8054
730.023	7939
730.138	8701
730.253	7690
730.367	7999
730.482	7958
730.596	8208
730.711	8609
730.826	8808
730.940	9130
731.055	8710
731.169	7803
731.284	8369
731.398	8371
731.513	8922
731.627	8594
731.742	9362
731.856	9766
731.970	8973
732.085	8947
732.199	10002
732.313	12811
732.428	20693
732.542	42431
732.656	27836
732.771	12079
732.885	9495
732.999	9684
733.113	9925
733.227	10147
733.342	9509
733.456	9325
733.570	9270
733.684	9086
733.798	9184
733.912	8318
734.026	9000
734.140	9258
734.254	10094
734.368	9863
734.482	11100
734.596	9834
734.710	9183
734.824	9769
734.938	8483
735.052	8472
735.166	9230
735.280	9663
735.393	8843
735.507	9003
735.621	8563
735.735	10245
735.849	9482
735.962	9501
736.076	9942
736.190	8654
736.303	10130
736.417	9145
736.531	8545
736.644	9951
736.758	9063
736.872	8366
736.985	8745
737.099	8099
737.212	8465
737.326	8786
737.439	9154
737.553	8560
737.666	9188
737.780	8077
737.893	8596
738.007	8766
738.120	8167
738.233	8745
738.347	8326
738.460	8669
738.573	9442
738.687	7899
738.800	9254
738.913	9096
739.026	9810
739.140	8692
739.253	9101
739.366	8954
739.479	8739
739.592	8269
739.705	8116
739.818	9118
739.932	8458
740.045	9230
740.158	8453
740.271	9180
740.384	8807
740.497	8729
740.610	9265
740.723	8854
740.836	9555
740.949	9101
741.062	9740
741.174	9134
741.287	8094
741.400	7897
741.513	8414
741.626	8307
741.739	8546
741.851	7711
741.964	8742
742.077	8179
742.189	8443
742.302	8828
742.415	8668
742.527	8963
742.640	7916
742.753	8261
742.865	8264
742.978	8171
743.090	8182
743.203	8708
743.316	8873
743.428	7663
743.541	9051
743.653	8240
743.766	9034
743.878	7758
743.990	8637
744.103	9276
744.215	8886
744.327	8168
744.440	9666
744.552	8836
744.664	7599
744.777	8465
744.889	8458
745.001	8643
745.113	8825
745.226	8232
745.338	9110
745.450	8110
745.562	8194
745.674	7907
745.786	8893
745.898	8782
746.010	8326
746.122	8568
746.234	8710
746.347	8668
746.459	8942
746.570	7823
746.682	8803
746.794	9510
746.906	8225
747.018	8037
747.130	9342
747.242	8482
747.354	8319
747.466	8699
747.577	8781
747.689	9187
747.801	8414
747.913	7650
748.024	8661
748.136	7422
748.248	8232
748.359	8493
748.471	8830
748.583	9476
748.694	8699
748.806	10297
748.918	9225
749.029	8544
749.141	9778
749.252	9389
749.364	8441
749.475	8541
749.587	8705
749.698	7636
749.809	9469
749.921	9344
750.032	8826
750.144	8217
750.255	8422
750.366	8536
750.478	8581
750.589	8883
750.700	8645
750.811	9175
750.923	9303
751.034	9655
751.145	10887
751.256	8862
751.367	9054
751.479	9422
751.590	8564
751.701	8839
751.812	8812
751.923	8812
752.034	9399
752.145	8590
752.256	10259
752.367	8906
752.478	9011
752.589	9357
752.700	9281
752.811	8511
752.922	8987
753.032	8994
753.143	8692
753.254	9503
753.365	9669
753.476	9177
753.586	9343
753.697	9710
753.808	9460
753.919	9980
754.029	9591
754.140	10394
754.251	9319
754.361	9611
754.472	9567
754.582	9807
754.693	10704
754.804	10120
754.914	10150
755.025	10227
755.135	10574
755.246	10315
755.356	10169
755.466	10806
755.577	11714
755.687	10721
755.798	11342
755.908	11236
756.018	11517
756.129	10906
756.239	10550
756.349	11694
756.460	11516
756.570	11589
756.680	11552
756.790	11129
756.900	12268
757.011	11965
757.121	13206
757.231	11966
757.341	11302
757.451	11918
757.561	13075
757.671	12602
757.781	13313
757.891	13051
758.001	13336
758.111	13511
758.221	14617
758.331	13149
758.441	14165
758.551	13731
758.661	15057
758.771	14842
758.880	15099
758.990	13916
759.100	14797
759.210	15260
759.320	15358
759.429	15914
759.539	16132
759.649	15641
759.758	17236
759.868	17549
759.978	17218
760.087	17219
760.197	18122
760.307	18345
760.416	18693
760.526	18655
760.635	19175
760.745	18764
760.854	20237
760.964	21071
761.073	21959
761.182	20992
761.292	21797
761.401	23882
761.511	22556
761.620	24544
761.729	24751
761.839	25162
761.948	27465
762.057	26634
762.166	27645
762.276	27638
762.385	29472
762.494	29966
762.603	31346
762.712	32836
762.822	33935
762.931	34794
763.040	36639
763.149	38300
763.258	39405
763.367	42889
763.476	45332
763.585	46014
763.694	48911
763.803	52260
763.912	56033
764.021	58898
764.130	63270
764.238	66681
764.347	70794
764.456	76230
764.565	84468
764.674	90984
764.783	99977
764.891	110754
765.000	126171
765.109	141317
765.217	161310
765.326	187661
765.435	220232
765.543	266390
765.652	326958
765.761	406939
765.869	518327
765.978	665024
766.086	842977
766.195	996805
766.303	966708
766.412	621972
766.520	734815
766.629	1064185
766.737	981413
766.846	775435
766.954	593496
767.062	457951
767.171	362240
767.279	289519
767.387	237854
767.496	200567
767.604	172837
767.712	152413
767.820	136444
767.928	124355
768.037	114344
768.145	107818
768.253	104548
768.361	102775
768.469	103043
768.577	104893
768.685	108123
768.793	117110
768.901	128937
769.009	150334
769.117	181026
769.225	231117
769.333	309730
769.441	432853
769.549	628576
769.657	860596
769.765	870952
769.873	659712
769.981	934737
770.088	833106
770.196	592220
770.304	425087
770.412	314510
770.519	248983
770.627	200026
770.735	163372
770.842	140016
770.950	119968
771.058	106333
771.165	94052
771.273	83237
771.380	77268
771.488	69993
771.595	64847
771.703	59171
771.810	56250
771.918	51796
772.025	49417
772.133	46688
772.240	44467
772.348	42838
772.455	40435
772.562	37631
772.670	36387
772.777	35099
772.884	34758
772.991	31934
773.099	31153
773.206	30198
773.313	28813
773.420	28444
773.528	26519
773.635	25758
773.742	26150
773.849	25002
773.956	23657
774.063	24272
774.170	23332
774.277	23004
774.384	21559
774.491	20829
774.598	21238
774.705	20626
774.812	19824
774.919	20165
775.026	18452
775.133	18109
775.239	18498
775.346	17248
775.453	17351
775.560	16555
775.667	17884
775.773	16492
775.880	17332
775.987	16250
776.093	15669
776.200	14906
776.307	14442
776.413	15123
776.520	14329
776.627	14978
776.733	13624
776.840	13684
776.946	14979
777.053	14300
777.159	14568
777.266	13144
777.372	14447
777.478	13714
777.585	12862
777.691	12185
777.798	11713
777.904	12746
778.010	12013
778.117	11944
778.223	11250
778.329	11811
778.435	10914
778.542	11701
778.648	10445
778.754	10331
778.860	10872
778.966	11081
779.072	10778
779.178	11582
779.284	11402
779.391	12029
779.497	13893
779.603	20080
779.708	31280
779.815	72815
779.920	231597
780.026	315479
780.132	66800
780.238	21045
780.344	15363
780.450	14628
780.556	11891
780.661	9909
780.767	10175
780.873	10122
780.979	9739
781.085	9268
781.190	9230
781.296	7951
781.402	8452
781.507	8211
781.613	8128
781.719	8606
781.824	8724
781.930	8307
782.035	7782
782.141	7945
782.246	7744
782.352	7712
782.457	7160
782.563	7839
782.668	7841
782.773	7845
782.879	6363
782.984	7421
783.090	7794
783.195	7582
783.300	6693
783.405	7390
783.511	6819
783.616	7281
783.721	6807
783.826	5736
783.932	6468
784.037	6033
784.142	7372
784.247	6044
784.352	6485
784.457	5932
784.562	6702
784.667	5825
784.772	5920
784.877	6018
784.982	5704
785.087	6504
785.192	5689
785.297	4891
785.402	5762
785.507	5052
785.611	5463
785.716	5445
785.821	6026
785.926	5701
786.031	5262
786.135	5666
786.240	5904
786.345	5119
786.450	5085
786.554	4805
786.659	4611
786.763	4195
786.868	5347
786.973	6445
787.077	4445
787.182	4987
787.286	5356
787.391	5321
787.495	4968
787.600	5110
787.704	4651
787.809	4806
787.913	4475
788.017	5216
788.122	5273
788.226	5843
788.330	4840
788.435	4989
788.539	4734
788.643	4506
788.747	4274
788.852	4916
788.956	4463
789.060	5059
789.164	4557
789.268	3647
789.372	4903
789.476	4501
789.580	3838
789.684	4525
789.788	5344
789.892	3559
789.996	4979
790.100	4493
790.204	4504
790.308	4444
790.412	3516
790.516	3645
790.620	5337
790.724	4255
790.828	4244
790.931	3607
791.035	5716
791.139	4505
791.242	4188
791.346	4718
791.450	4566
791.554	4021
791.657	3153
791.761	4773
791.864	3990
791.968	3645
792.072	3544
792.175	4430
792.279	3353
792.382	3802
792.486	3130
792.589	3718
792.693	4692
792.796	3512
792.899	4104
793.003	4856
793.106	2658
793.209	3251
793.313	4880
793.416	2842
793.519	4848
793.623	4795
793.726	4488
793.829	3976
793.932	3970
794.035	3692
794.138	6074
794.242	5819
794.345	8366
794.448	16241
794.551	40253
794.654	133435
794.757	199547
794.860	37750
794.963	9693
795.066	6113
795.169	5649
795.272	4403
795.375	4837
795.477	4040
795.580	4101
795.683	3065
795.786	3328
795.889	3306
795.991	4279
796.094	3993
796.197	2892
796.300	4713
796.402	3075
796.505	2664
796.608	2689
796.710	3712
796.813	3197
796.915	3182
797.018	3189
797.120	2886
797.223	2461
797.326	3859
797.428	2400
797.530	2959
797.633	2211
797.735	3382
797.838	2203
797.940	3983
798.042	2177
798.145	2982
798.247	4503
798.349	2384
798.452	3361
798.554	2213
798.656	1983
798.758	4251
798.860	3173
798.962	2534
799.065	2840
799.167	2248
799.269	3238
799.371	3548
799.473	2536
799.575	1887
799.677	2447
799.779	3173
799.881	2499
799.983	2513
800.085	2589
800.187	2403
800.289	2388
800.390	2922
800.492	2517
800.594	3918
800.696	2084
800.798	1999
800.899	1210
801.001	2547
801.103	1853
801.205	2398
801.306	2076
801.408	1570
801.509	2675
801.611	2321
801.713	1945
801.814	1828
801.916	2006
802.017	2400
802.119	1131
802.220	2489
802.322	1709
802.423	2839
802.525	1352
802.626	2150
802.727	1885
802.829	3235
802.930	627
803.031	3449
803.133	1535
803.234	2252
803.335	1767
803.436	1995
803.538	2174
803.639	1746
803.740	2200
803.841	1336
803.942	1820
804.043	2602
804.144	1456
804.245	1580
804.346	1748
804.447	1476
804.548	1262
804.649	2183
804.750	1820
804.851	1672
804.952	1563
805.053	1528
805.154	974
805.255	1809
805.355	1787
805.456	1696
805.557	1299
805.658	1543
805.758	2003
805.859	2420
805.960	1026
806.061	1845
806.161	1705
806.262	1783
806.362	1303
806.463	2521
806.564	1635
806.664	1597
806.765	1275
806.865	1534
806.966	1187
807.066	1301
807.166	2015
807.267	2269
807.367	637
807.468	2041
807.568	680
807.668	1953
807.769	1797
807.869	727
807.969	1602
808.069	1700
808.170	1706
808.270	1477
808.370	1624
808.470	1342
808.570	949
808.670	1575
808.770	1625
808.870	1083
808.970	2373
809.070	1552
809.170	667
809.271	2143
809.370	1110
809.470	1779
809.570	1289
809.670	1385
809.770	1376
809.870	2503
809.970	1601
810.070	796
810.169	1544
810.269	876
810.369	2952
810.469	1996
810.568	1247
810.668	1315
810.768	971
810.867	1648
810.967	1638
811.066	1089
811.166	1685
811.265	1892
811.365	873
811.464	1195
811.564	1969
811.663	1845
811.763	461
811.862	2578
811.962	1888
812.061	659
812.160	1575
812.260	1635
812.359	1830
812.458	1976
812.557	4971
812.657	6811
812.756	3164
812.855	2108
812.954	738
813.053	1632
813.153	1806
813.252	545
813.351	1128
813.450	1051
813.549	1165
813.648	2379
813.747	1040
813.846	2469
813.945	843
814.044	1366
814.143	1214
814.242	2385
814.341	508
814.439	2810
814.538	1022
814.637	1416
814.736	1865
814.835	1632
814.933	867
815.032	1844
815.131	1596
815.229	2099
815.328	2127
815.427	2226
815.525	3053
815.624	2506
815.722	2331
815.821	2412
815.919	2512
816.018	2443
816.116	2465
816.215	2571
816.313	2158
816.412	3805
816.510	3163
816.609	3729
816.707	3058
816.805	3119
816.904	2564
817.002	3095
817.100	3120
817.198	4232
817.296	3467
817.395	3641
817.493	4796
817.591	4175
817.689	5821
817.787	6296
817.885	10734
817.983	17814
818.081	37593
818.179	84183
818.277	189832
818.375	160290
818.473	49488
818.571	20001
818.669	12649
818.767	11008
818.865	12130
818.963	14141
819.061	19506
819.158	33062
819.256	69644
819.354	150405
819.452	288363
819.549	193986
819.647	64141
819.745	27785
819.842	16719
819.940	11777
820.038	8254
820.135	7314
820.233	6410
820.330	4862
820.428	4527
820.525	4528
820.623	3730
820.720	3436
820.818	3152
820.915	3635
821.012	2720
821.110	1535
821.207	3647
821.304	2329
821.402	3100
821.499	4058
821.596	2888
821.693	2485
821.791	3169
821.888	2723
821.985	2182
822.082	1781
822.179	2808
822.276	2360
822.373	1634
822.470	1767
822.567	2498
822.664	2033
822.761	2115
822.858	2010
822.955	2041
823.052	1090
823.149	1955
823.246	1284
823.343	1247
823.440	2312
823.536	1298
823.633	2344
823.730	1034
823.827	2198
823.923	1684
824.020	2490
824.117	1728
824.213	1759
824.310	1874
824.407	2091
824.503	1492
824.600	2022
824.696	921
824.793	1912
824.889	1127
824.986	2069
825.082	1079
825.179	1456
825.275	1654
825.371	1540
825.468	1432
825.564	1248
825.660	1903
825.757	1426
825.853	2007
825.949	909
826.045	1001
826.142	987
826.238	1621
826.334	1552
826.430	715
826.526	750
826.622	1042
826.718	1571
826.814	1535
826.910	2053
827.006	758
827.102	823
827.198	1622
827.294	1372
827.390	886
827.486	744
827.582	-95
827.678	361
827.774	1900
827.869	-335
827.965	1858
828.061	255
828.157	622
828.252	1383
828.348	-57
828.444	1238
828.539	1029
828.635	1182
828.731	1297
828.826	511
828.922	1752
829.017	1048
829.113	1424
829.208	815
829.304	662
829.399	1987
829.495	1164
829.590	1617
829.685	128
829.781	1258
829.876	1547
829.971	853
830.066	-70
830.162	1110
830.257	684
830.352	516
830.447	1401
830.543	559
830.638	-205
830.733	1746
830.828	42
830.923	1031
831.018	1017
831.113	1064
831.208	-116
831.303	144
831.398	559
831.493	1140
831.588	1454
831.683	-658
831.778	156
831.873	1137
831.967	1707
832.062	936
832.157	-545
832.252	1310
832.346	506
832.441	153
832.536	1264
832.631	1450
832.725	1126
832.820	450
832.914	1132
833.009	515
833.104	262
833.198	553
833.293	1178
833.387	1062
833.482	772
833.576	167
833.670	389
833.765	-54
833.859	289
833.954	634
834.048	190
834.142	535
834.237	-7
834.331	-14
834.425	639
834.519	-369
834.613	953
834.708	691
834.802	1298
834.896	109
834.990	521
835.084	786
835.178	185
835.272	712
835.366	480
835.460	1243
835.554	224
835.648	432
835.742	-748
835.836	723
835.930	-47
836.024	1022
836.117	1139
836.211	-145
836.305	590
836.399	627
836.493	-857
836.586	1347
836.680	-138
836.774	721
836.867	1074
836.961	615
837.055	121
837.148	271
837.242	-281
837.335	830
837.429	91
837.522	329
837.616	65
837.709	863
837.803	34
837.896	658
837.989	168
838.083	611
838.176	77
838.269	223
838.363	507
838.456	541
838.549	495
838.642	538
838.735	300
838.829	1501
838.922	248
839.015	314
839.108	-369
839.201	502
839.294	689
839.387	512
839.480	-19
839.573	1639
839.666	380
839.759	395
839.852	-658
839.945	334
840.038	436
840.131	-384
840.223	80
840.316	-130
840.409	491
840.502	-191
840.594	1049
840.687	-1044
840.780	166
840.873	-87
840.965	455
841.058	909
841.150	719
841.243	-49
841.336	506
841.428	-232
841.521	-800
841.613	-567
841.706	21
841.798	-363
841.890	68
841.983	-9
842.075	850
842.167	395
842.260	445
842.352	143
842.444	-232
842.537	6
842.629	670
842.721	-72
842.813	-240
842.905	-631
842.997	232
843.090	-10
843.182	69
843.274	67
843.366	1162
843.458	2634
843.550	1872
843.642	176
843.734	218
843.826	-16
843.918	252
844.009	307
844.101	-256
844.193	-202
844.285	247
844.377	-138
844.469	1778
844.560	-532
844.652	476
844.744	383
844.835	-679
844.927	292
845.019	-277
845.110	209
845.202	283
845.293	-662
845.385	-701
845.476	416
845.568	-12
845.659	-491
845.751	1353
845.842	-371
845.934	-867
846.025	102
846.116	307
846.208	-731
846.299	-549
846.390	273
846.482	421
846.573	468
846.664	405
846.755	-744
846.846	220
846.937	-503
847.029	-43
847.120	-327
847.211	-328
847.302	994
847.393	-929
847.484	776
847.575	-291
847.666	39
847.757	200
847.847	680
847.938	-129
848.029	-70
848.120	-241
848.211	131
848.302	-1098
848.392	-189
848.483	605
848.574	-198
848.664	219
848.755	228
848.846	-737
848.936	-445
849.027	116
849.118	-198
849.208	-142
849.299	-668
849.389	17
849.480	429
849.570	592
849.661	1585
849.751	3575
849.841	1410
849.932	-595
850.022	-241
850.112	-232
850.203	329
850.293	-651
850.383	107
850.474	409
850.564	-257
850.654	-483
850.744	736
850.834	2
850.924	405
851.014	-15
851.104	-24
851.194	-446
851.284	-175
851.374	-160
851.464	-128
851.554	489
851.644	569
851.734	2119
851.824	3847
851.914	7321
852.004	14869
852.094	13167
852.183	2077
852.273	123
852.363	-774
852.452	-569
852.542	35
852.632	-753
852.721	292
852.811	-674
852.901	91
852.990	-296
853.080	-347
853.169	-686
853.259	-375
853.348	-873
853.438	121
853.527	73
853.617	-446
853.706	186
853.795	1179
853.885	4309
853.974	7171
854.063	12955
854.152	22135
854.242	9049
854.331	1282
854.420	271
854.509	41
854.598	370
854.687	-34
854.777	-232
854.866	-1003
854.955	481
855.044	-248
855.133	-518
855.222	116
855.311	-273
855.400	-434
855.488	59
855.577	-400
855.666	654
855.755	549
855.844	-212
855.933	42
856.021	401
856.110	345
856.199	-997
856.288	-1068
856.376	-53
856.465	-459
856.554	-389
856.642	-296
856.731	-440
856.819	-170
856.908	-896
856.996	-589
857.085	-726
857.173	260
857.262	-408
857.350	-833
857.438	-308
857.527	90
857.615	191
857.703	291
857.792	-611
857.880	-551
857.968	23
858.056	-474
858.145	-410
858.233	-1186
858.321	-655
858.409	-469
858.497	-384
858.585	-372
858.673	-622
858.761	-658
858.849	-141
858.937	-228
859.025	-681
859.113	79
859.201	-1194
859.289	-398
859.377	-247
859.465	-123
859.552	253
859.640	-282
859.728	352
859.816	-307
859.903	-325
859.991	-1334
860.079	-534
860.166	-598
860.254	234
860.342	588
860.429	-209
860.517	-750
860.604	-348
860.692	-705
860.779	-836
860.867	-29
860.954	-930
861.042	-555
861.129	-139
861.216	-292
861.304	-837
861.391	632
861.478	-354
861.565	636
861.653	-316
861.740	-823
861.827	-1144
861.914	-605
862.001	-630
862.089	-524
862.176	35
862.263	-307
862.350	-570
862.437	-533
862.524	-337
862.611	-501
862.698	-321
862.785	-1228
862.871	-244
862.958	-132
863.045	-31
863.132	-129
863.219	-711
863.306	-760
863.392	537
863.479	-854
863.566	-465
863.652	376
863.739	-395
863.826	-232
863.912	-888
863.999	-753
864.086	-229
864.172	-756
864.259	-737
864.345	-795
864.432	-713
864.518	-426
864.604	-1341
864.691	-534
864.777	-306
864.863	294
864.950	-850
865.036	-882
865.122	534
865.209	1174
865.295	1141
865.381	628
865.467	546
865.553	1036
865.639	76
865.726	956
865.812	1693
865.898	4415
865.984	4948
866.070	9471
866.156	11437
866.242	2959
866.328	662
866.414	148
866.499	501
866.585	-40
866.671	965
866.757	404
866.843	495
866.928	-475
867.014	141
867.100	1037
867.186	-194
867.271	671
867.357	101
867.442	446
867.528	129
867.614	703
867.699	-226
867.785	714
867.870	-99
867.956	-527
868.041	433
868.127	-122
868.212	252
868.297	536
868.383	397
868.468	211
868.553	542
868.639	1108
868.724	628
868.809	1445
868.894	-80
868.979	313
869.065	148
869.150	159
869.235	419
869.320	129
869.405	-463
869.490	311
869.575	-935
869.660	-258
869.745	217
869.830	184
869.915	124
870.000	-482
870.085	-196
870.169	134
870.254	-330
870.339	-432
870.424	-481
870.509	-440
870.593	64
870.678	114
870.763	-209
870.847	212
870.932	-514
871.016	-352
871.101	-341
871.186	24
871.270	-205
871.355	-467
871.439	-75
871.523	16
871.608	-407
871.692	112
871.777	29
871.861	-210
871.945	-755
872.030	-231
872.114	-523
872.198	-261
872.282	-470
872.367	-325
872.451	19
872.535	-384
872.619	16
872.703	-689
872.787	-465
872.871	-420
872.955	-1208
873.039	-1173
873.123	-770
873.207	41
873.291	-682
873.375	-56
873.459	-71
873.543	-44
873.627	-500
873.711	-472
873.794	-120
873.878	-541
873.962	-386
874.045	-41
874.129	-686
874.137	-701
874.213	-844
874.245	-877
874.296	-935
874.352	-634
874.380	-484
874.460	-696
874.464	-706
874.547	-867
874.568	-557
874.631	373
874.676	-189
874.714	-649
874.784	693
874.798	952
874.881	489
874.892	309
874.965	-932
874.999	-814
875.048	-663
875.107	-483
875.131	-406
875.215	452
875.215	452
875.298	-354
875.323	-346
875.381	-311
875.430	-256
875.465	-265
875.538	192
875.548	262
875.631	-230
875.646	-341
875.714	-779
875.753	-582
875.798	-448
875.861	-498
875.881	-493
875.964	481
875.968	427
876.047	-521
876.076	-340
876.130	31
876.183	12
876.213	-50
876.291	-1
876.296	10
876.379	-505
876.398	-450
876.462	-415
876.506	-491
876.545	-438
876.613	-442
876.628	-478
876.711	-510
876.721	-479
876.794	-19
876.828	-67
876.877	-233
876.935	-525
876.960	-641
877.043	-91
877.043	-90
877.125	72
877.150	101
877.208	237
877.258	47
877.291	-82
877.365	3
877.374	6
877.456	-61
877.472	-66
877.539	-133
877.579	-111
877.622	-84
877.687	-347
877.704	-393
877.787	8
877.794	-13
877.869	-325
877.901	-553
877.952	-925
878.008	-595
878.034	-353
878.115	-201
878.117	-203
878.199	-358
878.222	-381
878.282	-269
878.329	-32
878.364	-0
878.437	-44
878.447	-23
878.529	-866
878.544	-775
878.611	-367
878.651	-761
878.694	-1004
878.758	-300
878.776	-204
878.858	-279
878.865	-250
878.941	120
878.972	-3
879.023	-106
879.078	-265
879.105	-324
879.185	-322
879.187	-322
879.269	-504
879.292	-574
879.351	-849
879.399	-575
879.433	-253
879.506	44
879.516	70
879.598	422
879.613	303
879.680	-165
879.720	127
879.762	346
879.827	-396
879.844	-559
879.926	-106
879.933	-61
880.007	273
880.040	4
880.089	-295
880.147	-210
880.171	-194
880.253	-16
880.254	-17
880.335	-114
880.360	-223
880.417	-267
880.467	300
880.499	709
880.574	1012
880.580	1013
880.662	110
880.680	-8
880.744	-343
880.787	-97
880.825	-1
880.893	-6
880.907	39
880.989	-49
881.000	10
881.070	438
881.106	568
881.152	642
881.213	22
881.233	-130
881.315	362
881.319	343
881.396	-8
881.426	59
881.478	168
881.532	98
881.559	-22
881.639	-198
881.641	-190
881.722	211
881.745	248
881.803	230
881.852	134
881.885	30
881.958	247
881.966	290
882.047	314
882.064	386
882.129	580
882.171	353
882.210	44
882.277	-30
882.291	20
882.372	84
882.383	95
882.454	149
882.489	135
882.535	159
882.596	498
882.616	443
882.697	-390
882.702	-405
882.778	108
882.808	89
882.859	-46
882.914	93
882.940	61
883.020	0
883.021	3
883.102	237
883.127	175
883.183	93
883.233	96
883.264	153
883.339	728
883.345	732
883.426	130
883.445	89
883.507	285
883.551	154
883.587	84
883.657	286
883.668	281
883.749	319
883.763	300
883.830	141
883.869	-97
883.910	-58
883.975	297
883.991	299
884.072	247
884.081	221
884.152	313
884.187	288
884.233	85
884.292	2
884.314	-20
884.394	-88
884.398	-97
884.475	93
884.504	108
884.555	160
884.610	170
884.636	84
884.716	446
884.716	450
884.797	66
884.821	2
884.877	435
884.927	643
884.958	408
885.033	-119
885.038	-109
885.118	248
885.139	276
885.199	164
885.244	319
885.279	557
885.350	568
885.359	539
885.439	435
885.456	413
885.520	601
885.561	641
885.600	431
885.667	267
885.680	324
885.760	515
885.773	547
885.840	325
885.878	110
885.920	-116
885.984	-416
886.000	-421
886.080	-339
886.089	-333
886.160	30
886.195	140
886.240	316
886.300	593
886.320	620
886.400	898
886.406	909
886.480	562
886.511	327
886.560	441
886.616	522
886.640	452
886.720	377
886.722	372
886.800	265
886.827	193
886.879	80
886.932	-106
886.959	119
887.038	970
887.039	975
887.119	934
887.143	848
887.198	589
887.248	454
887.278	539
887.354	586
887.358	579
887.437	483
887.459	437
887.517	200
887.564	43
887.596	338
887.669	731
887.676	707
887.755	670
887.774	600
887.835	571
887.880	668
887.914	603
887.985	314
887.994	288
888.073	102
888.090	61
888.153	316
888.195	461
888.232	469
888.300	509
888.311	510
888.391	457
888.405	442
888.470	526
888.510	594
888.549	443
888.615	191
888.628	252
888.708	584
888.720	641
888.787	328
888.825	68
888.866	45
888.930	127
888.945	230
889.024	706
889.035	770
889.103	554
889.140	411
889.182	404
889.245	411
889.261	375
889.340	178
889.349	158
889.419	858
889.454	1180
889.498	1184
889.559	1220
889.577	1153
889.656	829
889.664	796
889.735	1202
889.768	1390
889.814	1138
889.873	794
889.978	753
890.083	1783
890.187	-164
890.292	264
890.397	123
890.501	118
890.606	-38
890.710	624
890.815	713
890.919	834
891.024	1244
891.128	224
891.233	1041
891.337	1094
891.442	760
891.546	895
891.650	503
891.755	468
891.859	1805
891.963	655
892.068	1021
892.172	784
892.276	401
892.380	17
892.484	212
892.589	60
892.693	750
892.797	121
892.901	568
893.005	-178
893.109	759
893.213	335
893.317	932
893.421	420
893.525	881
893.629	461
893.733	72
893.837	557
893.941	393
894.045	1193
894.148	888
894.252	2297
894.356	1989
894.460	472
894.564	-14
894.667	139
894.771	250
894.875	-646
894.978	1023
895.082	26
895.186	632
895.289	1385
895.393	734
895.496	576
895.600	492
895.703	-266
895.807	360
895.910	1034
896.014	272
896.117	305
896.221	844
896.324	352
896.427	-237
896.531	671
896.634	946
896.737	509
896.840	439
896.944	307
897.047	1016
897.150	523
897.253	-306
897.356	715
897.460	218
897.563	21
897.666	426
897.769	583
897.872	331
897.975	3
898.078	958
898.181	597
898.284	564
898.387	482
898.490	1374
898.593	617
898.695	952
898.798	176
898.901	670
899.004	-127
899.107	-164
899.209	-610
899.312	807
899.415	-75
899.518	-299
899.620	186
899.723	151
899.826	650
899.928	103
900.031	312
900.133	816
900.236	-46
900.338	203
900.441	717
900.543	603
900.646	519
900.748	443
900.851	418
900.953	46
901.055	497
901.158	855
901.260	170
901.362	120
901.465	173
901.567	412
901.669	586
901.771	1053
901.873	334
901.976	208
902.078	204
902.180	-21
902.282	38
902.384	-204
902.486	312
902.588	-57
902.690	70
902.792	881
902.894	1417
902.996	-58
903.098	538
903.200	563
903.302	533
903.404	701
903.505	333
903.607	-239
903.709	705
903.811	240
903.913	-13
904.014	198
904.116	311
904.218	-280
904.319	-212
904.421	937
904.523	213
904.624	-184
904.726	494
904.827	-19
904.929	627
905.030	689
905.132	517
905.233	390
905.335	30
905.436	68
905.537	-332
905.639	399
905.740	417
905.841	-624
905.943	203
906.044	965
906.145	-29
906.247	249
906.348	374
906.449	213
906.550	469
906.651	584
906.752	-564
906.854	380
906.955	262
907.056	812
907.157	-470
907.258	419
907.359	455
907.460	-255
907.561	432
907.662	459
907.762	-109
907.863	-327
907.964	250
908.065	556
908.166	-307
908.267	294
908.367	-866
908.468	-40
908.569	406
908.670	1218
908.770	-105
908.871	-10
908.971	322
909.072	-407
909.173	121
909.273	-362
909.374	-3
909.474	49
909.575	-340
909.675	-103
909.776	406
909.876	204
909.977	-1159
910.077	537
910.177	614
910.278	691
910.378	555
910.478	652
910.579	185
910.679	603
910.779	847
910.879	790
910.980	104
911.080	272
911.180	-417
911.280	-448
911.380	-184
911.480	180
911.580	-17
911.680	-164
911.780	-5
911.880	1016
911.980	338
912.080	898
912.180	667
912.280	817
912.380	-171
912.480	-456
912.580	109
912.679	-358
912.779	-369
912.879	-76
912.979	-12
913.078	729
913.178	-292
913.278	555
913.377	12
913.477	-198
913.577	389
913.676	623
913.776	-108
913.875	0
913.975	1246
914.074	403
914.174	-171
914.273	-457
914.373	124
914.472	-139
914.572	-422
914.671	-49
914.770	-115
914.870	-449
914.969	-370
915.068	167
915.167	353
915.267	-314
915.366	75
915.465	-101
915.564	-124
915.663	288
915.763	-263
915.862	-209
915.961	419
916.060	-509
916.159	-130
916.258	9
916.357	200
916.456	197
916.555	36
916.654	-460
916.752	298
916.851	-431
916.950	-513
917.049	817
917.148	372
917.247	290
917.345	-565
917.444	-116
917.543	163
917.642	702
917.740	-113
917.839	347
917.937	59
918.036	1393
918.135	232
918.233	-988
918.332	48
918.430	90
918.529	-428
918.627	313
918.726	386
918.824	228
918.923	348
919.021	603
919.119	-504
919.218	-349
919.316	-650
919.414	-105
919.512	-251
919.611	530
919.709	-6
919.807	-469
919.905	508
920.003	1126
920.102	-194
920.200	-432
920.298	-118
920.396	-153
920.494	-6
920.592	196
920.690	551
920.788	931
920.886	-273
920.984	714
921.082	-138
921.180	547
921.277	589
921.375	237
921.473	680
921.571	1489
921.669	405
921.766	474
921.864	-18
921.962	1620
922.060	-67
922.157	610
922.255	-260
922.352	368
922.450	1005
922.548	453
922.645	495
922.743	94
922.840	1265
922.938	1269
923.035	1492
923.133	1275
923.230	514
923.327	1222
923.425	1270
923.522	1063
923.619	994
923.717	1644
923.814	1775
923.911	514
924.008	1720
924.106	1581
924.203	274
924.300	1542
924.397	449
924.494	1323
924.591	1636
924.688	1647
924.786	784
924.883	1437
924.979	191
925.077	758
925.173	1949
925.270	930
925.367	718
925.464	1418
925.561	1198
925.658	759
925.755	1097
925.852	650
925.948	379
926.045	644
926.142	1097
926.239	1438
926.335	371
926.432	1798
926.529	823
926.625	1537
926.722	781
926.818	1352
926.915	1010
927.011	423
927.108	849
927.204	1148
927.301	641
927.397	1785
927.494	951
927.590	1435
927.687	1355
927.783	1227
927.879	1268
927.976	670
928.072	409
928.168	699
928.264	1250
928.361	907
928.457	988
928.553	1133
928.649	696
928.745	1142
928.841	1368
928.937	1041
929.033	348
929.129	1290
929.225	272
929.321	990
929.417	835
929.513	398
929.609	982
929.705	834
929.801	807
929.897	604
929.993	542
930.089	1411
930.184	967
930.280	895
930.376	843
930.471	582
930.567	548
930.663	1267
930.758	1052
930.854	330
930.950	810
931.045	1205
931.141	949
931.236	852
931.332	688
931.427	542
931.523	1104
931.618	508
931.714	747
931.809	589
931.905	972
932.000	436
932.095	-147
932.191	1362
932.286	1058
932.381	1003
932.476	23
932.572	263
932.667	312
932.762	642
932.857	967
932.952	760
933.047	544
933.142	523
933.237	188
933.332	1148
933.427	480
933.522	1249
933.617	773
933.712	1048
933.807	1446
933.902	393
933.997	527
934.092	1021
934.187	-85
934.282	464
934.376	347
934.471	1228
934.566	542
934.661	885
934.755	588
934.850	1285
934.945	275
935.039	-34
935.134	1129
935.228	754
935.323	1243
935.417	134
935.512	928
935.606	897
935.701	558
935.795	648
935.890	602
935.984	1162
936.079	396
936.173	1117
936.267	-57
936.362	599
936.456	309
936.550	1173
936.644	359
936.738	-290
936.833	-225
936.927	1031
937.021	-95
937.115	884
937.209	547
937.303	1123
937.397	-48
937.491	279
937.585	459
937.679	346
937.773	667
937.867	592
937.961	124
938.055	476
938.149	157
938.243	1231
938.337	598
938.430	173
938.524	245
938.618	-106
938.712	721
938.805	735
938.899	629
938.993	348
939.086	574
939.180	285
939.274	-469
939.367	1068
939.461	355
939.554	854
939.648	-61
939.741	100
939.835	-127
939.928	607
940.022	1059
940.115	-425
940.208	650
940.302	795
940.395	749
940.488	-236
940.582	351
940.675	-628
940.768	585
940.861	890
940.954	1050
941.048	159
941.141	-484
941.234	736
941.327	-40
941.420	306
941.513	-601
941.606	215
941.699	-166
941.792	201
941.885	336
941.978	648
942.071	-582
942.164	484
942.257	136
942.349	420
942.442	-293
942.535	420
942.628	-25
942.721	27
942.813	-626
942.906	1147
942.999	-411
943.091	-534
943.184	425
943.277	626
943.369	214
943.462	-180
943.554	-242
943.647	121
943.739	569
943.832	504
943.924	-782
944.017	180
944.109	-1180
944.201	150
944.294	733
944.386	260
944.478	630
944.571	-472
944.663	-418
944.755	682
944.847	-355
944.940	-8
945.032	-403
945.124	-306
945.216	73
945.308	443
945.400	297
945.492	483
945.584	-135
945.676	319
945.768	128
945.860	886
945.952	22
946.044	397
946.136	633
946.228	508
946.320	-372
946.412	62
946.503	-467
946.595	545
946.687	-429
946.779	18
946.870	-718
946.962	-24
947.054	98
947.145	-153
947.237	14
947.329	-466
947.420	-558
947.512	-252
947.603	-405
947.695	-260
947.786	-1406
947.878	-25
947.969	-410
948.061	-469
948.152	-580
948.243	464
948.335	-64
948.426	-135
948.517	-504
948.609	-285
948.700	-876
948.791	213
948.882	-70
948.973	265
949.065	-885
949.156	-591
949.247	-77
949.338	244
949.429	-808
949.520	-194
949.611	-554
949.702	-22
949.793	-407
949.884	-78
949.975	171
950.066	-195
950.157	-160
950.247	-234
950.338	-476
950.429	-397
950.520	-269
950.611	-3
950.701	-608
950.792	421
950.883	-440
950.973	525
951.064	-183
951.155	179
951.245	-265
951.336	169
951.427	-1134
951.517	521
951.608	17
951.698	-526
951.788	-476
951.879	-284
951.969	-536
952.060	-434
952.150	-319
952.240	-437
952.331	-862
952.421	1683
952.511	-586
952.602	63
952.692	-336
952.782	-784
952.872	324
952.962	-143
953.052	-279
953.143	-1235
953.233	-599
953.323	-706
953.413	-678
953.503	-228
953.593	-617
953.683	-360
953.773	-534
953.863	-527
953.953	-695
954.042	-292
954.132	28
954.222	883
954.312	223
954.402	-210
954.492	-204
954.581	-1059
954.671	-1042
954.761	-890
954.850	860
954.940	-1
955.030	-606
955.119	-529
955.209	-215
955.298	-121
955.388	-348
955.477	-523
955.567	-326
955.656	-78
955.746	-669
955.835	-38
955.925	-584
956.014	-502
956.103	-468
956.193	-250
956.282	-70
956.371	274
956.461	-314
956.550	56
956.639	-191
956.728	-556
956.817	-316
956.906	-289
956.995	-217
957.085	-597
957.174	-423
957.263	-1089
957.352	-286
957.441	-318
957.530	-542
957.619	-222
957.708	-685
957.796	54
957.885	-1115
957.974	-161
958.063	-225
958.152	-578
958.241	9
958.329	-686
958.418	171
958.507	-1472
958.596	-568
958.684	-166
958.773	-101
958.861	-560
958.950	-546
959.039	-317
959.127	37
959.216	42
959.304	-758
959.393	-511
959.481	238
959.570	160
959.658	-318
959.746	234
959.835	-490
959.923	-542
960.011	-460
960.100	-287
960.188	-527
960.276	-675
960.365	-512
960.453	-213
960.541	-711
960.629	337
960.717	-12
960.805	-252
960.893	293
960.981	-354
961.069	594
961.158	278
961.245	-56
961.333	220
961.421	-511
961.509	-456
961.597	-830
961.685	-512
961.773	-1133
961.861	-412
961.949	-649
962.036	-595
962.124	-594
962.212	-787
962.299	-1076
962.387	-562
962.475	141
962.562	-985
962.650	-494
962.738	-527
962.825	-1051
962.913	-280
963.000	-299
963.088	-39
963.175	-105
963.263	-194
963.350	-438
963.438	288
963.525	-1251
963.612	151
963.700	-282
963.787	778
963.874	-584
963.962	-322
964.049	-1005
964.136	-158
964.223	-1078
964.310	38
964.398	-289
964.485	-517
964.572	-281
964.659	-672
964.746	-1045
964.833	-614
964.920	-359
965.007	-464
965.094	-640
965.181	-735
965.268	-950
965.355	-653
965.441	-994
965.528	-259
965.615	-551
965.702	3
965.789	-770
965.875	-172
965.962	-392
966.049	-842
966.136	-1021
966.222	-541
966.309	-720
966.395	-265
966.482	-430
966.569	-133
966.655	-1069
966.742	-769
966.828	200
966.915	-575
967.001	-693
967.087	-552
967.174	131
967.260	-15
967.347	-136
967.433	-397
967.519	-7
967.605	-525
967.692	-208
967.778	-35
967.864	-700
967.950	-232
968.036	-350
968.123	-121
968.209	-1009
968.295	-468
968.381	436
968.467	923
968.553	-1443
968.639	89
968.725	-1146
968.811	-356
968.897	-39
968.983	-180
969.069	-345
969.154	-170
969.240	247
969.326	-248
969.412	-325
969.497	-929
969.583	-512
969.669	20
969.755	-1052
969.840	352
969.926	-46
970.012	-623
970.097	450
970.183	-774
970.268	-1272
970.354	-382
970.439	-766
970.525	911
970.610	-930
970.696	667
970.781	-685
970.866	-226
970.952	-200
971.037	-477
971.122	-788
971.208	-815
971.293	-434
971.378	-1004
971.463	-1115
971.549	-321
971.634	-520
971.719	-6
971.804	-1403
971.889	-33
971.974	-401
972.059	-350
972.144	-212
972.229	-1252
972.314	-875
972.399	229
972.484	-631
972.569	585
972.654	-1125
972.739	136
972.824	160
972.908	-74
972.993	-805
973.078	-69
973.163	-904
973.247	-74
973.332	-2493
973.417	1123
973.501	-525
973.586	199
973.671	239
973.755	303
973.840	-324
973.924	67
974.009	-206
974.093	-407
974.178	44
974.262	-321
974.346	-1022
974.431	-292
974.515	-1169
974.600	33
974.684	-208
974.768	-1219
974.852	520
974.937	-1857
975.021	67
975.105	-679
975.189	495
975.273	-83
975.358	-728
975.442	64
975.526	-295
975.610	-414
975.694	-1064
975.778	-518
975.862	-130
975.946	-1651
976.030	452
976.114	-479
976.198	-594
976.281	-780
976.365	599
976.449	-1177
976.533	-389
976.617	-148
976.700	-666
976.784	-799
976.868	-697
976.951	239
977.035	-1079
977.119	-654
977.202	-200
977.286	321
977.369	-61
977.453	-720
977.536	-373
977.620	-423
977.703	-701
977.787	-1203
977.870	-351
977.953	-71
978.037	-1652
978.120	-1096
978.203	-1165
978.287	-103
978.370	-384
978.453	-71
978.536	-100
978.620	6
978.703	-664
978.786	-567
978.869	-1259
978.952	-713
979.035	-40
979.118	276
979.201	-680
979.284	-218
979.367	-1329
979.450	300
979.533	406
979.616	-694
979.699	-859
979.782	-392
979.865	-784
979.948	-909
980.030	-641
980.113	73
980.196	-1011
980.279	-484
980.361	-1436
980.444	-788
980.526	-862
980.609	-183
980.692	-1094
980.774	-125
980.857	-1572
980.939	-51
981.022	-694
981.104	-706
981.187	-1078
981.269	-1016
981.352	-221
981.434	-907
981.516	-1028
981.599	-386
981.681	-289
981.763	-374
981.846	80
981.928	-771
982.010	-511
982.092	-757
982.174	-932
982.256	-625
982.339	-75
982.421	-389
982.503	-73
982.585	-875
982.667	-1188
982.749	-175
982.831	-26
982.913	-1594
982.995	-288
983.077	-706
983.158	-444
983.240	-1299
983.322	17
983.404	-449
983.486	-1109
983.568	-232
983.649	-1143
983.731	-376
983.813	-1536
983.894	241
983.976	-1684
984.058	-892
984.139	-297
984.221	-1817
984.302	53
984.384	452
984.465	-1440
984.547	-48
984.628	-1406
984.710	-150
984.791	-1086
984.872	-790
984.954	-697
985.035	-393
985.116	-1124
985.198	-1089
985.279	-343
985.360	-983
985.441	-913
985.522	471
985.604	-695
985.685	-1716
985.766	535
985.847	134
985.928	-805
986.009	-1
986.090	-786
986.171	-223
986.252	-1824
986.333	-485
986.414	-1391
986.495	76
986.576	-1763
986.656	-1168
986.737	-546
986.818	-749
986.899	-1439
986.980	-1254
987.060	-503
987.141	-885
987.222	-1345
987.302	-184
987.383	-847
987.464	-641
987.544	-401
987.625	531
987.705	-326
987.786	-832
987.866	-777
987.947	-1362
988.027	-790
988.108	-1687
988.188	-489
988.268	-582
988.349	-993
988.429	-287
988.509	-381
988.589	-630
988.670	-1270
988.750	130
988.830	-885
988.910	-1298
988.990	-1348
989.070	59
989.151	-1051
989.231	-1482
989.311	-574
989.391	-856
989.471	-156
989.551	-1555
989.631	-803
989.711	86
989.791	-1323
989.870	-1066
989.950	-54
990.030	-1266
990.110	-1235
990.190	-896
990.269	-1344
990.349	-333
990.429	-328
990.509	-809
990.588	-974
990.668	60
990.747	-1061
990.827	-696
990.907	-926
990.986	-972
991.066	-494
991.145	-919
991.225	-1007
991.304	-197
991.383	-362
991.463	-816
991.542	-373
991.622	-693
991.701	-1989
991.780	-467
991.859	-1112
991.939	-1066
992.018	-273
992.097	-218
992.176	-837
992.256	-487
992.335	-806
992.414	-328
992.493	-1345
992.572	-1016
992.651	-875
992.730	-1191
992.809	-961
992.888	-1435
992.967	-1462
993.046	-829
993.125	-1754
993.203	433
993.282	-1693
993.361	-699
993.440	-1424
993.519	-888
993.597	-890
993.676	-793
993.755	-1145
993.834	-906
993.912	-2188
993.991	220
994.069	-2067
994.148	-429
994.226	-859
994.305	-814
994.384	-1382
994.462	-486
994.540	-2168
994.619	-650
994.697	-778
994.776	-1316
994.854	-458
994.932	-917
995.011	-861
995.089	-415
995.167	-1176
995.245	-1089
995.324	-2516
995.402	-735
995.480	-638
995.558	-400
995.636	-2716
995.714	-1847
995.792	154
995.870	-1191
995.948	-1002
996.026	-377
996.104	-2082
996.182	-25
996.260	-1151
996.338	-1668
996.416	-1897
996.494	-1000
996.572	-773
996.649	-759
996.727	-1622
996.805	-1497
996.883	-2160
996.960	-826
997.038	-62
997.116	-279
997.193	-1320
997.271	-370
997.348	-1806
997.426	-1413
997.504	-1185
997.581	-605
997.658	-686
997.736	-1371
997.813	-1848
997.891	-225
997.968	-1265
998.046	-586
998.123	-1291
998.200	-1319
998.277	-1550
998.355	-752
998.432	-2585
998.509	-630
998.586	-462
998.663	-518
998.741	-1778
998.818	-1085
998.895	-1671
998.972	-14
999.049	-570
999.126	-1717
999.203	34
999.280	-981
999.357	-992
999.434	-1338
999.511	-452
999.587	-477
999.664	-1615
999.741	-478
999.818	-1175
999.895	-1532
999.971	-1137
1000.048	-641
1000.125	-435
1000.202	-2290
1000.278	-1365
1000.355	-793
1000.431	-1639
1000.508	-1271
1000.584	-940
1000.661	-804
1000.738	-1964
1000.814	-452
1000.890	191
1000.967	-1281
1001.043	-744
1001.120	-2208
1001.196	-782
1001.272	-943
1001.349	-1258
1001.425	-622
1001.501	-1595
1001.577	-2267
1001.654	-1060
1001.730	-1422
1001.806	-1224
1001.882	-1429
1001.958	-597
1002.034	126
1002.110	-1102
1002.186	-1512
1002.262	-1214
1002.338	-1517
1002.414	-1790
1002.490	-464
1002.566	-1906
1002.642	-1293
1002.718	-613
1002.794	-1275
1002.870	-1538
1002.945	-871
1003.021	-1899
1003.097	-1040
1003.173	-1157
1003.248	-843
1003.324	-999
1003.400	-903
1003.475	-1222
1003.551	-913
1003.626	-1064
1003.702	-1210
1003.777	-1066
1003.853	-1119
1003.928	-1743
1004.004	-503
1004.079	-1095
1004.155	-2010
1004.230	-2320
1004.305	-609
1004.381	-1190
1004.456	-865
1004.531	-2040
1004.607	-422
1004.682	-1421
1004.757	-1300
1004.832	-883
1004.907	-1314
1004.982	84
1005.057	-968
1005.133	-1644
1005.208	-1390
1005.283	-1816
1005.358	-1432
1005.433	-1588
1005.508	-811
1005.583	-1644
1005.657	-1381
1005.732	-765
1005.807	-1411
1005.882	-402
1005.957	-278
1006.032	-1455
1006.106	-1181
1006.181	-1508
1006.256	-1204
1006.331	-1425
1006.405	-1566
1006.480	-1456
1006.554	-1227
1006.629	-731
1006.704	-1991
1006.778	-1141
1006.853	-988
1006.927	-1657
1007.002	-1636
1007.076	-1573
1007.150	-1555
1007.225	-697
1007.299	-391
1007.373	-1835
1007.448	-1465
1007.522	-700
1007.596	-1071
1007.671	-839
1007.745	-537
1007.819	-1833
1007.893	-1869
1007.967	-555
1008.041	-1998
1008.115	-557
1008.190	-1336
1008.264	-1060
1008.338	-2165
1008.412	-1735
1008.486	-1187
1008.560	-1351
1008.633	-1091
1008.707	-1446
1008.781	-890
1008.855	-1014
1008.929	-978
1009.003	-1591
1009.076	-1996
1009.150	-1038
1009.224	-960
1009.298	-1077
1009.371	-1833
1009.445	-983
1009.519	-1074
1009.592	-2755
1009.666	-1057
1009.739	-745
1009.813	-1757
1009.886	-897
1009.960	-1734
1010.033	-376
1010.107	-477
1010.180	-1375
1010.253	-1588
1010.327	-1612
1010.400	-1243
1010.473	-2182
1010.547	-346
1010.620	-1308
1010.693	-606
1010.766	-1155
1010.840	-1247
1010.913	-1982
1010.986	-1883
1011.059	-1750
1011.132	-1477
1011.205	-799
1011.278	-1410
1011.351	-1320
1011.424	-486
1011.497	-1567
1011.570	-1531
1011.643	-1794
1011.716	-1998
1011.789	-586
1011.862	-1010
1011.934	-1492
1012.007	-1710
1012.080	-885
1012.153	-1052
1012.225	-698
1012.298	-1920
1012.371	-1546
1012.443	-833
1012.516	-2171
1012.588	-908
1012.661	-1434
1012.733	-1693
1012.806	-1685
1012.879	-1914
1012.951	-736
1013.023	-1699
1013.096	-670
1013.168	-1077
1013.241	-293
1013.313	-1041
1013.385	-2074
1013.458	-1490
1013.530	-661
1013.602	-1376
1013.674	-1184
1013.746	-1932
1013.819	-1633
1013.891	-1237
1013.963	-1971
1014.035	-805
1014.107	-882
1014.179	-1384
1014.251	-1492
1014.323	-1132
1014.395	-1274
1014.467	-1260
1014.539	-356
1014.611	-1234
1014.683	-895
1014.754	-1947
1014.826	-1085
1014.898	-2075
1014.970	-2568
1015.042	-1285
1015.113	-1787
1015.185	-1638
1015.257	-2087
1015.328	-1135
1015.400	-1420
1015.471	-781
1015.543	-1956
1015.615	-1802
1015.686	-1192
1015.757	-2439
1015.829	-1190
1015.901	-1588
1015.972	-2239
1016.043	-1238
1016.115	-829
1016.186	-1126
1016.257	-1172
1016.328	-1781
1016.400	-1410
1016.471	-1528
1016.542	-2368
1016.613	-792
1016.685	-827
1016.756	-1284
1016.827	-1235
1016.898	-2134
1016.969	-955
1017.040	-1568
1017.111	-1500
1017.182	-2062
1017.253	-1620
1017.324	-1447
1017.395	-1427
1017.466	-458
1017.537	-1843
1017.608	-1376
1017.678	-1430
1017.749	-1615
1017.820	-1767
1017.891	-1680
1017.961	-1699
1018.032	-914
1018.103	-1186
1018.173	-1718
1018.244	-1528
1018.315	-1422
1018.385	-1306
1018.456	-695
1018.526	-1524
1018.597	-1319
1018.667	-917
1018.738	-1627
1018.808	-1385
1018.878	-1485
1018.949	-2094
1019.019	-1038
1019.089	-1339
1019.160	-1201
1019.230	-1905
1019.300	-1124
1019.371	-1878
1019.441	-1012
1019.511	-2305
1019.581	-1621
1019.651	-1663
1019.721	-639
1019.791	-1085
1019.861	-1730
1019.931	-1609
1020.001	-1769
1020.071	-1417
1020.141	-1303
1020.211	-1287
1020.281	-1713
1020.351	-1499
1020.421	-1706
1020.491	-682
1020.560	-2645
1020.630	-1169
1020.700	-1461
1020.770	-2188
1020.839	-1809
1020.909	-1608
1020.979	-1331
1021.048	-1372
1021.118	-2409
1021.187	-1130
1021.257	-1344
1021.326	-1045
1021.396	-2099
1021.465	-1617
1021.535	-1688
1021.604	-1806
1021.674	-1346
1021.743	-1429
1021.812	-1606
1021.882	-2627
1021.951	-1107
1022.020	-1658
1022.089	-1262
1022.159	-2458
1022.228	-1149
1022.297	-1628
1022.366	-1480
1022.435	-2068
1022.504	-1551
1022.573	-1522
1022.642	-1729
1022.711	-2146
1022.781	-1562
1022.849	-1601
1022.918	-1899
1022.987	-780
1023.056	-789
1023.125	-2046
1023.194	-1773
1023.263	-1790
1023.331	-2040
1023.400	-1484
1023.469	-1932
1023.538	-577
1023.606	-1657
1023.675	-2020
1023.744	-2033
1023.812	-1599
1023.881	-1140
1023.949	-1532
1024.018	-1885
1024.086	-1349
1024.155	-1427
1024.223	-1438
1024.292	-1114
1024.360	-1867
1024.429	-2155
1024.497	-2091
1024.565	-1418
1024.634	-1306
1024.702	-1839
1024.770	-1806
1024.838	-1518
1024.907	-1470
1024.975	-1832
1025.043	-924
1025.111	-1957
1025.179	-1629
1025.247	-1210
1025.315	-2023
1025.383	-1508
1025.451	-2086
1025.519	-2064
1025.587	-1616
1025.655	-2153
1025.723	-1494
1025.791	-1747
1025.859	-1383
1025.927	-1031
1025.995	-1548
1026.062	-1455
1026.130	-1240
1026.198	-1638
1026.266	-1527
1026.333	-640
1026.401	-1978
1026.469	-1856
1026.536	-1475
1026.604	-1045
1026.671	-2000
1026.739	-1364
1026.806	-1515
1026.874	-1653
1026.941	-883
1027.009	-1417
1027.076	-1839
1027.144	-141
1027.211	-1459
1027.278	-1327
1027.345	-1749
1027.413	-2101
1027.480	-2248
1027.547	-1168
1027.614	-1728
1027.682	-1058
1027.749	-1775
1027.816	-1144
1027.883	-1393
1027.950	-1465
1028.017	-1806
1028.084	-1215
1028.151	-2165
1028.218	-1639
1028.285	-1381
1028.352	-1495
1028.419	-2082
1028.486	-1094
1028.553	-2041
1028.619	-1746
1028.686	-1005
1028.753	-1636
1028.820	-1263
1028.886	-854
1028.953	-1084
1029.020	-1229
1029.086	-1664
1029.153	-2078
1029.220	-2156
1029.286	-1622
1029.353	-776
1029.419	-1852
1029.486	-1703
1029.552	-1800
1029.619	-1501
1029.685	-1397
1029.751	-1625
1029.818	-436
1029.884	-2160
1029.951	-535
1030.017	-1453
1030.083	-1852
1030.149	-1782
1030.216	-2171
1030.282	-1276
1030.348	-1445
1030.414	-2019
1030.480	-2044
1030.546	-1925
1030.612	-824
1030.678	-2536
1030.744	-1280
1030.810	-1081
1030.876	-1440
1030.942	-1458
1031.008	-1910
1031.074	-1986
1031.140	-1400
1031.206	-1892
1031.272	-1027
1031.337	-1228
1031.403	-1142
1031.469	-966
1031.534	-2318
1031.600	-1140
1031.666	-1344
1031.731	-1529
1031.797	-793
1031.863	-2035
1031.928	-1290
1031.994	-2465
1032.059	-643
1032.125	-1079
1032.190	-1521
1032.256	-2528
1032.321	-1634
1032.386	-2057
1032.452	-1393
1032.517	-1935
1032.582	-1890
1032.647	-1467
1032.713	-1347
1032.778	-1611
1032.843	-1598
1032.908	-1052
1032.974	-1794
1033.039	-889
1033.104	-1226
1033.169	-1278
1033.234	-1577
1033.299	-778
1033.364	-1683
1033.429	-1869
1033.494	-1430
1033.559	-2136
1033.624	-1626
1033.688	-1388
1033.753	-1833
1033.818	-1841
1033.883	-1167
1033.948	-1528
1034.013	-1829
1034.077	-1741
1034.142	-1850
1034.207	-1514
1034.271	-889
1034.336	-1132
1034.400	-1345
1034.465	-1170
1034.530	-858
1034.594	-863
1034.658	-2002
1034.723	-1285
1034.787	-1855
1034.852	-1995
1034.916	-1834
1034.981	-2248
1035.045	-1199
1035.109	-1995
1035.173	-1121
1035.238	-1096
1035.302	-1449
1035.366	-1884
1035.430	-1596
1035.495	-2119
1035.559	-1244
1035.623	-1700
1035.687	-1670
1035.751	-1699
1035.815	-1413
1035.879	-1680
1035.943	-1600
1036.007	-1373
1036.071	-1218
1036.135	-1738
1036.198	-1478
1036.262	-1750
1036.326	-919
1036.390	-1678
1036.454	-646
1036.517	-1208
1036.581	-1275
1036.645	-2068
1036.709	-1440
1036.772	-2012
1036.836	-1322
1036.900	-1843
1036.963	-1110
1037.026	-2151
1037.090	-1249
1037.154	-1932
1037.217	-1925
1037.280	-1861
1037.344	-1147
1037.407	-1507
1037.471	-1176
1037.534	-1867
1037.597	-1527
1037.661	-2203
1037.724	-1357
1037.787	-1783
1037.850	-1532
1037.913	-2502
1037.977	-1051
1038.040	-2069
1038.103	-1080
1038.166	-1762
1038.229	-1046
1038.292	-1778
1038.355	-1416
1038.418	-2082
1038.481	-1556
1038.544	-2661
1038.607	-1776
1038.670	-2101
1038.732	-1129
1038.795	-2445
1038.858	-1747
1038.921	-1757
1038.984	-1178
1039.046	-2052
1039.109	-1588
1039.172	-945
1039.234	-1747
1039.297	-1628
1039.360	-1836
1039.422	-2332
1039.485	-1446
1039.547	-2636
1039.610	-1501
1039.672	-1919
1039.734	-1174
1039.797	-1579
1039.859	-1222
1039.922	-1642
1039.984	-1928
1040.046	-1948
1040.109	-1694
1040.171	-2326
1040.233	-1784
1040.295	-2079
1040.358	-1907
1040.420	-1652
1040.482	-1851
1040.544	-950
1040.606	-1723
1040.668	-1253
1040.730	-1437
1040.792	-1750
1040.854	-1254
1040.916	-1781
1040.978	-1835
1041.040	-1232
1041.102	-1088
1041.164	-1067
1041.225	-1377
1041.287	-1613
1041.349	-1801
1041.411	-1913
1041.472	-1606
1041.534	-1723
1041.596	-1234
1041.657	-1762
1041.719	-1105
1041.781	-1633
1041.842	-2504
1041.904	-2420
1041.965	-1475
1042.027	-1837
1042.088	-2335
1042.150	-1348
1042.211	-1553
1042.272	-1477
1042.334	-1691
1042.395	-1357
1042.456	-1661
1042.518	-1855
1042.579	-1041
1042.640	-1946
1042.701	-1448
1042.763	-1567
1042.824	-1775
1042.885	-2097
1042.946	-1721
1043.007	-2755
1043.068	-2008
1043.129	-1624
1043.190	-1246
1043.251	-1408
1043.312	-1192
1043.373	-1406
1043.434	-1713
1043.495	-2026
1043.556	194
1043.616	-2419
1043.677	-2575
1043.738	-897
1043.799	-954
1043.859	-999
1043.920	-1702
1043.981	-1274
1044.041	-1525
1044.102	-1795
1044.162	-2063
1044.223	-1522
1044.284	-2304
1044.344	-1179
1044.405	-1295
1044.465	-1006
1044.525	-1471
1044.586	-1685
1044.646	-962
1044.707	-1087
1044.767	-1947
1044.827	-2619
1044.887	-1980
1044.948	-1059
1045.008	-1055
1045.068	-2076
1045.128	-1391
1045.188	-2443
1045.249	-1423
1045.309	-2559
1045.369	-952
1045.429	-1984
1045.489	-1089
1045.549	-1730
1045.609	-1387
1045.669	-2235
1045.729	-1243
1045.789	-1353
1045.848	-1446
1045.908	-1399
1045.968	-724
1046.028	-1325
1046.088	-1418
1046.147	-736
1046.207	-487
1046.267	-1379
1046.326	-1338
1046.386	-1289
1046.446	-782
1046.505	-531
1046.565	-299
1046.624	53
1046.684	-955
1046.743	-962
1046.803	116
1046.862	-349
1046.922	0
