'Start Wavelength	183.907
'End Wavelength	1046.922
'Gate Delay	5.000
'Gate Width (ms)	1.050
'Laser Output Level	0.000
'X Position	0.000
'Y Position	0.000
'Z Position	0.000
'Grid Point Number	1.000
'Shot Number	100.000
183.907	-233.000
183.977	-353.000
184.047	340
184.116	162
184.186	610
184.256	83
184.325	312
184.395	-150
184.465	129
184.534	188
184.604	6
184.674	237
184.743	-26
184.813	-57
184.883	103
184.952	-139
185.022	361
185.092	52
185.161	-365
185.231	9
185.301	789
185.370	186
185.440	-143
185.509	-807
185.579	-527
185.649	178
185.718	803
185.788	864
185.857	-524
185.927	-87
185.996	6
186.066	123
186.136	-516
186.205	541
186.275	-188
186.344	844
186.414	632
186.483	-148
186.553	-396
186.622	168
186.692	14
186.761	399
186.831	135
186.900	-564
186.970	302
187.039	119
187.109	229
187.178	-78
187.248	794
187.317	-412
187.387	-390
187.456	-49
187.526	102
187.595	742
187.664	-123
187.734	624
187.803	-931
187.873	-169
187.942	-295
188.012	-311
188.081	-786
188.150	531
188.220	328
188.289	634
188.358	-243
188.428	149
188.497	-119
188.567	-93
188.636	-149
188.705	-277
188.775	-153
188.844	-228
188.913	100
188.983	-388
189.052	20
189.121	-465
189.191	-232
189.260	-23
189.329	-25
189.399	657
189.468	103
189.537	127
189.606	-313
189.676	-79
189.745	189
189.814	41
189.883	-90
189.953	-134
190.022	-333
190.091	-1
190.161	558
190.230	1
190.299	-154
190.368	220
190.437	-67
190.507	-704
190.576	-862
190.645	466
190.714	-76
190.783	-278
190.853	-428
190.922	-328
190.991	242
191.060	-131
191.129	-428
191.198	-61
191.268	26
191.337	-321
191.406	621
191.475	340
191.544	-704
191.613	-194
191.682	892
191.752	281
191.821	-169
191.890	-127
191.959	-30
192.028	513
192.097	-66
192.166	-146
192.235	-222
192.304	333
192.373	-312
192.442	-363
192.511	-792
192.580	572
192.650	-600
192.719	-718
192.788	81
192.857	-132
192.926	-398
192.995	-133
193.064	35
193.133	578
193.202	-158
193.271	286
193.340	-43
193.409	-88
193.478	583
193.547	1177
193.615	629
193.684	111
193.753	433
193.822	-70
193.891	286
193.960	70
194.029	-325
194.098	-5
194.167	-181
194.236	367
194.305	-189
194.374	-245
194.443	-242
194.512	493
194.580	-35
194.649	165
194.718	-527
194.787	932
194.856	-161
194.925	125
194.994	475
195.062	-95
195.131	-637
195.200	-661
195.269	24
195.338	148
195.407	-143
195.475	40
195.544	-171
195.613	-718
195.682	-441
195.751	-169
195.819	-1146
195.888	-339
195.957	919
196.026	-607
196.094	448
196.163	-736
196.232	716
196.301	86
196.369	154
196.438	33
196.507	-117
196.576	-231
196.644	-308
196.713	519
196.782	141
196.850	584
196.919	-2
196.988	-17
197.056	527
197.125	144
197.194	-97
197.262	189
197.331	10
197.400	29
197.468	-164
197.537	-12
197.606	-101
197.674	-186
197.743	605
197.812	-125
197.880	-36
197.949	-518
198.017	-19
198.086	2
198.155	-27
198.223	811
198.292	230
198.360	141
198.429	-567
198.497	103
198.566	-459
198.635	-127
198.703	-106
198.772	-617
198.840	430
198.909	353
198.977	-251
199.046	33
199.114	366
199.183	-21
199.251	-339
199.320	-517
199.388	264
199.457	-308
199.525	-736
199.594	489
199.662	-219
199.731	-183
199.799	130
199.867	-11
199.936	-738
200.004	88
200.073	286
200.141	-199
200.210	-693
200.278	15
200.346	285
200.415	-404
200.483	-394
200.552	518
200.620	-85
200.688	357
200.757	-572
200.825	96
200.893	-165
200.962	330
201.030	131
201.098	-192
201.167	-297
201.235	582
201.303	125
201.372	3
201.440	-255
201.508	599
201.577	275
201.645	-256
201.713	-731
201.781	162
201.850	-208
201.918	918
201.986	31
202.055	132
202.123	-439
202.191	712
202.259	556
202.327	290
202.396	372
202.464	-129
202.532	-525
202.600	782
202.669	-145
202.737	-198
202.805	-769
202.873	441
202.941	-99
203.009	99
203.078	-404
203.146	178
203.214	-116
203.282	-638
203.350	324
203.418	48
203.487	-99
203.555	27
203.623	191
203.691	-186
203.759	-398
203.827	74
203.895	-146
203.963	-678
204.031	-119
204.099	163
204.168	452
204.236	290
204.304	-579
204.372	-25
204.440	-111
204.508	-487
204.576	-219
204.644	-756
204.712	-163
204.780	419
204.848	-100
204.916	-631
204.984	-81
205.052	164
205.120	97
205.188	416
205.256	-439
205.324	-24
205.392	-224
205.460	-287
205.528	-471
205.596	6
205.664	-810
205.732	-398
205.799	138
205.867	46
205.935	409
206.003	215
206.071	-480
206.139	126
206.207	-400
206.275	89
206.343	-322
206.411	-849
206.478	-146
206.546	-911
206.614	160
206.682	-370
206.750	45
206.818	268
206.885	-58
206.953	-1109
207.021	-387
207.089	321
207.157	-871
207.225	-558
207.292	-38
207.360	-565
207.428	105
207.496	34
207.563	66
207.631	-170
207.699	-447
207.767	-38
207.834	-1048
207.902	-374
207.970	3
208.038	60
208.105	101
208.173	-165
208.241	-30
208.309	301
208.376	-454
208.444	217
208.512	109
208.579	90
208.647	-54
208.715	-80
208.782	-293
208.850	151
208.918	-611
208.985	175
209.053	-1219
209.120	-500
209.188	-465
209.256	-51
209.323	-166
209.391	-184
209.459	441
209.526	943
209.594	-247
209.661	453
209.729	204
209.796	425
209.864	201
209.932	-1138
209.999	262
210.067	-179
210.134	-507
210.202	-38
210.269	-249
210.337	-390
210.404	-249
210.472	-251
210.539	-372
210.607	-440
210.674	400
210.742	265
210.809	396
210.877	258
210.944	-2
211.012	-416
211.079	873
211.146	-51
211.214	-365
211.281	-157
211.349	-324
211.416	-345
211.484	203
211.551	-313
211.618	197
211.686	135
211.753	-140
211.821	212
211.888	-39
211.955	-281
212.023	-290
212.090	734
212.157	-577
212.225	582
212.292	408
212.359	71
212.427	1471
212.494	87
212.561	393
212.629	70
212.696	313
212.763	137
212.831	-361
212.898	-199
212.965	-670
213.032	-154
213.100	508
213.167	247
213.234	-273
213.301	462
213.369	92
213.436	-438
213.503	-1028
213.570	786
213.638	164
213.705	259
213.772	104
213.839	661
213.906	383
213.973	132
214.041	-484
214.108	20
214.175	-476
214.242	53
214.309	219
214.376	-77
214.444	-399
214.511	-164
214.578	-483
214.645	356
214.712	-471
214.779	-313
214.846	-201
214.913	294
214.980	460
215.048	531
215.115	438
215.182	412
215.249	-994
215.316	-142
215.383	274
215.450	99
215.517	-71
215.584	-346
215.651	-626
215.718	302
215.785	263
215.852	198
215.919	158
215.986	464
216.053	-142
216.120	-42
216.187	297
216.254	-85
216.321	337
216.388	230
216.455	581
216.522	431
216.589	356
216.656	-357
216.722	63
216.789	-393
216.856	528
216.923	852
216.990	-285
217.057	253
217.124	583
217.191	978
217.258	-9
217.324	357
217.391	38
217.458	724
217.525	10
217.592	759
217.659	-183
217.725	916
217.792	-185
217.859	150
217.926	-320
217.993	-291
218.059	-252
218.126	129
218.193	-808
218.260	56
218.327	-487
218.393	-338
218.460	-498
218.527	-302
218.594	-199
218.660	-96
218.727	790
218.794	-307
218.860	650
218.927	-400
218.994	-169
219.061	130
219.127	-791
219.194	439
219.261	-616
219.327	22
219.394	270
219.461	-583
219.527	500
219.594	-124
219.661	243
219.727	-1033
219.794	298
219.860	-849
219.927	176
219.994	-230
220.060	725
220.127	567
220.193	234
220.260	507
220.326	728
220.393	493
220.460	532
220.526	509
220.593	-153
220.659	367
220.726	-32
220.792	704
220.859	807
220.925	1434
220.992	2178
221.058	1671
221.125	1314
221.191	794
221.258	-446
221.324	521
221.391	-205
221.457	-9
221.524	-232
221.590	150
221.657	1008
221.723	-203
221.789	-205
221.856	826
221.922	-421
221.989	280
222.055	430
222.121	-800
222.188	1277
222.254	238
222.321	-168
222.387	-259
222.453	256
222.520	139
222.586	-280
222.652	-403
222.719	-227
222.785	-266
222.851	-511
222.918	-844
222.984	-531
223.050	-344
223.116	-717
223.183	-84
223.249	-669
223.315	-277
223.382	296
223.448	90
223.514	-654
223.580	64
223.647	-991
223.713	-335
223.779	-420
223.845	-249
223.911	-556
223.978	-482
224.044	431
224.110	-364
224.176	-108
224.242	-229
224.309	-768
224.375	-452
224.441	-141
224.507	-450
224.573	-1015
224.639	412
224.705	-185
224.772	35
224.838	-990
224.904	-342
224.970	-21
225.036	-771
225.102	-883
225.168	258
225.234	-252
225.300	243
225.366	-129
225.432	209
225.499	-224
225.565	-499
225.631	-1054
225.697	137
225.763	-646
225.829	371
225.895	496
225.961	433
226.027	-57
226.093	-150
226.159	775
226.225	573
226.291	1980
226.357	2476
226.423	1246
226.489	738
226.554	-239
226.620	940
226.686	19
226.752	699
226.818	743
226.884	3254
226.950	3491
227.016	699
227.082	707
227.148	104
227.214	-285
227.279	6
227.345	-157
227.411	462
227.477	76
227.543	1871
227.609	1138
227.674	-75
227.740	34
227.806	360
227.872	65
227.938	509
228.003	-395
228.069	17
228.135	55
228.201	-353
228.267	-335
228.332	-376
228.398	-258
228.464	-407
228.530	147
228.595	36
228.661	-880
228.727	206
228.792	365
228.858	-362
228.924	-968
228.990	1005
229.055	-516
229.121	86
229.187	-747
229.252	-329
229.318	-34
229.384	-580
229.449	359
229.515	-299
229.581	-1688
229.646	231
229.712	-686
229.777	44
229.843	-321
229.909	575
229.974	-159
230.040	159
230.105	33
230.171	-198
230.236	775
230.302	7
230.368	-856
230.433	-545
230.499	-408
230.564	-91
230.630	-626
230.695	-454
230.761	302
230.826	-620
230.892	236
230.957	-246
231.023	-460
231.088	345
231.154	-735
231.219	423
231.284	-216
231.350	-44
231.415	-1053
231.481	391
231.546	-98
231.612	-112
231.677	196
231.742	141
231.808	604
231.873	-687
231.939	-983
232.004	526
232.069	-147
232.135	-345
232.200	-1037
232.265	411
232.331	-940
232.396	19
232.461	-724
232.527	-688
232.592	-729
232.657	250
232.723	-839
232.788	-942
232.853	-286
232.918	64
232.984	-928
233.049	-532
233.114	-495
233.179	-620
233.245	248
233.310	-442
233.375	-714
233.440	415
233.506	-886
233.571	-455
233.636	-455
233.701	-351
233.766	-981
233.832	-381
233.897	-97
233.962	-1075
234.027	-216
234.092	-333
234.157	-197
234.222	-310
234.288	390
234.353	-512
234.418	-308
234.483	781
234.548	225
234.613	-753
234.678	-36
234.743	-710
234.808	518
234.873	172
234.938	850
235.004	-438
235.069	-428
235.134	-1118
235.199	-218
235.264	289
235.329	-666
235.394	-59
235.459	-717
235.524	-381
235.589	-418
235.654	83
235.719	-1127
235.784	166
235.849	170
235.913	88
235.978	-167
236.043	-140
236.108	-185
236.173	-548
236.238	-107
236.303	-725
236.368	-830
236.433	1011
236.498	-180
236.563	193
236.627	976
236.692	4542
236.757	2612
236.822	1378
236.887	-506
236.952	108
237.017	-549
237.081	733
237.146	-24
237.211	2067
237.276	3619
237.341	6946
237.405	2571
237.470	965
237.535	-103
237.600	346
237.664	399
237.729	-851
237.794	-78
237.859	1113
237.923	-195
237.988	-162
238.053	473
238.118	365
238.182	-273
238.247	989
238.312	-186
238.376	965
238.441	-2043
238.506	802
238.570	-396
238.635	869
238.700	-474
238.764	-1329
238.829	-56
238.893	171
238.958	213
239.023	-404
239.087	-414
239.152	263
239.216	-834
239.281	-67
239.346	-454
239.410	313
239.475	-518
239.539	947
239.604	-619
239.668	533
239.733	-281
239.797	277
239.862	2056
239.926	1169
239.991	-51
240.055	35
240.120	-12
240.184	-60
240.249	-75
240.313	-362
240.378	-754
240.442	175
240.507	-139
240.571	-95
240.635	-528
240.700	-210
240.764	-927
240.829	106
240.893	-1777
240.957	284
241.022	760
241.086	298
241.151	-292
241.215	-517
241.279	701
241.344	-171
241.408	-184
241.472	462
241.537	337
241.601	924
241.665	-118
241.730	-371
241.794	466
241.858	137
241.922	-223
241.987	-454
242.051	-535
242.115	-512
242.179	44
242.244	-539
242.308	911
242.372	236
242.436	-374
242.501	-680
242.565	-924
242.629	-258
242.693	171
242.757	186
242.822	-73
242.886	-60
242.950	76
243.014	-837
243.078	476
243.142	-133
243.206	-314
243.271	-148
243.335	214
243.399	335
243.463	854
243.527	4398
243.591	582
243.655	191
243.719	-681
243.783	459
243.847	255
243.911	696
243.975	678
244.040	-37
244.104	885
244.168	-117
244.232	269
244.296	694
244.360	578
244.424	-679
244.488	-292
244.552	792
244.615	-803
244.679	-303
244.743	-353
244.807	-98
244.871	36
244.935	457
244.999	-779
245.063	-344
245.127	59
245.191	746
245.255	-682
245.319	-134
245.383	-325
245.446	411
245.510	-421
245.574	208
245.638	-592
245.702	-610
245.766	641
245.829	1077
245.893	254
245.957	-959
246.021	-714
246.085	-346
246.149	-1029
246.212	1060
246.276	439
246.340	669
246.404	319
246.467	-123
246.531	-800
246.595	246
246.659	368
246.722	-886
246.786	69
246.850	824
246.913	-605
246.977	-848
247.041	187
247.104	-398
247.168	293
247.232	804
247.295	1644
247.359	603
247.423	-307
247.486	467
247.550	-150
247.614	-113
247.677	-237
247.741	-11
247.804	-237
247.868	-605
247.932	-77
247.995	1882
248.059	-365
248.122	-825
248.186	-47
248.249	-205
248.313	4113
248.376	3186
248.440	1791
248.503	-874
248.567	1091
248.630	-24
248.694	1732
248.757	1993
248.821	3997
248.884	2712
248.948	1237
249.011	3063
249.075	4722
249.138	3198
249.202	1420
249.265	-817
249.328	960
249.392	-366
249.455	-506
249.519	685
249.582	259
249.645	1221
249.709	636
249.772	48
249.835	906
249.899	-598
249.962	379
250.025	-292
250.089	1390
250.152	1461
250.215	483
250.279	305
250.342	624
250.405	495
250.468	-796
250.532	-376
250.595	853
250.658	5080
250.721	6774
250.785	1493
250.848	2249
250.911	-20
250.974	1139
251.038	814
251.101	2507
251.164	736
251.227	821
251.290	439
251.354	1279
251.417	7827
251.480	4736
251.543	4407
251.606	13823
251.669	8012
251.732	2439
251.795	3671
251.859	3637
251.922	8225
251.985	3580
252.048	1689
252.111	282
252.174	413
252.237	2213
252.300	4783
252.363	4878
252.426	10730
252.489	2529
252.552	2038
252.615	-231
252.678	1909
252.741	3641
252.804	3591
252.867	9961
252.930	5375
252.993	2230
253.056	1935
253.119	-6
253.182	773
253.245	695
253.308	585
253.371	67
253.434	-217
253.497	1001
253.559	2046
253.622	1362
253.685	1636
253.748	591
253.811	-658
253.874	1410
253.937	81
254.000	-361
254.062	1343
254.125	1599
254.188	1973
254.251	578
254.314	-597
254.376	421
254.439	1465
254.502	429
254.565	810
254.628	2368
254.690	158
254.753	-672
254.816	13
254.878	706
254.941	2070
255.004	835
255.067	-64
255.129	-325
255.192	449
255.255	-628
255.317	61
255.380	-235
255.443	-72
255.505	-818
255.568	-567
255.631	-353
255.693	29
255.756	-1292
255.819	368
255.881	-144
255.944	-420
256.006	-447
256.069	-356
256.132	-638
256.194	-536
256.257	-50
256.319	275
256.382	-210
256.444	213
256.507	-197
256.569	-391
256.632	394
256.694	-831
256.757	3504
256.819	7305
256.882	1921
256.944	663
257.007	377
257.069	78
257.132	117
257.194	1066
257.257	143
257.319	-849
257.381	-815
257.444	1529
257.506	8686
257.569	7654
257.631	1934
257.693	1556
257.756	488
257.818	-224
257.880	-182
257.943	498
258.005	-1291
258.067	-195
258.130	-571
258.192	134
258.254	-662
258.317	-6
258.379	-350
258.441	408
258.503	696
258.566	140
258.628	769
258.690	-1377
258.753	33
258.815	619
258.877	-1011
258.939	262
259.001	811
259.064	-797
259.126	-1128
259.188	-717
259.250	472
259.312	-53
259.375	657
259.437	-118
259.499	103
259.561	24
259.623	-911
259.685	-42
259.747	-330
259.809	1205
259.872	1142
259.934	2481
259.996	2587
260.058	540
260.120	-517
260.182	-65
260.244	-192
260.306	-720
260.368	-138
260.430	-815
260.492	454
260.554	653
260.616	-63
260.678	1120
260.740	972
260.802	-1175
260.864	400
260.926	-952
260.988	413
261.050	120
261.112	866
261.174	2635
261.236	166
261.298	836
261.359	240
261.421	721
261.483	-696
261.545	-175
261.607	-1566
261.669	-350
261.731	189
261.793	1160
261.854	-1704
261.916	602
261.978	52
262.040	301
262.102	399
262.164	-619
262.225	238
262.287	-539
262.349	270
262.411	-365
262.472	558
262.534	-947
262.596	-176
262.658	-127
262.719	-739
262.781	-38
262.843	-940
262.904	-424
262.966	-607
263.028	195
263.090	2176
263.151	4467
263.213	1366
263.275	1142
263.336	-438
263.398	580
263.459	-1099
263.521	-594
263.583	613
263.644	-103
263.706	-995
263.767	-1238
263.829	183
263.891	-64
263.952	-609
264.014	-588
264.075	-368
264.137	1045
264.198	-463
264.260	-524
264.321	-721
264.383	248
264.444	1834
264.506	-497
264.567	-443
264.629	445
264.690	633
264.752	51
264.813	-461
264.875	-593
264.936	-63
264.998	-485
265.059	-595
265.120	-520
265.182	-12
265.243	3556
265.305	2517
265.366	8
265.427	-136
265.489	461
265.550	-1047
265.611	-487
265.673	-594
265.734	-628
265.795	-244
265.857	-925
265.918	-769
265.979	1340
266.040	6484
266.102	3749
266.163	418
266.224	-59
266.286	-256
266.347	-257
266.408	-1276
266.469	-194
266.530	-1077
266.592	-496
266.653	-465
266.714	465
266.775	-524
266.836	-557
266.898	-1097
266.959	14
267.020	-913
267.081	284
267.142	-801
267.203	62
267.264	-1925
267.326	463
267.387	-441
267.448	-1295
267.509	-228
267.570	-808
267.631	-1079
267.692	-1096
267.753	45
267.814	-1267
267.875	-438
267.936	445
267.997	-139
268.058	-333
268.119	-532
268.180	-703
268.241	-1486
268.302	-705
268.363	-922
268.424	-490
268.485	-851
268.546	-1064
268.607	-433
268.668	-613
268.729	-1315
268.790	-479
268.851	-1299
268.912	-284
268.972	-30
269.033	-991
269.094	-707
269.155	-385
269.216	-80
269.277	-1245
269.338	-284
269.398	-100
269.459	-1439
269.520	-759
269.581	-21
269.642	36
269.702	-1257
269.763	-183
269.824	-932
269.885	-69
269.945	189
270.006	-469
270.067	-1493
270.128	-745
270.188	-944
270.249	-814
270.310	-1673
270.370	-69
270.431	-857
270.492	-1358
270.553	-355
270.613	-269
270.674	949
270.734	-715
270.795	-406
270.856	-6
270.916	-1733
270.977	26
271.038	-616
271.098	-577
271.159	-678
271.219	-179
271.280	-338
271.340	216
271.401	-1126
271.462	-501
271.522	-235
271.583	-1748
271.643	-908
271.704	-654
271.764	-1067
271.825	-216
271.885	3812
271.946	3787
272.006	53
272.066	2091
272.127	3125
272.187	544
272.248	-58
272.308	-473
272.369	2502
272.429	815
272.489	418
272.550	242
272.610	853
272.671	-31
272.731	-41
272.791	-306
272.852	-1299
272.912	-421
272.972	-707
273.033	-518
273.093	-707
273.153	-205
273.214	-176
273.274	147
273.334	1651
273.394	3394
273.455	516
273.515	1310
273.575	2243
273.635	1027
273.696	1624
273.756	2902
273.816	1003
273.876	-671
273.936	254
273.997	1358
274.057	-503
274.117	-752
274.177	-242
274.237	4331
274.297	2757
274.358	1224
274.418	2740
274.478	1305
274.538	-152
274.598	-1463
274.658	-118
274.718	597
274.778	-389
274.838	-1176
274.898	-741
274.958	1014
275.018	2768
275.078	1444
275.138	254
275.198	-874
275.258	-664
275.318	-300
275.378	66
275.438	341
275.498	90
275.558	415
275.618	2049
275.678	1445
275.738	35
275.798	-549
275.858	-428
275.918	-972
275.978	-181
276.038	-754
276.098	-1040
276.157	-63
276.217	1874
276.277	244
276.337	-1146
276.397	-524
276.457	-720
276.517	-191
276.576	-362
276.636	-573
276.696	-1142
276.756	610
276.815	-66
276.875	-92
276.935	-56
276.995	-1056
277.055	-570
277.114	-307
277.174	283
277.234	1606
277.293	-838
277.353	-479
277.413	-870
277.472	-325
277.532	-506
277.592	-669
277.651	459
277.711	1471
277.771	-474
277.830	2938
277.890	1272
277.950	1030
278.009	5667
278.069	1091
278.128	1515
278.188	1589
278.248	598
278.307	1911
278.367	1376
278.426	-750
278.486	-835
278.545	-785
278.605	229
278.664	-593
278.724	238
278.783	2154
278.843	3069
278.902	-532
278.962	-388
279.021	286
279.081	225
279.140	-880
279.199	65
279.259	-113
279.318	443
279.378	880
279.437	1339
279.496	6747
279.556	15229
279.615	9797
279.675	2279
279.734	1597
279.793	1590
279.853	4916
279.912	945
279.971	177
280.031	125
280.090	2158
280.149	3312
280.208	2069
280.268	10440
280.327	9034
280.386	1465
280.445	743
280.505	517
280.564	139
280.623	-589
280.682	316
280.742	512
280.801	-595
280.860	-575
280.919	-75
280.978	-684
281.037	-1093
281.097	-717
281.156	-798
281.215	-1692
281.274	-640
281.333	2223
281.392	644
281.451	-147
281.510	-1075
281.569	-1840
281.628	-707
281.688	-88
281.747	-176
281.806	-743
281.865	-189
281.924	-832
281.983	-740
282.042	-713
282.101	-1199
282.160	-125
282.219	-648
282.278	-889
282.337	233
282.396	-432
282.454	203
282.513	-389
282.572	1036
282.631	617
282.690	13
282.749	-1533
282.808	-87
282.867	-728
282.926	-779
282.985	-443
283.043	-1021
283.102	-528
283.161	-730
283.220	382
283.279	1820
283.338	-234
283.396	-672
283.455	-1193
283.514	-1294
283.573	-250
283.631	-147
283.690	-148
283.749	-535
283.808	398
283.866	705
283.925	-1016
283.984	-779
284.043	-1055
284.101	285
284.160	-417
284.219	-145
284.277	-22
284.336	-866
284.395	2715
284.453	1710
284.512	245
284.570	145
284.629	632
284.688	-357
284.746	-867
284.805	-679
284.863	284
284.922	431
284.981	780
285.039	1958
285.098	3893
285.156	12618
285.215	30739
285.273	28574
285.332	12674
285.390	5762
285.449	3380
285.507	1969
285.566	1083
285.624	486
285.683	-68
285.741	-641
285.799	-351
285.858	-99
285.916	-98
285.975	-775
286.033	-698
286.091	-238
286.150	-607
286.208	-431
286.267	-63
286.325	-873
286.383	-556
286.442	-681
286.500	-751
286.558	-752
286.616	-966
286.675	-340
286.733	-670
286.791	-62
286.850	-899
286.908	-565
286.966	-255
287.024	-3
287.083	-1327
287.141	-952
287.199	-441
287.257	-243
287.315	-823
287.374	385
287.432	362
287.490	-120
287.548	-219
287.606	-103
287.664	-1083
287.723	-531
287.781	-496
287.839	-695
287.897	-1001
287.955	-198
288.013	344
288.071	2091
288.129	11837
288.187	32316
288.245	11689
288.303	2705
288.361	810
288.419	768
288.477	360
288.535	-223
288.593	-217
288.651	-821
288.709	-515
288.767	-1160
288.825	-654
288.883	-474
288.941	-607
288.999	-529
289.057	-621
289.115	-525
289.173	-696
289.231	-597
289.289	-979
289.346	-749
289.404	-1107
289.462	-585
289.520	-418
289.578	-795
289.636	-952
289.694	-1268
289.751	-1155
289.809	-806
289.867	-1471
289.925	32
289.983	-678
290.040	-808
290.098	-257
290.156	-1436
290.214	-1251
290.271	-270
290.329	-553
290.387	-617
290.444	-1301
290.502	-1075
290.560	-706
290.617	-1658
290.675	-1028
290.733	-829
290.790	-867
290.848	-875
290.906	-961
290.963	-1033
291.021	-674
291.078	-1215
291.136	-919
291.194	54
291.251	1408
291.309	-314
291.366	-849
291.424	-901
291.481	-595
291.539	-1020
291.596	-817
291.654	-681
291.711	-1617
291.769	-637
291.826	-493
291.884	-1198
291.941	-1473
291.999	-1162
292.056	-1129
292.114	-90
292.171	-962
292.228	-613
292.286	-1137
292.343	-513
292.401	-600
292.458	-1097
292.515	-1273
292.573	8
292.630	-869
292.687	-8
292.745	-575
292.802	-82
292.859	1154
292.917	2049
292.974	545
293.031	-465
293.089	-564
293.146	-830
293.203	-968
293.260	-758
293.318	-195
293.375	316
293.432	-704
293.489	-583
293.546	-649
293.604	-604
293.661	1261
293.718	4897
293.775	1304
293.832	-241
293.889	-580
293.947	-490
294.004	-519
294.061	-710
294.118	450
294.175	2145
294.232	2489
294.289	212
294.346	-1053
294.403	-226
294.460	-259
294.517	-703
294.574	-1387
294.631	-1365
294.688	-998
294.745	533
294.802	5479
294.859	6207
294.916	836
294.973	-365
295.030	-332
295.087	-887
295.144	-491
295.201	-77
295.258	-1076
295.315	-525
295.372	1970
295.429	3445
295.486	323
295.542	31
295.599	1930
295.656	3918
295.713	2561
295.770	3715
295.827	1383
295.883	-251
295.940	-317
295.997	-227
296.054	-214
296.111	52
296.167	-531
296.224	-361
296.281	-1099
296.338	-426
296.394	-786
296.451	-270
296.508	829
296.564	2849
296.621	1165
296.678	4944
296.734	6262
296.791	1572
296.848	587
296.904	272
296.961	2002
297.018	4564
297.074	3283
297.131	793
297.187	-282
297.244	-261
297.301	4293
297.357	8974
297.414	2712
297.470	-104
297.527	-687
297.583	-484
297.640	-401
297.696	-466
297.753	-627
297.809	-984
297.866	-1203
297.922	-438
297.979	-833
298.035	-530
298.092	-229
298.148	2175
298.204	1136
298.261	-254
298.317	1897
298.374	5252
298.430	2200
298.486	107
298.543	-12
298.599	1173
298.656	-417
298.712	1052
298.768	3421
298.824	1249
298.881	-37
298.937	-196
298.993	-61
299.050	-802
299.106	-247
299.162	-358
299.218	-581
299.275	-1224
299.331	-691
299.387	603
299.443	4846
299.500	5716
299.556	2238
299.612	639
299.668	592
299.724	1665
299.780	1772
299.837	-90
299.893	1778
299.949	4509
300.005	6108
300.061	4767
300.117	9559
300.173	3612
300.229	786
300.285	866
300.341	433
300.397	620
300.453	-351
300.510	-588
300.566	-105
300.622	457
300.678	4930
300.734	7352
300.790	4345
300.845	6168
300.901	3484
300.957	5554
301.013	3375
301.069	245
301.125	383
301.181	-348
301.237	-472
301.293	-944
301.349	-376
301.405	-475
301.461	-687
301.516	-378
301.572	-369
301.628	97
301.684	103
301.740	844
301.796	2795
301.851	1259
301.907	2370
301.963	2648
302.019	4820
302.074	16163
302.130	14820
302.186	6386
302.242	2115
302.297	690
302.353	-181
302.409	2902
302.464	1823
302.520	1794
302.576	4650
302.631	6178
302.687	3551
302.743	1009
302.798	-100
302.854	361
302.910	85
302.965	48
303.021	752
303.076	637
303.132	244
303.187	976
303.243	197
303.299	-86
303.354	-308
303.410	-709
303.465	-98
303.521	-267
303.576	-589
303.632	22
303.687	873
303.743	4448
303.798	3646
303.853	1458
303.909	-451
303.964	-480
304.020	324
304.075	245
304.130	68
304.186	2197
304.241	2233
304.297	2007
304.352	58
304.358	59
304.407	68
304.449	-2
304.463	-24
304.518	-494
304.539	-372
304.573	-196
304.629	324
304.630	314
304.684	-105
304.720	2131
304.739	3264
304.794	5189
304.811	4251
304.850	1863
304.902	485
304.905	402
304.960	279
304.992	-93
305.015	-337
305.071	874
305.083	708
305.126	16
305.173	-235
305.181	-259
305.236	-77
305.264	112
305.292	271
305.347	-439
305.354	-421
305.402	-184
305.445	539
305.457	721
305.512	318
305.535	264
305.567	180
305.622	510
305.626	557
305.678	2142
305.716	5169
305.733	6140
305.788	7150
305.807	6221
305.843	4764
305.897	5751
305.898	5755
305.953	6379
305.988	4131
306.008	2898
306.063	900
306.078	672
306.118	374
306.168	-3
306.173	-36
306.228	318
306.259	5
306.283	-127
306.338	163
306.349	263
306.393	562
306.440	273
306.448	204
306.503	773
306.530	361
306.558	385
306.613	1834
306.620	2085
306.668	4097
306.711	6477
306.723	6652
306.778	5501
306.801	4336
306.833	2843
306.888	1186
306.892	1060
306.943	307
306.982	437
306.997	524
307.052	211
307.072	138
307.107	318
307.162	779
307.163	782
307.217	1347
307.253	1904
307.272	2102
307.327	1924
307.343	1925
307.381	1937
307.434	1622
307.436	1694
307.491	3758
307.524	5417
307.546	5881
307.600	7449
307.614	7131
307.655	4709
307.704	1938
307.710	1886
307.765	2111
307.795	2469
307.819	2918
307.874	5078
307.885	5122
307.929	4401
307.975	4224
307.984	4510
308.038	6661
308.065	8229
308.093	14911
308.148	30563
308.156	33756
308.202	54026
308.246	68956
308.257	66019
308.312	37300
308.336	25449
308.366	19467
308.421	11493
308.426	10754
308.475	7147
308.517	4797
308.530	4497
308.585	3579
308.607	3155
308.639	2907
308.694	3102
308.697	3127
308.748	5902
308.787	7553
308.803	7218
308.857	6025
308.877	5468
308.912	5187
308.967	5093
308.967	5082
309.021	7557
309.058	9148
309.076	11802
309.130	21345
309.148	25004
309.185	45888
309.238	79620
309.239	80027
309.293	89596
309.328	87559
309.348	75012
309.402	37924
309.418	27762
309.457	19393
309.508	11127
309.511	11000
309.566	9155
309.598	8315
309.620	9157
309.674	11256
309.688	11902
309.729	10718
309.778	8473
309.783	8355
309.837	6886
309.868	6041
309.892	7338
309.946	10941
309.959	11911
310.001	16429
310.049	20979
310.055	20203
310.109	11914
310.139	7130
310.163	5636
310.218	3280
310.229	2751
310.272	2368
310.319	2295
310.326	2256
310.381	1549
310.409	1364
310.435	1564
310.489	1966
310.499	2006
310.543	1971
310.589	1901
310.598	1923
310.652	2195
310.679	2231
310.706	1999
310.760	1586
310.769	1505
310.814	1774
310.859	1924
310.868	1889
310.923	1840
310.948	1789
310.977	2037
311.031	2471
311.038	2510
311.085	2187
311.128	1868
311.139	1930
311.193	2351
311.218	2424
311.247	2319
311.301	2206
311.308	2171
311.356	2107
311.398	2072
311.410	2132
311.464	2440
311.488	2506
311.518	2176
311.572	1600
311.578	1529
311.626	2502
311.668	3309
311.680	3271
311.734	3048
311.758	2910
311.788	2804
311.842	2652
311.847	2620
311.896	3561
311.937	4384
311.950	4239
312.004	3502
312.027	3167
312.058	3022
312.112	2740
312.117	2703
312.165	2456
312.207	2229
312.297	3454
312.386	3085
312.476	2793
312.566	4799
312.656	2508
312.745	2323
312.835	2732
312.925	2863
313.015	2653
313.104	2843
313.194	2505
313.284	2461
313.374	3562
313.463	2576
313.553	2654
313.643	2343
313.732	2126
313.822	1907
313.912	2675
314.001	3170
314.091	3734
314.180	4137
314.270	3437
314.360	3278
314.449	4053
314.539	2597
314.628	2536
314.718	3072
314.808	3522
314.897	3069
314.987	3121
315.076	3571
315.166	3807
315.255	3934
315.345	3120
315.434	2997
315.524	2460
315.613	3455
315.703	4293
315.792	5363
315.881	15681
315.971	7026
316.060	5146
316.150	6102
316.239	6136
316.328	3522
316.418	3055
316.507	2720
316.597	3441
316.686	3521
316.775	3110
316.865	6547
316.954	2836
317.043	2191
317.133	2041
317.222	2899
317.311	2368
317.400	2060
317.490	3143
317.579	3289
317.668	2645
317.757	3645
317.847	8299
317.936	27593
318.025	12216
318.114	7579
318.203	4239
318.293	5586
318.382	9610
318.471	8422
318.560	10636
318.649	23530
318.738	5851
318.828	4008
318.917	3714
319.006	4045
319.095	8529
319.184	26587
319.273	15814
319.362	8463
319.451	2771
319.540	3043
319.629	5010
319.718	9394
319.807	5359
319.896	8154
319.985	33020
320.074	13502
320.163	4107
320.252	4348
320.341	5140
320.430	4749
320.519	5285
320.608	3276
320.697	3564
320.786	3012
320.875	4173
320.964	5130
321.053	6668
321.142	7891
321.230	9340
321.319	7384
321.408	15429
321.497	9273
321.586	7560
321.675	7051
321.764	7713
321.852	5156
321.941	8525
322.030	6753
322.119	6508
322.207	15786
322.296	10489
322.385	8098
322.474	8640
322.562	18970
322.651	11934
322.740	7103
322.829	10344
322.917	8572
323.006	6355
323.095	5834
323.183	4311
323.272	6106
323.361	8421
323.449	24113
323.538	9457
323.626	16068
323.715	11759
323.804	4244
323.892	12671
323.981	10174
324.069	4223
324.158	7623
324.246	7539
324.335	3836
324.424	6203
324.512	3469
324.601	3871
324.689	6353
324.778	11533
324.866	7394
324.954	2987
325.043	2834
325.131	3466
325.220	6077
325.308	7518
325.397	5292
325.485	4122
325.574	2543
325.662	2751
325.750	3097
325.839	2654
325.927	2319
326.015	2614
326.104	3334
326.192	4344
326.280	2029
326.369	1931
326.457	3022
326.545	4846
326.634	2896
326.722	2037
326.810	2207
326.898	1827
326.987	2799
327.075	4731
327.163	4904
327.251	2087
327.340	4750
327.428	7500
327.516	2935
327.604	2518
327.692	2871
327.781	2102
327.869	2930
327.957	3266
328.045	2556
328.133	2206
328.221	2561
328.309	2616
328.397	2410
328.485	2584
328.574	3167
328.662	9830
328.750	7179
328.838	3008
328.926	2640
329.014	2441
329.102	3053
329.190	6349
329.278	5311
329.366	2413
329.454	2446
329.542	2427
329.630	2027
329.718	2890
329.806	3064
329.893	2982
329.981	5120
330.069	8329
330.157	25519
330.245	70647
330.333	44974
330.421	9046
330.509	5033
330.597	11677
330.684	8783
330.772	4302
330.860	5124
330.948	6247
331.036	3431
331.123	2230
331.211	2646
331.299	3001
331.387	4157
331.475	7591
331.562	3228
331.650	1943
331.738	2257
331.825	3356
331.913	2808
332.001	1564
332.089	2771
332.176	4162
332.264	6989
332.352	6042
332.439	3204
332.527	2092
332.614	1735
332.702	2716
332.790	2507
332.877	2867
332.965	6217
333.052	2755
333.140	2119
333.228	4403
333.315	2853
333.403	2374
333.490	4421
333.578	4485
333.665	5674
333.753	4355
333.840	2511
333.928	3044
334.015	5423
334.103	9017
334.190	31517
334.278	11186
334.365	6380
334.452	6852
334.540	4405
334.627	3915
334.715	5907
334.802	8935
334.889	27625
334.977	35899
335.064	11074
335.151	5173
335.239	4774
335.326	5876
335.413	16172
335.501	27377
335.588	5340
335.675	3933
335.762	5048
335.850	7963
335.937	9048
336.024	14353
336.111	40231
336.199	26174
336.286	9195
336.373	5460
336.460	4213
336.547	3262
336.635	3961
336.722	3319
336.809	2614
336.896	3913
336.983	9413
337.070	23427
337.157	37853
337.245	19315
337.332	14467
337.419	3260
337.506	2946
337.593	3600
337.680	7463
337.767	24646
337.854	7205
337.941	7610
338.028	6042
338.115	3405
338.202	3872
338.289	5638
338.376	16705
338.463	8112
338.550	12391
338.637	16623
338.724	4024
338.811	6501
338.898	2116
338.984	1808
339.071	2988
339.158	2711
339.245	5902
339.332	4230
339.419	3921
339.506	4818
339.593	1945
339.679	1927
339.766	2539
339.853	1924
339.940	4812
340.027	2533
340.113	2496
340.200	3667
340.287	2576
340.374	2641
340.460	3911
340.547	2463
340.634	3620
340.720	10695
340.807	7475
340.894	2841
340.980	1687
341.067	1294
341.154	2256
341.240	3251
341.327	7166
341.414	3057
341.500	3285
341.587	2313
341.674	2313
341.760	3974
341.847	4687
341.933	2813
342.020	1402
342.106	1422
342.193	2127
342.279	3376
342.366	2636
342.452	4704
342.539	2313
342.625	4295
342.712	11508
342.798	5666
342.885	2464
342.971	1576
343.058	1479
343.144	1213
343.230	2088
343.317	1422
343.403	1198
343.490	1732
343.576	1866
343.662	1902
343.749	2110
343.835	2837
343.921	3958
344.008	17606
344.094	51408
344.180	14479
344.267	5034
344.353	13678
344.439	16401
344.525	6918
344.612	5526
344.698	5694
344.784	3723
344.870	2071
344.957	1781
345.043	3658
345.129	1900
345.215	4444
345.301	2531
345.387	2113
345.474	1898
345.560	721
345.646	1548
345.732	2184
345.818	2058
345.904	1929
345.990	2133
346.076	1920
346.162	3146
346.249	2039
346.335	1310
346.421	2049
346.507	5426
346.593	21580
346.679	6533
346.765	2486
346.851	2541
346.937	1992
347.023	2381
347.108	2692
347.194	2243
347.280	1848
347.366	2912
347.452	6853
347.538	26059
347.624	18999
347.710	16683
347.796	3870
347.882	2789
347.967	1139
348.053	2847
348.139	1989
348.225	1460
348.311	1376
348.397	1807
348.482	2703
348.568	2596
348.654	2367
348.740	4581
348.825	5016
348.911	4761
348.997	10664
349.083	23935
349.168	5006
349.254	2258
349.340	2205
349.425	1481
349.511	2260
349.597	2626
349.682	4320
349.768	15070
349.854	9323
349.939	2951
350.025	1151
350.110	2739
350.196	1868
350.282	1600
350.367	1458
350.453	1356
350.538	2823
350.624	3308
350.709	2643
350.795	1812
350.880	1922
350.966	2227
351.051	2854
351.137	2788
351.222	2475
351.308	4867
351.393	15069
351.479	4437
351.564	2316
351.649	1592
351.735	1202
351.820	1617
351.906	1964
351.991	2528
352.076	7804
352.162	13361
352.247	3562
352.332	1858
352.418	4072
352.503	5076
352.588	18188
352.673	17017
352.759	4513
352.844	2450
352.929	2625
353.014	3274
353.100	2131
353.185	3857
353.270	4848
353.355	4432
353.441	2314
353.526	1803
353.611	4086
353.696	5069
353.781	2783
353.866	1834
353.952	2592
354.037	3459
354.122	7927
354.207	8234
354.292	3782
354.377	2362
354.462	1303
354.547	3219
354.632	2306
354.717	3528
354.802	4721
354.887	1911
354.972	1812
355.057	2030
355.142	1301
355.227	2869
355.312	2508
355.397	5989
355.482	13209
355.567	6453
355.652	4757
355.737	5856
355.822	15526
355.907	16832
355.991	3432
356.076	1646
356.161	2298
356.246	2113
356.331	2650
356.416	3833
356.501	24387
356.585	30783
356.670	5517
356.755	4253
356.840	4445
356.924	15297
357.009	60153
357.094	28107
357.179	6221
357.263	4456
357.348	4145
357.433	3905
357.517	3719
357.602	3269
357.687	2968
357.771	4321
357.856	12285
357.941	8588
358.025	11001
358.110	58269
358.195	32955
358.279	5621
358.364	3601
358.448	9721
358.533	31233
358.617	24614
358.702	23433
358.787	9884
358.871	5243
358.956	4166
359.040	2187
359.125	1799
359.209	2333
359.294	5690
359.378	10978
359.462	5556
359.547	3570
359.631	2322
359.716	1171
359.800	2514
359.885	3315
359.969	2154
360.053	2496
360.138	1886
360.222	3185
360.306	4850
360.391	4309
360.475	6489
360.559	14051
360.644	11693
360.728	8818
360.812	12357
360.896	41514
360.981	17386
361.065	9318
361.149	3413
361.233	3250
361.318	2773
361.402	2821
361.486	3548
361.570	2440
361.654	3310
361.739	6674
361.823	21797
361.907	44259
361.991	10511
362.075	5372
362.159	9270
362.243	9600
362.327	13786
362.411	21442
362.495	9846
362.580	4972
362.664	3974
362.748	4642
362.832	6998
362.916	11150
363.000	33511
363.084	65387
363.168	63161
363.252	17385
363.336	7448
363.420	7594
363.503	22535
363.587	32857
363.671	6995
363.755	4542
363.839	7037
363.923	4234
364.007	7463
364.091	9114
364.175	11612
364.258	47765
364.342	54776
364.426	79271
364.510	46102
364.594	15973
364.677	9976
364.761	34095
364.845	31031
364.929	8622
365.013	8019
365.096	5551
365.180	7113
365.264	8184
365.347	41292
365.431	20020
365.515	5063
365.598	3040
365.682	3484
365.766	3426
365.849	5667
365.933	3356
366.017	4886
366.100	4117
366.184	2000
366.267	3564
366.351	2157
366.435	2270
366.518	1719
366.602	1978
366.685	2194
366.769	2487
366.852	4028
366.936	6287
367.019	3887
367.103	2588
367.186	6325
367.270	2300
367.353	1185
367.436	2583
367.520	2734
367.603	2602
367.687	3317
367.770	5265
367.853	3848
367.937	10269
368.020	20430
368.104	5891
368.187	4082
368.270	6913
368.353	7087
368.437	5898
368.520	10830
368.603	7493
368.687	11140
368.770	25696
368.853	8088
368.936	4579
369.020	6332
369.103	3708
369.186	1315
369.269	2573
369.352	4266
369.436	4916
369.519	4188
369.602	1786
369.685	3006
369.768	1879
369.851	2191
369.934	1878
370.018	2637
370.101	4212
370.184	5162
370.267	3455
370.350	4261
370.433	6007
370.516	18334
370.599	27843
370.682	7673
370.765	12848
370.848	15132
370.931	29999
371.014	14234
371.097	3102
371.180	3210
371.263	1734
371.346	1481
371.429	2453
371.511	998
371.594	3654
371.677	4991
371.760	6035
371.843	5084
371.926	18690
372.009	54176
372.091	20233
372.174	10189
372.257	27948
372.340	12885
372.423	6833
372.505	10746
372.588	4729
372.671	7215
372.754	28547
372.836	17758
372.919	10069
373.002	24057
373.085	8375
373.167	5133
373.250	11488
373.332	27118
373.415	30952
373.498	69432
373.580	29752
373.663	31078
373.746	51880
373.828	12943
373.911	6048
373.993	5401
374.076	19455
374.159	22408
374.241	8761
374.324	23358
374.406	18609
374.489	16556
374.571	59552
374.654	28671
374.736	9667
374.819	33348
374.901	45914
374.983	56202
375.066	12260
375.148	5159
375.231	15048
375.313	37256
375.395	14111
375.478	4302
375.560	2933
375.643	3155
375.725	8433
375.807	41269
375.890	36051
375.972	11728
376.054	7071
376.136	8541
376.219	5350
376.301	9491
376.383	38821
376.465	17906
376.548	8088
376.630	9166
376.712	32836
376.794	19121
376.877	3083
376.959	1157
377.041	2485
377.123	3830
377.205	5637
377.287	1638
377.369	2436
377.452	1666
377.534	1582
377.616	1780
377.698	2365
377.780	1489
377.862	1819
377.944	2728
378.026	1849
378.108	1872
378.190	2147
378.272	1764
378.354	1688
378.436	953
378.518	2633
378.600	8089
378.682	6932
378.764	16463
378.846	14751
378.928	4295
379.010	5139
379.091	4513
379.173	2297
379.255	1639
379.337	2653
379.419	6394
379.501	25282
379.583	12017
379.664	2840
379.746	4811
379.828	14829
379.910	23573
379.991	22256
380.073	4973
380.155	2799
380.237	2354
380.318	1364
380.400	2181
380.482	3180
380.564	5544
380.645	4755
380.727	5695
380.809	3465
380.890	1832
380.972	1735
381.053	2324
381.135	2747
381.217	5559
381.298	18086
381.380	10516
381.461	6633
381.543	27931
381.624	44185
381.706	9281
381.787	4320
381.869	4914
381.951	10329
382.032	48440
382.113	38528
382.195	7754
382.276	5455
382.358	8124
382.439	28473
382.521	31007
382.602	51106
382.684	23205
382.765	38749
382.846	39031
382.928	43030
383.009	26608
383.090	14715
383.172	54817
383.253	101099
383.334	37731
383.416	43500
383.497	27142
383.578	8804
383.659	13903
383.741	46519
383.822	145802
383.903	87481
383.984	28475
384.066	55870
384.147	38510
384.228	8974
384.309	5862
384.390	4473
384.471	3542
384.553	3949
384.634	4261
384.715	5108
384.796	3067
384.877	3489
384.958	14497
385.039	21446
385.120	8262
385.201	3844
385.282	5109
385.363	4946
385.444	3793
385.525	5782
385.606	20892
385.687	23655
385.768	6830
385.849	5683
385.930	21341
386.011	46082
386.092	14466
386.173	4658
386.254	3630
386.335	4028
386.416	3278
386.496	9563
386.577	19114
386.658	7457
386.739	4539
386.820	4554
386.901	3131
386.981	4330
387.062	3399
387.143	4575
387.224	16443
387.304	18964
387.385	8610
387.466	4429
387.547	6054
387.627	4730
387.708	7116
387.789	27773
387.869	39777
387.950	13654
388.031	3784
388.111	1831
388.192	6166
388.273	9818
388.353	5308
388.434	3926
388.514	4894
388.595	24359
388.676	37242
388.756	18876
388.837	15363
388.917	11279
388.998	2511
389.078	3244
389.159	3121
389.239	2331
389.320	4872
389.400	3167
389.480	6643
389.561	18310
389.641	12595
389.722	3031
389.802	5057
389.883	6929
389.963	21432
390.043	15567
390.124	4739
390.204	5389
390.284	17710
390.365	13630
390.445	12848
390.525	34029
390.605	34858
390.686	12020
390.766	5445
390.846	3388
390.927	1602
391.007	1919
391.087	3640
391.167	3611
391.247	2150
391.328	3475
391.408	4964
391.488	4941
391.568	2193
391.648	3289
391.728	4715
391.808	4033
391.888	4710
391.969	9708
392.049	17899
392.129	9010
392.209	8357
392.289	22896
392.369	14110
392.449	10941
392.529	8612
392.609	6559
392.689	8416
392.769	21985
392.849	22334
392.929	15892
393.009	33757
393.089	32224
393.169	33083
393.248	84998
393.328	295302
393.408	367578
393.488	130880
393.568	37185
393.648	18833
393.728	10956
393.807	8742
393.887	8757
393.967	6477
394.047	7050
394.127	8084
394.206	12505
394.286	31358
394.366	140154
394.446	186875
394.525	53744
394.605	14959
394.685	9573
394.764	14458
394.844	24757
394.924	22717
395.003	8308
395.083	5562
395.163	4836
395.242	3822
395.322	4540
395.402	2611
395.481	6687
395.561	9305
395.640	30119
395.720	31171
395.799	35137
395.879	30373
395.958	18035
396.038	47608
396.117	183485
396.197	241540
396.276	87889
396.356	28153
396.435	18219
396.515	14814
396.594	14983
396.673	27510
396.753	83841
396.832	281183
396.912	246536
396.991	66246
397.070	20005
397.150	10377
397.229	9214
397.308	12985
397.388	27695
397.467	15786
397.546	5449
397.625	2830
397.705	5541
397.784	4361
397.863	2907
397.942	3213
398.022	2934
398.101	6660
398.180	25182
398.259	15693
398.338	4023
398.417	2951
398.497	2110
398.576	2372
398.655	1647
398.734	2517
398.813	2111
398.892	6799
398.971	26719
399.050	16444
399.129	2189
399.208	2664
399.287	2639
399.366	1541
399.445	1692
399.524	1978
399.603	982
399.682	2442
399.761	6296
399.840	27039
399.919	25766
399.998	4345
400.077	1060
400.156	595
400.235	2920
400.313	1037
400.392	945
400.471	7703
400.550	14764
400.629	4060
400.708	2311
400.786	1641
400.865	4277
400.944	5827
401.023	4204
401.102	1208
401.180	1365
401.259	933
401.338	1970
401.416	1790
401.495	1407
401.574	1755
401.652	1219
401.731	2325
401.810	1676
401.888	1579
401.967	748
402.046	767
402.124	2093
402.203	2485
402.281	2354
402.360	1869
402.438	6887
402.517	4607
402.596	2346
402.674	1078
402.753	428
402.831	1351
402.910	1805
402.988	6325
403.066	24745
403.145	18647
403.223	7345
403.302	21987
403.380	17524
403.459	16636
403.537	7970
403.615	3022
403.694	736
403.772	2061
403.850	1283
403.929	1479
404.007	324
404.085	3950
404.164	4171
404.242	1607
404.320	6496
404.398	24383
404.477	26412
404.555	41975
404.633	45530
404.711	21459
404.789	14645
404.868	3382
404.946	1827
405.024	1362
405.102	870
405.180	523
405.258	438
405.336	1512
405.415	305
405.493	2775
405.571	3030
405.649	845
405.727	890
405.805	3611
405.883	2639
405.961	2233
406.039	1989
406.117	806
406.195	2732
406.273	6091
406.351	34342
406.429	26327
406.507	3889
406.585	1242
406.663	1053
406.740	1721
406.818	1357
406.896	940
406.974	1305
407.052	1776
407.130	18187
407.208	31971
407.285	7713
407.363	1802
407.441	1420
407.519	1021
407.596	1843
407.674	6685
407.752	32473
407.830	32995
407.907	8108
407.985	1530
408.063	1831
408.141	1171
408.218	2215
408.296	1518
408.373	1829
408.451	2588
408.529	1614
408.606	1173
408.684	1647
408.762	1611
408.839	1168
408.917	778
408.994	958
409.072	1407
409.149	2056
409.227	2978
409.304	4230
409.382	3947
409.459	4383
409.537	6068
409.614	5682
409.692	5035
409.769	3463
409.846	5103
409.924	7686
410.001	4955
410.079	4387
410.156	3655
410.233	2469
410.311	2242
410.388	2172
410.465	1609
410.543	1502
410.620	1843
410.697	1768
410.775	2477
410.852	73
410.929	2214
411.006	2802
411.083	2027
411.161	1822
411.238	3928
411.315	2112
411.392	174
411.469	2212
411.547	2213
411.624	414
411.701	1276
411.778	1211
411.855	1719
411.932	1931
412.009	919
412.086	540
412.163	1300
412.240	1585
412.317	1725
412.394	1030
412.471	1391
412.548	919
412.625	980
412.702	1716
412.779	2522
412.856	2347
412.933	762
413.010	1128
413.087	1666
413.164	6187
413.241	11949
413.318	2745
413.395	2298
413.471	2375
413.548	1461
413.625	1210
413.702	254
413.779	1076
413.855	1163
413.932	347
414.009	113
414.086	999
414.162	1820
414.239	1729
414.316	5676
414.393	17522
414.469	7365
414.546	1260
414.623	1058
414.699	689
414.776	561
414.853	552
414.929	1821
415.006	1110
415.082	523
415.159	647
415.236	1144
415.312	999
415.389	1673
415.465	1748
415.542	1773
415.618	0
415.695	2109
415.771	861
415.848	763
415.924	957
416.000	1637
416.077	1287
416.153	-24
416.230	-105
416.306	934
416.383	-19
416.459	995
416.535	-21
416.612	410
416.688	-98
416.764	-149
416.841	-33
416.917	358
416.993	897
417.069	922
417.146	811
417.222	2968
417.298	1516
417.374	373
417.451	791
417.527	975
417.603	1127
417.679	1528
417.755	1305
417.831	229
417.908	945
417.984	339
418.060	-530
418.136	1948
418.212	2274
418.288	1671
418.364	1132
418.440	820
418.516	1274
418.592	1764
418.668	3043
418.744	4527
418.820	3950
418.896	1285
418.972	681
419.048	496
419.124	2646
419.200	765
419.276	1391
419.352	57
419.428	961
419.504	384
419.579	1716
419.655	1516
419.731	978
419.807	3257
419.883	4696
419.959	4461
420.034	1657
420.110	2032
420.186	10610
420.262	11182
420.337	2076
420.413	1399
420.489	973
420.565	1940
420.640	1237
420.716	2236
420.792	652
420.867	1676
420.943	1462
421.019	2025
421.094	2179
421.170	2485
421.245	920
421.321	3055
421.397	2693
421.472	6827
421.548	20443
421.623	16585
421.699	6413
421.774	5522
421.850	4274
421.925	6913
422.001	6237
422.076	7979
422.152	9486
422.227	12466
422.302	18215
422.378	26939
422.453	45061
422.529	91971
422.604	179669
422.679	210129
422.755	205114
422.830	131585
422.905	61944
422.981	34676
423.056	22569
423.131	16337
423.207	11901
423.282	9000
423.357	9773
423.432	6973
423.508	6302
423.583	7946
423.658	6970
423.733	4901
423.808	4824
423.883	4081
423.959	3665
424.034	3921
424.109	4528
424.184	2446
424.259	2685
424.334	2020
424.409	1442
424.484	1606
424.559	2182
424.634	1338
424.709	2069
424.784	2619
424.859	1634
424.934	1687
425.009	6497
425.084	13006
425.159	6133
425.234	1677
425.309	1006
425.384	3141
425.459	5529
425.534	3275
425.609	975
425.683	1873
425.758	1146
425.833	1449
425.908	1899
425.983	2348
426.058	11421
426.132	6427
426.207	1365
426.282	3106
426.357	1632
426.431	1239
426.506	1503
426.581	1358
426.655	1553
426.730	1434
426.805	551
426.879	1446
426.954	1593
427.029	2504
427.103	8943
427.178	30963
427.253	17877
427.327	2138
427.402	1474
427.476	5672
427.551	3859
427.625	1568
427.700	1499
427.774	990
427.849	1436
427.923	413
427.998	1468
428.072	1480
428.147	3880
428.221	14080
428.296	58205
428.370	41465
428.444	6148
428.519	3165
428.593	4330
428.667	5387
428.742	5840
428.816	7902
428.890	28774
428.965	65291
429.039	21388
429.113	7595
429.188	2638
429.262	1572
429.336	2106
429.410	6163
429.485	4979
429.559	3934
429.633	4061
429.707	2246
429.781	4218
429.855	30156
429.930	62706
430.004	24383
430.078	24107
430.152	28518
430.226	67914
430.300	87051
430.374	19360
430.448	5704
430.522	7378
430.596	23649
430.670	19177
430.744	46667
430.818	80554
430.892	19664
430.966	3552
431.040	2159
431.114	744
431.188	-308
431.262	753
431.336	581
431.410	2051
431.484	5463
431.557	5263
431.631	1571
431.705	1828
431.779	9452
431.853	50366
431.927	47168
432.000	6569
432.074	1888
432.148	1044
432.222	1173
432.295	1252
432.369	561
432.443	994
432.516	9121
432.590	30954
432.664	14343
432.737	971
432.811	-488
432.885	-385
432.958	935
433.032	-444
433.106	598
433.179	21
433.253	522
433.326	-62
433.400	491
433.473	1172
433.547	-228
433.620	78
433.694	880
433.767	1799
433.841	-322
433.914	263
433.988	-289
434.061	728
434.134	-541
434.208	190
434.281	253
434.355	303
434.428	976
434.501	-47
434.575	282
434.648	119
434.721	291
434.795	-173
434.868	414
434.941	-483
435.014	-12
435.088	215
435.161	796
435.234	1210
435.307	1904
435.381	1258
435.454	1358
435.527	2566
435.600	3518
435.673	3139
435.746	1928
435.819	1684
435.892	1245
435.966	773
436.039	346
436.112	1933
436.185	1147
436.258	508
436.331	80
436.404	24
436.477	-119
436.550	421
436.623	227
436.696	-128
436.769	-27
436.842	135
436.915	-69
436.987	1095
437.060	502
437.133	175
437.206	190
437.279	334
437.352	-168
437.425	-81
437.498	-134
437.570	1318
437.643	2096
437.716	287
437.789	360
437.861	897
437.934	3471
438.007	2390
438.080	77
438.152	354
438.225	1819
438.298	10922
438.370	42900
438.443	23111
438.516	4403
438.588	367
438.661	-13
438.734	1421
438.806	693
438.879	255
438.951	691
439.024	2456
439.096	-44
439.169	337
439.241	299
439.314	-218
439.386	302
439.459	1160
439.531	1846
439.604	703
439.676	638
439.749	-80
439.821	747
439.893	848
439.966	58
440.038	671
440.110	635
440.183	700
440.255	182
440.327	1609
440.400	5162
440.472	24993
440.544	22866
440.617	3542
440.689	2335
440.761	1409
440.833	3151
440.905	1655
440.978	-423
441.050	300
441.122	868
441.194	350
441.266	468
441.338	307
441.411	1102
441.483	6705
441.555	13190
441.627	4167
441.699	1105
441.771	1935
441.843	485
441.915	673
441.987	1382
442.059	626
442.131	1581
442.203	1897
442.275	2206
442.347	2722
442.419	5739
442.491	26015
442.563	85942
442.635	44726
442.706	11367
442.778	7900
442.850	2700
442.922	1670
442.994	990
443.066	2408
443.137	1783
443.209	2470
443.281	4266
443.353	9474
443.425	31994
443.496	127895
443.568	156081
443.640	69518
443.711	14860
443.783	4936
443.855	3032
443.926	2012
443.998	1310
444.070	1638
444.141	954
444.213	1856
444.285	2344
444.356	617
444.428	1548
444.499	906
444.571	874
444.642	969
444.714	537
444.785	2013
444.857	3182
444.928	4086
445.000	4416
445.071	3494
445.143	6095
445.214	4497
445.285	7951
445.357	21186
445.428	72032
445.500	186023
445.571	144578
445.642	89159
445.714	31340
445.785	14163
445.856	5748
445.928	3914
445.999	2326
446.070	2133
446.141	2543
446.213	2756
446.284	1063
446.355	832
446.426	681
446.497	660
446.569	1835
446.640	1973
446.711	1783
446.782	786
446.853	367
446.924	870
446.995	81
447.066	677
447.138	1086
447.209	1108
447.280	-609
447.351	-492
447.422	-307
447.493	363
447.564	365
447.635	1112
447.706	469
447.777	21
447.847	236
447.918	-838
447.989	565
448.060	824
448.131	2433
448.202	2165
448.273	1373
448.344	658
448.414	590
448.485	284
448.556	87
448.627	-683
448.698	724
448.768	248
448.839	-500
448.910	633
448.981	1325
449.051	-41
449.122	521
449.193	-98
449.263	-36
449.334	-507
449.405	514
449.475	1780
449.546	974
449.616	1475
449.687	1537
449.758	-205
449.828	1059
449.899	818
449.969	155
450.040	308
450.110	457
450.181	656
450.251	438
450.322	604
450.392	1023
450.463	34
450.533	193
450.604	942
450.674	650
450.744	660
450.815	955
450.885	523
450.955	394
451.026	489
451.096	563
451.166	422
451.237	1641
451.307	4954
451.377	2508
451.447	838
451.518	324
451.588	306
451.658	879
451.728	476
451.799	4410
451.869	5652
451.939	1389
452.009	-89
452.079	-341
452.149	-140
452.219	1162
452.289	4910
452.360	4581
452.430	278
452.500	1198
452.570	1135
452.640	2994
452.710	8059
452.780	12534
452.850	8746
452.920	5308
452.990	2338
453.060	2054
453.129	1689
453.199	1971
453.269	5467
453.339	15114
453.409	24814
453.479	20403
453.549	30832
453.619	35147
453.688	15904
453.758	2961
453.828	700
453.898	-297
453.968	75
454.037	338
454.087	806
454.107	996
454.168	688
454.177	640
454.247	142
454.249	153
454.316	352
454.330	315
454.386	163
454.411	633
454.456	1380
454.492	3001
454.525	4448
454.574	2500
454.595	1647
454.655	423
454.665	227
454.734	939
454.736	946
454.804	955
454.817	1614
454.873	4294
454.898	4910
454.943	6061
454.979	3881
455.013	1868
455.060	1248
455.082	1010
455.141	886
455.152	865
455.221	3074
455.222	3131
455.291	7568
455.303	7581
455.360	7348
455.384	11555
455.430	18983
455.465	15258
455.499	11806
455.546	7417
455.569	5349
455.627	3875
455.638	3614
455.707	990
455.708	986
455.777	182
455.789	277
455.846	730
455.869	614
455.916	372
455.950	684
455.985	994
456.031	222
456.054	-189
456.112	160
456.124	222
456.193	944
456.193	945
456.262	648
456.274	642
456.332	488
456.355	424
456.401	229
456.436	265
456.470	419
456.516	204
456.540	6
456.597	-101
456.609	-124
456.678	259
456.678	258
456.747	216
456.759	159
456.817	-156
456.840	-50
456.886	84
456.920	-94
456.955	-198
457.001	261
457.024	423
457.082	547
457.093	580
457.162	139
457.163	144
457.232	425
457.243	447
457.301	322
457.324	223
457.370	18
457.405	40
457.439	224
457.485	339
457.508	379
457.566	351
457.577	349
457.646	1018
457.647	1029
457.715	1874
457.727	2017
457.784	3498
457.808	5383
457.853	8379
457.889	11648
457.922	13664
457.969	9571
457.991	8636
458.050	7766
458.060	7646
458.129	12534
458.130	12760
458.198	20947
458.211	19693
458.267	13520
458.292	9996
458.336	5204
458.372	3669
458.405	3184
458.453	4795
458.474	5992
458.533	11113
458.543	11684
458.611	25340
458.614	25562
458.680	24868
458.694	21245
458.749	10585
458.775	7818
458.818	3664
458.855	2612
458.887	1802
458.936	952
458.955	732
459.016	644
459.024	668
459.093	1431
459.097	1405
459.162	203
459.177	113
459.230	394
459.257	745
459.299	1163
459.338	1199
459.368	951
459.418	637
459.437	600
459.499	630
459.505	663
459.574	846
459.579	852
459.643	634
459.659	641
459.711	787
459.740	935
459.780	949
459.820	558
459.849	416
459.900	711
459.917	862
459.981	1109
459.986	1094
460.054	891
460.061	906
460.123	1025
460.141	999
460.191	1179
460.222	1340
460.260	1580
460.302	1832
460.328	1665
460.382	1154
460.397	1153
460.462	1165
460.465	1213
460.534	2571
460.543	2773
460.602	9971
460.623	13047
460.671	21785
460.703	32656
460.739	36592
460.783	38704
460.808	36492
460.864	10712
460.876	7626
460.944	2019
460.945	1956
461.013	1522
461.024	1481
461.081	863
461.104	752
461.150	794
461.184	787
461.218	866
461.264	1176
461.286	1200
461.345	954
461.355	947
461.423	969
461.425	968
461.491	715
461.505	779
461.559	1319
461.585	1376
461.628	1985
461.665	2786
461.696	3270
461.745	5054
461.764	5064
461.825	2609
461.832	2487
461.901	1362
461.905	1334
461.969	653
461.985	570
462.037	985
462.065	1135
462.105	649
462.145	348
462.173	911
462.225	1690
462.241	1721
462.305	2591
462.310	2596
462.378	2223
462.385	2117
462.446	1217
462.465	917
462.514	717
462.545	672
462.582	717
462.625	905
462.650	841
462.705	717
462.718	785
462.785	1279
462.786	1280
462.854	1353
462.865	1321
462.922	1562
462.945	1823
462.990	1659
463.025	1105
463.058	791
463.104	557
463.126	519
463.184	449
463.194	477
463.262	864
463.264	875
463.330	1067
463.344	1135
463.398	1660
463.424	1680
463.466	1017
463.504	762
463.533	1015
463.583	1111
463.601	1040
463.663	1062
463.669	1075
463.737	1324
463.743	1335
463.805	1604
463.823	1639
463.873	2421
463.903	3131
463.940	3557
463.982	4106
464.008	3715
464.062	2249
464.076	2158
464.142	1288
464.144	1254
464.211	544
464.221	453
464.279	806
464.301	968
464.347	1300
464.381	1472
464.414	1472
464.461	1632
464.482	1755
464.540	1878
464.550	1747
464.617	1024
464.620	990
464.685	1312
464.699	1384
464.753	1612
464.779	1792
464.820	2473
464.859	3185
464.888	3043
464.938	2634
464.956	2763
465.018	3004
465.023	2947
465.091	2352
465.098	2288
465.158	2059
465.177	2060
465.226	2272
465.257	2193
465.293	1963
465.336	1844
465.361	1986
465.416	2259
465.428	2327
465.495	2737
465.496	2749
465.563	4158
465.575	4409
465.631	5060
465.654	5502
465.698	4649
465.734	3474
465.765	3106
465.813	2551
465.833	2301
465.893	1795
465.900	1785
465.968	1691
465.972	1679
466.035	2079
466.052	2246
466.102	2026
466.131	1801
466.170	2089
466.210	2402
466.237	2263
466.290	2026
466.304	2244
466.369	3165
466.372	3162
466.439	3028
466.449	3002
466.506	3007
466.528	3016
466.573	3742
466.607	4259
466.641	5264
466.687	6712
466.708	7250
466.766	8768
466.775	8263
466.842	4416
466.845	4227
466.909	3448
466.925	3299
466.977	3403
467.004	3469
467.044	3412
467.083	3380
467.111	3597
467.163	3974
467.178	3935
467.242	3790
467.245	3785
467.312	3680
467.321	3666
467.379	3491
467.400	3426
467.446	3968
467.480	4357
467.559	4212
467.638	2834
467.717	2581
467.796	3195
467.875	3930
467.955	3456
468.034	3660
468.113	7557
468.192	10468
468.271	5239
468.350	4182
468.429	4288
468.508	5147
468.588	4130
468.667	2917
468.746	2868
468.825	2150
468.904	2778
468.983	2188
469.062	4248
469.141	4372
469.220	2254
469.299	3080
469.378	3257
469.456	3323
469.535	3472
469.614	2095
469.693	2804
469.772	3374
469.851	3558
469.930	3569
470.009	3194
470.088	2594
470.166	2935
470.245	3679
470.324	3703
470.403	2490
470.482	2542
470.560	2667
470.639	2672
470.718	3665
470.797	2487
470.875	2695
470.954	2871
471.033	3841
471.111	1660
471.190	3190
471.269	2603
471.347	1229
471.426	2286
471.505	3231
471.583	2902
471.662	3046
471.740	3495
471.819	2583
471.898	2735
471.976	3054
472.055	2428
472.133	2506
472.212	3328
472.290	2635
472.369	2865
472.447	1996
472.526	1857
472.604	2150
472.683	2711
472.761	2671
472.839	2158
472.918	2658
472.996	2385
473.075	3260
473.153	2659
473.231	2719
473.310	2298
473.388	2375
473.466	1623
473.545	2816
473.623	2866
473.701	2498
473.780	2518
473.858	1348
473.936	3787
474.014	2018
474.093	2714
474.171	3515
474.249	3905
474.327	3196
474.405	1958
474.484	2545
474.562	2301
474.640	1878
474.718	2967
474.796	2633
474.874	3170
474.952	2189
475.030	1667
475.108	1855
475.187	2657
475.265	3025
475.343	3310
475.421	3774
475.499	2225
475.577	2599
475.655	2574
475.733	3299
475.811	6209
475.889	5251
475.966	4382
476.044	2079
476.122	2314
476.200	2583
476.278	2078
476.356	1719
476.434	1559
476.512	2663
476.590	2781
476.667	2945
476.745	1785
476.823	1630
476.901	2033
476.979	2099
477.056	2562
477.134	2134
477.212	2531
477.290	2154
477.367	2191
477.445	1089
477.523	1579
477.601	2302
477.678	1214
477.756	1929
477.834	3102
477.911	1620
477.989	2434
478.066	966
478.144	2313
478.222	1828
478.299	2327
478.377	3169
478.454	2211
478.532	2242
478.609	923
478.687	2275
478.764	2035
478.842	1036
478.919	1191
478.997	1331
479.074	1504
479.152	1113
479.229	2610
479.307	1842
479.384	1862
479.461	1591
479.539	991
479.616	1589
479.694	2022
479.771	1869
479.848	1454
479.926	1609
480.003	3278
480.080	2093
480.157	1350
480.235	1162
480.312	1881
480.389	1087
480.467	936
480.544	3374
480.621	3115
480.698	2283
480.775	1583
480.853	1409
480.930	2526
481.007	2697
481.084	1914
481.161	3390
481.238	2604
481.315	1644
481.392	2056
481.470	1771
481.547	1276
481.624	1912
481.701	1684
481.778	976
481.855	1274
481.932	2253
482.009	3119
482.086	3810
482.163	1671
482.240	2554
482.317	2557
482.393	2524
482.470	2452
482.547	2055
482.624	2078
482.701	995
482.778	1220
482.855	1283
482.932	1350
483.009	575
483.085	1347
483.162	2252
483.239	3267
483.316	787
483.393	1498
483.469	1721
483.546	2173
483.623	1912
483.699	1014
483.776	1689
483.853	1801
483.930	2754
484.006	4590
484.083	8808
484.160	7341
484.236	12767
484.313	10943
484.389	7640
484.466	7134
484.543	6138
484.619	5756
484.696	7150
484.772	6543
484.849	5769
484.925	5895
485.002	5675
485.078	5863
485.155	5515
485.231	5017
485.308	5281
485.384	5984
485.461	6003
485.537	7324
485.614	9619
485.690	5428
485.766	5228
485.843	5592
485.919	5166
485.995	6514
486.072	4666
486.148	4642
486.224	4948
486.301	5157
486.377	5573
486.453	4970
486.530	5474
486.606	7486
486.682	8433
486.758	7867
486.835	7777
486.911	6887
486.987	8305
487.063	9142
487.139	8915
487.215	9398
487.292	7784
487.368	6436
487.444	5417
487.520	6854
487.596	8191
487.672	11803
487.748	29751
487.824	50341
487.900	22605
487.976	7598
488.052	5460
488.128	5973
488.204	4696
488.280	6012
488.356	5448
488.432	7132
488.508	10728
488.584	4977
488.660	4709
488.736	4692
488.812	3681
488.888	5366
488.964	5031
489.039	7250
489.115	11038
489.191	9349
489.267	5018
489.343	5171
489.418	3558
489.494	4141
489.570	3803
489.646	4422
489.722	4096
489.797	4135
489.873	4437
489.949	7759
490.024	6904
490.100	4595
490.176	3159
490.251	3864
490.327	4542
490.403	4631
490.478	2893
490.554	3174
490.629	3950
490.705	3224
490.781	2937
490.856	3713
490.932	3689
491.007	3250
491.083	3584
491.158	3186
491.234	3711
491.309	5955
491.385	6716
491.460	3163
491.536	3692
491.611	3088
491.686	3560
491.762	3259
491.837	5199
491.913	7577
491.988	9716
492.063	12779
492.139	5938
492.214	3675
492.289	2978
492.365	2370
492.440	3268
492.515	2762
492.590	2908
492.666	2610
492.741	1900
492.816	3240
492.891	2294
492.967	2522
493.042	2439
493.117	2435
493.192	3440
493.267	5087
493.342	14264
493.418	24836
493.493	6904
493.568	3288
493.643	2368
493.718	2395
493.793	3246
493.868	3218
493.943	2550
494.018	3001
494.093	1744
494.168	2369
494.243	1921
494.318	2707
494.393	1413
494.468	2251
494.543	2121
494.618	2695
494.693	2186
494.768	2210
494.842	2283
494.917	2341
494.992	1676
495.067	2075
495.142	1534
495.217	2003
495.292	2559
495.366	2156
495.441	1537
495.516	3321
495.591	2916
495.665	7444
495.740	17739
495.815	11324
495.890	2351
495.964	1812
496.039	3447
496.114	1705
496.188	4169
496.263	3971
496.338	1886
496.412	2902
496.487	2561
496.561	3120
496.636	2855
496.710	3343
496.785	3096
496.860	2820
496.934	2861
497.009	2761
497.083	2901
497.158	2579
497.232	3039
497.307	3914
497.381	3819
497.455	4023
497.530	4640
497.604	4844
497.679	3714
497.753	5801
497.827	8640
497.902	7987
497.976	8998
498.050	14368
498.125	47255
498.199	67291
498.273	15612
498.348	10277
498.422	8551
498.496	7114
498.570	5065
498.645	5196
498.719	3544
498.793	5333
498.867	6027
498.941	7814
499.016	16385
499.090	51765
499.164	30261
499.238	3348
499.312	3012
499.386	2210
499.460	2875
499.534	2742
499.609	2878
499.683	4799
499.757	3895
499.831	6752
499.905	29389
499.979	40939
500.053	6543
500.127	4497
500.201	2801
500.275	3160
500.349	2515
500.422	2641
500.496	3342
500.570	5577
500.644	15367
500.718	35455
500.792	14910
500.866	3842
500.940	3418
501.013	3498
501.087	2762
501.161	4299
501.235	4471
501.309	9595
501.382	26486
501.456	32107
501.530	6853
501.603	9097
501.677	5126
501.751	2051
501.825	2397
501.898	2790
501.972	9647
502.046	9777
502.119	1897
502.193	3861
502.266	10875
502.340	8404
502.413	4664
502.487	9200
502.561	6030
502.634	2545
502.708	2587
502.781	1802
502.855	1526
502.928	728
503.002	1318
503.075	1901
503.149	1095
503.222	1764
503.295	1622
503.369	2445
503.442	2477
503.516	5953
503.589	18907
503.662	15279
503.736	5772
503.809	7953
503.882	8725
503.956	12014
504.029	15910
504.102	14606
504.175	25541
504.249	11206
504.322	4174
504.395	2655
504.468	1828
504.542	1012
504.615	1677
504.688	1784
504.761	440
504.834	1995
504.907	2056
504.980	2587
505.053	1516
505.127	356
505.200	3743
505.273	1339
505.346	784
505.419	1033
505.492	535
505.565	801
505.638	584
505.711	1380
505.784	240
505.857	743
505.930	2531
506.003	-127
506.076	1907
506.149	1217
506.221	1361
506.294	3141
506.367	2853
506.440	14617
506.513	11381
506.586	2862
506.659	978
506.731	1301
506.804	369
506.877	1226
506.950	1377
507.022	1649
507.095	227
507.168	1536
507.241	1864
507.313	756
507.386	1148
507.459	1390
507.531	2124
507.604	720
507.677	1589
507.749	487
507.822	2017
507.894	2927
507.967	5891
508.040	3401
508.112	3449
508.185	2730
508.257	1302
508.330	3261
508.402	2306
508.475	2129
508.547	2465
508.620	1941
508.692	1958
508.765	2414
508.837	1324
508.909	1548
508.982	1253
509.054	1793
509.127	889
509.199	1613
509.271	1316
509.344	520
509.416	1050
509.488	1361
509.560	1671
509.633	547
509.705	1323
509.777	1752
509.849	1966
509.922	1371
509.994	1463
510.066	2988
510.138	983
510.210	4836
510.283	4620
510.355	3762
510.427	3692
510.499	2617
510.571	2512
510.643	1726
510.715	3332
510.787	2193
510.859	3628
510.931	2354
511.003	3384
511.076	4656
511.148	2532
511.219	1690
511.291	3119
511.363	3960
511.435	2186
511.507	1499
511.579	3000
511.651	3169
511.723	1497
511.795	2542
511.867	2443
511.939	2310
512.010	2219
512.082	3264
512.154	1397
512.226	2827
512.298	3380
512.369	6224
512.441	5313
512.513	3579
512.585	2028
512.656	3277
512.728	2111
512.800	2767
512.871	2350
512.943	3293
513.015	1453
513.086	2723
513.158	2431
513.230	1962
513.301	2863
513.373	3475
513.444	1863
513.516	2434
513.588	2222
513.659	1846
513.731	2166
513.802	2373
513.874	2989
513.945	4340
514.016	2997
514.088	2278
514.159	1693
514.231	3013
514.302	4057
514.374	3618
514.445	2212
514.516	5257
514.588	3935
514.659	3192
514.730	2947
514.802	4348
514.873	1787
514.944	5397
515.016	3362
515.087	2774
515.158	3018
515.229	4786
515.301	3331
515.372	5546
515.443	3710
515.514	2733
515.585	2235
515.656	2580
515.728	2392
515.799	1551
515.870	2170
515.941	1996
516.012	1414
516.083	3467
516.154	2378
516.225	4265
516.296	3303
516.367	2782
516.438	2078
516.509	3319
516.580	3863
516.651	9070
516.722	28846
516.793	22973
516.864	3768
516.935	4605
517.006	5555
517.077	5403
517.148	9868
517.219	27543
517.289	58334
517.360	24171
517.431	12047
517.502	3445
517.573	3796
517.643	2046
517.714	3175
517.785	4020
517.856	2949
517.926	4453
517.997	4086
518.068	4587
518.138	5868
518.209	6163
518.280	18552
518.350	79195
518.421	49055
518.492	7326
518.562	4695
518.633	4970
518.703	5132
518.774	9977
518.845	26326
518.915	35892
518.986	10791
519.056	6324
519.127	5310
519.197	6830
519.268	15669
519.338	17435
519.408	3668
519.479	3861
519.549	3271
519.620	3125
519.690	2138
519.760	1628
519.831	2604
519.901	1640
519.971	2327
520.042	2085
520.112	2177
520.182	2866
520.253	2681
520.323	839
520.393	1181
520.463	5201
520.534	685
520.604	5785
520.674	3995
520.744	1682
520.814	4066
520.885	5644
520.955	4389
521.025	20551
521.095	12645
521.165	2990
521.235	2162
521.305	1604
521.375	1762
521.445	1741
521.515	1416
521.585	2708
521.655	1108
521.725	3042
521.795	2055
521.865	403
521.935	3042
522.005	2923
522.075	2035
522.145	2447
522.215	1229
522.285	2058
522.355	2440
522.424	4710
522.494	4120
522.564	3830
522.634	2664
522.704	10314
522.774	6040
522.843	1964
522.913	1131
522.983	1934
523.053	979
523.122	2103
523.192	1640
523.262	4129
523.331	5632
523.401	3132
523.471	1191
523.540	1911
523.610	1123
523.680	2210
523.749	1173
523.819	2058
523.888	1272
523.958	1610
524.027	1347
524.097	1511
524.166	1821
524.236	1269
524.305	3081
524.375	1145
524.444	246
524.514	3093
524.583	1732
524.653	851
524.722	1903
524.791	1405
524.861	2000
524.930	263
524.999	631
525.069	1582
525.138	1690
525.207	1008
525.277	2617
525.346	508
525.415	2193
525.484	2296
525.554	1996
525.623	2096
525.692	2660
525.761	3149
525.830	4493
525.900	3683
525.969	5750
526.038	9371
526.107	16674
526.176	59826
526.245	67327
526.314	20058
526.383	26812
526.452	49053
526.522	61457
526.591	94525
526.660	19298
526.729	8504
526.797	9680
526.867	12159
526.935	47084
527.004	135980
527.073	127033
527.142	13362
527.211	5357
527.280	3954
527.349	3576
527.418	946
527.487	2990
527.555	1415
527.624	56
527.693	1017
527.762	1405
527.831	-383
527.899	1929
527.968	1289
528.037	-236
528.106	1618
528.174	2068
528.243	2398
528.312	1988
528.380	2578
528.449	901
528.518	2637
528.586	195
528.655	2057
528.723	1260
528.792	680
528.861	417
528.929	522
528.998	1985
529.066	716
529.135	1147
529.203	2188
529.272	215
529.340	3060
529.409	3307
529.477	1579
529.545	1882
529.614	3946
529.682	1710
529.751	3935
529.819	5147
529.887	3833
529.956	3222
530.024	3372
530.092	1646
530.161	3773
530.229	2894
530.297	3060
530.365	4233
530.434	3539
530.502	2848
530.570	3976
530.638	1196
530.707	3316
530.775	3724
530.843	1990
530.911	2724
530.979	3089
531.047	3053
531.115	4320
531.183	2788
531.252	3128
531.320	2902
531.388	2272
531.456	2656
531.524	1710
531.592	3876
531.660	4048
531.728	3219
531.796	2387
531.864	2949
531.932	3392
532.000	2799
532.067	3156
532.135	3666
532.203	4167
532.271	3907
532.339	5811
532.407	7333
532.475	5638
532.542	5270
532.610	5117
532.678	3820
532.746	10168
532.814	27919
532.881	12915
532.949	5025
533.017	4363
533.084	3305
533.152	3383
533.220	3036
533.287	2946
533.355	3648
533.423	3872
533.490	3913
533.558	4076
533.625	3095
533.693	3255
533.761	3718
533.828	4146
533.896	2993
533.963	6286
534.031	5780
534.098	6641
534.166	4877
534.233	4267
534.300	4807
534.368	4328
534.435	3530
534.503	4587
534.570	3699
534.637	4541
534.705	4674
534.772	4252
534.840	6250
534.907	24199
534.974	50036
535.041	9829
535.109	4264
535.176	2663
535.243	3821
535.310	3468
535.378	2891
535.445	3495
535.512	3889
535.579	3715
535.646	1954
535.714	3186
535.781	4053
535.848	3750
535.915	3960
535.982	3785
536.049	3506
536.116	4168
536.183	2908
536.250	2856
536.317	2552
536.384	3536
536.451	3189
536.518	3146
536.585	2040
536.652	4748
536.719	4581
536.786	2847
536.853	2591
536.920	3621
536.987	4858
537.053	3283
537.120	12060
537.187	15880
537.254	3285
537.321	2657
537.388	4389
537.454	2175
537.521	2167
537.588	1809
537.654	2890
537.721	3073
537.788	4093
537.855	2701
537.921	2796
537.988	3169
538.055	3445
538.121	3420
538.188	2704
538.254	2934
538.321	4052
538.388	4149
538.454	2062
538.521	2917
538.587	2884
538.654	3009
538.720	2241
538.787	2612
538.853	2858
538.920	2723
538.986	2589
539.053	3299
539.119	3328
539.185	2905
539.252	3607
539.318	3030
539.385	3992
539.451	2787
539.517	4391
539.583	4361
539.650	4250
539.716	10296
539.782	5403
539.849	2998
539.915	3189
539.981	1904
540.047	3440
540.114	2760
540.180	3551
540.246	2197
540.312	2930
540.378	3589
540.444	5370
540.510	4176
540.576	11266
540.643	6075
540.709	2253
540.775	2701
540.841	3022
540.907	3407
540.973	4550
541.039	4028
541.105	3434
541.171	2098
541.237	2235
541.303	3505
541.369	3744
541.435	3114
541.500	3913
541.566	1642
541.632	2430
541.698	2766
541.764	3437
541.830	2111
541.896	2658
541.961	2883
542.027	1992
542.093	3030
542.159	1838
542.224	2512
542.290	3714
542.356	3211
542.421	4930
542.487	3935
542.553	3300
542.618	3101
542.684	2560
542.750	2596
542.815	3541
542.881	3928
542.947	8859
543.012	10971
543.078	2705
543.143	2300
543.209	3542
543.274	2646
543.340	3981
543.405	4113
543.471	6938
543.536	4067
543.602	2672
543.667	1743
543.732	3989
543.798	2282
543.863	3213
543.928	2170
543.994	2216
544.059	2820
544.124	2902
544.190	2147
544.255	3563
544.320	3433
544.386	2984
544.451	3757
544.516	3846
544.581	3386
544.646	6404
544.712	12712
544.777	5078
544.842	3070
544.907	3059
544.972	3801
545.037	3326
545.102	4368
545.168	3747
545.233	4205
545.298	4587
545.363	4104
545.428	3263
545.493	5482
545.558	8527
545.623	6796
545.688	4014
545.753	4168
545.818	4464
545.883	4745
545.947	3882
546.012	4269
546.077	3772
546.142	5555
546.207	4329
546.272	6691
546.337	4676
546.401	5900
546.466	5923
546.531	4618
546.596	6229
546.661	6288
546.725	6730
546.790	7146
546.855	6173
546.919	7270
546.984	8360
547.049	8772
547.113	10259
547.178	10310
547.243	11643
547.307	12656
547.372	15159
547.436	15008
547.501	14000
547.565	18272
547.630	15893
547.695	14970
547.759	15962
547.823	15580
547.888	16155
547.952	15897
548.017	16346
548.081	19060
548.146	18287
548.210	18566
548.274	18606
548.339	18825
548.403	17753
548.468	15214
548.532	15378
548.596	16915
548.660	15760
548.725	18344
548.789	18902
548.853	20440
548.917	18203
548.982	18558
549.046	17636
549.110	14509
549.174	13871
549.238	17450
549.303	18140
549.367	21154
549.431	18775
549.495	17682
549.559	17913
549.623	20321
549.687	22793
549.751	23011
549.815	24510
549.879	27823
549.943	25100
550.007	25861
550.071	26521
550.135	24509
550.199	22792
550.263	22705
550.327	22836
550.391	22237
550.455	24699
550.519	24939
550.582	28082
550.646	30375
550.710	31890
550.774	31466
550.838	31460
550.901	31499
550.965	34094
551.029	35073
551.093	35770
551.156	38927
551.220	41420
551.284	48313
551.347	40840
551.411	36066
551.475	37073
551.538	34684
551.602	32900
551.666	29767
551.729	28574
551.793	29008
551.856	27527
551.920	27424
551.983	27640
552.047	27441
552.110	27958
552.174	27917
552.237	29180
552.301	27628
552.364	26665
552.428	25500
552.491	25980
552.554	26794
552.618	26360
552.681	28292
552.745	25260
552.808	27483
552.871	28245
552.934	28585
552.998	25939
553.061	25833
553.124	27379
553.187	26553
553.251	27205
553.314	28397
553.377	28415
553.440	31859
553.503	40963
553.567	67566
553.630	37814
553.693	30003
553.756	30309
553.819	29231
553.882	29235
553.945	28916
554.008	28887
554.071	28073
554.134	29785
554.197	28006
554.260	27830
554.323	29450
554.386	27335
554.449	28497
554.512	29489
554.575	28119
554.638	28515
554.701	27885
554.764	27781
554.827	27979
554.889	26331
554.952	24256
555.015	23290
555.078	24469
555.141	25464
555.203	23944
555.266	24257
555.329	24462
555.391	23035
555.454	23451
555.517	22508
555.580	21370
555.642	20400
555.705	20168
555.768	19912
555.830	21498
555.893	19006
555.955	18077
556.018	18487
556.080	18109
556.143	17983
556.206	18157
556.268	18431
556.330	17900
556.393	16790
556.455	17079
556.518	16607
556.580	16561
556.643	16145
556.705	15793
556.767	14422
556.830	14995
556.892	15301
556.955	14162
557.017	15644
557.079	14287
557.142	13665
557.204	12841
557.266	14895
557.328	14128
557.391	11956
557.453	11860
557.515	11701
557.577	11905
557.639	12613
557.701	12566
557.764	10944
557.826	12927
557.888	13424
557.950	12352
558.012	13001
558.074	15183
558.136	25010
558.198	63749
558.260	38877
558.322	14009
558.384	13312
558.446	14363
558.508	16608
558.570	19200
558.632	21495
558.694	27998
558.756	37052
558.818	83716
558.880	261590
558.942	134306
559.003	69438
559.065	51534
559.127	19898
559.189	18709
559.251	19473
559.312	23579
559.374	44853
559.436	156796
559.498	131319
559.559	24281
559.621	18337
559.683	18890
559.744	25906
559.806	65695
559.868	144336
559.929	43995
559.991	19129
560.052	22711
560.114	59563
560.176	55500
560.237	31183
560.299	65447
560.360	24451
560.422	8649
560.483	8231
560.545	7698
560.606	7174
560.667	6394
560.729	6867
560.790	6492
560.852	7069
560.913	7215
560.974	6692
561.036	5860
561.097	5666
561.158	6277
561.220	7593
561.281	5746
561.342	5479
561.403	6702
561.465	6169
561.526	8322
561.587	11239
561.648	5501
561.709	6352
561.771	5233
561.832	5265
561.893	5002
561.954	5932
562.015	5766
562.076	5174
562.137	5413
562.198	4810
562.259	4949
562.320	5141
562.381	5738
562.442	5818
562.503	6118
562.564	5270
562.625	5641
562.686	5913
562.747	5672
562.808	5218
562.869	4844
562.930	6592
562.991	4575
563.051	5051
563.112	5591
563.173	5163
563.234	5169
563.294	5796
563.355	4460
563.416	4899
563.477	5272
563.537	5095
563.598	5864
563.659	4863
563.720	3771
563.780	5284
563.841	4380
563.901	4825
563.962	4698
564.023	4850
564.083	5505
564.144	4760
564.204	4960
564.265	4849
564.325	5842
564.386	5824
564.446	7292
564.507	4347
564.567	5237
564.628	5414
564.688	4116
564.749	5001
564.809	5183
564.869	5040
564.930	5454
564.990	5718
565.050	4451
565.111	4957
565.171	4890
565.231	4999
565.292	5853
565.352	4917
565.412	6259
565.472	4977
565.532	5327
565.593	5807
565.653	5253
565.713	6049
565.773	5738
565.833	5966
565.893	6852
565.953	4851
566.013	5646
566.074	6059
566.134	6644
566.194	7395
566.254	8728
566.314	7428
566.374	5586
566.434	6112
566.494	6783
566.554	6217
566.614	6863
566.673	6342
566.733	7967
566.793	7351
566.853	7343
566.913	7557
566.973	7711
567.033	7729
567.092	7654
567.152	7288
567.212	7754
567.272	7784
567.331	7853
567.391	8710
567.451	9090
567.511	10044
567.570	10158
567.630	9347
567.690	8998
567.749	9151
567.809	9314
567.868	9762
567.928	11770
567.988	11944
568.047	14471
568.107	16501
568.166	21068
568.226	31289
568.285	46535
568.345	44259
568.404	35208
568.464	27848
568.523	26794
568.582	26033
568.642	28092
568.701	34639
568.761	45839
568.820	73114
568.879	82427
568.939	59810
568.998	43993
569.057	33924
569.116	26622
569.176	21649
569.235	19354
569.294	16051
569.353	13926
569.413	12906
569.472	12219
569.531	11179
569.590	10593
569.649	10298
569.708	8720
569.767	9362
569.827	8412
569.886	8388
569.945	8127
570.004	7852
570.063	8285
570.122	8079
570.181	7479
570.240	7416
570.299	6950
570.358	7858
570.417	7037
570.475	7111
570.534	7221
570.593	6964
570.652	7216
570.711	6827
570.770	7227
570.829	6808
570.887	7392
570.946	6558
571.005	6588
571.064	6106
571.122	7075
571.181	6389
571.240	6578
571.299	6663
571.357	5532
571.416	6487
571.475	6690
571.533	7228
571.592	7030
571.650	7336
571.709	6304
571.768	6876
571.826	6744
571.885	6516
571.943	6342
572.002	5117
572.060	6902
572.119	5981
572.177	6392
572.236	6596
572.294	5545
572.352	7667
572.411	6424
572.469	6074
572.528	5955
572.586	6769
572.644	5664
572.703	6796
572.761	6668
572.819	6491
572.877	6342
572.936	6587
572.994	5683
573.052	5765
573.110	5461
573.169	6471
573.227	6353
573.285	5848
573.343	5513
573.401	6406
573.459	6164
573.517	5949
573.576	6427
573.634	6628
573.692	5771
573.750	6430
573.808	6149
573.866	5876
573.924	6891
573.982	6816
574.040	6424
574.098	5818
574.155	6185
574.213	6448
574.271	5631
574.329	6738
574.387	6351
574.445	5721
574.503	5517
574.560	5388
574.618	6119
574.676	5424
574.734	5651
574.792	5919
574.849	5554
574.907	4671
574.965	5243
575.022	5662
575.080	5200
575.138	4704
575.195	5278
575.253	5408
575.311	5041
575.368	5116
575.426	6062
575.483	5695
575.541	5778
575.598	5148
575.656	5934
575.713	5957
575.771	5206
575.828	5776
575.886	5723
575.943	6674
576.001	5532
576.058	5279
576.115	5805
576.173	5789
576.230	6393
576.287	6963
576.345	6040
576.402	5724
576.459	5937
576.517	6005
576.574	6940
576.631	6491
576.688	5069
576.746	6251
576.803	5677
576.860	5671
576.917	5574
576.974	6346
577.031	6269
577.089	5679
577.146	5193
577.203	6573
577.260	6187
577.317	5849
577.374	6212
577.431	6200
577.488	6163
577.545	6145
577.602	7432
577.659	6920
577.716	6029
577.773	7508
577.830	6787
577.886	5997
577.943	6047
578.000	6626
578.057	6417
578.114	7239
578.171	7678
578.227	9074
578.284	8857
578.341	8198
578.398	7192
578.454	7441
578.511	7635
578.568	6971
578.625	6328
578.681	6576
578.738	5801
578.794	6532
578.851	7783
578.908	6462
578.964	7165
579.021	7379
579.077	6716
579.134	6697
579.190	7226
579.247	6944
579.303	6973
579.360	6495
579.416	6565
579.473	6952
579.529	7245
579.586	7331
579.642	6529
579.698	6683
579.755	7886
579.811	7682
579.867	7856
579.924	8146
579.980	8079
580.036	8845
580.093	10456
580.149	11976
580.205	14804
580.261	12361
580.317	10645
580.374	9821
580.430	9082
580.486	9137
580.542	8843
580.598	8668
580.619	8660
580.654	8639
580.692	8677
580.710	8683
580.765	9798
580.767	9822
580.823	8545
580.838	8595
580.879	8675
580.911	8824
580.935	8922
580.984	8947
580.991	8934
581.047	9400
581.057	9429
581.103	9555
581.130	9654
581.159	9721
581.203	10459
581.215	10626
581.270	11094
581.276	11090
581.326	10912
581.349	10678
581.382	10344
581.422	10665
581.438	10746
581.494	10316
581.494	10330
581.550	10476
581.567	10717
581.606	11113
581.640	11031
581.661	11011
581.713	11703
581.717	11734
581.773	11566
581.786	11691
581.829	12125
581.859	11953
581.885	11726
581.932	12314
581.940	12437
581.996	12764
582.004	12773
582.052	12411
582.077	12584
582.107	12970
582.150	13469
582.163	13542
582.219	14043
582.223	14011
582.274	13771
582.296	13855
582.330	13730
582.368	13724
582.386	13803
582.441	15208
582.441	15196
582.497	15398
582.514	15550
582.552	15983
582.587	16163
582.608	16160
582.659	16394
582.663	16405
582.719	17330
582.732	17337
582.774	17357
582.805	17705
582.830	18096
582.877	18643
582.885	18717
582.941	19929
582.950	20130
582.996	21692
583.023	22779
583.052	23817
583.095	25193
583.107	25520
583.162	27169
583.168	27210
583.218	26675
583.240	26170
583.273	25335
583.313	24206
583.328	23786
583.384	23724
583.385	23677
583.439	22344
583.458	22383
583.494	22600
583.531	22223
583.549	22185
583.603	22779
583.605	22794
583.660	22843
583.676	22899
583.715	23274
583.748	23618
583.770	23856
583.820	24116
583.825	24165
583.881	24406
583.893	24345
583.936	23884
583.965	24460
583.991	25127
584.038	25011
584.046	25027
584.101	26357
584.110	26349
584.156	26628
584.183	27321
584.211	27751
584.255	27945
584.266	28171
584.321	28753
584.328	28851
584.376	29649
584.400	30151
584.431	30880
584.472	30941
584.486	31055
584.541	32367
584.545	32372
584.596	33204
584.617	33577
584.651	34016
584.689	34684
584.706	35201
584.761	36586
584.762	36540
584.816	36737
584.834	37202
584.871	38072
584.906	38432
584.926	38763
584.978	39705
584.980	39813
585.035	41603
585.051	42019
585.090	43403
585.123	44492
585.145	45217
585.195	46273
585.200	46509
585.254	48280
585.267	49017
585.309	52686
585.340	55282
585.364	57185
585.412	59751
585.419	60283
585.473	65187
585.484	65982
585.528	72768
585.556	78842
585.583	93498
585.628	123069
585.637	138515
585.692	248517
585.700	268975
585.747	386572
585.772	411177
585.801	324074
585.845	176181
585.856	155096
585.910	89727
585.917	82647
585.965	75115
585.989	71082
586.019	69368
586.061	67819
586.074	67948
586.128	68350
586.133	68205
586.183	68828
586.205	68731
586.237	68445
586.277	68452
586.292	69033
586.346	69824
586.349	69724
586.401	71072
586.421	71139
586.455	71981
586.493	73394
586.509	74738
586.564	77746
586.565	77654
586.618	84770
586.637	86500
586.672	87294
586.709	86939
586.727	87530
586.781	89690
586.781	89938
586.835	91193
586.853	91360
586.889	91929
586.925	91769
586.944	92956
586.996	96358
586.998	96733
587.052	99595
587.068	100358
587.106	103441
587.140	105868
587.161	108073
587.212	111781
587.215	112360
587.269	118122
587.284	119380
587.323	124082
587.356	127204
587.377	129890
587.427	135120
587.431	136071
587.485	144659
587.499	146247
587.539	152933
587.571	157568
587.593	161797
587.643	170390
587.648	171985
587.702	183223
587.715	185534
587.755	195954
587.786	203263
587.810	210144
587.858	221970
587.864	224667
587.917	245481
587.930	249482
587.971	266182
588.001	277345
588.025	290175
588.073	312834
588.079	317404
588.133	350945
588.145	357165
588.187	388175
588.217	408798
588.241	432202
588.288	474770
588.295	483252
588.348	542887
588.360	553975
588.402	617529
588.431	658914
588.456	706248
588.503	792984
588.510	811883
588.564	944585
588.575	969522
588.617	1108603
588.646	1199536
588.671	1294764
588.718	1466000
588.725	1493308
588.778	1670422
588.789	1700774
588.832	1687091
588.861	1663548
588.886	1514543
588.932	1196180
588.939	1169847
588.993	915925
589.004	875921
589.047	1223260
589.075	1449368
589.100	1616319
589.147	1883411
589.154	1885701
589.207	1851190
589.218	1838548
589.261	1757501
589.290	1694965
589.314	1700351
589.361	1699560
589.368	1714369
589.421	1793940
589.433	1804798
589.475	1736860
589.504	1675112
589.528	1506662
589.576	1132289
589.582	1154081
589.635	1346094
589.647	1384622
589.689	1660156
589.718	1831462
589.742	1759399
589.790	1592696
589.795	1571202
589.849	1315053
589.861	1250932
589.902	1103518
589.932	987907
589.955	931551
590.004	802525
590.009	796443
590.062	696483
590.075	669451
590.115	617157
590.146	572346
590.168	552094
590.218	499824
590.222	498457
590.275	454876
590.289	441688
590.328	418212
590.360	396069
590.381	386539
590.431	359150
590.435	359400
590.488	338262
590.503	330983
590.541	318829
590.574	305893
590.594	301221
590.645	285100
590.647	285734
590.700	270545
590.716	264806
590.753	259250
590.787	252292
590.806	249550
590.859	237817
590.859	238705
590.912	231065
590.930	227548
590.965	224274
591.001	219207
591.018	217614
591.071	209776
591.072	208797
591.124	203125
591.143	199907
591.177	198595
591.214	195426
591.230	195018
591.283	190904
591.285	189908
591.336	185447
591.356	182557
591.389	180541
591.427	176347
591.442	176155
591.495	172670
591.498	171652
591.547	168401
591.569	165905
591.600	165250
591.640	162748
591.653	162919
591.706	160414
591.711	159449
591.759	159890
591.782	159056
591.811	159638
591.853	158729
591.864	159052
591.917	157093
591.924	156111
591.969	153682
591.995	151201
592.022	150888
592.066	148521
592.075	149424
592.127	151011
592.137	150619
592.180	151787
592.208	151447
592.233	150479
592.279	146636
592.285	147254
592.338	146948
592.350	146227
592.390	146037
592.421	144709
592.443	144853
592.491	143145
592.495	143748
592.548	143144
592.562	142339
592.600	142465
592.633	141373
592.653	141649
592.704	139913
592.705	140698
592.775	139236
592.846	138672
592.916	139073
592.987	139276
593.058	137558
593.128	134700
593.199	134249
593.270	134642
593.341	132029
593.411	132125
593.482	135918
593.553	134754
593.623	134291
593.694	135858
593.764	137407
593.835	135541
593.906	134207
593.976	135214
594.047	136155
594.117	140760
594.188	141333
594.258	140816
594.329	138288
594.399	138145
594.470	140627
594.540	141983
594.611	143718
594.681	141946
594.751	142879
594.822	145335
594.892	148637
594.963	149799
595.033	151772
595.103	154900
595.174	154876
595.244	161215
595.314	170111
595.384	162721
595.455	163655
595.525	168724
595.595	173712
595.665	174404
595.736	168617
595.806	171552
595.876	173328
595.946	172331
596.016	175731
596.087	183584
596.157	183757
596.227	181792
596.297	188424
596.367	198016
596.437	204655
596.507	210131
596.577	213877
596.647	210566
596.717	216949
596.787	222600
596.857	221471
596.927	223960
596.997	224882
597.067	226796
597.137	232041
597.207	235580
597.277	233957
597.347	229257
597.417	223666
597.487	223589
597.557	227737
597.626	231829
597.696	235860
597.766	235968
597.836	233370
597.906	222400
597.975	214833
598.045	216298
598.115	222967
598.185	233848
598.254	253394
598.324	275278
598.394	283819
598.464	279482
598.533	273860
598.603	265186
598.672	255181
598.742	259367
598.812	262767
598.881	266123
598.951	269698
599.020	273053
599.090	278322
599.159	284296
599.229	279843
599.299	275344
599.368	281177
599.437	285771
599.507	274163
599.576	263951
599.646	267377
599.715	268646
599.785	264516
599.854	261514
599.924	263075
599.993	262347
600.062	267354
600.132	275404
600.201	284009
600.270	309692
600.340	331661
600.409	331173
600.478	332177
600.547	337349
600.617	335679
600.686	295345
600.755	278060
600.824	274481
600.894	275111
600.963	276183
601.032	279321
601.101	280099
601.170	278050
601.239	278898
601.308	282441
601.378	288438
601.447	290889
601.516	296948
601.585	304496
601.654	311088
601.723	315906
601.792	321199
601.861	335779
601.930	350471
601.999	362513
602.068	357063
602.137	361006
602.206	365491
602.275	370001
602.343	372629
602.412	377104
602.481	377998
602.550	379078
602.619	387027
602.688	387099
602.756	393030
602.825	393400
602.894	400307
602.963	400973
603.032	404616
603.100	412960
603.169	397348
603.238	414656
603.307	403952
603.375	396531
603.444	421226
603.513	395390
603.581	397029
603.650	427733
603.719	380187
603.787	347504
603.856	355520
603.924	362483
603.993	371810
604.061	379811
604.130	393886
604.198	405527
604.267	405437
604.335	416987
604.404	417939
604.472	431363
604.541	430331
604.609	440037
604.678	457110
604.746	455736
604.815	479943
604.883	474761
604.951	455193
605.020	467864
605.088	454985
605.156	426623
605.225	427432
605.293	430317
605.361	427644
605.429	426942
605.498	435219
605.566	434967
605.634	448644
605.702	462247
605.771	461119
605.839	481685
605.907	452135
605.975	458802
606.043	453521
606.111	426070
606.180	461124
606.248	447909
606.316	421205
606.384	453103
606.452	409906
606.520	341355
606.588	348401
606.656	349940
606.724	344859
606.792	330482
606.860	306074
606.928	277668
606.996	265497
607.064	259079
607.132	265233
607.200	276888
607.267	289749
607.335	291885
607.403	301759
607.471	295715
607.539	282641
607.607	288577
607.674	259245
607.742	251848
607.810	251054
607.878	251397
607.946	253706
608.013	262678
608.081	267963
608.149	270482
608.216	275567
608.284	288083
608.352	284379
608.419	286775
608.487	281234
608.555	272359
608.622	275692
608.690	286729
608.757	309119
608.825	322150
608.893	315094
608.960	303468
609.028	289915
609.095	289022
609.163	291223
609.230	265877
609.298	237298
609.365	245172
609.432	263251
609.500	284012
609.567	321459
609.635	364718
609.702	392690
609.769	386966
609.837	320512
609.904	260744
609.971	261274
610.039	277070
610.106	316290
610.173	475897
610.241	938101
610.308	977004
610.375	450126
610.442	309553
610.509	276690
610.577	269882
610.644	271964
610.711	278576
610.778	285213
610.845	294131
610.912	309185
610.980	326592
611.047	335876
611.114	330423
611.181	311873
611.248	310241
611.315	319431
611.382	330524
611.449	341331
611.516	349592
611.583	343579
611.650	344031
611.717	347406
611.784	353008
611.851	362480
611.918	376222
611.984	408207
612.051	492956
612.118	750396
612.185	1498010
612.252	1619998
612.319	639215
612.386	464930
612.452	424643
612.519	401398
612.586	390866
612.653	391730
612.719	405575
612.786	397979
612.853	374573
612.919	359047
612.986	368697
613.053	352502
613.120	332374
613.186	315867
613.253	319815
613.319	319344
613.386	321816
613.453	324274
613.519	329892
613.586	327183
613.652	337089
613.719	328739
613.785	331091
613.852	333033
613.918	331981
613.985	331636
614.051	349506
614.118	367124
614.184	373719
614.250	329830
614.317	339327
614.383	331805
614.449	336926
614.516	334866
614.582	338087
614.648	334629
614.715	332455
614.781	328869
614.847	325963
614.914	327508
614.980	318900
615.046	318352
615.112	326135
615.179	332646
615.245	339708
615.311	347381
615.377	381772
615.443	423180
615.509	383145
615.575	361550
615.642	353663
615.708	353953
615.774	369173
615.840	387443
615.906	407044
615.972	464438
616.038	633910
616.104	1005096
616.170	1695737
616.236	2062533
616.302	897126
616.368	571480
616.434	466769
616.500	411640
616.565	409037
616.631	464597
616.697	452054
616.763	429309
616.829	498122
616.895	740419
616.961	888426
617.026	578849
617.092	398311
617.158	363541
617.224	356205
617.289	335561
617.355	318233
617.421	315032
617.487	315101
617.552	301205
617.618	298047
617.684	296948
617.749	300900
617.815	290708
617.880	285022
617.946	284317
618.012	287263
618.077	297119
618.143	288836
618.208	284689
618.274	301285
618.339	313368
618.405	275613
618.470	262040
618.536	267558
618.601	264388
618.667	252674
618.732	241953
618.798	236912
618.863	235124
618.928	231780
618.994	234341
619.059	233473
619.124	241204
619.190	238823
619.255	233362
619.320	235204
619.386	236198
619.451	235389
619.516	231170
619.581	232957
619.647	239923
619.712	243078
619.777	234205
619.842	231756
619.907	238986
619.972	239978
620.038	241340
620.103	235330
620.168	235102
620.233	239192
620.298	239511
620.363	239819
620.428	244130
620.493	248847
620.558	252573
620.623	253502
620.688	258590
620.753	252078
620.818	259746
620.883	258309
620.948	260089
621.013	259185
621.078	255827
621.143	255042
621.207	262069
621.272	259129
621.337	254207
621.402	252979
621.467	251761
621.532	252754
621.596	252643
621.661	249136
621.726	244386
621.791	248941
621.855	248775
621.920	248090
621.985	249343
622.049	254184
622.114	253310
622.179	257079
622.243	258669
622.308	264005
622.373	271152
622.437	274173
622.502	261005
622.566	257663
622.631	255461
622.695	262194
622.760	259792
622.824	258288
622.889	258413
622.953	260311
623.018	274123
623.082	282375
623.147	269605
623.211	267112
623.276	266066
623.340	261366
623.404	252723
623.469	252919
623.533	253283
623.597	251122
623.662	247128
623.726	239871
623.790	226966
623.854	220584
623.919	226193
623.983	225973
624.047	227769
624.111	226475
624.176	230862
624.240	233135
624.304	240008
624.368	231027
624.432	228212
624.496	232058
624.560	240771
624.625	246709
624.689	239596
624.753	247127
624.817	240902
624.881	234451
624.945	223556
625.009	211137
625.073	212904
625.137	218824
625.201	227015
625.265	229558
625.329	218393
625.393	219951
625.456	215884
625.520	221836
625.584	224978
625.648	230192
625.712	240786
625.776	259595
625.839	266236
625.903	218844
625.967	185407
626.031	194801
626.095	230423
626.158	218768
626.222	177832
626.286	163671
626.349	158536
626.413	153573
626.477	149092
626.540	147830
626.604	147595
626.668	146744
626.731	142464
626.795	142964
626.858	142975
626.922	140203
626.986	138392
627.049	138672
627.113	141001
627.176	140965
627.240	135175
627.303	132532
627.366	132039
627.430	133741
627.493	131800
627.557	130639
627.620	133890
627.684	133926
627.747	133421
627.810	129663
627.874	116898
627.937	113096
628.000	115307
628.064	116742
628.127	104761
628.190	103471
628.253	99800
628.317	98337
628.380	94157
628.443	91969
628.506	92209
628.569	91145
628.632	85196
628.696	84723
628.759	84925
628.822	82660
628.885	80601
628.948	77976
629.011	78818
629.074	78424
629.137	75747
629.200	75171
629.263	74371
629.326	71769
629.389	72301
629.452	71228
629.515	72404
629.578	70278
629.641	70119
629.704	71048
629.767	70933
629.830	69333
629.892	68097
629.955	67410
630.018	68692
630.081	68322
630.144	68853
630.207	67838
630.269	68115
630.332	65823
630.395	65807
630.458	63781
630.520	62040
630.583	61563
630.646	60662
630.708	62012
630.771	61837
630.834	65191
630.896	63996
630.959	62829
631.021	63072
631.084	62292
631.146	62292
631.209	63870
631.272	62250
631.334	62003
631.397	62068
631.459	61623
631.522	61904
631.584	63968
631.646	64706
631.709	65066
631.771	66860
631.834	64850
631.896	62382
631.958	59170
632.021	61404
632.083	58296
632.145	59831
632.208	58111
632.270	59455
632.332	57502
632.395	56730
632.457	58572
632.519	56958
632.581	57020
632.643	56307
632.706	57501
632.768	56445
632.830	56537
632.892	57296
632.954	58130
633.016	58590
633.078	57610
633.141	56921
633.203	58280
633.265	57439
633.327	57010
633.389	56691
633.451	57282
633.513	59160
633.575	58507
633.637	57706
633.698	58967
633.760	59604
633.822	60209
633.884	60165
633.946	61368
634.008	61884
634.070	62701
634.132	64736
634.193	66432
634.255	66172
634.317	67235
634.379	67476
634.441	64438
634.502	63416
634.564	60198
634.626	57400
634.687	56441
634.749	54862
634.811	54503
634.873	53937
634.934	54176
634.996	53963
635.057	54365
635.119	53644
635.181	55809
635.242	55391
635.304	55084
635.365	56116
635.427	54774
635.488	55465
635.550	53542
635.611	54834
635.673	53407
635.734	56693
635.796	57772
635.857	59474
635.918	62150
635.980	64187
636.041	64933
636.102	65863
636.164	66917
636.225	66577
636.286	63866
636.348	59205
636.409	56882
636.470	54107
636.531	54328
636.593	54421
636.654	54720
636.715	52150
636.776	50791
636.838	51106
636.899	51734
636.960	49663
637.021	49634
637.082	48666
637.143	49490
637.204	48168
637.265	48125
637.326	49178
637.387	49363
637.448	47682
637.509	48812
637.570	48583
637.631	48579
637.692	46513
637.753	47287
637.814	46842
637.875	46847
637.936	46918
637.997	46483
638.058	47287
638.119	47564
638.179	46319
638.240	46356
638.301	47315
638.362	46062
638.423	45597
638.483	45461
638.544	44545
638.605	44873
638.666	44403
638.726	46425
638.787	44314
638.848	45684
638.908	44403
638.969	43869
639.030	42186
639.090	42584
639.151	44308
639.211	43972
639.272	45686
639.332	49797
639.393	47871
639.453	44140
639.514	45419
639.574	43849
639.635	42148
639.695	41461
639.756	41010
639.816	42330
639.877	40924
639.937	45932
639.997	48849
640.058	43292
640.118	41246
640.178	41421
640.239	39999
640.299	40679
640.359	40269
640.420	42649
640.480	42666
640.540	45470
640.600	46641
640.661	44879
640.721	45280
640.781	51538
640.841	54699
640.901	46692
640.961	41477
641.021	42616
641.082	43418
641.142	45646
641.202	42716
641.262	39314
641.322	41324
641.382	39928
641.442	39241
641.502	39100
641.562	40112
641.622	39495
641.682	40923
641.742	42880
641.802	43382
641.861	40807
641.921	37785
641.981	39203
642.041	37857
642.101	39989
642.161	37995
642.221	37406
642.280	35594
642.340	36223
642.400	37019
642.460	38647
642.519	38457
642.579	39062
642.639	38331
642.698	36874
642.758	40622
642.818	39238
642.877	37845
642.937	39094
642.997	39418
643.056	42290
643.116	38610
643.175	40232
643.235	39572
643.294	39603
643.354	40407
643.414	42340
643.473	43971
643.532	48605
643.592	55596
643.651	73770
643.711	110842
643.770	190083
643.830	390357
643.889	940247
643.948	496161
644.008	103287
644.067	61273
644.126	50393
644.186	44090
644.245	42022
644.304	38353
644.363	40813
644.423	36115
644.482	38092
644.541	38957
644.600	38561
644.659	43160
644.719	46552
644.778	59489
644.837	83176
644.896	139311
644.955	341091
645.014	227784
645.073	59803
645.132	43748
645.191	42073
645.250	39497
645.309	40110
645.368	39971
645.427	46338
645.486	56834
645.545	100261
645.604	59857
645.663	37249
645.722	35792
645.781	38065
645.840	40007
645.898	43620
645.957	51563
646.016	66999
646.075	104517
646.134	183890
646.192	397268
646.251	821456
646.310	271163
646.369	71462
646.427	52182
646.486	46987
646.545	40111
646.603	37086
646.662	35395
646.721	33791
646.779	34555
646.838	33358
646.896	36946
646.955	42267
647.014	56538
647.072	88204
647.131	211291
647.189	201152
647.248	44635
647.306	33836
647.365	32732
647.423	28861
647.481	30544
647.540	28835
647.598	28552
647.657	28130
647.715	27711
647.773	28298
647.832	28128
647.890	25548
647.948	26679
648.007	28102
648.065	24878
648.123	26753
648.181	28272
648.240	27702
648.298	27647
648.356	25152
648.414	25305
648.472	25782
648.531	24826
648.589	24505
648.647	23573
648.705	24440
648.763	24443
648.821	24363
648.879	24060
648.937	26004
648.995	28885
649.053	30076
649.111	38745
649.169	54813
649.227	87578
649.285	156152
649.343	432529
649.401	412678
649.459	75329
649.516	47618
649.574	32805
649.632	39796
649.690	50664
649.748	39673
649.806	47123
649.863	78142
649.921	146892
649.979	176656
650.037	39151
650.094	24000
650.152	23199
650.210	22269
650.268	23425
650.325	23096
650.383	27126
650.440	22422
650.498	20917
650.556	20189
650.613	19567
650.671	20024
650.728	19292
650.786	20471
650.843	20664
650.901	21117
650.958	18351
651.016	18476
651.073	17450
651.131	18356
651.188	16714
651.246	18127
651.303	15840
651.360	17522
651.418	16512
651.475	16836
651.532	15468
651.590	17697
651.647	15662
651.704	16987
651.762	16938
651.819	16771
651.876	15950
651.933	16115
651.990	16168
652.048	14978
652.105	15657
652.162	16867
652.219	15045
652.276	15968
652.333	15532
652.390	15145
652.448	16091
652.505	15693
652.562	16003
652.619	17540
652.676	19416
652.733	23102
652.790	16463
652.847	14047
652.904	14569
652.961	14827
653.017	13880
653.074	14997
653.131	14612
653.188	13719
653.245	13800
653.302	14624
653.359	13683
653.415	14677
653.472	13446
653.529	14761
653.586	13026
653.642	13948
653.699	14274
653.756	13083
653.813	14603
653.869	15019
653.926	13512
653.983	13771
654.039	14202
654.096	14049
654.152	14014
654.209	12714
654.266	13822
654.322	13174
654.379	13708
654.435	13821
654.492	13358
654.548	15808
654.605	16961
654.661	17831
654.717	14073
654.774	14384
654.830	13963
654.887	13596
654.943	13882
655.000	16379
655.056	15434
655.112	14725
655.168	13072
655.225	14568
655.281	13298
655.337	14711
655.394	16020
655.450	15048
655.506	14226
655.562	16122
655.618	16647
655.675	12481
655.731	13021
655.787	12494
655.843	13761
655.899	12655
655.955	13358
656.011	14089
656.067	12004
656.123	13429
656.179	12977
656.235	14075
656.291	11927
656.347	14087
656.403	11822
656.459	13134
656.515	12952
656.571	12963
656.627	13175
656.683	12470
656.739	13540
656.795	13916
656.850	13486
656.906	14551
656.962	13368
657.018	13269
657.074	13399
657.129	15908
657.185	18881
657.241	31668
657.297	31530
657.352	15125
657.408	12703
657.464	14675
657.519	12367
657.575	12078
657.630	12480
657.686	12733
657.742	12118
657.797	12721
657.853	11848
657.908	14090
657.964	11128
658.019	12903
658.075	11713
658.130	12931
658.186	11281
658.241	12511
658.297	11337
658.352	12554
658.407	12209
658.463	11839
658.518	11555
658.573	11718
658.629	11460
658.684	12711
658.739	12027
658.795	12445
658.850	12748
658.905	11718
658.960	12589
659.016	10887
659.071	12520
659.126	12448
659.181	11860
659.236	14413
659.291	16206
659.346	13955
659.401	13041
659.457	14332
659.512	15983
659.567	15135
659.622	11397
659.677	12954
659.732	11546
659.787	12117
659.842	11466
659.897	12708
659.952	13284
660.007	12181
660.061	11816
660.116	10989
660.171	11947
660.226	12127
660.281	12999
660.336	11431
660.391	12150
660.445	11945
660.500	11391
660.555	12091
660.610	11389
660.664	11872
660.719	11393
660.774	12302
660.828	11990
660.883	12289
660.938	10930
660.992	10566
661.047	11121
661.101	11430
661.156	11238
661.211	11789
661.265	10949
661.320	11703
661.374	9943
661.429	11675
661.483	11257
661.538	12124
661.592	11252
661.647	12046
661.701	15117
661.755	13111
661.810	11281
661.864	10365
661.919	11947
661.973	12167
662.027	12055
662.081	10928
662.136	10615
662.190	11450
662.244	11735
662.299	11100
662.353	11815
662.407	11182
662.461	11138
662.515	11195
662.569	10549
662.624	11704
662.678	9999
662.732	11087
662.786	10392
662.840	10831
662.894	11500
662.948	10807
663.002	10110
663.056	11056
663.110	10483
663.164	11128
663.218	11119
663.272	11311
663.326	10943
663.380	10181
663.434	10358
663.488	10407
663.542	10740
663.595	10627
663.649	10655
663.703	10450
663.757	9952
663.811	9954
663.864	10233
663.918	10708
663.972	10239
664.026	10326
664.079	9722
664.133	10989
664.187	10634
664.240	10854
664.294	11237
664.348	12890
664.401	10302
664.455	10922
664.508	9498
664.562	11062
664.615	10760
664.669	9738
664.722	10486
664.776	10193
664.829	10035
664.883	10228
664.936	9370
664.990	10713
665.043	10456
665.097	10262
665.150	11250
665.203	10757
665.257	10615
665.310	11084
665.363	9961
665.417	10908
665.470	10383
665.523	10556
665.576	9447
665.630	11409
665.683	9587
665.736	9944
665.789	11619
665.842	10524
665.895	9589
665.949	10971
666.002	9294
666.055	10326
666.108	10598
666.161	10960
666.214	10179
666.267	10742
666.320	11196
666.373	10609
666.426	10800
666.479	10236
666.532	10483
666.585	10545
666.638	11340
666.691	11107
666.744	10956
666.796	10942
666.849	10844
666.902	10247
666.955	9521
667.008	10321
667.060	9686
667.113	9538
667.166	10391
667.219	10511
667.271	10380
667.324	11276
667.377	10752
667.430	11786
667.482	11171
667.535	12300
667.587	10467
667.640	11218
667.693	10187
667.745	11765
667.798	13775
667.850	11142
667.903	9196
667.955	10854
668.008	10340
668.060	10947
668.113	10084
668.165	10579
668.218	10324
668.270	10263
668.322	9515
668.375	10247
668.427	10859
668.479	9439
668.532	10710
668.584	10754
668.636	10484
668.689	10990
668.741	9814
668.793	9881
668.845	10164
668.898	10492
668.950	9514
669.002	9761
669.054	10046
669.106	9421
669.158	10983
669.211	10559
669.263	10317
669.315	11463
669.367	12226
669.419	11091
669.471	10463
669.523	10913
669.575	12467
669.627	11946
669.679	9660
669.731	10695
669.783	10480
669.835	11352
669.886	10095
669.938	9979
669.990	10721
670.042	11188
670.094	10038
670.146	9851
670.197	11757
670.249	13647
670.301	14283
670.353	17905
670.404	21343
670.456	28100
670.508	40742
670.560	64944
670.611	108259
670.663	183847
670.715	363467
670.766	648329
670.818	381466
670.869	88036
670.921	38667
670.972	26706
671.024	21207
671.075	17941
671.127	15250
671.178	13675
671.230	12572
671.281	12728
671.333	13204
671.384	12159
671.436	13097
671.487	14860
671.538	17935
671.590	22803
671.641	32596
671.692	48347
671.744	84510
671.795	96101
671.846	47032
671.897	24676
671.949	17296
672.000	14835
672.051	12301
672.102	11546
672.153	9592
672.204	9700
672.256	9297
672.307	9716
672.358	9414
672.409	9396
672.460	9092
672.511	8659
672.562	8534
672.613	8256
672.664	8675
672.715	8728
672.766	8347
672.817	8474
672.868	7722
672.919	8661
672.970	7680
673.021	8352
673.071	6148
673.122	7313
673.173	7754
673.224	7878
673.275	7060
673.326	7967
673.376	7066
673.427	7110
673.478	7145
673.528	7857
673.579	6847
673.630	7933
673.680	7933
673.731	7420
673.782	7611
673.832	8438
673.883	7462
673.934	7573
673.984	7205
674.035	7948
674.085	6469
674.136	7502
674.186	6854
674.237	7847
674.287	7579
674.338	8964
674.388	6124
674.438	7587
674.489	7489
674.539	7490
674.589	7771
674.640	7653
674.690	7266
674.740	7654
674.791	6849
674.841	8013
674.891	6689
674.942	6967
674.992	5647
675.042	5724
675.092	5518
675.142	5468
675.193	5699
675.243	6457
675.293	6073
675.343	7376
675.393	7112
675.443	7866
675.493	7304
675.543	6140
675.593	6042
675.643	6414
675.693	6615
675.743	7124
675.793	7083
675.843	6381
675.893	5833
675.943	6831
675.993	5522
676.043	6726
676.093	6019
676.142	5823
676.192	7050
676.242	6331
676.292	5756
676.341	5589
676.391	7052
676.441	6347
676.491	5302
676.540	6219
676.590	6183
676.640	6072
676.689	6503
676.739	5954
676.789	4956
676.838	6292
676.888	6000
676.937	5280
676.987	5712
677.037	6072
677.086	5394
677.136	5985
677.185	5483
677.235	5955
677.284	5821
677.333	5462
677.383	5024
677.432	5377
677.482	5486
677.531	5863
677.580	5144
677.630	5637
677.679	5257
677.728	5290
677.778	5801
677.827	4457
677.876	4821
677.925	5927
677.975	5323
678.024	6252
678.073	4821
678.122	6282
678.171	5471
678.220	6195
678.269	6146
678.319	7007
678.368	6281
678.417	6735
678.466	6200
678.515	6492
678.564	5683
678.613	5695
678.662	4776
678.711	5731
678.760	5435
678.809	6146
678.857	4657
678.906	6070
678.955	5448
679.004	5558
679.053	6235
679.102	6489
679.151	6119
679.199	5325
679.248	5192
679.297	5556
679.346	5167
679.394	5110
679.443	4561
679.492	5659
679.540	5156
679.589	5157
679.638	5121
679.686	4999
679.735	4755
679.784	5244
679.832	5539
679.881	5434
679.929	4645
679.978	5861
680.026	5577
680.075	5597
680.123	4928
680.172	4773
680.220	4170
680.268	5924
680.317	4000
680.365	4383
680.414	4523
680.462	5724
680.510	5002
680.559	5428
680.607	4829
680.655	5040
680.703	5085
680.752	5297
680.800	4965
680.848	4729
680.896	4633
680.945	4175
680.993	4456
681.041	4940
681.089	4474
681.137	4778
681.185	3550
681.233	4346
681.258	4446
681.281	4501
681.329	4630
681.377	4505
681.380	4615
681.425	5860
681.473	5256
681.502	5571
681.521	5718
681.569	5528
681.617	5242
681.624	5301
681.665	5378
681.713	5677
681.745	5679
681.761	5624
681.809	5937
681.857	6409
681.867	6400
681.904	6195
681.952	5807
681.989	6038
682.000	6052
682.048	6135
682.096	5879
682.111	6060
682.143	6332
682.191	6451
682.233	6781
682.239	6787
682.286	6553
682.334	6093
682.354	6173
682.382	6221
682.430	6374
682.476	7074
682.477	7053
682.525	7003
682.572	6508
682.598	6425
682.620	6299
682.667	6886
682.715	6180
682.720	6289
682.763	6937
682.810	7035
682.841	7313
682.857	7385
682.905	6762
682.952	7121
682.963	7094
683.000	6915
683.047	7561
683.085	8146
683.095	8260
683.142	8172
683.190	8466
683.206	8131
683.237	7467
683.284	7559
683.328	8540
683.332	8583
683.379	8140
683.426	8108
683.449	7837
683.473	7523
683.521	8474
683.568	7951
683.571	7985
683.615	8049
683.662	8835
683.693	8467
683.709	8199
683.757	8281
683.804	8486
683.814	8451
683.851	8159
683.898	9415
683.936	8460
683.945	8224
683.992	8785
684.039	8911
684.057	8988
684.086	9014
684.133	9147
684.179	9276
684.180	9256
684.227	9199
684.274	9871
684.300	9868
684.321	9811
684.368	10559
684.415	9446
684.422	9455
684.462	9316
684.509	9604
684.543	10298
684.556	10506
684.603	10146
684.649	9858
684.665	9894
684.696	10002
684.743	10463
684.786	10641
684.790	10628
684.837	10574
684.883	10196
684.908	10739
684.930	11239
684.977	10339
685.023	11020
685.029	11016
685.070	10738
685.117	11292
685.150	10929
685.164	10800
685.210	11393
685.257	12131
685.272	12129
685.303	11986
685.350	11939
685.393	11922
685.396	11894
685.443	11142
685.490	11944
685.514	11567
685.536	11367
685.583	12183
685.629	11716
685.636	11829
685.675	12264
685.722	12127
685.757	11813
685.768	11678
685.815	12046
685.861	12094
685.878	12046
685.908	12022
685.954	12502
686.000	12984
686.000	12980
686.047	12983
686.093	12727
686.121	12885
686.139	13035
686.185	12976
686.232	13216
686.242	13251
686.278	13165
686.324	13440
686.363	12626
686.370	12483
686.416	12951
686.463	13056
686.484	13145
686.509	13310
686.555	12889
686.601	13533
686.606	13474
686.647	12884
686.693	13193
686.727	13484
686.739	13532
686.785	13723
686.831	13196
686.848	13289
686.877	13548
686.923	13565
686.969	13468
686.969	13466
687.015	13730
687.061	13932
687.090	14012
687.107	14038
687.153	14659
687.199	14228
687.211	14289
687.245	14322
687.291	14321
687.332	13762
687.336	13736
687.382	14220
687.428	14526
687.453	14819
687.474	15043
687.520	15017
687.565	14784
687.574	14923
687.611	15470
687.657	15875
687.695	16170
687.702	16356
687.748	17046
687.794	19742
687.816	19692
687.839	18971
687.885	18638
687.931	17152
687.937	17138
687.976	16936
688.022	16250
688.058	15990
688.067	16038
688.113	15205
688.158	15417
688.179	15234
688.204	15016
688.249	15917
688.295	15108
688.300	15107
688.340	15604
688.386	16327
688.421	16841
688.431	16870
688.477	16226
688.522	16520
688.542	16373
688.567	16451
688.613	16533
688.658	16796
688.663	16811
688.703	16602
688.749	16474
688.784	16373
688.794	16434
688.839	16315
688.884	17140
688.905	16939
688.930	16743
688.975	16944
689.020	17114
689.026	17169
689.065	17537
689.110	16856
689.146	17165
689.155	17280
689.201	17371
689.246	17957
689.267	17725
689.291	17460
689.336	17650
689.381	17571
689.388	17591
689.426	17648
689.471	17406
689.509	17555
689.516	17637
689.561	17159
689.606	17475
689.630	17540
689.651	17683
689.696	17751
689.741	17830
689.750	17965
689.785	18425
689.830	18224
689.871	18560
689.875	18601
689.920	18075
689.965	18207
689.992	18028
690.010	18008
690.054	18359
690.099	17906
690.112	17996
690.144	18273
690.189	18226
690.233	18109
690.233	18130
690.278	17999
690.323	18751
690.354	18506
690.367	18450
690.412	18728
690.457	18619
690.474	18796
690.501	19206
690.546	19232
690.590	19609
690.595	19588
690.635	19739
690.680	20463
690.716	20456
690.724	20653
690.769	22162
690.813	23871
690.836	24393
690.857	25914
690.902	29799
690.946	34180
690.957	35139
690.991	44854
691.035	59542
691.077	74524
691.080	74979
691.124	76067
691.168	74989
691.198	75777
691.213	70444
691.257	54921
691.301	40034
691.318	34159
691.346	31849
691.390	28179
691.434	23834
691.439	23428
691.478	23371
691.522	22873
691.559	22483
691.567	22488
691.611	22240
691.655	21924
691.680	21815
691.699	21852
691.743	21753
691.787	21569
691.800	21418
691.831	21109
691.875	21258
691.919	21325
691.921	21275
691.964	21090
692.008	21454
692.041	21358
692.052	21357
692.096	21381
692.139	21388
692.162	21347
692.183	21299
692.227	21171
692.271	21381
692.282	21246
692.315	21031
692.359	20972
692.402	20783
692.403	20820
692.447	21077
692.490	21103
692.523	21291
692.534	21394
692.578	21250
692.622	21555
692.643	21483
692.666	21471
692.709	21661
692.753	21448
692.763	21490
692.797	21807
692.840	21738
692.884	21488
692.884	21529
692.928	22045
692.971	22355
693.004	22412
693.015	22377
693.059	22557
693.102	22159
693.124	22251
693.146	22669
693.189	22728
693.233	23189
693.245	23250
693.276	23809
693.320	24518
693.363	24990
693.365	24972
693.407	26380
693.450	27855
693.485	28862
693.493	29433
693.537	32016
693.580	35169
693.605	36641
693.624	40207
693.667	49164
693.710	57955
693.725	61352
693.753	79975
693.797	109552
693.840	141422
693.845	144357
693.883	148129
693.926	149767
693.966	152650
693.970	149390
694.013	113536
694.056	78133
694.086	53793
694.099	51490
694.142	43879
694.185	35988
694.206	32201
694.229	31331
694.272	30084
694.315	28293
694.326	27824
694.358	27259
694.401	26522
694.444	25888
694.446	25789
694.487	25302
694.530	24874
694.566	24419
694.573	24372
694.616	23924
694.659	23010
694.686	22791
694.702	23016
694.745	23011
694.787	23244
694.806	23276
694.830	23384
694.873	23583
694.916	23330
694.926	23365
694.959	23529
695.002	23181
695.044	23312
695.046	23250
695.087	23456
695.130	23832
695.166	24072
695.172	24112
695.215	24097
695.258	23953
695.286	23712
695.301	23834
695.343	24313
695.386	24594
695.406	24756
695.428	24849
695.471	25015
695.514	24801
695.526	24785
695.556	25842
695.599	27023
695.641	28540
695.646	28582
695.684	27759
695.726	27298
695.766	26509
695.769	26542
695.811	26395
695.854	25928
695.886	25654
695.896	25726
695.938	25700
695.981	25877
696.005	25800
696.023	25966
696.065	26279
696.108	26655
696.125	26759
696.150	27025
696.192	27169
696.235	27671
696.245	27652
696.277	28038
696.319	28569
696.361	29110
696.365	29093
696.404	29305
696.446	29313
696.485	29431
696.488	29504
696.530	29326
696.572	29301
696.604	29175
696.614	29100
696.656	28503
696.698	27983
696.724	27532
696.740	27738
696.783	28050
696.825	28653
696.844	28673
696.867	28444
696.909	28216
696.951	27743
696.964	27587
696.992	27788
697.034	27827
697.076	27994
697.083	27939
697.118	27974
697.160	28074
697.202	28030
697.203	27963
697.244	28093
697.286	28084
697.323	28014
697.327	28103
697.369	28329
697.411	28563
697.442	28592
697.453	28708
697.494	28989
697.536	29289
697.562	29375
697.578	29340
697.620	28995
697.661	28726
697.682	28532
697.703	28879
697.744	29450
697.786	29933
697.801	30074
697.828	30077
697.869	29806
697.911	29665
697.921	29541
697.952	29851
697.994	30199
698.035	30450
698.040	30427
698.077	30341
698.118	29964
698.160	29674
698.160	29598
698.201	29593
698.243	29550
698.279	29394
698.284	29524
698.325	30056
698.367	30602
698.399	30953
698.408	31109
698.449	31434
698.491	31818
698.518	31955
698.532	31967
698.573	31813
698.614	31606
698.638	31428
698.656	31513
698.697	31499
698.738	31504
698.757	31426
698.779	31623
698.820	31858
698.862	32051
698.877	32057
698.903	32331
698.944	32617
698.985	32910
698.996	32907
699.026	32582
699.067	32022
699.116	31273
699.235	31320
699.354	31330
699.474	30987
699.593	31343
699.713	31231
699.832	29972
699.951	31008
700.070	31610
700.190	30005
700.309	29764
700.428	28494
700.547	28871
700.667	28811
700.786	27661
700.905	29169
701.024	27837
701.143	28586
701.262	29151
701.381	29187
701.500	28784
701.619	28962
701.738	29524
701.857	29128
701.976	27674
702.095	27920
702.214	27721
702.333	27667
702.452	28167
702.571	29133
702.690	28055
702.809	28145
702.928	27316
703.047	27366
703.165	26806
703.284	27029
703.403	25939
703.522	27076
703.640	26758
703.759	26621
703.878	27014
703.997	26492
704.115	25910
704.234	25031
704.353	26415
704.471	25028
704.590	24698
704.708	24996
704.827	24679
704.946	24401
705.064	24407
705.183	24904
705.301	25284
705.420	28088
705.538	27147
705.656	25679
705.775	25285
705.893	30849
706.012	38431
706.130	26666
706.249	25955
706.367	25954
706.485	25340
706.604	25522
706.722	24533
706.840	25659
706.958	33037
707.077	32224
707.195	25071
707.313	25337
707.431	22919
707.549	23177
707.668	22883
707.786	24235
707.904	22623
708.022	23263
708.140	23423
708.258	23049
708.376	24127
708.494	23168
708.612	22526
708.730	25171
708.848	25386
708.966	25645
709.084	24504
709.202	24931
709.320	23807
709.438	23651
709.556	24351
709.674	23259
709.791	24560
709.909	24060
710.027	22525
710.145	23598
710.263	23654
710.380	22878
710.498	22658
710.616	23364
710.733	22166
710.851	22672
710.969	22414
711.086	21655
711.204	21261
711.322	22488
711.439	21824
711.557	22045
711.674	21093
711.792	21679
711.909	22126
712.027	22225
712.144	21216
712.262	21028
712.379	22069
712.497	24801
712.614	25836
712.732	23654
712.849	22316
712.966	22175
713.084	23490
713.201	22518
713.318	22544
713.436	23028
713.553	23024
713.670	23553
713.787	22527
713.905	22668
714.022	23439
714.139	22536
714.256	24149
714.373	26519
714.490	33623
714.608	55154
714.725	177423
714.842	325268
714.959	49690
715.076	25619
715.193	23290
715.310	23429
715.427	20541
715.544	21525
715.661	21082
715.778	21202
715.895	20969
716.011	21716
716.128	20508
716.245	21363
716.362	20701
716.479	20130
716.596	19832
716.713	19935
716.829	19523
716.946	19392
717.063	19005
717.180	19023
717.296	19456
717.413	18801
717.530	18686
717.646	17440
717.763	18692
717.880	18869
717.996	17694
718.113	17815
718.229	17773
718.346	17931
718.462	16356
718.579	19276
718.695	18924
718.812	19188
718.928	18663
719.045	17674
719.161	17443
719.277	17124
719.394	18879
719.510	18418
719.626	17402
719.743	19290
719.859	21814
719.975	28882
720.092	63151
720.208	185348
720.324	57341
720.440	20569
720.557	18694
720.673	19069
720.789	18724
720.905	22081
721.021	19671
721.137	16847
721.253	16875
721.369	16604
721.486	17107
721.602	17090
721.718	16975
721.834	15747
721.950	15995
722.066	16609
722.181	15436
722.297	14935
722.413	15762
722.529	15552
722.645	16061
722.761	15534
722.877	16395
722.993	15526
723.108	15398
723.224	15940
723.340	15301
723.456	15599
723.571	14736
723.687	14875
723.803	14654
723.918	15227
724.034	14538
724.150	14739
724.265	14797
724.381	15284
724.497	16667
724.612	14868
724.728	14699
724.843	13960
724.959	14373
725.074	16032
725.190	16772
725.305	13550
725.421	13947
725.536	14403
725.651	14010
725.767	14443
725.882	14107
725.997	15221
726.113	13524
726.228	13966
726.343	14197
726.459	13611
726.574	13445
726.689	13877
726.804	13766
726.920	13438
727.035	14092
727.150	13935
727.265	13647
727.380	14927
727.495	13687
727.610	14687
727.725	13806
727.841	13567
727.956	16923
728.071	17783
728.186	12642
728.301	12498
728.416	12968
728.531	13277
728.645	12531
728.760	13233
728.875	13074
728.990	12519
729.105	13261
729.220	12818
729.335	13161
729.449	13281
729.564	11687
729.679	12827
729.794	12181
729.908	12851
730.023	11858
730.138	12338
730.253	11947
730.367	12674
730.482	13042
730.596	12661
730.711	13049
730.826	14797
730.940	15381
731.055	13913
731.169	12523
731.284	13043
731.398	13093
731.513	13272
731.627	13616
731.742	13866
731.856	14972
731.970	15284
732.085	15357
732.199	17570
732.313	22000
732.428	37400
732.542	93553
732.656	94663
732.771	26476
732.885	18098
732.999	16232
733.113	17352
733.227	16855
733.342	16177
733.456	16496
733.570	16292
733.684	15544
733.798	15934
733.912	14486
734.026	15223
734.140	15491
734.254	15847
734.368	15252
734.482	16452
734.596	15177
734.710	14900
734.824	14834
734.938	14951
735.052	14777
735.166	14859
735.280	14888
735.393	14355
735.507	14895
735.621	14428
735.735	15109
735.849	15081
735.962	14332
736.076	14335
736.190	14147
736.303	14854
736.417	14860
736.531	13819
736.644	14499
736.758	14131
736.872	13661
736.985	13663
737.099	13572
737.212	13256
737.326	13968
737.439	13384
737.553	14095
737.666	13319
737.780	12869
737.893	13046
738.007	13340
738.120	13552
738.233	12934
738.347	14156
738.460	12332
738.573	13252
738.687	13644
738.800	13512
738.913	13123
739.026	13750
739.140	12897
739.253	13401
739.366	12490
739.479	12138
739.592	12357
739.705	12697
739.818	12973
739.932	12438
740.045	12077
740.158	12489
740.271	12051
740.384	13155
740.497	11781
740.610	13259
740.723	12462
740.836	13042
740.949	12546
741.062	12450
741.174	12366
741.287	11744
741.400	11583
741.513	11726
741.626	11563
741.739	12168
741.851	11804
741.964	11787
742.077	11696
742.189	12435
742.302	11517
742.415	12253
742.527	11280
742.640	11488
742.753	11115
742.865	11770
742.978	12074
743.090	10960
743.203	11881
743.316	11731
743.428	11827
743.541	12236
743.653	10370
743.766	10954
743.878	11895
743.990	10480
744.103	11411
744.215	10577
744.327	10862
744.440	11952
744.552	12656
744.664	11195
744.777	11504
744.889	11489
745.001	10557
745.113	10727
745.226	10978
745.338	11460
745.450	11294
745.562	10563
745.674	11415
745.786	11407
745.898	11185
746.010	11553
746.122	10843
746.234	11315
746.347	10973
746.459	10958
746.570	9863
746.682	10884
746.794	11708
746.906	10467
747.018	11013
747.130	12009
747.242	10562
747.354	11051
747.466	10618
747.577	10933
747.689	10461
747.801	10725
747.913	10399
748.024	11077
748.136	10191
748.248	10867
748.359	9796
748.471	10992
748.583	10942
748.694	10526
748.806	11276
748.918	10449
749.029	10130
749.141	10501
749.252	11376
749.364	10056
749.475	10589
749.587	10919
749.698	10203
749.809	11184
749.921	9793
750.032	10503
750.144	10114
750.255	10223
750.366	9902
750.478	9514
750.589	9462
750.700	9832
750.811	11077
750.923	10767
751.034	10871
751.145	11656
751.256	9958
751.367	9571
751.479	10222
751.590	9863
751.701	10453
751.812	10490
751.923	10938
752.034	10177
752.145	10397
752.256	8851
752.367	9630
752.478	10184
752.589	9794
752.700	11122
752.811	9469
752.922	9680
753.032	10155
753.143	10856
753.254	9877
753.365	10247
753.476	10101
753.586	11235
753.697	10275
753.808	10320
753.919	9818
754.029	10337
754.140	10104
754.251	9250
754.361	10015
754.472	10278
754.582	10533
754.693	9885
754.804	10625
754.914	10833
755.025	9995
755.135	10386
755.246	10405
755.356	10984
755.466	11525
755.577	10109
755.687	10423
755.798	10450
755.908	10339
756.018	10348
756.129	10604
756.239	10527
756.349	10949
756.460	11282
756.570	10898
756.680	11358
756.790	10094
756.900	10742
757.011	11113
757.121	11044
757.231	10925
757.341	10608
757.451	10300
757.561	10465
757.671	10968
757.781	11687
757.891	11869
758.001	10728
758.111	11399
758.221	12205
758.331	11250
758.441	11613
758.551	12418
758.661	12362
758.771	12345
758.880	12896
758.990	12979
759.100	13081
759.210	12508
759.320	12664
759.429	12657
759.539	13958
759.649	12431
759.758	13655
759.868	14206
759.978	12918
760.087	14780
760.197	13603
760.307	14424
760.416	14200
760.526	14230
760.635	15368
760.745	15940
760.854	15178
760.964	15715
761.073	15980
761.182	16454
761.292	16926
761.401	16467
761.511	16952
761.620	17920
761.729	17715
761.839	18152
761.948	18906
762.057	17845
762.166	18908
762.276	19688
762.385	21041
762.494	20537
762.603	21091
762.712	21602
762.822	22218
762.931	21853
763.040	23340
763.149	24370
763.258	24990
763.367	27007
763.476	27574
763.585	28270
763.694	29817
763.803	31391
763.912	32640
764.021	35170
764.130	36692
764.238	39306
764.347	41878
764.456	43032
764.565	47354
764.674	51130
764.783	55006
764.891	60847
765.000	68069
765.109	76337
765.217	85979
765.326	99154
765.435	114240
765.543	137324
765.652	164089
765.761	202793
765.869	258438
765.978	332976
766.086	438632
766.195	571935
766.303	728288
766.412	724995
766.520	598311
766.629	685150
766.737	594454
766.846	473682
766.954	365984
767.062	282644
767.171	224910
767.279	178635
767.387	145945
767.496	124251
767.604	106338
767.712	92265
767.820	81951
767.928	75081
768.037	70083
768.145	66165
768.253	62676
768.361	61395
768.469	61665
768.577	62775
768.685	63400
768.793	67715
768.901	74510
769.009	82654
769.117	95637
769.225	116933
769.333	154584
769.441	212080
769.549	311288
769.657	471929
769.765	671533
769.873	634577
769.981	599487
770.088	520166
770.196	372258
770.304	264577
770.412	197910
770.519	153092
770.627	122873
770.735	101338
770.842	84942
770.950	74741
771.058	65707
771.165	58886
771.273	54267
771.380	48508
771.488	44710
771.595	42341
771.703	40130
771.810	37285
771.918	35505
772.025	33097
772.133	32739
772.240	30687
772.348	31114
772.455	29313
772.562	26941
772.670	25670
772.777	26462
772.884	24418
772.991	23758
773.099	23252
773.206	22140
773.313	22066
773.420	21615
773.528	20292
773.635	19542
773.742	19563
773.849	19438
773.956	19278
774.063	18202
774.170	18339
774.277	17812
774.384	16969
774.491	16400
774.598	16468
774.705	17603
774.812	15962
774.919	16734
775.026	16898
775.133	16017
775.239	14983
775.346	14962
775.453	14834
775.560	14946
775.667	14064
775.773	14629
775.880	13586
775.987	14236
776.093	13294
776.200	14278
776.307	13592
776.413	13607
776.520	13325
776.627	13212
776.733	12369
776.840	12035
776.946	12882
777.053	12104
777.159	12812
777.266	11012
777.372	12763
777.478	11911
777.585	11777
777.691	11782
777.798	11099
777.904	11801
778.010	12258
778.117	12519
778.223	10972
778.329	10754
778.435	10553
778.542	11732
778.648	10344
778.754	10205
778.860	10611
778.966	11028
779.072	10666
779.178	10306
779.284	9784
779.391	10143
779.497	12471
779.603	14392
779.708	16543
779.815	28485
779.920	81381
780.026	213685
780.132	74288
780.238	17530
780.344	12812
780.450	12174
780.556	10039
780.661	9760
780.767	9710
780.873	9114
780.979	8932
781.085	9428
781.190	8843
781.296	9116
781.402	8217
781.507	8661
781.613	9002
781.719	7983
781.824	8767
781.930	8766
782.035	8722
782.141	9006
782.246	8127
782.352	8492
782.457	7677
782.563	8303
782.668	7843
782.773	7960
782.879	7817
782.984	7978
783.090	8250
783.195	7963
783.300	8272
783.405	7428
783.511	6811
783.616	7720
783.721	6833
783.826	8068
783.932	6902
784.037	6750
784.142	7274
784.247	7298
784.352	7133
784.457	7035
784.562	6309
784.667	7800
784.772	6459
784.877	6442
784.982	6969
785.087	7101
785.192	6980
785.297	6347
785.402	7028
785.507	6706
785.611	6626
785.716	6754
785.821	7224
785.926	7184
786.031	6539
786.135	6049
786.240	6738
786.345	5965
786.450	6266
786.554	6518
786.659	5413
786.763	5659
786.868	7033
786.973	6981
787.077	6104
787.182	7143
787.286	5677
787.391	6802
787.495	5412
787.600	6184
787.704	5329
787.809	6312
787.913	5371
788.017	6600
788.122	6248
788.226	6588
788.330	5301
788.435	5557
788.539	6404
788.643	6160
788.747	5291
788.852	5444
788.956	5540
789.060	5399
789.164	5891
789.268	5326
789.372	6589
789.476	5000
789.580	5608
789.684	4546
789.788	5057
789.892	5111
789.996	5337
790.100	4368
790.204	5431
790.308	5523
790.412	5878
790.516	5189
790.620	5565
790.724	6965
790.828	5784
790.931	5599
791.035	5604
791.139	5526
791.242	4234
791.346	5976
791.450	4909
791.554	5718
791.657	4032
791.761	5925
791.864	5244
791.968	5501
792.072	4869
792.175	5301
792.279	4503
792.382	5289
792.486	4478
792.589	5108
792.693	5200
792.796	4602
792.899	5216
793.003	4937
793.106	4611
793.209	4464
793.313	5393
793.416	3824
793.519	5265
793.623	5168
793.726	5619
793.829	4654
793.932	4548
794.035	3676
794.138	5672
794.242	5641
794.345	6410
794.448	8297
794.551	14978
794.654	44582
794.757	129151
794.860	50303
794.963	8445
795.066	6250
795.169	6302
795.272	5475
795.375	5953
795.477	4922
795.580	5152
795.683	3919
795.786	3265
795.889	3817
795.991	5205
796.094	4503
796.197	4018
796.300	4845
796.402	4376
796.505	4075
796.608	3998
796.710	4303
796.813	4085
796.915	4186
797.018	4266
797.120	4501
797.223	3191
797.326	4951
797.428	4089
797.530	4232
797.633	3123
797.735	5062
797.838	3913
797.940	4590
798.042	4191
798.145	3893
798.247	4306
798.349	3172
798.452	3419
798.554	4324
798.656	3605
798.758	3995
798.860	4059
798.962	4071
799.065	3592
799.167	3968
799.269	4385
799.371	4364
799.473	4709
799.575	3291
799.677	4008
799.779	4831
799.881	3034
799.983	4735
800.085	3849
800.187	4671
800.289	3341
800.390	3308
800.492	4190
800.594	4005
800.696	3858
800.798	3458
800.899	3055
801.001	3708
801.103	3163
801.205	3594
801.306	4099
801.408	2871
801.509	3488
801.611	3850
801.713	3393
801.814	3370
801.916	3062
802.017	3780
802.119	3013
802.220	3037
802.322	2310
802.423	4341
802.525	2738
802.626	3001
802.727	3309
802.829	4030
802.930	2020
803.031	4822
803.133	2980
803.234	3752
803.335	3803
803.436	2865
803.538	3523
803.639	2356
803.740	3874
803.841	3569
803.942	3670
804.043	3604
804.144	2062
804.245	2683
804.346	2965
804.447	3503
804.548	3212
804.649	3852
804.750	2879
804.851	3535
804.952	3042
805.053	3248
805.154	2153
805.255	3961
805.355	2252
805.456	3254
805.557	2631
805.658	2735
805.758	2599
805.859	3481
805.960	2461
806.061	2852
806.161	2634
806.262	3026
806.362	2383
806.463	2955
806.564	3115
806.664	4023
806.765	2837
806.865	2913
806.966	2746
807.066	2725
807.166	3344
807.267	3185
807.367	2288
807.468	2703
807.568	2354
807.668	3155
807.769	2746
807.869	2865
807.969	3189
808.069	2860
808.170	3158
808.270	2601
808.370	3223
808.470	2907
808.570	1535
808.670	2783
808.770	3149
808.870	2660
808.970	3132
809.070	3096
809.170	2131
809.271	3568
809.370	2637
809.470	2695
809.570	2795
809.670	2401
809.770	3187
809.870	3333
809.970	3051
810.070	2491
810.169	3608
810.269	1782
810.369	3739
810.469	2632
810.568	3145
810.668	2971
810.768	1454
810.867	2330
810.967	2568
811.066	2851
811.166	3149
811.265	3439
811.365	2775
811.464	2670
811.564	2653
811.663	3220
811.763	2415
811.862	3104
811.962	3104
812.061	2996
812.160	3152
812.260	2850
812.359	2749
812.458	3205
812.557	4818
812.657	6596
812.756	4033
812.855	2484
812.954	2656
813.053	3071
813.153	2909
813.252	2531
813.351	2867
813.450	3045
813.549	2270
813.648	2873
813.747	2750
813.846	3447
813.945	2633
814.044	2183
814.143	2976
814.242	3587
814.341	2740
814.439	3272
814.538	3357
814.637	3103
814.736	3030
814.835	3005
814.933	2958
815.032	3336
815.131	3486
815.229	4712
815.328	6101
815.427	5993
815.525	6072
815.624	4992
815.722	5223
815.821	5128
815.919	4803
816.018	5097
816.116	5460
816.215	5947
816.313	5955
816.412	5834
816.510	7155
816.609	6692
816.707	6794
816.805	7055
816.904	5778
817.002	7260
817.100	7217
817.198	7898
817.296	7779
817.395	8138
817.493	9305
817.591	9821
817.689	11782
817.787	13257
817.885	18158
817.983	27300
818.081	48389
818.179	97912
818.277	201556
818.375	225932
818.473	110202
818.571	49128
818.669	30102
818.767	26085
818.865	23738
818.963	26206
819.061	32612
819.158	48536
819.256	84420
819.354	158080
819.452	276903
819.549	246753
819.647	132049
819.745	65990
819.842	38740
819.940	28042
820.038	20489
820.135	16808
820.233	14376
820.330	12428
820.428	11416
820.525	10505
820.623	8754
820.720	7742
820.818	7258
820.915	7813
821.012	6438
821.110	5774
821.207	6325
821.304	5830
821.402	5740
821.499	6852
821.596	5077
821.693	5527
821.791	5363
821.888	5983
821.985	6979
822.082	5891
822.179	5073
822.276	5182
822.373	5524
822.470	4391
822.567	4204
822.664	4381
822.761	4954
822.858	5340
822.955	4663
823.052	3725
823.149	4646
823.246	3898
823.343	3418
823.440	4016
823.536	3544
823.633	4807
823.730	3775
823.827	3921
823.923	4181
824.020	4314
824.117	3708
824.213	3630
824.310	5378
824.407	3047
824.503	2745
824.600	4090
824.696	3582
824.793	4363
824.889	3305
824.986	4554
825.082	2502
825.179	3737
825.275	3448
825.371	4049
825.468	4145
825.564	2866
825.660	2874
825.757	4453
825.853	3781
825.949	2919
826.045	3058
826.142	3001
826.238	4407
826.334	4199
826.430	3202
826.526	3397
826.622	2521
826.718	2884
826.814	3821
826.910	4088
827.006	2911
827.102	2304
827.198	3481
827.294	3590
827.390	4042
827.486	3549
827.582	2136
827.678	2768
827.774	3535
827.869	3182
827.965	3137
828.061	2365
828.157	4133
828.252	4282
828.348	3044
828.444	3853
828.539	2595
828.635	3230
828.731	3002
828.826	2486
828.922	3020
829.017	3109
829.113	3607
829.208	2451
829.304	1905
829.399	4141
829.495	2404
829.590	3040
829.685	1932
829.781	3568
829.876	2734
829.971	2910
830.066	1623
830.162	1956
830.257	2021
830.352	3839
830.447	3995
830.543	2918
830.638	1679
830.733	3768
830.828	1871
830.923	3205
831.018	2576
831.113	3303
831.208	2151
831.303	2613
831.398	2204
831.493	2646
831.588	3875
831.683	2285
831.778	2477
831.873	2008
831.967	2614
832.062	2260
832.157	1519
832.252	2626
832.346	2389
832.441	3910
832.536	2909
832.631	3449
832.725	2836
832.820	2349
832.914	3251
833.009	2346
833.104	2260
833.198	2564
833.293	2578
833.387	2301
833.482	1955
833.576	2201
833.670	2314
833.765	2043
833.859	1995
833.954	3519
834.048	2503
834.142	2683
834.237	2339
834.331	2870
834.425	2781
834.519	1783
834.613	2849
834.708	1654
834.802	1772
834.896	2088
834.990	2490
835.084	2728
835.178	1419
835.272	2343
835.366	2376
835.460	3299
835.554	3033
835.648	1907
835.742	1407
835.836	2178
835.930	726
836.024	2799
836.117	2494
836.211	3174
836.305	2308
836.399	1919
836.493	1342
836.586	2748
836.680	1985
836.774	2955
836.867	2777
836.961	1431
837.055	1676
837.148	1892
837.242	3035
837.335	2717
837.429	1498
837.522	1952
837.616	808
837.709	1995
837.803	2396
837.896	3263
837.989	2507
838.083	2224
838.176	1534
838.269	2472
838.363	2387
838.456	1339
838.549	2684
838.642	2436
838.735	2480
838.829	2537
838.922	2037
839.015	1994
839.108	1841
839.201	2361
839.294	1464
839.387	1873
839.480	968
839.573	2569
839.666	1509
839.759	1397
839.852	1666
839.945	2291
840.038	1856
840.131	2162
840.223	1751
840.316	1947
840.409	1085
840.502	1253
840.594	2984
840.687	1075
840.780	2099
840.873	1767
840.965	1021
841.058	2528
841.150	2062
841.243	1536
841.336	1636
841.428	1668
841.521	795
841.613	941
841.706	1412
841.798	1729
841.890	1187
841.983	1232
842.075	1985
842.167	2048
842.260	1554
842.352	1965
842.444	1481
842.537	1872
842.629	2435
842.721	1456
842.813	1888
842.905	1397
842.997	2062
843.090	1871
843.182	1621
843.274	1253
843.366	2348
843.458	3562
843.550	3471
843.642	1925
843.734	2002
843.826	1664
843.918	1916
844.009	1720
844.101	1716
844.193	1431
844.285	1236
844.377	2472
844.469	1663
844.560	1116
844.652	1600
844.744	2287
844.835	1652
844.927	1372
845.019	2296
845.110	1507
845.202	1250
845.293	1805
845.385	1899
845.476	2005
845.568	2662
845.659	1701
845.751	2140
845.842	1363
845.934	1091
846.025	1400
846.116	1494
846.208	1691
846.299	1182
846.390	1796
846.482	1464
846.573	2186
846.664	2124
846.755	1600
846.846	2518
846.937	1460
847.029	2063
847.120	1163
847.211	1210
847.302	2201
847.393	1068
847.484	2163
847.575	1099
847.666	958
847.757	1433
847.847	935
847.938	1430
848.029	1858
848.120	1547
848.211	1396
848.302	1894
848.392	1418
848.483	1833
848.574	1416
848.664	1750
848.755	1692
848.846	1866
848.936	998
849.027	939
849.118	1819
849.208	1322
849.299	1570
849.389	1915
849.480	2625
849.570	3726
849.661	5986
849.751	10456
849.841	7414
849.932	1606
850.022	1571
850.112	1744
850.203	1766
850.293	1078
850.383	839
850.474	1051
850.564	1668
850.654	1348
850.744	1227
850.834	1652
850.924	1076
851.014	1657
851.104	1417
851.194	912
851.284	1141
851.374	1812
851.464	1677
851.554	978
851.644	1551
851.734	2433
851.824	3100
851.914	4680
852.004	7993
852.094	11780
852.183	4698
852.273	1717
852.363	1243
852.452	1673
852.542	1608
852.632	645
852.721	1562
852.811	706
852.901	1664
852.990	1634
853.080	1429
853.169	1536
853.259	1946
853.348	1321
853.438	1941
853.527	1701
853.617	1555
853.706	2258
853.795	4458
853.885	8037
853.974	16656
854.063	28278
854.152	51824
854.242	33754
854.331	7325
854.420	2625
854.509	2753
854.598	1988
854.687	1459
854.777	2156
854.866	1493
854.955	1518
855.044	1027
855.133	1334
855.222	1590
855.311	120
855.400	1551
855.488	1759
855.577	988
855.666	1547
855.755	1491
855.844	1860
855.933	1034
856.021	1838
856.110	1887
856.199	1654
856.288	927
856.376	295
856.465	1171
856.554	1357
856.642	854
856.731	2137
856.819	2373
856.908	1017
856.996	979
857.085	1371
857.173	958
857.262	809
857.350	1513
857.438	769
857.527	1832
857.615	1024
857.703	1540
857.792	1010
857.880	1193
857.968	927
858.056	1251
858.145	1246
858.233	1695
858.321	736
858.409	1269
858.497	726
858.585	1561
858.673	738
858.761	2052
858.849	641
858.937	848
859.025	706
859.113	1909
859.201	430
859.289	1464
859.377	1235
859.465	863
859.552	871
859.640	917
859.728	522
859.816	1675
859.903	1427
859.991	1533
860.079	981
860.166	1570
860.254	1877
860.342	1297
860.429	1543
860.517	1175
860.604	1261
860.692	1664
860.779	764
860.867	536
860.954	1264
861.042	1516
861.129	668
861.216	1748
861.304	570
861.391	1177
861.478	869
861.565	1606
861.653	1269
861.740	1050
861.827	1454
861.914	1171
862.001	108
862.089	995
862.176	1098
862.263	1202
862.350	711
862.437	1026
862.524	536
862.611	867
862.698	1605
862.785	941
862.871	764
862.958	518
863.045	478
863.132	1356
863.219	894
863.306	725
863.392	1573
863.479	1748
863.566	534
863.652	1739
863.739	754
863.826	1522
863.912	1334
863.999	999
864.086	1185
864.172	1014
864.259	664
864.345	1456
864.432	1120
864.518	884
864.604	1117
864.691	735
864.777	1861
864.863	2399
864.950	2379
865.036	2648
865.122	3858
865.209	4979
865.295	3911
865.381	4074
865.467	3791
865.553	3990
865.639	3770
865.726	5368
865.812	7107
865.898	11109
865.984	15571
866.070	22298
866.156	35435
866.242	16365
866.328	5744
866.414	4020
866.499	4461
866.585	3795
866.671	3277
866.757	3800
866.843	3280
866.928	2875
867.014	2753
867.100	3412
867.186	2675
867.271	4212
867.357	3218
867.442	3575
867.528	2816
867.614	3011
867.699	2853
867.785	3483
867.870	2609
867.956	3139
868.041	3360
868.127	3066
868.212	3232
868.297	3465
868.383	2762
868.468	3009
868.553	3883
868.639	3853
868.724	3359
868.809	4586
868.894	3257
868.979	1324
869.065	3538
869.150	2141
869.235	2426
869.320	2832
869.405	2370
869.490	2153
869.575	3046
869.660	3039
869.745	1830
869.830	3666
869.915	1725
870.000	2859
870.085	2071
870.169	2973
870.254	2644
870.339	2437
870.424	858
870.509	2707
870.593	2706
870.678	3645
870.763	2410
870.847	2413
870.932	1866
871.016	3520
871.101	1984
871.186	1778
871.270	4053
871.355	2295
871.439	1598
871.523	1839
871.608	2037
871.692	2256
871.777	2100
871.861	3075
871.945	1959
872.030	2144
872.114	1907
872.198	1896
872.282	2487
872.367	2715
872.451	2067
872.535	1561
872.619	2359
872.703	2027
872.787	1515
872.871	2346
872.955	1867
873.039	1382
873.123	1689
873.207	2837
873.291	1946
873.375	1768
873.459	1910
873.543	1834
873.627	1715
873.711	1088
873.794	1503
873.878	1918
873.962	896
874.045	1923
874.129	1413
874.137	1491
874.213	2268
874.245	2130
874.296	1904
874.352	1418
874.380	1185
874.460	1504
874.464	1516
874.547	1621
874.568	1721
874.631	2054
874.676	1953
874.714	1856
874.784	1809
874.798	1805
874.881	2664
874.892	2492
874.965	1279
874.999	1220
875.048	1146
875.107	1266
875.131	1306
875.215	1489
875.215	1488
875.298	1127
875.323	1153
875.381	1151
875.430	1801
875.465	2295
875.538	2283
875.548	2278
875.631	1318
875.646	1350
875.714	1490
875.753	1295
875.798	1084
875.861	1583
875.881	1739
875.964	1769
875.968	1740
876.047	1189
876.076	1324
876.130	1586
876.183	1677
876.213	1767
876.291	2174
876.296	2190
876.379	1074
876.398	1010
876.462	842
876.506	1086
876.545	1344
876.613	1394
876.628	1386
876.711	962
876.721	990
876.794	1270
876.828	1234
876.877	1123
876.935	1312
876.960	1462
877.043	1217
877.043	1218
877.125	1338
877.150	1637
877.208	2215
877.258	1505
877.291	1100
877.365	644
877.374	592
877.456	1203
877.472	1204
877.539	1120
877.579	1068
877.622	1070
877.687	1671
877.704	1812
877.787	267
877.794	357
877.869	1427
877.901	1396
877.952	1183
878.008	952
878.034	929
878.115	1033
878.117	1033
878.199	1479
878.222	1398
878.282	1161
878.329	1172
878.364	1118
878.437	969
878.447	975
878.529	1189
878.544	1120
878.611	599
878.651	500
878.694	560
878.758	1037
878.776	1162
878.858	890
878.865	895
878.941	640
878.972	385
879.023	24
879.078	-104
879.105	-63
879.185	1323
879.187	1347
879.269	522
879.292	678
879.351	1057
879.399	731
879.433	526
879.506	796
879.516	802
879.598	835
879.613	831
879.680	976
879.720	727
879.762	513
879.827	858
879.844	939
879.926	978
879.933	969
880.007	871
880.040	1036
880.089	994
880.147	681
880.171	720
880.253	1277
880.254	1276
880.335	551
880.360	663
880.417	997
880.467	1316
880.499	1404
880.574	1409
880.580	1439
880.662	1331
880.680	1222
880.744	492
880.787	437
880.825	450
880.893	714
880.907	788
880.989	1040
881.000	1033
881.070	774
881.106	899
881.152	1208
881.213	820
881.233	603
881.315	245
881.319	257
881.396	876
881.426	976
881.478	994
881.532	967
881.559	960
881.639	561
881.641	538
881.722	179
881.745	133
881.803	734
881.852	640
881.885	271
881.958	453
881.966	527
882.047	570
882.064	722
882.129	1051
882.171	870
882.210	679
882.277	808
882.291	847
882.372	786
882.383	831
882.454	1165
882.489	1098
882.535	1015
882.596	1106
882.616	1083
882.697	1000
882.702	976
882.778	441
882.808	217
882.859	9
882.914	301
882.940	548
883.020	346
883.021	343
883.102	598
883.127	598
883.183	293
883.233	295
883.264	518
883.339	214
883.345	176
883.426	432
883.445	466
883.507	451
883.551	311
883.587	358
883.657	525
883.668	563
883.749	1199
883.763	1170
883.830	767
883.869	749
883.910	601
883.975	553
883.991	574
884.072	273
884.081	276
884.152	606
884.187	796
884.233	853
884.292	716
884.314	665
884.394	102
884.398	99
884.475	59
884.504	107
884.555	424
884.610	641
884.636	564
884.716	354
884.716	354
884.797	606
884.821	679
884.877	354
884.927	-172
884.958	-42
885.033	660
885.038	661
885.118	342
885.139	403
885.199	521
885.244	326
885.279	146
885.350	225
885.359	337
885.439	1136
885.456	1235
885.520	564
885.561	227
885.600	324
885.667	401
885.680	327
885.760	241
885.773	205
885.840	446
885.878	444
885.920	335
885.984	368
886.000	286
886.080	-136
886.089	-182
886.160	-46
886.195	31
886.240	195
886.300	429
886.320	396
886.400	259
886.406	260
886.480	-274
886.511	-604
886.560	-162
886.616	548
886.640	503
886.720	-27
886.722	-31
886.800	-43
886.827	-96
886.879	65
886.932	243
886.959	363
887.038	664
887.039	659
887.119	419
887.143	288
887.198	467
887.248	688
887.278	589
887.354	319
887.358	300
887.437	90
887.459	-23
887.517	211
887.564	380
887.596	356
887.669	355
887.676	308
887.755	-253
887.774	-380
887.835	-168
887.880	17
887.914	66
887.985	62
887.994	55
888.073	148
888.090	149
888.153	290
888.195	408
888.232	359
888.300	179
888.311	212
888.391	563
888.405	628
888.470	277
888.510	36
888.549	195
888.615	505
888.628	497
888.708	462
888.720	463
888.787	651
888.825	702
888.866	76
888.930	-845
888.945	-687
889.024	220
889.035	338
889.103	369
889.140	390
889.182	248
889.245	90
889.261	150
889.340	417
889.349	454
889.419	532
889.454	568
889.498	319
889.559	-8
889.577	42
889.656	284
889.664	312
889.735	291
889.768	284
889.814	339
889.873	416
889.978	-670
890.083	87
890.187	-64
890.292	40
890.397	515
890.501	-825
890.606	-638
890.710	671
890.815	173
890.919	177
891.024	-331
891.128	394
891.233	88
891.337	698
891.442	49
891.546	372
891.650	-147
891.755	193
891.859	1300
891.963	728
892.068	161
892.172	153
892.276	256
892.380	2
892.484	84
892.589	69
892.693	-480
892.797	382
892.901	560
893.005	23
893.109	-472
893.213	176
893.317	768
893.421	632
893.525	115
893.629	-352
893.733	-53
893.837	-623
893.941	37
894.045	537
894.148	102
894.252	470
894.356	100
894.460	-32
894.564	540
894.667	214
894.771	279
894.875	-722
894.978	68
895.082	-109
895.186	669
895.289	1332
895.393	588
895.496	-467
895.600	-339
895.703	61
895.807	-179
895.910	-407
896.014	193
896.117	-619
896.221	569
896.324	291
896.427	131
896.531	-288
896.634	761
896.737	-17
896.840	-142
896.944	139
897.047	133
897.150	133
897.253	-312
897.356	33
897.460	-225
897.563	431
897.666	-1
897.769	41
897.872	-141
897.975	-330
898.078	-190
898.181	401
898.284	-540
898.387	305
898.490	-128
898.593	881
898.695	-984
898.798	462
898.901	214
899.004	-35
899.107	344
899.209	-581
899.312	94
899.415	986
899.518	463
899.620	-281
899.723	-1380
899.826	-90
899.928	336
900.031	-371
900.133	-328
900.236	-460
900.338	237
900.441	-411
900.543	-92
900.646	456
900.748	-591
900.851	408
900.953	-661
901.055	-89
901.158	115
901.260	186
901.362	-322
901.465	98
901.567	-249
901.669	-15
901.771	244
901.873	-512
901.976	-96
902.078	-80
902.180	-283
902.282	152
902.384	128
902.486	-427
902.588	428
902.690	-34
902.792	240
902.894	22
902.996	1060
903.098	-473
903.200	-93
903.302	-779
903.404	7
903.505	-296
903.607	289
903.709	-2
903.811	291
903.913	-412
904.014	110
904.116	-98
904.218	-417
904.319	137
904.421	499
904.523	-313
904.624	-74
904.726	-315
904.827	-938
904.929	-761
905.030	281
905.132	91
905.233	-702
905.335	356
905.436	-343
905.537	-162
905.639	362
905.740	-350
905.841	86
905.943	-190
906.044	-309
906.145	-176
906.247	382
906.348	-442
906.449	-319
906.550	-520
906.651	-21
906.752	67
906.854	-127
906.955	-319
907.056	-221
907.157	-358
907.258	-528
907.359	488
907.460	329
907.561	-132
907.662	-566
907.762	-299
907.863	-710
907.964	-54
908.065	0
908.166	101
908.267	371
908.367	513
908.468	-274
908.569	388
908.670	-45
908.770	803
908.871	-265
908.971	-59
909.072	-85
909.173	-549
909.273	-188
909.374	-334
909.474	-7
909.575	514
909.675	151
909.776	917
909.876	-170
909.977	-261
910.077	-250
910.177	-223
910.278	-433
910.378	546
910.478	-625
910.579	-108
910.679	1259
910.779	-132
910.879	-204
910.980	-868
911.080	-429
911.180	-7
911.280	158
911.380	-49
911.480	-339
911.580	-292
911.680	-852
911.780	-151
911.880	-937
911.980	-261
912.080	-652
912.180	477
912.280	-261
912.380	26
912.480	-290
912.580	-15
912.679	-488
912.779	-66
912.879	-209
912.979	-324
913.078	-1052
913.178	-144
913.278	147
913.377	-356
913.477	-54
913.577	-957
913.676	-28
913.776	-481
913.875	-343
913.975	-267
914.074	-967
914.174	-472
914.273	-1145
914.373	603
914.472	450
914.572	-265
914.671	313
914.770	-687
914.870	-286
914.969	-387
915.068	-240
915.167	-79
915.267	-772
915.366	-174
915.465	-43
915.564	-425
915.663	-480
915.763	-129
915.862	-560
915.961	80
916.060	-80
916.159	-138
916.258	-780
916.357	-1236
916.456	-204
916.555	-555
916.654	-1130
916.752	529
916.851	-98
916.950	836
917.049	191
917.148	-17
917.247	-293
917.345	310
917.444	-609
917.543	39
917.642	-934
917.740	-92
917.839	-472
917.937	-807
918.036	219
918.135	-285
918.233	-585
918.332	-785
918.430	266
918.529	-125
918.627	-174
918.726	-666
918.824	70
918.923	-296
919.021	-553
919.119	-453
919.218	-98
919.316	-382
919.414	-567
919.512	-690
919.611	-840
919.709	181
919.807	72
919.905	-732
920.003	-733
920.102	-626
920.200	-899
920.298	-346
920.396	-1130
920.494	-477
920.592	-471
920.690	-487
920.788	11
920.886	-495
920.984	-571
921.082	-563
921.180	163
921.277	-468
921.375	-182
921.473	-458
921.571	-298
921.669	-227
921.766	-686
921.864	353
921.962	714
922.060	-341
922.157	264
922.255	95
922.352	-283
922.450	624
922.548	-844
922.645	439
922.743	-1005
922.840	868
922.938	694
923.035	-167
923.133	66
923.230	155
923.327	220
923.425	1012
923.522	-13
923.619	598
923.717	-308
923.814	274
923.911	-228
924.008	150
924.106	413
924.203	-2
924.300	207
924.397	40
924.494	426
924.591	543
924.688	405
924.786	-11
924.883	-29
924.979	-527
925.077	611
925.173	199
925.270	-666
925.367	654
925.464	-661
925.561	87
925.658	434
925.755	71
925.852	-30
925.948	-30
926.045	272
926.142	147
926.239	-295
926.335	-137
926.432	45
926.529	248
926.625	-526
926.722	295
926.818	-159
926.915	188
927.011	508
927.108	-425
927.204	-590
927.301	-151
927.397	-703
927.494	22
927.590	-820
927.687	166
927.783	-8
927.879	69
927.976	-547
928.072	-381
928.168	-177
928.264	-364
928.361	-495
928.457	44
928.553	-72
928.649	6
928.745	-665
928.841	289
928.937	-665
929.033	553
929.129	-377
929.225	-145
929.321	558
929.417	96
929.513	304
929.609	-575
929.705	-161
929.801	226
929.897	-332
929.993	-650
930.089	-63
930.184	622
930.280	-378
930.376	102
930.471	-534
930.567	-116
930.663	66
930.758	-368
930.854	-1123
930.950	-154
931.045	-401
931.141	-135
931.236	48
931.332	497
931.427	-887
931.523	-562
931.618	-45
931.714	-662
931.809	-465
931.905	-747
932.000	-659
932.095	-1312
932.191	-705
932.286	-893
932.381	-542
932.476	-88
932.572	-156
932.667	-393
932.762	-594
932.857	-161
932.952	-721
933.047	-121
933.142	-1093
933.237	-191
933.332	186
933.427	-111
933.522	-854
933.617	-1101
933.712	72
933.807	-620
933.902	-1323
933.997	-677
934.092	-499
934.187	-358
934.282	134
934.376	-613
934.471	-814
934.566	-396
934.661	-575
934.755	-192
934.850	-386
934.945	-176
935.039	-576
935.134	-320
935.228	-918
935.323	-679
935.417	-539
935.512	-397
935.606	-119
935.701	-1188
935.795	-1277
935.890	-597
935.984	-414
936.079	-250
936.173	-237
936.267	-554
936.362	-1293
936.456	-729
936.550	-422
936.644	-321
936.738	-798
936.833	-183
936.927	-142
937.021	-658
937.115	8
937.209	-861
937.303	-1190
937.397	-328
937.491	-661
937.585	326
937.679	-1362
937.773	-1000
937.867	-188
937.961	-957
938.055	-676
938.149	244
938.243	-832
938.337	-785
938.430	-73
938.524	-1155
938.618	-834
938.712	-845
938.805	-923
938.899	-766
938.993	-701
939.086	-367
939.180	-957
939.274	-972
939.367	-1088
939.461	-999
939.554	-648
939.648	-1177
939.741	-516
939.835	-8
939.928	-158
940.022	-74
940.115	-778
940.208	-787
940.302	183
940.395	-556
940.488	-169
940.582	-192
940.675	-941
940.768	-1113
940.861	-922
940.954	-123
941.048	-556
941.141	-1105
941.234	-1399
941.327	-1646
941.420	-425
941.513	-783
941.606	-864
941.699	-424
941.792	-589
941.885	-1045
941.978	-1239
942.071	-413
942.164	-896
942.257	-812
942.349	-773
942.442	-1087
942.535	-1596
942.628	-936
942.721	-275
942.813	-561
942.906	-1496
942.999	-793
943.091	-635
943.184	-1200
943.277	-598
943.369	-209
943.462	-136
943.554	-1203
943.647	-818
943.739	-166
943.832	-516
943.924	-1066
944.017	-349
944.109	-1081
944.201	-147
944.294	26
944.386	-1624
944.478	-884
944.571	-856
944.663	-1234
944.755	-1238
944.847	-804
944.940	-488
945.032	-947
945.124	-608
945.216	-433
945.308	-499
945.400	-725
945.492	-1104
945.584	-1240
945.676	-1089
945.768	-975
945.860	-123
945.952	-1143
946.044	-627
946.136	-616
946.228	-713
946.320	-832
946.412	-893
946.503	-212
946.595	-510
946.687	77
946.779	-706
946.870	-1169
946.962	-624
947.054	-320
947.145	-586
947.237	-316
947.329	-778
947.420	-816
947.512	-525
947.603	-1114
947.695	-858
947.786	-1452
947.878	-1513
947.969	-613
948.061	-466
948.152	-802
948.243	-874
948.335	-380
948.426	-1813
948.517	-1288
948.609	-332
948.700	-409
948.791	-1120
948.882	-948
948.973	-675
949.065	-543
949.156	-1011
949.247	-1545
949.338	-16
949.429	-1735
949.520	-497
949.611	-975
949.702	-894
949.793	48
949.884	-49
949.975	-1144
950.066	-816
950.157	-1284
950.247	-543
950.338	-1229
950.429	-1315
950.520	-509
950.611	-1012
950.701	-1089
950.792	-552
950.883	35
950.973	-1170
951.064	-760
951.155	-1385
951.245	-889
951.336	-933
951.427	-1477
951.517	-1274
951.608	-610
951.698	-885
951.788	-904
951.879	-892
951.969	-1229
952.060	-1108
952.150	-690
952.240	-1207
952.331	-1630
952.421	-661
952.511	-1165
952.602	-1305
952.692	-1459
952.782	-823
952.872	-924
952.962	-1195
953.052	-769
953.143	-1208
953.233	-612
953.323	-1029
953.413	-1465
953.503	-963
953.593	-1344
953.683	-852
953.773	-973
953.863	-1328
953.953	-425
954.042	-854
954.132	-951
954.222	-990
954.312	-651
954.402	-999
954.492	-1303
954.581	-1057
954.671	-631
954.761	-1968
954.850	220
954.940	-1350
955.030	-823
955.119	-1558
955.209	-496
955.298	-982
955.388	-536
955.477	-703
955.567	-1296
955.656	-1365
955.746	-725
955.835	-1136
955.925	-1956
956.014	-1211
956.103	-1220
956.193	-861
956.282	-746
956.371	-670
956.461	-998
956.550	-1694
956.639	-779
956.728	-2325
956.817	-962
956.906	-901
956.995	-828
957.085	-1064
957.174	-1711
957.263	-1975
957.352	-755
957.441	-1303
957.530	-839
957.619	-957
957.708	-1833
957.796	-660
957.885	-1294
957.974	-1786
958.063	-703
958.152	-2019
958.241	-1242
958.329	-1336
958.418	-606
958.507	-1718
958.596	-380
958.684	-1119
958.773	-95
958.861	-1026
958.950	-1034
959.039	-1024
959.127	55
959.216	-1561
959.304	-1386
959.393	-596
959.481	-483
959.570	-1414
959.658	-1127
959.746	-793
959.835	-1204
959.923	-1675
960.011	-1348
960.100	-1129
960.188	-455
960.276	-1281
960.365	-1840
960.453	-1896
960.541	-1399
960.629	-1007
960.717	-874
960.805	-1120
960.893	-894
960.981	-1843
961.069	-1022
961.158	-1091
961.245	-791
961.333	-1007
961.421	-1313
961.509	-540
961.597	-1010
961.685	-1244
961.773	-1145
961.861	-1272
961.949	-1378
962.036	-1101
962.124	-1287
962.212	-1521
962.299	-1400
962.387	-1195
962.475	-1167
962.562	-1709
962.650	-1209
962.738	-619
962.825	-1326
962.913	-1087
963.000	-991
963.088	-1031
963.175	-1295
963.263	-1167
963.350	-1063
963.438	-1101
963.525	-1138
963.612	-555
963.700	-1188
963.787	-1092
963.874	-1099
963.962	-1666
964.049	-794
964.136	-1155
964.223	-1432
964.310	-1054
964.398	-1063
964.485	-1407
964.572	-1609
964.659	-1964
964.746	-620
964.833	-1714
964.920	-1003
965.007	-1235
965.094	-719
965.181	-1560
965.268	-1251
965.355	-1700
965.441	-1644
965.528	-1778
965.615	-1656
965.702	-1736
965.789	-1003
965.875	-2088
965.962	-1417
966.049	-1700
966.136	-325
966.222	-934
966.309	-1205
966.395	-1549
966.482	-1332
966.569	-1385
966.655	-1452
966.742	-983
966.828	-1396
966.915	-1533
967.001	-1182
967.087	-2047
967.174	-1239
967.260	-1487
967.347	-1193
967.433	-1141
967.519	-1279
967.605	-2164
967.692	-1332
967.778	-1210
967.864	-828
967.950	-1387
968.036	-1780
968.123	-1791
968.209	-1464
968.295	-1968
968.381	-941
968.467	-876
968.553	-1966
968.639	-945
968.725	-1354
968.811	-1417
968.897	-1232
968.983	-1425
969.069	-2175
969.154	-1389
969.240	-1195
969.326	-1880
969.412	-1045
969.497	-1635
969.583	-902
969.669	-1487
969.755	-695
969.840	-2287
969.926	-1721
970.012	-1221
970.097	-1136
970.183	-1580
970.268	-1411
970.354	-1082
970.439	-1567
970.525	-1228
970.610	-1581
970.696	-1745
970.781	-1248
970.866	-1215
970.952	-1039
971.037	-2671
971.122	-1007
971.208	-1023
971.293	-1449
971.378	-2486
971.463	-1769
971.549	-1144
971.634	-1207
971.719	-1171
971.804	-1807
971.889	-776
971.974	-2112
972.059	-1887
972.144	-1261
972.229	-2072
972.314	-2274
972.399	-511
972.484	-2158
972.569	-1654
972.654	-2127
972.739	-724
972.824	-1593
972.908	-1591
972.993	-2161
973.078	-1592
973.163	-1247
973.247	-1403
973.332	-1805
973.417	-1575
973.501	-1646
973.586	-1692
973.671	-1772
973.755	-663
973.840	-1284
973.924	-1200
974.009	-2152
974.093	-2162
974.178	-834
974.262	-1684
974.346	-1523
974.431	-1612
974.515	-1737
974.600	-1950
974.684	-1776
974.768	-2318
974.852	-578
974.937	-1697
975.021	-961
975.105	-1642
975.189	-1812
975.273	-1596
975.358	-1328
975.442	-1479
975.526	-652
975.610	-1735
975.694	-2065
975.778	-1428
975.862	-1174
975.946	-3064
976.030	-9
976.114	-2696
976.198	-1036
976.281	-1618
976.365	-1920
976.449	-2227
976.533	-1219
976.617	-1685
976.700	-2021
976.784	-2123
976.868	-1640
976.951	-1446
977.035	-1998
977.119	-1697
977.202	-1473
977.286	-1859
977.369	-1195
977.453	-1849
977.536	-1993
977.620	-1972
977.703	-1438
977.787	-2273
977.870	-926
977.953	-1034
978.037	-1913
978.120	-1293
978.203	-1867
978.287	-2211
978.370	-1904
978.453	-943
978.536	-2627
978.620	-1254
978.703	-1880
978.786	-2501
978.869	-2524
978.952	-2447
979.035	-768
979.118	-969
979.201	-2255
979.284	-2150
979.367	-1887
979.450	-931
979.533	-1848
979.616	-2078
979.699	-1579
979.782	-600
979.865	-1703
979.948	-1643
980.030	-2048
980.113	-1520
980.196	-1834
980.279	-1388
980.361	-1705
980.444	-1788
980.526	-1258
980.609	-1700
980.692	-1585
980.774	-1519
980.857	-2534
980.939	-1585
981.022	-1853
981.104	-1862
981.187	-2597
981.269	-1416
981.352	-1161
981.434	-2449
981.516	-837
981.599	-1480
981.681	-1828
981.763	-1254
981.846	-1623
981.928	-2473
982.010	-1714
982.092	-1620
982.174	-1702
982.256	-1718
982.339	-1401
982.421	-2321
982.503	-1086
982.585	-2087
982.667	-1811
982.749	-1644
982.831	-1869
982.913	-2526
982.995	-1417
983.077	-2225
983.158	-990
983.240	-2126
983.322	-1702
983.404	-1309
983.486	-2334
983.568	-1237
983.649	-2132
983.731	-1413
983.813	-2473
983.894	-1699
983.976	-1806
984.058	-1544
984.139	-1936
984.221	-2431
984.302	-993
984.384	-2906
984.465	-2089
984.547	-1374
984.628	-2997
984.710	-1039
984.791	-2212
984.872	-1632
984.954	-1715
985.035	-1907
985.116	-2028
985.198	-919
985.279	-759
985.360	-1517
985.441	-1628
985.522	-2121
985.604	-1711
985.685	-2687
985.766	-1412
985.847	-1191
985.928	-2032
986.009	-861
986.090	-2080
986.171	-1854
986.252	-1459
986.333	-2411
986.414	-2248
986.495	-1026
986.576	-1313
986.656	-1491
986.737	-1971
986.818	-1979
986.899	-2473
986.980	-2962
987.060	-1541
987.141	-2067
987.222	-1412
987.302	-1696
987.383	-1833
987.464	-2245
987.544	-2260
987.625	-2522
987.705	-1478
987.786	-2445
987.866	-1926
987.947	-1412
988.027	-2695
988.108	-1825
988.188	-987
988.268	-1507
988.349	-1789
988.429	-1467
988.509	-1732
988.589	-2622
988.670	-2071
988.750	-687
988.830	-2009
988.910	-2502
988.990	-1753
989.070	-1733
989.151	-1345
989.231	-2323
989.311	-1633
989.391	-2035
989.471	-1146
989.551	-1433
989.631	-1589
989.711	-1372
989.791	-1187
989.870	-2421
989.950	-1322
990.030	-1790
990.110	-2421
990.190	-1986
990.269	-2172
990.349	-1529
990.429	-1687
990.509	-1077
990.588	-2624
990.668	-2241
990.747	-1829
990.827	-1808
990.907	-1868
990.986	-1810
991.066	-1789
991.145	-2226
991.225	-1846
991.304	-2044
991.383	-1605
991.463	-1638
991.542	-1431
991.622	-1480
991.701	-1613
991.780	-2041
991.859	-1717
991.939	-1050
992.018	-1399
992.097	-1746
992.176	-1946
992.256	-1841
992.335	-2142
992.414	-1328
992.493	-2073
992.572	-1842
992.651	-1060
992.730	-2149
992.809	-1786
992.888	-1980
992.967	-1165
993.046	-2231
993.125	-2546
993.203	-2160
993.282	-1808
993.361	-2473
993.440	-1444
993.519	-2134
993.597	-1874
993.676	-2099
993.755	-1573
993.834	-1949
993.912	-1891
993.991	-1218
994.069	-1343
994.148	-1864
994.226	-1837
994.305	-1242
994.384	-2785
994.462	-1226
994.540	-2467
994.619	-1946
994.697	-1421
994.776	-2181
994.854	-1561
994.932	-2197
995.011	-1226
995.089	-2035
995.167	-2311
995.245	-1760
995.324	-2696
995.402	-1165
995.480	-1764
995.558	-1863
995.636	-2443
995.714	-2069
995.792	-1741
995.870	-2303
995.948	-1882
996.026	-2115
996.104	-2152
996.182	-1787
996.260	-1612
996.338	-1155
996.416	-1506
996.494	-1654
996.572	-1680
996.649	-1808
996.727	-1940
996.805	-1996
996.883	-1591
996.960	-1714
997.038	-2024
997.116	-1240
997.193	-2613
997.271	-1771
997.348	-1863
997.426	-2263
997.504	-2263
997.581	-1484
997.658	-1460
997.736	-2320
997.813	-2042
997.891	-1553
997.968	-1970
998.046	-1709
998.123	-2516
998.200	-1402
998.277	-2234
998.355	-1076
998.432	-3373
998.509	-1242
998.586	-1550
998.663	-1626
998.741	-2321
998.818	-1593
998.895	-2390
998.972	-1653
999.049	-1670
999.126	-2294
999.203	-2543
999.280	-1863
999.357	-1896
999.434	-1589
999.511	-2737
999.587	-341
999.664	-2075
999.741	-1843
999.818	-1282
999.895	-2756
999.971	-2286
1000.048	-1908
1000.125	-1750
1000.202	-2668
1000.278	-1723
1000.355	-1899
1000.431	-2550
1000.508	-1831
1000.584	-1581
1000.661	-1578
1000.738	-2020
1000.814	-1582
1000.890	-2259
1000.967	-2065
1001.043	-2443
1001.120	-3228
1001.196	-2255
1001.272	-2607
1001.349	-1873
1001.425	-1320
1001.501	-982
1001.577	-1997
1001.654	-2162
1001.730	-2730
1001.806	-2775
1001.882	-3066
1001.958	-1688
1002.034	-2503
1002.110	-1333
1002.186	-2812
1002.262	-1919
1002.338	-2212
1002.414	-1470
1002.490	-1755
1002.566	-2330
1002.642	-2367
1002.718	-1252
1002.794	-2277
1002.870	-1441
1002.945	-2902
1003.021	-2304
1003.097	-1891
1003.173	-1532
1003.248	-2026
1003.324	-2061
1003.400	-2180
1003.475	-3049
1003.551	-2696
1003.626	-1171
1003.702	-1952
1003.777	-2378
1003.853	-1936
1003.928	-2313
1004.004	-1829
1004.079	-1835
1004.155	-1738
1004.230	-2541
1004.305	-1609
1004.381	-1810
1004.456	-1663
1004.531	-1549
1004.607	-1880
1004.682	-2438
1004.757	-3090
1004.832	-2841
1004.907	-2560
1004.982	-1519
1005.057	-1646
1005.133	-1552
1005.208	-2143
1005.283	-2224
1005.358	-1653
1005.433	-2203
1005.508	-2219
1005.583	-2370
1005.657	-2581
1005.732	-2304
1005.807	-1841
1005.882	-2473
1005.957	-2538
1006.032	-2091
1006.106	-2380
1006.181	-2501
1006.256	-1628
1006.331	-2784
1006.405	-2417
1006.480	-2112
1006.554	-1868
1006.629	-2336
1006.704	-2005
1006.778	-2161
1006.853	-1990
1006.927	-2055
1007.002	-2219
1007.076	-1913
1007.150	-1855
1007.225	-1188
1007.299	-1450
1007.373	-3208
1007.448	-1597
1007.522	-2003
1007.596	-1868
1007.671	-2709
1007.745	-1265
1007.819	-3034
1007.893	-2799
1007.967	-1919
1008.041	-3136
1008.115	-1645
1008.190	-2694
1008.264	-1616
1008.338	-2881
1008.412	-2400
1008.486	-1930
1008.560	-1791
1008.633	-1626
1008.707	-2598
1008.781	-2106
1008.855	-2486
1008.929	-2075
1009.003	-2412
1009.076	-2671
1009.150	-2650
1009.224	-1690
1009.298	-2049
1009.371	-2182
1009.445	-2061
1009.519	-2142
1009.592	-2507
1009.666	-1636
1009.739	-1559
1009.813	-2747
1009.886	-753
1009.960	-2712
1010.033	-2103
1010.107	-1690
1010.180	-2115
1010.253	-2742
1010.327	-2333
1010.400	-1783
1010.473	-2181
1010.547	-2025
1010.620	-2383
1010.693	-1729
1010.766	-1866
1010.840	-1876
1010.913	-2089
1010.986	-1788
1011.059	-2060
1011.132	-2601
1011.205	-2020
1011.278	-2309
1011.351	-2522
1011.424	-2232
1011.497	-2676
1011.570	-1687
1011.643	-3093
1011.716	-2227
1011.789	-2680
1011.862	-2441
1011.934	-1704
1012.007	-2540
1012.080	-2006
1012.153	-2792
1012.225	-1789
1012.298	-2700
1012.371	-3054
1012.443	-2031
1012.516	-2759
1012.588	-2218
1012.661	-1651
1012.733	-2312
1012.806	-1835
1012.879	-2443
1012.951	-2352
1013.023	-2364
1013.096	-1446
1013.168	-2257
1013.241	-1698
1013.313	-2425
1013.385	-1930
1013.458	-2206
1013.530	-1676
1013.602	-2258
1013.674	-2082
1013.746	-2812
1013.819	-2566
1013.891	-1828
1013.963	-2979
1014.035	-2318
1014.107	-1736
1014.179	-1970
1014.251	-2409
1014.323	-1651
1014.395	-1770
1014.467	-3006
1014.539	-2389
1014.611	-1981
1014.683	-2578
1014.754	-2275
1014.826	-2853
1014.898	-2193
1014.970	-2486
1015.042	-2752
1015.113	-1958
1015.185	-2258
1015.257	-2685
1015.328	-1872
1015.400	-2143
1015.471	-2504
1015.543	-2348
1015.615	-1942
1015.686	-2321
1015.757	-2733
1015.829	-2208
1015.901	-2171
1015.972	-1357
1016.043	-2037
1016.115	-2235
1016.186	-1233
1016.257	-2711
1016.328	-2104
1016.400	-1553
1016.471	-2541
1016.542	-2786
1016.613	-1841
1016.685	-2158
1016.756	-1760
1016.827	-2488
1016.898	-3024
1016.969	-1564
1017.040	-2373
1017.111	-2459
1017.182	-1519
1017.253	-2170
1017.324	-2419
1017.395	-3063
1017.466	-2162
1017.537	-2767
1017.608	-2637
1017.678	-1949
1017.749	-2186
1017.820	-2857
1017.891	-1609
1017.961	-2213
1018.032	-2324
1018.103	-1923
1018.173	-2430
1018.244	-2492
1018.315	-3004
1018.385	-2584
1018.456	-2220
1018.526	-2211
1018.597	-1791
1018.667	-1854
1018.738	-2763
1018.808	-2292
1018.878	-2144
1018.949	-1789
1019.019	-3240
1019.089	-2525
1019.160	-1586
1019.230	-2982
1019.300	-2377
1019.371	-2983
1019.441	-2570
1019.511	-2214
1019.581	-1885
1019.651	-2681
1019.721	-1761
1019.791	-1823
1019.861	-2275
1019.931	-2327
1020.001	-1770
1020.071	-2284
1020.141	-2271
1020.211	-2257
1020.281	-2354
1020.351	-2888
1020.421	-1892
1020.491	-1681
1020.560	-3604
1020.630	-2672
1020.700	-2237
1020.770	-2541
1020.839	-2900
1020.909	-2488
1020.979	-2104
1021.048	-2410
1021.118	-3414
1021.187	-2338
1021.257	-2631
1021.326	-1681
1021.396	-2258
1021.465	-1751
1021.535	-2797
1021.604	-3054
1021.674	-2390
1021.743	-2182
1021.812	-2054
1021.882	-3246
1021.951	-2839
1022.020	-2806
1022.089	-1726
1022.159	-2363
1022.228	-2486
1022.297	-3134
1022.366	-2900
1022.435	-2378
1022.504	-1901
1022.573	-2421
1022.642	-2278
1022.711	-1899
1022.781	-1541
1022.849	-2494
1022.918	-2554
1022.987	-2173
1023.056	-2664
1023.125	-2885
1023.194	-2329
1023.263	-2458
1023.331	-2348
1023.400	-1713
1023.469	-2403
1023.538	-2273
1023.606	-1746
1023.675	-1525
1023.744	-2488
1023.812	-2631
1023.881	-2665
1023.949	-2421
1024.018	-1953
1024.086	-2144
1024.155	-2660
1024.223	-1737
1024.292	-2560
1024.360	-2427
1024.429	-2505
1024.497	-2683
1024.565	-2910
1024.634	-2638
1024.702	-2618
1024.770	-2613
1024.838	-1605
1024.907	-2231
1024.975	-2475
1025.043	-2028
1025.111	-3247
1025.179	-1519
1025.247	-2523
1025.315	-2720
1025.383	-2148
1025.451	-1986
1025.519	-2618
1025.587	-2656
1025.655	-2345
1025.723	-1533
1025.791	-2198
1025.859	-2456
1025.927	-2164
1025.995	-2950
1026.062	-2147
1026.130	-2368
1026.198	-2551
1026.266	-2102
1026.333	-1769
1026.401	-1660
1026.469	-2838
1026.536	-1532
1026.604	-1890
1026.671	-2519
1026.739	-1979
1026.806	-2834
1026.874	-2185
1026.941	-1816
1027.009	-1884
1027.076	-2487
1027.144	-2573
1027.211	-3148
1027.278	-2814
1027.345	-1862
1027.413	-2381
1027.480	-2035
1027.547	-2207
1027.614	-2949
1027.682	-2305
1027.749	-2638
1027.816	-2435
1027.883	-2384
1027.950	-2138
1028.017	-2382
1028.084	-2188
1028.151	-2720
1028.218	-2771
1028.285	-2291
1028.352	-2454
1028.419	-2008
1028.486	-2294
1028.553	-1695
1028.619	-2313
1028.686	-2825
1028.753	-2501
1028.820	-2122
1028.886	-2619
1028.953	-1826
1029.020	-2275
1029.086	-2485
1029.153	-1792
1029.220	-2378
1029.286	-2302
1029.353	-1990
1029.419	-2894
1029.486	-2252
1029.552	-2326
1029.619	-2013
1029.685	-2305
1029.751	-2828
1029.818	-1226
1029.884	-2728
1029.951	-1891
1030.017	-2748
1030.083	-2561
1030.149	-2010
1030.216	-2724
1030.282	-2308
1030.348	-2462
1030.414	-2428
1030.480	-2243
1030.546	-2767
1030.612	-2086
1030.678	-2450
1030.744	-2233
1030.810	-2595
1030.876	-1402
1030.942	-1695
1031.008	-2540
1031.074	-2494
1031.140	-2765
1031.206	-1763
1031.272	-2219
1031.337	-2420
1031.403	-1211
1031.469	-2357
1031.534	-2775
1031.600	-2036
1031.666	-1704
1031.731	-2536
1031.797	-2348
1031.863	-2403
1031.928	-2237
1031.994	-2038
1032.059	-2044
1032.125	-2430
1032.190	-2552
1032.256	-2406
1032.321	-2686
1032.386	-2951
1032.452	-1955
1032.517	-2237
1032.582	-2236
1032.647	-2748
1032.713	-2805
1032.778	-2602
1032.843	-2398
1032.908	-2033
1032.974	-2181
1033.039	-2864
1033.104	-1983
1033.169	-2880
1033.234	-2400
1033.299	-1498
1033.364	-1935
1033.429	-2701
1033.494	-1661
1033.559	-2114
1033.624	-2570
1033.688	-2127
1033.753	-2876
1033.818	-1964
1033.883	-2097
1033.948	-2508
1034.013	-2135
1034.077	-1760
1034.142	-2510
1034.207	-2211
1034.271	-2414
1034.336	-2029
1034.400	-2351
1034.465	-3031
1034.530	-1960
1034.594	-2348
1034.658	-2364
1034.723	-2542
1034.787	-2275
1034.852	-2452
1034.916	-1535
1034.981	-2248
1035.045	-1735
1035.109	-1837
1035.173	-2314
1035.238	-2095
1035.302	-1726
1035.366	-2191
1035.430	-1707
1035.495	-2106
1035.559	-2756
1035.623	-2785
1035.687	-1992
1035.751	-2224
1035.815	-2288
1035.879	-2570
1035.943	-2347
1036.007	-2450
1036.071	-2481
1036.135	-3071
1036.198	-1893
1036.262	-2627
1036.326	-1717
1036.390	-2332
1036.454	-1603
1036.517	-2243
1036.581	-1730
1036.645	-3357
1036.709	-1851
1036.772	-2426
1036.836	-2588
1036.900	-2397
1036.963	-1735
1037.026	-1581
1037.090	-2354
1037.154	-2207
1037.217	-2311
1037.280	-2419
1037.344	-2943
1037.407	-2379
1037.471	-1753
1037.534	-2731
1037.597	-2019
1037.661	-2117
1037.724	-2448
1037.787	-2478
1037.850	-2172
1037.913	-2491
1037.977	-1728
1038.040	-2329
1038.103	-2112
1038.166	-2051
1038.229	-1397
1038.292	-2197
1038.355	-1843
1038.418	-2274
1038.481	-2221
1038.544	-2687
1038.607	-1562
1038.670	-2552
1038.732	-2498
1038.795	-2333
1038.858	-2166
1038.921	-1379
1038.984	-2268
1039.046	-2151
1039.109	-2187
1039.172	-2438
1039.234	-2259
1039.297	-2216
1039.360	-2128
1039.422	-2262
1039.485	-2449
1039.547	-2488
1039.610	-2120
1039.672	-1804
1039.734	-3304
1039.797	-2204
1039.859	-2920
1039.922	-2299
1039.984	-2570
1040.046	-1566
1040.109	-1683
1040.171	-2652
1040.233	-2470
1040.295	-1858
1040.358	-1993
1040.420	-2604
1040.482	-2270
1040.544	-2525
1040.606	-2654
1040.668	-2012
1040.730	-2706
1040.792	-2328
1040.854	-2435
1040.916	-2531
1040.978	-2710
1041.040	-1824
1041.102	-2376
1041.164	-1865
1041.225	-1902
1041.287	-1868
1041.349	-2342
1041.411	-1611
1041.472	-3020
1041.534	-2565
1041.596	-2466
1041.657	-2546
1041.719	-2259
1041.781	-1991
1041.842	-2058
1041.904	-1665
1041.965	-1930
1042.027	-2451
1042.088	-1973
1042.150	-1669
1042.211	-1465
1042.272	-2300
1042.334	-1788
1042.395	-2084
1042.456	-2171
1042.518	-1696
1042.579	-2752
1042.640	-2479
1042.701	-2581
1042.763	-2366
1042.824	-2802
1042.885	-2410
1042.946	-2555
1043.007	-2061
1043.068	-2304
1043.129	-2706
1043.190	-2304
1043.251	-1593
1043.312	-2125
1043.373	-1782
1043.434	-2098
1043.495	-1976
1043.556	-1494
1043.616	-1888
1043.677	-2391
1043.738	-1616
1043.799	-3091
1043.859	-2527
1043.920	-1406
1043.981	-2275
1044.041	-2667
1044.102	-2307
1044.162	-2117
1044.223	-2754
1044.284	-2713
1044.344	-2342
1044.405	-1996
1044.465	-1660
1044.525	-1759
1044.586	-2240
1044.646	-1587
1044.707	-2045
1044.767	-2613
1044.827	-1956
1044.887	-1746
1044.948	-1957
1045.008	-1707
1045.068	-1777
1045.128	-1843
1045.188	-1905
1045.249	-1842
1045.309	-1603
1045.369	-2294
1045.429	-1980
1045.489	-2092
1045.549	-1718
1045.609	-1962
1045.669	-1860
1045.729	-1942
1045.789	-1816
1045.848	-2377
1045.908	-1503
1045.968	-2509
1046.028	-2109
1046.088	-1925
1046.147	-1420
1046.207	-1639
1046.267	-2313
1046.326	-1525
1046.386	-1376
1046.446	-2668
1046.505	-1217
1046.565	-1561
1046.624	-891
1046.684	-843
1046.743	-223
1046.803	-1027
1046.862	-601
1046.922	0
