'Start Wavelength	183.907
'End Wavelength	1046.922
'Gate Delay	5.000
'Gate Width (ms)	1.050
'Laser Output Level	0.000
'X Position	0.000
'Y Position	0.000
'Z Position	0.000
'Grid Point Number	1.000
'Shot Number	100.000
183.907	549.000
183.977	270.000
184.047	7
184.116	191
184.186	289
184.256	-358
184.325	-809
184.395	-400
184.465	284
184.534	549
184.604	-289
184.674	-1
184.743	-94
184.813	-31
184.883	-7
184.952	354
185.022	325
185.092	191
185.161	-68
185.231	188
185.301	-28
185.370	76
185.440	13
185.509	-256
185.579	-70
185.649	322
185.718	203
185.788	-195
185.857	-566
185.927	-79
185.996	244
186.066	210
186.136	-181
186.205	-835
186.275	-393
186.344	-666
186.414	-76
186.483	220
186.553	-518
186.622	580
186.692	176
186.761	-255
186.831	197
186.900	-142
186.970	237
187.039	-360
187.109	190
187.178	355
187.248	701
187.317	225
187.387	-480
187.456	-174
187.526	571
187.595	268
187.664	-442
187.734	-103
187.803	191
187.873	169
187.942	-89
188.012	495
188.081	-558
188.150	542
188.220	-98
188.289	605
188.358	143
188.428	-46
188.497	-204
188.567	35
188.636	-632
188.705	180
188.775	-411
188.844	-847
188.913	-625
188.983	-17
189.052	40
189.121	236
189.191	-766
189.260	34
189.329	-481
189.399	-17
189.468	-234
189.537	426
189.606	175
189.676	-205
189.745	167
189.814	-129
189.883	13
189.953	-140
190.022	491
190.091	-396
190.161	486
190.230	-164
190.299	-420
190.368	55
190.437	-641
190.507	118
190.576	363
190.645	147
190.714	155
190.783	112
190.853	-225
190.922	55
190.991	-206
191.060	31
191.129	-118
191.198	389
191.268	-157
191.337	392
191.406	818
191.475	277
191.544	-742
191.613	-737
191.682	-498
191.752	-93
191.821	-54
191.890	467
191.959	23
192.028	-148
192.097	22
192.166	288
192.235	-623
192.304	411
192.373	172
192.442	-546
192.511	32
192.580	-308
192.650	-271
192.719	103
192.788	8
192.857	-320
192.926	-303
192.995	-50
193.064	234
193.133	473
193.202	-29
193.271	451
193.340	-321
193.409	19
193.478	-174
193.547	788
193.615	-137
193.684	195
193.753	217
193.822	-473
193.891	36
193.960	-5
194.029	347
194.098	364
194.167	-625
194.236	195
194.305	-98
194.374	485
194.443	-110
194.512	-146
194.580	18
194.649	-318
194.718	-619
194.787	971
194.856	-116
194.925	-34
194.994	297
195.062	-477
195.131	510
195.200	669
195.269	-145
195.338	-120
195.407	-571
195.475	222
195.544	-162
195.613	-54
195.682	-74
195.751	-116
195.819	360
195.888	684
195.957	717
196.026	-276
196.094	263
196.163	-954
196.232	439
196.301	139
196.369	248
196.438	677
196.507	536
196.576	-393
196.644	-296
196.713	614
196.782	46
196.850	744
196.919	944
196.988	-407
197.056	244
197.125	-315
197.194	282
197.262	492
197.331	4
197.400	360
197.468	-315
197.537	-304
197.606	287
197.674	265
197.743	331
197.812	402
197.880	272
197.949	512
198.017	295
198.086	479
198.155	-69
198.223	692
198.292	329
198.360	142
198.429	144
198.497	-67
198.566	164
198.635	197
198.703	-39
198.772	424
198.840	755
198.909	56
198.977	-69
199.046	-428
199.114	-59
199.183	276
199.251	-171
199.320	-191
199.388	-291
199.457	-341
199.525	251
199.594	-85
199.662	-47
199.731	-199
199.799	-374
199.867	639
199.936	84
200.004	358
200.073	434
200.141	-901
200.210	-106
200.278	18
200.346	184
200.415	277
200.483	651
200.552	247
200.620	-157
200.688	3
200.757	293
200.825	-758
200.893	-311
200.962	322
201.030	-484
201.098	-94
201.167	174
201.235	-16
201.303	-41
201.372	262
201.440	149
201.508	318
201.577	-35
201.645	-303
201.713	110
201.781	-64
201.850	-109
201.918	-485
201.986	99
202.055	143
202.123	-632
202.191	14
202.259	282
202.327	159
202.396	-210
202.464	241
202.532	222
202.600	535
202.669	-120
202.737	30
202.805	-239
202.873	538
202.941	95
203.009	67
203.078	-383
203.146	64
203.214	-108
203.282	9
203.350	-110
203.418	307
203.487	295
203.555	18
203.623	-121
203.691	385
203.759	-375
203.827	-253
203.895	142
203.963	255
204.031	-199
204.099	65
204.168	-333
204.236	54
204.304	224
204.372	790
204.440	291
204.508	36
204.576	-443
204.644	573
204.712	-173
204.780	-28
204.848	66
204.916	-3
204.984	494
205.052	120
205.120	224
205.188	64
205.256	-1005
205.324	130
205.392	-261
205.460	916
205.528	362
205.596	-37
205.664	-26
205.732	-525
205.799	447
205.867	775
205.935	-343
206.003	718
206.071	-213
206.139	136
206.207	-187
206.275	349
206.343	169
206.411	-382
206.478	-250
206.546	126
206.614	5
206.682	288
206.750	-583
206.818	252
206.885	-357
206.953	-269
207.021	304
207.089	878
207.157	-418
207.225	119
207.292	-28
207.360	-243
207.428	338
207.496	-449
207.563	-160
207.631	445
207.699	-713
207.767	192
207.834	-275
207.902	-275
207.970	321
208.038	209
208.105	-293
208.173	354
208.241	-499
208.309	753
208.376	97
208.444	236
208.512	20
208.579	-55
208.647	-73
208.715	583
208.782	26
208.850	-169
208.918	167
208.985	305
209.053	623
209.120	249
209.188	84
209.256	-520
209.323	-364
209.391	-552
209.459	827
209.526	-34
209.594	-86
209.661	335
209.729	302
209.796	318
209.864	157
209.932	-427
209.999	271
210.067	422
210.134	-451
210.202	301
210.269	731
210.337	388
210.404	478
210.472	-21
210.539	-64
210.607	162
210.674	581
210.742	55
210.809	-99
210.877	252
210.944	637
211.012	194
211.079	710
211.146	714
211.214	-510
211.281	238
211.349	118
211.416	407
211.484	1137
211.551	419
211.618	-18
211.686	-346
211.753	-283
211.821	977
211.888	-85
211.955	602
212.023	-50
212.090	554
212.157	-316
212.225	-17
212.292	615
212.359	1593
212.427	2640
212.494	1015
212.561	146
212.629	369
212.696	-26
212.763	856
212.831	-134
212.898	879
212.965	437
213.032	859
213.100	273
213.167	175
213.234	936
213.301	-423
213.369	-137
213.436	219
213.503	581
213.570	1333
213.638	500
213.705	179
213.772	-37
213.839	213
213.906	303
213.973	306
214.041	303
214.108	953
214.175	639
214.242	144
214.309	357
214.376	149
214.444	77
214.511	101
214.578	-342
214.645	704
214.712	179
214.779	424
214.846	130
214.913	915
214.980	860
215.048	982
215.115	753
215.182	346
215.249	828
215.316	509
215.383	846
215.450	427
215.517	168
215.584	72
215.651	161
215.718	695
215.785	672
215.852	-344
215.919	-75
215.986	736
216.053	437
216.120	-37
216.187	-360
216.254	-26
216.321	-82
216.388	596
216.455	526
216.522	508
216.589	510
216.656	746
216.722	940
216.789	476
216.856	1498
216.923	875
216.990	545
217.057	716
217.124	444
217.191	125
217.258	1798
217.324	1297
217.391	1714
217.458	1198
217.525	271
217.592	450
217.659	118
217.725	485
217.792	-255
217.859	1654
217.926	86
217.993	932
218.059	1218
218.126	344
218.193	246
218.260	646
218.327	748
218.393	913
218.460	-233
218.527	14
218.594	-7
218.660	248
218.727	1344
218.794	-55
218.860	11
218.927	-366
218.994	-334
219.061	142
219.127	620
219.194	796
219.261	153
219.327	-34
219.394	9
219.461	-335
219.527	612
219.594	466
219.661	184
219.727	-98
219.794	396
219.860	91
219.927	863
219.994	558
220.060	1796
220.127	1271
220.193	854
220.260	578
220.326	1935
220.393	1868
220.460	2563
220.526	1995
220.593	360
220.659	1650
220.726	2051
220.792	2330
220.859	2477
220.925	3932
220.992	4302
221.058	3623
221.125	3139
221.191	1106
221.258	1016
221.324	679
221.391	387
221.457	248
221.524	477
221.590	676
221.657	2094
221.723	1134
221.789	1642
221.856	754
221.922	351
221.989	708
222.055	522
222.121	-143
222.188	1150
222.254	1038
222.321	331
222.387	83
222.453	562
222.520	174
222.586	135
222.652	346
222.719	265
222.785	136
222.851	459
222.918	696
222.984	-274
223.050	-153
223.116	-88
223.183	701
223.249	540
223.315	4
223.382	219
223.448	100
223.514	-68
223.580	-4
223.647	-208
223.713	-104
223.779	426
223.845	413
223.911	60
223.978	-239
224.044	32
224.110	342
224.176	351
224.242	911
224.309	247
224.375	227
224.441	-112
224.507	870
224.573	204
224.639	257
224.705	-433
224.772	796
224.838	1054
224.904	686
224.970	-302
225.036	467
225.102	-436
225.168	198
225.234	1020
225.300	339
225.366	-160
225.432	415
225.499	-583
225.565	1216
225.631	298
225.697	51
225.763	245
225.829	734
225.895	997
225.961	1133
226.027	1471
226.093	509
226.159	1009
226.225	2106
226.291	4545
226.357	6643
226.423	2868
226.489	1227
226.554	1466
226.620	1946
226.686	1593
226.752	1665
226.818	5132
226.884	9311
226.950	6558
227.016	2836
227.082	2051
227.148	1514
227.214	933
227.279	1156
227.345	622
227.411	760
227.477	713
227.543	3604
227.609	2418
227.674	1259
227.740	686
227.806	386
227.872	-196
227.938	1104
228.003	903
228.069	470
228.135	528
228.201	257
228.267	-556
228.332	-60
228.398	-117
228.464	832
228.530	-312
228.595	690
228.661	-651
228.727	179
228.792	206
228.858	349
228.924	-377
228.990	1100
229.055	58
229.121	546
229.187	-174
229.252	56
229.318	-277
229.384	-68
229.449	481
229.515	-312
229.581	-1114
229.646	1358
229.712	328
229.777	710
229.843	1078
229.909	1690
229.974	1118
230.040	681
230.105	567
230.171	607
230.236	812
230.302	1110
230.368	1252
230.433	10
230.499	491
230.564	1237
230.630	124
230.695	-264
230.761	491
230.826	-192
230.892	1165
230.957	-261
231.023	594
231.088	633
231.154	434
231.219	304
231.284	200
231.350	394
231.415	-356
231.481	843
231.546	307
231.612	-91
231.677	-325
231.742	-25
231.808	489
231.873	-108
231.939	-1031
232.004	1529
232.069	1312
232.135	925
232.200	382
232.265	178
232.331	-73
232.396	200
232.461	-334
232.527	-706
232.592	317
232.657	846
232.723	153
232.788	-682
232.853	352
232.918	13
232.984	-631
233.049	-545
233.114	90
233.179	492
233.245	1424
233.310	77
233.375	-602
233.440	-84
233.506	-178
233.571	598
233.636	-21
233.701	484
233.766	142
233.832	96
233.897	-476
233.962	-361
234.027	1427
234.092	452
234.157	-209
234.222	189
234.288	816
234.353	2232
234.418	1165
234.483	1427
234.548	483
234.613	359
234.678	1267
234.743	497
234.808	1894
234.873	160
234.938	1025
235.004	532
235.069	559
235.134	320
235.199	1034
235.264	845
235.329	-486
235.394	393
235.459	285
235.524	1370
235.589	-24
235.654	1006
235.719	-102
235.784	731
235.849	590
235.913	521
235.978	1439
236.043	1338
236.108	1176
236.173	474
236.238	649
236.303	1075
236.368	232
236.433	1852
236.498	983
236.563	933
236.627	3430
236.692	12126
236.757	8404
236.822	4405
236.887	2488
236.952	1954
237.017	661
237.081	1993
237.146	2440
237.211	6681
237.276	11690
237.341	16039
237.405	7826
237.470	3164
237.535	1993
237.600	2043
237.664	2013
237.729	1055
237.794	1194
237.859	4061
237.923	1664
237.988	635
238.053	1520
238.118	751
238.182	2065
238.247	2027
238.312	1220
238.376	1552
238.441	182
238.506	1733
238.570	-228
238.635	1156
238.700	573
238.764	335
238.829	1895
238.893	802
238.958	1306
239.023	1239
239.087	1137
239.152	752
239.216	497
239.281	658
239.346	159
239.410	375
239.475	657
239.539	3447
239.604	694
239.668	1019
239.733	375
239.797	2063
239.862	5679
239.926	2689
239.991	908
240.055	438
240.120	854
240.184	1145
240.249	201
240.313	517
240.378	823
240.442	1580
240.507	1931
240.571	392
240.635	556
240.700	885
240.764	661
240.829	338
240.893	-223
240.957	1090
241.022	1213
241.086	1806
241.151	326
241.215	-1061
241.279	698
241.344	572
241.408	1291
241.472	813
241.537	787
241.601	541
241.665	287
241.730	243
241.794	642
241.858	377
241.922	430
241.987	1027
242.051	596
242.115	-294
242.179	777
242.244	110
242.308	1060
242.372	1061
242.436	937
242.501	543
242.565	-168
242.629	188
242.693	984
242.757	62
242.822	778
242.886	1131
242.950	1043
243.014	294
243.078	698
243.142	632
243.206	-37
243.271	1254
243.335	-69
243.399	1637
243.463	4763
243.527	10478
243.591	2810
243.655	1234
243.719	-192
243.783	1222
243.847	997
243.911	1705
243.975	1255
244.040	603
244.104	1997
244.168	744
244.232	392
244.296	843
244.360	817
244.424	-246
244.488	79
244.552	869
244.615	-191
244.679	1028
244.743	711
244.807	328
244.871	63
244.935	887
244.999	-13
245.063	87
245.127	920
245.191	1800
245.255	513
245.319	1301
245.383	-469
245.446	1458
245.510	-368
245.574	421
245.638	711
245.702	26
245.766	1311
245.829	1256
245.893	178
245.957	604
246.021	823
246.085	1333
246.149	516
246.212	2747
246.276	2987
246.340	958
246.404	451
246.467	836
246.531	777
246.595	1515
246.659	1478
246.722	41
246.786	1335
246.850	937
246.913	1573
246.977	-94
247.041	-149
247.104	368
247.168	1140
247.232	2577
247.295	5256
247.359	1711
247.423	1067
247.486	1273
247.550	1050
247.614	546
247.677	1134
247.741	638
247.804	772
247.868	1143
247.932	2507
247.995	4204
248.059	428
248.122	130
248.186	1680
248.249	2589
248.313	8402
248.376	7371
248.440	4570
248.503	753
248.567	2520
248.630	1504
248.694	2574
248.757	5083
248.821	8978
248.884	5333
248.948	4321
249.011	6797
249.075	10807
249.138	7754
249.202	2860
249.265	1291
249.328	2129
249.392	1250
249.455	1615
249.519	1733
249.582	900
249.645	3587
249.709	1096
249.772	1191
249.835	1599
249.899	1697
249.962	2223
250.025	980
250.089	4127
250.152	4411
250.215	1594
250.279	975
250.342	2066
250.405	1515
250.468	1040
250.532	537
250.595	3447
250.658	12802
250.721	16363
250.785	3696
250.848	2778
250.911	1564
250.974	1744
251.038	2290
251.101	4523
251.164	1953
251.227	2562
251.290	2677
251.354	4642
251.417	17261
251.480	13524
251.543	11040
251.606	30674
251.669	17444
251.732	7089
251.795	7609
251.859	8445
251.922	17849
251.985	7582
252.048	3576
252.111	2570
252.174	2277
252.237	6082
252.300	10929
252.363	11808
252.426	22506
252.489	6515
252.552	2815
252.615	2106
252.678	3718
252.741	9371
252.804	10869
252.867	23111
252.930	11512
252.993	5497
253.056	3882
253.119	2187
253.182	1459
253.245	2571
253.308	1834
253.371	1445
253.434	1747
253.497	3111
253.559	4325
253.622	2712
253.685	2907
253.748	2305
253.811	1502
253.874	1450
253.937	571
254.000	1380
254.062	3163
254.125	4868
254.188	4379
254.251	2357
254.314	505
254.376	2136
254.439	2375
254.502	2567
254.565	2734
254.628	5145
254.690	1839
254.753	304
254.816	1024
254.878	609
254.941	3642
255.004	2901
255.067	638
255.129	-94
255.192	418
255.255	-397
255.317	1260
255.380	-126
255.443	-75
255.505	-249
255.568	155
255.631	-136
255.693	425
255.756	-857
255.819	610
255.881	180
255.944	792
256.006	-732
256.069	300
256.132	-194
256.194	297
256.257	1582
256.319	1090
256.382	633
256.444	1633
256.507	796
256.569	485
256.632	1033
256.694	1906
256.757	8856
256.819	19670
256.882	4637
256.944	2743
257.007	1947
257.069	1732
257.132	766
257.194	1972
257.257	317
257.319	275
257.381	1304
257.444	7326
257.506	24910
257.569	20297
257.631	6240
257.693	4342
257.756	1902
257.818	2033
257.880	1054
257.943	1442
258.005	190
258.067	392
258.130	351
258.192	1421
258.254	1129
258.317	625
258.379	967
258.441	3101
258.503	2975
258.566	2317
258.628	2657
258.690	-257
258.753	654
258.815	1289
258.877	229
258.939	1113
259.001	576
259.064	108
259.126	443
259.188	819
259.250	1320
259.312	1032
259.375	2159
259.437	650
259.499	1035
259.561	89
259.623	483
259.685	260
259.747	224
259.809	1598
259.872	3284
259.934	6220
259.996	6140
260.058	1362
260.120	389
260.182	690
260.244	212
260.306	477
260.368	449
260.430	-285
260.492	1568
260.554	2495
260.616	810
260.678	4395
260.740	3092
260.802	632
260.864	1503
260.926	-90
260.988	867
261.050	861
261.112	2835
261.174	5629
261.236	2256
261.298	662
261.359	1230
261.421	2042
261.483	755
261.545	1230
261.607	-38
261.669	494
261.731	951
261.793	1839
261.854	35
261.916	1418
261.978	937
262.040	855
262.102	1533
262.164	436
262.225	792
262.287	548
262.349	1649
262.411	702
262.472	1345
262.534	364
262.596	1057
262.658	539
262.719	-251
262.781	1012
262.843	873
262.904	1114
262.966	1418
263.028	1105
263.090	6459
263.151	12325
263.213	3433
263.275	1919
263.336	132
263.398	986
263.459	395
263.521	-27
263.583	2413
263.644	759
263.706	3
263.767	-616
263.829	449
263.891	-97
263.952	-233
264.014	-56
264.075	901
264.137	2633
264.198	810
264.260	-219
264.321	-80
264.383	2410
264.444	4859
264.506	463
264.567	118
264.629	2974
264.690	3429
264.752	1281
264.813	632
264.875	339
264.936	775
264.998	52
265.059	72
265.120	-95
265.182	1710
265.243	11868
265.305	9051
265.366	1651
265.427	760
265.489	1190
265.550	-996
265.611	172
265.673	255
265.734	616
265.795	598
265.857	-9
265.918	270
265.979	3957
266.040	18294
266.102	10527
266.163	2278
266.224	1254
266.286	1392
266.347	-290
266.408	479
266.469	966
266.530	598
266.592	336
266.653	1460
266.714	1681
266.775	132
266.836	-297
266.898	-1141
266.959	62
267.020	205
267.081	814
267.142	-12
267.203	234
267.264	-542
267.326	705
267.387	-95
267.448	-1327
267.509	873
267.570	-572
267.631	-503
267.692	-684
267.753	-281
267.814	-770
267.875	822
267.936	2271
267.997	912
268.058	1505
268.119	-188
268.180	-341
268.241	-290
268.302	660
268.363	50
268.424	-371
268.485	126
268.546	-975
268.607	-494
268.668	-355
268.729	-885
268.790	279
268.851	780
268.912	1323
268.972	1138
269.033	29
269.094	-329
269.155	689
269.216	178
269.277	-400
269.338	-450
269.398	763
269.459	-3
269.520	935
269.581	887
269.642	832
269.702	-127
269.763	707
269.824	442
269.885	215
269.945	1003
270.006	-519
270.067	72
270.128	-301
270.188	-1003
270.249	-236
270.310	-503
270.370	135
270.431	12
270.492	-767
270.553	273
270.613	355
270.674	1767
270.734	129
270.795	359
270.856	809
270.916	6
270.977	51
271.038	482
271.098	-394
271.159	-168
271.219	-614
271.280	-76
271.340	279
271.401	-477
271.462	750
271.522	270
271.583	-480
271.643	-112
271.704	316
271.764	438
271.825	2350
271.885	9472
271.946	7867
272.006	2678
272.066	5394
272.127	6796
272.187	2328
272.248	1609
272.308	1308
272.369	6063
272.429	2444
272.489	1253
272.550	1348
272.610	1682
272.671	837
272.731	777
272.791	1994
272.852	97
272.912	371
272.972	114
273.033	22
273.093	-240
273.153	768
273.214	326
273.274	923
273.334	4768
273.394	6318
273.455	2279
273.515	2710
273.575	5309
273.635	1616
273.696	3529
273.756	6299
273.816	2321
273.876	979
273.936	1428
273.997	3506
274.057	533
274.117	542
274.177	2002
274.237	9504
274.297	5246
274.358	3429
274.418	6177
274.478	3326
274.538	1202
274.598	-125
274.658	2628
274.718	2190
274.778	1154
274.838	472
274.898	2037
274.958	4065
275.018	6923
275.078	3202
275.138	1065
275.198	438
275.258	409
275.318	825
275.378	980
275.438	906
275.498	1190
275.558	2901
275.618	5618
275.678	3781
275.738	2715
275.798	1526
275.858	523
275.918	244
275.978	68
276.038	846
276.098	747
276.157	1618
276.217	4623
276.277	1359
276.337	461
276.397	173
276.457	-190
276.517	831
276.576	323
276.636	-478
276.696	790
276.756	2195
276.815	665
276.875	-159
276.935	546
276.995	107
277.055	430
277.114	544
277.174	1096
277.234	3341
277.293	596
277.353	199
277.413	969
277.472	152
277.532	439
277.592	826
277.651	1891
277.711	3122
277.771	1073
277.830	5896
277.890	3854
277.950	4010
278.009	10299
278.069	3216
278.128	4045
278.188	4405
278.248	2147
278.307	4540
278.367	2129
278.426	1068
278.486	137
278.545	-75
278.605	396
278.664	293
278.724	4
278.783	3428
278.843	7264
278.902	1317
278.962	427
279.021	1221
279.081	999
279.140	951
279.199	196
279.259	1865
279.318	1667
279.378	2344
279.437	3893
279.496	13926
279.556	28467
279.615	15747
279.675	5270
279.734	3755
279.793	5809
279.853	9194
279.912	2302
279.971	1432
280.031	1111
280.090	4572
280.149	6461
280.208	4925
280.268	19795
280.327	14229
280.386	2604
280.445	3322
280.505	2485
280.564	1988
280.623	780
280.682	1904
280.742	2728
280.801	435
280.860	473
280.919	260
280.978	104
281.037	-54
281.097	-232
281.156	672
281.215	111
281.274	243
281.333	4945
281.392	1802
281.451	209
281.510	910
281.569	-243
281.628	-202
281.688	505
281.747	559
281.806	364
281.865	-254
281.924	-892
281.983	-413
282.042	-546
282.101	-347
282.160	-179
282.219	-90
282.278	547
282.337	1859
282.396	764
282.454	-618
282.513	531
282.572	3511
282.631	1305
282.690	323
282.749	-594
282.808	713
282.867	211
282.926	957
282.985	-355
283.043	-444
283.102	336
283.161	-47
283.220	1617
283.279	4145
283.338	612
283.396	7
283.455	284
283.514	532
283.573	344
283.631	538
283.690	50
283.749	191
283.808	578
283.866	1281
283.925	477
283.984	176
284.043	477
284.101	-32
284.160	142
284.219	57
284.277	440
284.336	1211
284.395	5479
284.453	3552
284.512	1447
284.570	1641
284.629	989
284.688	414
284.746	1623
284.805	1070
284.863	1975
284.922	2144
284.981	2916
285.039	4525
285.098	10174
285.156	25407
285.215	55628
285.273	48818
285.332	23850
285.390	11099
285.449	6328
285.507	4684
285.566	2930
285.624	3127
285.683	1804
285.741	1480
285.799	52
285.858	580
285.916	383
285.975	1061
286.033	142
286.091	187
286.150	-205
286.208	-79
286.267	46
286.325	398
286.383	480
286.442	-123
286.500	387
286.558	-568
286.616	-281
286.675	479
286.733	244
286.791	-216
286.850	211
286.908	977
286.966	1116
287.024	310
287.083	-267
287.141	618
287.199	129
287.257	657
287.315	590
287.374	506
287.432	1454
287.490	897
287.548	703
287.606	-71
287.664	-7
287.723	887
287.781	1277
287.839	24
287.897	154
287.955	84
288.013	2300
288.071	6105
288.129	24214
288.187	52011
288.245	18880
288.303	6487
288.361	3484
288.419	1442
288.477	1429
288.535	1478
288.593	518
288.651	781
288.709	-713
288.767	249
288.825	-627
288.883	-461
288.941	-156
288.999	-660
289.057	-208
289.115	-469
289.173	-613
289.231	245
289.289	-54
289.346	-439
289.404	-138
289.462	571
289.520	965
289.578	-595
289.636	-669
289.694	-382
289.751	-408
289.809	-594
289.867	-544
289.925	826
289.983	-225
290.040	727
290.098	188
290.156	474
290.214	-109
290.271	-123
290.329	221
290.387	-405
290.444	-127
290.502	-337
290.560	15
290.617	-756
290.675	-823
290.733	-341
290.790	-250
290.848	39
290.906	76
290.963	-89
291.021	-603
291.078	-23
291.136	-546
291.194	2286
291.251	4175
291.309	287
291.366	292
291.424	339
291.481	-256
291.539	-511
291.596	-73
291.654	-532
291.711	244
291.769	-4
291.826	606
291.884	373
291.941	78
291.999	-828
292.056	-650
292.114	-234
292.171	-671
292.228	75
292.286	10
292.343	331
292.401	89
292.458	573
292.515	-496
292.573	473
292.630	60
292.687	354
292.745	387
292.802	591
292.859	2296
292.917	4968
292.974	2023
293.031	-519
293.089	224
293.146	-97
293.203	-86
293.260	-218
293.318	-201
293.375	1396
293.432	-207
293.489	297
293.546	68
293.604	382
293.661	3812
293.718	7903
293.775	3301
293.832	1590
293.889	813
293.947	662
294.004	206
294.061	297
294.118	2154
294.175	5195
294.232	6340
294.289	2511
294.346	172
294.403	1602
294.460	-69
294.517	-50
294.574	134
294.631	214
294.688	327
294.745	3442
294.802	12072
294.859	11059
294.916	2893
294.973	937
295.030	33
295.087	144
295.144	404
295.201	-49
295.258	-262
295.315	676
295.372	3860
295.429	7001
295.486	2451
295.542	1409
295.599	6303
295.656	8818
295.713	6206
295.770	6276
295.827	2242
295.883	1645
295.940	635
295.997	1506
296.054	1652
296.111	894
296.167	763
296.224	-121
296.281	-108
296.338	169
296.394	567
296.451	98
296.508	3272
296.564	5160
296.621	3521
296.678	9023
296.734	10447
296.791	4097
296.848	1928
296.904	2389
296.961	4795
297.018	8105
297.074	4776
297.131	2133
297.187	1333
297.244	2492
297.301	8961
297.357	13557
297.414	4843
297.470	1977
297.527	1284
297.583	784
297.640	416
297.696	-66
297.753	257
297.809	-259
297.866	561
297.922	493
297.979	-77
298.035	-226
298.092	1211
298.148	4040
298.204	3846
298.261	2271
298.317	4233
298.374	9640
298.430	5058
298.486	1866
298.543	-40
298.599	910
298.656	1411
298.712	2122
298.768	5579
298.824	3041
298.881	709
298.937	488
298.993	701
299.050	741
299.106	55
299.162	668
299.218	692
299.275	889
299.331	346
299.387	2883
299.443	9640
299.500	9996
299.556	3613
299.612	1650
299.668	1215
299.724	2727
299.780	3614
299.837	970
299.893	2825
299.949	8222
300.005	9243
300.061	7458
300.117	12515
300.173	5323
300.229	2406
300.285	2494
300.341	2937
300.397	273
300.453	323
300.510	396
300.566	1196
300.622	1621
300.678	8101
300.734	11006
300.790	7942
300.845	9198
300.901	6581
300.957	7772
301.013	5458
301.069	1615
301.125	1144
301.181	844
301.237	-165
301.293	-1193
301.349	275
301.405	-24
301.461	-182
301.516	761
301.572	-120
301.628	807
301.684	811
301.740	2911
301.796	4001
301.851	2758
301.907	4805
301.963	5970
302.019	10547
302.074	26387
302.130	23963
302.186	9556
302.242	3848
302.297	2204
302.353	2694
302.409	4648
302.464	4160
302.520	3859
302.576	8517
302.631	9749
302.687	4665
302.743	1736
302.798	1466
302.854	1369
302.910	1178
302.965	1097
303.021	1844
303.076	2605
303.132	1810
303.187	2681
303.243	1117
303.299	478
303.354	741
303.410	683
303.465	247
303.521	-67
303.576	792
303.632	1106
303.687	2732
303.743	8007
303.798	5841
303.853	2045
303.909	1112
303.964	707
304.020	1491
304.075	2586
304.130	1944
304.186	3839
304.241	4243
304.297	3105
304.352	1429
304.358	1375
304.407	939
304.449	986
304.463	1000
304.518	1052
304.539	825
304.573	465
304.629	1841
304.630	1829
304.684	1436
304.720	4382
304.739	5849
304.794	9409
304.811	8024
304.850	4545
304.902	1838
304.905	1677
304.960	818
304.992	861
305.015	868
305.071	772
305.083	710
305.126	510
305.173	165
305.181	101
305.236	-51
305.264	127
305.292	365
305.347	1286
305.354	1226
305.402	812
305.445	939
305.457	960
305.512	1760
305.535	1435
305.567	1070
305.622	1613
305.626	1702
305.678	3932
305.716	7863
305.733	9178
305.788	10064
305.807	8751
305.843	6578
305.897	9127
305.898	9152
305.953	8787
305.988	6168
306.008	4755
306.063	2436
306.078	2165
306.118	1738
306.168	1155
306.173	1106
306.228	1004
306.259	1077
306.283	1172
306.338	926
306.349	901
306.393	998
306.440	1302
306.448	1290
306.503	1508
306.530	1474
306.558	1975
306.613	3483
306.620	3828
306.668	6576
306.711	9203
306.723	9323
306.778	7783
306.801	5949
306.833	3788
306.888	1872
306.892	1792
306.943	1575
306.982	1444
306.997	1451
307.052	1437
307.072	1573
307.107	1992
307.162	2180
307.163	2180
307.217	2499
307.253	2703
307.272	2788
307.327	3240
307.343	3212
307.381	3012
307.434	1961
307.436	2012
307.491	5556
307.524	7706
307.546	8191
307.600	8927
307.614	8214
307.655	5276
307.704	2719
307.710	2661
307.765	3366
307.795	3806
307.819	4500
307.874	7058
307.885	7264
307.929	6659
307.975	6034
307.984	6547
308.038	11695
308.065	14985
308.093	24989
308.148	49699
308.156	54551
308.202	79693
308.246	94480
308.257	90861
308.312	52529
308.336	37409
308.366	28143
308.421	16146
308.426	15062
308.475	10153
308.517	6866
308.530	6403
308.585	5818
308.607	5373
308.639	5173
308.694	5148
308.697	5179
308.748	7425
308.787	9397
308.803	9311
308.857	7732
308.877	7128
308.912	7254
308.967	8152
308.967	8149
309.021	11435
309.058	14377
309.076	18724
309.130	34348
309.148	40108
309.185	67509
309.238	113471
309.239	113928
309.293	122392
309.328	116120
309.348	100868
309.402	53940
309.418	41920
309.457	29950
309.508	16769
309.511	16486
309.566	13266
309.598	11458
309.620	11726
309.674	13081
309.688	13439
309.729	12695
309.778	11081
309.783	10903
309.837	8287
309.868	7235
309.892	8892
309.946	13400
309.959	14584
310.001	19149
310.049	23573
310.055	22738
310.109	13527
310.139	8452
310.163	6961
310.218	4216
310.229	3720
310.272	3634
310.319	3710
310.326	3586
310.381	2399
310.409	1938
310.435	2153
310.489	2606
310.499	2663
310.543	2711
310.589	2791
310.598	2852
310.652	3068
310.679	3127
310.706	2780
310.760	2335
310.769	2212
310.814	2192
310.859	2352
310.868	2404
310.923	2595
310.948	2626
310.977	2554
311.031	2524
311.038	2507
311.085	2313
311.128	2003
311.139	2095
311.193	2669
311.218	2889
311.247	2793
311.301	2526
311.308	2503
311.356	2801
311.398	2955
311.410	2924
311.464	2721
311.488	2634
311.518	2306
311.572	1734
311.578	1655
311.626	2705
311.668	3693
311.680	3647
311.734	3327
311.758	3166
311.788	3151
311.842	3147
311.847	3134
311.896	3865
311.937	4506
311.950	4631
312.004	5098
312.027	5288
312.058	4436
312.112	2876
312.117	2714
312.165	2923
312.207	3092
312.297	4110
312.386	3689
312.476	2938
312.566	5545
312.656	2808
312.745	3364
312.835	3278
312.925	3775
313.015	3477
313.104	3284
313.194	2962
313.284	2978
313.374	3686
313.463	3426
313.553	2816
313.643	2507
313.732	2833
313.822	3276
313.912	3710
314.001	4106
314.091	3787
314.180	5110
314.270	4383
314.360	4227
314.449	4169
314.539	3016
314.628	3660
314.718	3315
314.808	4002
314.897	3194
314.987	3296
315.076	3519
315.166	3640
315.255	3446
315.345	3829
315.434	4299
315.524	3687
315.613	3396
315.703	4170
315.792	7141
315.881	14024
315.971	6818
316.060	6204
316.150	6255
316.239	6182
316.328	3381
316.418	2622
316.507	3156
316.597	4222
316.686	3733
316.775	4139
316.865	6333
316.954	3730
317.043	2648
317.133	3023
317.222	2411
317.311	3011
317.400	2220
317.490	3856
317.579	3738
317.668	3136
317.757	4535
317.847	8447
317.936	24119
318.025	12552
318.114	7932
318.203	4965
318.293	6338
318.382	12780
318.471	11307
318.560	14648
318.649	29196
318.738	7590
318.828	4652
318.917	3824
319.006	5910
319.095	9363
319.184	33166
319.273	18062
319.362	8392
319.451	3206
319.540	3554
319.629	5835
319.718	8754
319.807	5474
319.896	11624
319.985	40948
320.074	15034
320.163	4511
320.252	5035
320.341	5371
320.430	6161
320.519	5911
320.608	3557
320.697	4310
320.786	4027
320.875	4605
320.964	5289
321.053	6590
321.142	9145
321.230	9467
321.319	8628
321.408	16993
321.497	9175
321.586	7930
321.675	8499
321.764	9079
321.852	6928
321.941	9651
322.030	8027
322.119	8308
322.207	15594
322.296	11824
322.385	8249
322.474	8935
322.562	19619
322.651	11428
322.740	8495
322.829	10067
322.917	9056
323.006	6674
323.095	6307
323.183	4907
323.272	7375
323.361	10095
323.449	24197
323.538	10987
323.626	17363
323.715	11223
323.804	6311
323.892	14965
323.981	10373
324.069	4481
324.158	8286
324.246	8054
324.335	4220
324.424	6102
324.512	3722
324.601	4698
324.689	7727
324.778	15509
324.866	7245
324.954	3698
325.043	3511
325.131	4102
325.220	6916
325.308	7215
325.397	5721
325.485	4077
325.574	2429
325.662	2645
325.750	2891
325.839	2373
325.927	2045
326.015	2283
326.104	3136
326.192	4752
326.280	2320
326.369	2573
326.457	3861
326.545	5731
326.634	2848
326.722	2732
326.810	2672
326.898	2952
326.987	3201
327.075	4608
327.163	5687
327.251	3519
327.340	6268
327.428	9884
327.516	3489
327.604	2733
327.692	3625
327.781	2567
327.869	3753
327.957	2469
328.045	2632
328.133	2550
328.221	2914
328.309	2816
328.397	2278
328.485	3440
328.574	4044
328.662	10832
328.750	7286
328.838	3079
328.926	2254
329.014	2497
329.102	4486
329.190	7617
329.278	5559
329.366	2990
329.454	2439
329.542	2718
329.630	1936
329.718	2523
329.806	3707
329.893	3425
329.981	6230
330.069	10936
330.157	38028
330.245	104259
330.333	63593
330.421	13137
330.509	7587
330.597	13291
330.684	9869
330.772	4230
330.860	6455
330.948	7788
331.036	4350
331.123	2888
331.211	2593
331.299	2699
331.387	5697
331.475	11186
331.562	3465
331.650	1617
331.738	2894
331.825	2412
331.913	2882
332.001	2032
332.089	3258
332.176	4464
332.264	8218
332.352	6808
332.439	2791
332.527	3227
332.614	2611
332.702	3316
332.790	2179
332.877	4950
332.965	7043
333.052	3300
333.140	2374
333.228	5906
333.315	2792
333.403	1916
333.490	5739
333.578	4091
333.665	6511
333.753	4276
333.840	3398
333.928	3731
334.015	6655
334.103	14355
334.190	40007
334.278	13561
334.365	7244
334.452	6198
334.540	5222
334.627	5452
334.715	7161
334.802	11142
334.889	32142
334.977	34176
335.064	9969
335.151	5582
335.239	5923
335.326	7351
335.413	21898
335.501	31684
335.588	6908
335.675	4634
335.762	5856
335.850	11325
335.937	10166
336.024	18202
336.111	42641
336.199	24387
336.286	9646
336.373	5284
336.460	3984
336.547	4397
336.635	3740
336.722	3883
336.809	3249
336.896	4784
336.983	12562
337.070	31533
337.157	44458
337.245	22367
337.332	14541
337.419	3476
337.506	3798
337.593	3317
337.680	11919
337.767	31946
337.854	10617
337.941	9429
338.028	7649
338.115	3864
338.202	5101
338.289	7150
338.376	17126
338.463	7452
338.550	17369
338.637	21664
338.724	5317
338.811	5491
338.898	3416
338.984	2651
339.071	2997
339.158	3196
339.245	6903
339.332	4763
339.419	4674
339.506	4615
339.593	2264
339.679	2375
339.766	2459
339.853	3085
339.940	4940
340.027	3114
340.113	3205
340.200	2778
340.287	3233
340.374	2610
340.460	5436
340.547	2417
340.634	3734
340.720	11277
340.807	8049
340.894	2335
340.980	2261
341.067	1773
341.154	2801
341.240	3883
341.327	6357
341.414	3635
341.500	3722
341.587	2286
341.674	2355
341.760	4326
341.847	5982
341.933	2440
342.020	1459
342.106	1493
342.193	2322
342.279	4222
342.366	3107
342.452	4765
342.539	3805
342.625	5898
342.712	13167
342.798	6014
342.885	3609
342.971	1945
343.058	2039
343.144	2257
343.230	1965
343.317	2155
343.403	1720
343.490	1878
343.576	1545
343.662	1851
343.749	2247
343.835	3074
343.921	6410
344.008	27948
344.094	65025
344.180	16226
344.267	6131
344.353	17694
344.439	19054
344.525	7826
344.612	8293
344.698	10662
344.784	6120
344.870	2595
344.957	2490
345.043	3045
345.129	2081
345.215	4543
345.301	3368
345.387	2320
345.474	2169
345.560	1412
345.646	1420
345.732	2426
345.818	2218
345.904	2040
345.990	2244
346.076	2841
346.162	3034
346.249	2238
346.335	2149
346.421	2798
346.507	8018
346.593	25353
346.679	7765
346.765	2753
346.851	2935
346.937	2532
347.023	2969
347.108	1882
347.194	2414
347.280	2432
347.366	3219
347.452	10013
347.538	32053
347.624	23764
347.710	19107
347.796	3875
347.882	2937
347.967	2074
348.053	4155
348.139	2293
348.225	1711
348.311	1961
348.397	2495
348.482	2647
348.568	2944
348.654	2784
348.740	4503
348.825	5192
348.911	6069
348.997	14132
349.083	28619
349.168	5600
349.254	3276
349.340	2606
349.425	1828
349.511	2704
349.597	3541
349.682	5315
349.768	18214
349.854	10322
349.939	3189
350.025	2359
350.110	3144
350.196	1677
350.282	1693
350.367	1871
350.453	2884
350.538	2550
350.624	2433
350.709	2557
350.795	1690
350.880	1824
350.966	2350
351.051	2792
351.137	2203
351.222	2374
351.308	5335
351.393	14621
351.479	5362
351.564	1960
351.649	2165
351.735	1472
351.820	1687
351.906	2398
351.991	2457
352.076	8523
352.162	14627
352.247	3962
352.332	2952
352.418	3804
352.503	6275
352.588	20704
352.673	16967
352.759	3510
352.844	1660
352.929	2381
353.014	3380
353.100	2411
353.185	3192
353.270	4505
353.355	4471
353.441	2138
353.526	1757
353.611	4003
353.696	5044
353.781	3594
353.866	1816
353.952	2319
354.037	4270
354.122	8752
354.207	7662
354.292	2832
354.377	2294
354.462	2045
354.547	2006
354.632	2294
354.717	3307
354.802	4135
354.887	1941
354.972	1214
355.057	2000
355.142	1536
355.227	3141
355.312	3007
355.397	6215
355.482	12399
355.567	7661
355.652	5608
355.737	6476
355.822	20658
355.907	17731
355.991	3047
356.076	1914
356.161	2247
356.246	2059
356.331	2570
356.416	5245
356.501	32141
356.585	34315
356.670	6158
356.755	3594
356.840	4180
356.924	20836
357.009	71204
357.094	29594
357.179	6390
357.263	4382
357.348	4199
357.433	4579
357.517	4326
357.602	3570
357.687	3286
357.771	5936
357.856	18290
357.941	11989
358.025	17815
358.110	73273
358.195	37123
358.279	6683
358.364	4269
358.448	12928
358.533	34932
358.617	25860
358.702	26586
358.787	10753
358.871	5791
358.956	5177
359.040	2003
359.125	1863
359.209	2862
359.294	8438
359.378	15731
359.462	6176
359.547	2848
359.631	2305
359.716	1175
359.800	2168
359.885	2806
359.969	2286
360.053	3093
360.138	2273
360.222	2543
360.306	4622
360.391	4542
360.475	8636
360.559	18591
360.644	11778
360.728	8310
360.812	18004
360.896	47815
360.981	19575
361.065	10330
361.149	3676
361.233	2517
361.318	2305
361.402	3493
361.486	3241
361.570	1694
361.654	3159
361.739	6904
361.823	31054
361.907	49142
361.991	10710
362.075	6102
362.159	10602
362.243	10884
362.327	16490
362.411	19926
362.495	10591
362.580	5025
362.664	3856
362.748	5568
362.832	7772
362.916	13375
363.000	39250
363.084	70253
363.168	68618
363.252	18524
363.336	7937
363.420	8992
363.503	30447
363.587	38612
363.671	7793
363.755	5182
363.839	7425
363.923	4633
364.007	7583
364.091	10065
364.175	16569
364.258	61465
364.342	64238
364.426	79106
364.510	42147
364.594	17460
364.677	15344
364.761	44022
364.845	33519
364.929	10776
365.013	8092
365.096	6549
365.180	7811
365.264	13627
365.347	50044
365.431	22626
365.515	5916
365.598	2758
365.682	3750
365.766	5553
365.849	6812
365.933	2699
366.017	4815
366.100	3617
366.184	1406
366.267	2946
366.351	2093
366.435	1409
366.518	1745
366.602	1608
366.685	1806
366.769	1819
366.852	4943
366.936	6773
367.019	4096
367.103	3226
367.186	8192
367.270	3458
367.353	670
367.436	2535
367.520	2661
367.603	2514
367.687	3075
367.770	5028
367.853	4271
367.937	12444
368.020	23862
368.104	5672
368.187	4251
368.270	6172
368.353	5892
368.437	5722
368.520	11880
368.603	9021
368.687	14416
368.770	27744
368.853	7042
368.936	5930
369.020	7236
369.103	2293
369.186	2283
369.269	1978
369.352	4118
369.436	4937
369.519	4133
369.602	1048
369.685	3132
369.768	3146
369.851	2199
369.934	1060
370.018	2510
370.101	4017
370.184	4583
370.267	3844
370.350	5591
370.433	8616
370.516	23695
370.599	29991
370.682	9282
370.765	15575
370.848	18591
370.931	34402
371.014	15604
371.097	2949
371.180	3004
371.263	1551
371.346	1546
371.429	2483
371.511	1576
371.594	3336
371.677	6358
371.760	8789
371.843	7071
371.926	29651
372.009	69468
372.091	24415
372.174	14363
372.257	33878
372.340	15282
372.423	9479
372.505	12685
372.588	5865
372.671	9861
372.754	33229
372.836	18302
372.919	15583
373.002	30889
373.085	9618
373.167	5904
373.250	13936
373.332	34012
373.415	42865
373.498	86198
373.580	34164
373.663	43400
373.746	61046
373.828	15214
373.911	6275
373.993	7613
374.076	28117
374.159	27160
374.241	10447
374.324	27984
374.406	19344
374.489	25581
374.571	76405
374.654	33786
374.736	15201
374.819	45661
374.901	61699
374.983	64198
375.066	13360
375.148	6821
375.231	22184
375.313	45405
375.395	17375
375.478	4596
375.560	3511
375.643	4769
375.725	12552
375.807	53126
375.890	40716
375.972	12954
376.054	8757
376.136	10436
376.219	5579
376.301	16089
376.383	46836
376.465	18721
376.548	9485
376.630	12645
376.712	39850
376.794	19210
376.877	3102
376.959	2403
377.041	2765
377.123	6342
377.205	7873
377.287	1693
377.369	1787
377.452	1121
377.534	2193
377.616	1818
377.698	1520
377.780	1507
377.862	1726
377.944	1971
378.026	1086
378.108	2427
378.190	1511
378.272	2087
378.354	1265
378.436	2040
378.518	3274
378.600	12392
378.682	9930
378.764	19934
378.846	16324
378.928	4389
379.010	6493
379.091	3749
379.173	1894
379.255	1983
379.337	3025
379.419	8460
379.501	28768
379.583	13337
379.664	3799
379.746	6720
379.828	19568
379.910	26500
379.991	24099
380.073	4616
380.155	2929
380.237	2090
380.318	1614
380.400	2202
380.482	3535
380.564	5423
380.645	5271
380.727	5280
380.809	3474
380.890	3400
380.972	2660
381.053	2119
381.135	2525
381.217	6629
381.298	21318
381.380	10883
381.461	8638
381.543	36943
381.624	47220
381.706	10212
381.787	5510
381.869	6185
381.951	16184
382.032	65558
382.113	42413
382.195	8742
382.276	6572
382.358	12636
382.439	38078
382.521	41596
382.602	64166
382.684	28304
382.765	47241
382.846	46176
382.928	46936
383.009	27440
383.090	20024
383.172	71073
383.253	103014
383.334	43284
383.416	54182
383.497	28493
383.578	11666
383.659	19782
383.741	64853
383.822	159195
383.903	83875
383.984	36149
384.066	64797
384.147	42234
384.228	9955
384.309	6679
384.390	5239
384.471	4505
384.553	4680
384.634	5915
384.715	5575
384.796	3892
384.877	5423
384.958	17734
385.039	22313
385.120	8863
385.201	4070
385.282	4588
385.363	5291
385.444	4785
385.525	7935
385.606	30262
385.687	28048
385.768	8379
385.849	8153
385.930	32904
386.011	59767
386.092	18083
386.173	5254
386.254	3427
386.335	4700
386.416	4199
386.496	11935
386.577	22011
386.658	8341
386.739	4718
386.820	6076
386.901	5001
386.981	4969
387.062	3948
387.143	5099
387.224	19780
387.304	21072
387.385	7972
387.466	5738
387.547	7413
387.627	5316
387.708	9597
387.789	36537
387.869	47475
387.950	15097
388.031	4335
388.111	2986
388.192	8472
388.273	11221
388.353	7090
388.434	4513
388.514	8202
388.595	34446
388.676	46611
388.756	21462
388.837	17849
388.917	11577
388.998	2798
389.078	3597
389.159	2714
389.239	2319
389.320	4754
389.400	2923
389.480	8748
389.561	23683
389.641	14198
389.722	4297
389.802	5187
389.883	9512
389.963	28080
390.043	17681
390.124	5607
390.204	7932
390.284	21652
390.365	15609
390.445	18929
390.525	41307
390.605	36090
390.686	13699
390.766	6289
390.846	3513
390.927	2908
391.007	2588
391.087	3398
391.167	3164
391.247	2422
391.328	4522
391.408	7106
391.488	5754
391.568	2263
391.648	3651
391.728	5178
391.808	4635
391.888	4980
391.969	12623
392.049	21842
392.129	11845
392.209	11506
392.289	28036
392.369	17666
392.449	15075
392.529	10355
392.609	7766
392.689	9700
392.769	27806
392.849	25780
392.929	18739
393.009	42485
393.089	37091
393.169	37857
393.248	108867
393.328	345592
393.408	369492
393.488	125273
393.568	38847
393.648	20416
393.728	12912
393.807	9540
393.887	9526
393.967	8074
394.047	9285
394.127	11148
394.206	18108
394.286	58228
394.366	212557
394.446	240668
394.525	75350
394.605	21779
394.685	13758
394.764	22046
394.844	34378
394.924	27643
395.003	9931
395.083	6086
395.163	6100
395.242	5327
395.322	5250
395.402	4651
395.481	7194
395.561	15138
395.640	40033
395.720	39717
395.799	47288
395.879	39705
395.958	29739
396.038	88958
396.117	275342
396.197	311245
396.276	122869
396.356	42871
396.435	27957
396.515	19865
396.594	19520
396.673	33562
396.753	111274
396.832	317411
396.912	243418
396.991	66449
397.070	21493
397.150	10988
397.229	10470
397.308	14809
397.388	28179
397.467	17082
397.546	6919
397.625	2895
397.705	5691
397.784	5283
397.863	2824
397.942	3793
398.022	2750
398.101	11626
398.180	34727
398.259	20375
398.338	5524
398.417	3688
398.497	2348
398.576	3602
398.655	1429
398.734	2818
398.813	2271
398.892	10511
398.971	36692
399.050	19167
399.129	2542
399.208	2183
399.287	2611
399.366	2133
399.445	1568
399.524	819
399.603	928
399.682	3417
399.761	9338
399.840	37541
399.919	31185
399.998	5366
400.077	1037
400.156	266
400.235	2832
400.313	2023
400.392	1694
400.471	9839
400.550	16314
400.629	4385
400.708	2681
400.786	1987
400.865	7480
400.944	8436
401.023	4279
401.102	1370
401.180	1030
401.259	1001
401.338	1468
401.416	2572
401.495	1462
401.574	1502
401.652	807
401.731	2233
401.810	1063
401.888	796
401.967	259
402.046	1773
402.124	2309
402.203	2566
402.281	1824
402.360	2662
402.438	9467
402.517	6592
402.596	2454
402.674	1994
402.753	1979
402.831	1227
402.910	1113
402.988	7483
403.066	26711
403.145	18521
403.223	8456
403.302	22003
403.380	17582
403.459	17088
403.537	6744
403.615	2134
403.694	495
403.772	1971
403.850	930
403.929	1762
404.007	544
404.085	4284
404.164	2896
404.242	3569
404.320	12979
404.398	51074
404.477	54222
404.555	60338
404.633	54074
404.711	40615
404.789	29091
404.868	6691
404.946	1312
405.024	1757
405.102	1688
405.180	807
405.258	126
405.336	2135
405.415	756
405.493	2526
405.571	3053
405.649	1076
405.727	354
405.805	2857
405.883	2593
405.961	2770
406.039	2198
406.117	165
406.195	2398
406.273	10042
406.351	41875
406.429	27286
406.507	4526
406.585	1502
406.663	1574
406.740	831
406.818	1408
406.896	1170
406.974	1770
407.052	2790
407.130	22624
407.208	35159
407.285	7367
407.363	1151
407.441	1171
407.519	1035
407.596	1802
407.674	7571
407.752	30460
407.830	27153
407.907	7959
407.985	2035
408.063	1205
408.141	1157
408.218	2697
408.296	2272
408.373	977
408.451	1488
408.529	1269
408.606	1203
408.684	1036
408.762	831
408.839	683
408.917	668
408.994	942
409.072	714
409.149	1007
409.227	2751
409.304	3970
409.382	4225
409.459	3836
409.537	6128
409.614	6357
409.692	4510
409.769	4427
409.846	6151
409.924	8115
410.001	6036
410.079	4587
410.156	4678
410.233	3486
410.311	2083
410.388	1813
410.465	2069
410.543	1615
410.620	2199
410.697	1738
410.775	2114
410.852	-42
410.929	2314
411.006	2351
411.083	2173
411.161	4376
411.238	5185
411.315	3241
411.392	1909
411.469	1864
411.547	2709
411.624	528
411.701	2066
411.778	1701
411.855	1684
411.932	1245
412.009	509
412.086	1258
412.163	1614
412.240	789
412.317	2715
412.394	1246
412.471	1318
412.548	-274
412.625	717
412.702	578
412.779	2762
412.856	3143
412.933	983
413.010	895
413.087	1340
413.164	8194
413.241	13945
413.318	3078
413.395	2551
413.471	1453
413.548	2083
413.625	1124
413.702	943
413.779	1849
413.855	608
413.932	-321
414.009	162
414.086	429
414.162	736
414.239	1888
414.316	8416
414.393	19337
414.469	7233
414.546	1737
414.623	910
414.699	754
414.776	1280
414.853	-458
414.929	797
415.006	517
415.082	988
415.159	1057
415.236	1594
415.312	1266
415.389	1777
415.465	1519
415.542	1311
415.618	-69
415.695	1936
415.771	232
415.848	148
415.924	661
416.000	448
416.077	1146
416.153	-220
416.230	-136
416.306	840
416.383	290
416.459	1040
416.535	-63
416.612	690
416.688	650
416.764	281
416.841	-481
416.917	218
416.993	915
417.069	1317
417.146	1254
417.222	3968
417.298	1177
417.374	358
417.451	1392
417.527	578
417.603	852
417.679	1247
417.755	1093
417.831	16
417.908	805
417.984	647
418.060	-145
418.136	1063
418.212	2926
418.288	1127
418.364	1115
418.440	149
418.516	1144
418.592	3203
418.668	4311
418.744	5927
418.820	4315
418.896	1552
418.972	-169
419.048	723
419.124	3021
419.200	1542
419.276	1083
419.352	750
419.428	502
419.504	625
419.579	1187
419.655	1087
419.731	876
419.807	3277
419.883	5306
419.959	4741
420.034	1843
420.110	3566
420.186	12900
420.262	11649
420.337	3161
420.413	1772
420.489	1459
420.565	2936
420.640	1211
420.716	2571
420.792	952
420.867	3116
420.943	1143
421.019	3052
421.094	2253
421.170	3011
421.245	2042
421.321	2958
421.397	2822
421.472	7257
421.548	19158
421.623	13478
421.699	6213
421.774	5529
421.850	4412
421.925	8315
422.001	7708
422.076	9051
422.152	10897
422.227	15542
422.302	21460
422.378	32625
422.453	56865
422.529	121414
422.604	251057
422.679	304337
422.755	263814
422.830	151299
422.905	70357
422.981	39926
423.056	25556
423.131	18364
423.207	13267
423.282	10915
423.357	11313
423.432	8290
423.508	7893
423.583	9659
423.658	7966
423.733	5184
423.808	3985
423.883	4873
423.959	3760
424.034	4181
424.109	4210
424.184	3099
424.259	2519
424.334	2307
424.409	2621
424.484	2533
424.559	2431
424.634	1359
424.709	1670
424.784	2594
424.859	1714
424.934	2416
425.009	8132
425.084	14266
425.159	6545
425.234	2691
425.309	1175
425.384	5220
425.459	8957
425.534	3828
425.609	725
425.683	1009
425.758	846
425.833	1656
425.908	1625
425.983	4242
426.058	13549
426.132	7123
426.207	1033
426.282	3857
426.357	2576
426.431	1030
426.506	2074
426.581	1201
426.655	1307
426.730	1145
426.805	646
426.879	1396
426.954	1370
427.029	2312
427.103	12859
427.178	37404
427.253	18486
427.327	3415
427.402	2807
427.476	9872
427.551	5341
427.625	2207
427.700	1266
427.774	701
427.849	1690
427.923	1359
427.998	1020
428.072	1294
428.147	4510
428.221	20492
428.296	74170
428.370	46802
428.444	6308
428.519	4078
428.593	7624
428.667	7275
428.742	8478
428.816	10589
428.890	43485
428.965	78473
429.039	25750
429.113	10139
429.188	4891
429.262	2013
429.336	2497
429.410	6107
429.485	5542
429.559	6126
429.633	5586
429.707	2849
429.781	6652
429.855	43791
429.930	74685
430.004	30347
430.078	36707
430.152	41741
430.226	92201
430.300	104014
430.374	21027
430.448	5432
430.522	10967
430.596	34614
430.670	26380
430.744	64063
430.818	93165
430.892	20648
430.966	3743
431.040	1969
431.114	736
431.188	1074
431.262	1104
431.336	832
431.410	2535
431.484	8490
431.557	6095
431.631	2190
431.705	2849
431.779	12643
431.853	65543
431.927	54178
432.000	7501
432.074	1656
432.148	2174
432.222	1596
432.295	183
432.369	893
432.443	1344
432.516	13387
432.590	37653
432.664	16217
432.737	1783
432.811	124
432.885	368
432.958	895
433.032	-322
433.106	261
433.179	38
433.253	570
433.326	-58
433.400	-591
433.473	-12
433.547	-124
433.620	1235
433.694	994
433.767	1361
433.841	-34
433.914	-504
433.988	708
434.061	551
434.134	621
434.208	-319
434.281	-362
434.355	-851
434.428	406
434.501	412
434.575	477
434.648	645
434.721	370
434.795	-418
434.868	-475
434.941	-524
435.014	-532
435.088	411
435.161	1515
435.234	1173
435.307	1329
435.381	840
435.454	1054
435.527	2723
435.600	2746
435.673	2474
435.746	1812
435.819	1344
435.892	1460
435.966	635
436.039	304
436.112	1145
436.185	-527
436.258	192
436.331	-75
436.404	492
436.477	-11
436.550	-81
436.623	1133
436.696	-11
436.769	236
436.842	-298
436.915	449
436.987	-62
437.060	922
437.133	-209
437.206	-325
437.279	919
437.352	210
437.425	-135
437.498	-253
437.570	2134
437.643	2043
437.716	538
437.789	-5
437.861	1537
437.934	4795
438.007	1932
438.080	316
438.152	349
438.225	2246
438.298	17029
438.370	55686
438.443	25858
438.516	5449
438.588	1393
438.661	-7
438.734	23
438.806	288
438.879	622
438.951	760
439.024	2033
439.096	-107
439.169	133
439.241	-235
439.314	-344
439.386	566
439.459	1463
439.531	2050
439.604	884
439.676	466
439.749	207
439.821	73
439.893	238
439.966	526
440.038	717
440.110	661
440.183	118
440.255	-90
440.327	823
440.400	6586
440.472	32128
440.544	25008
440.617	3716
440.689	2156
440.761	1720
440.833	3959
440.905	2092
440.978	492
441.050	-385
441.122	579
441.194	-531
441.266	74
441.338	-270
441.411	930
441.483	8631
441.555	15132
441.627	3715
441.699	2324
441.771	1205
441.843	764
441.915	-461
441.987	533
442.059	-17
442.131	1118
442.203	1933
442.275	2473
442.347	3849
442.419	7300
442.491	34279
442.563	94961
442.635	46259
442.706	13966
442.778	9160
442.850	2608
442.922	1528
442.994	1640
443.066	2162
443.137	3339
443.209	2394
443.281	5850
443.353	11112
443.425	43096
443.496	154644
443.568	169551
443.640	69082
443.711	13964
443.783	5023
443.855	2925
443.926	1426
443.998	1706
444.070	1365
444.141	2507
444.213	2264
444.285	2616
444.356	1636
444.428	2042
444.499	855
444.571	565
444.642	481
444.714	1060
444.785	1427
444.857	3089
444.928	6444
445.000	4961
445.071	5133
445.143	6540
445.214	5967
445.285	9435
445.357	28257
445.428	93476
445.500	222425
445.571	161084
445.642	90475
445.714	31130
445.785	16493
445.856	5860
445.928	2730
445.999	3457
446.070	2022
446.141	1904
446.213	2938
446.284	1522
446.355	1879
446.426	-93
446.497	631
446.569	1641
446.640	2047
446.711	1365
446.782	557
446.853	455
446.924	1338
446.995	174
447.066	555
447.138	1922
447.209	1294
447.280	-488
447.351	204
447.422	-216
447.493	-109
447.564	231
447.635	429
447.706	-151
447.777	-52
447.847	17
447.918	-814
447.989	398
448.060	1252
448.131	2831
448.202	3071
448.273	2343
448.344	415
448.414	137
448.485	-154
448.556	-38
448.627	-661
448.698	213
448.768	-511
448.839	-820
448.910	1545
448.981	1931
449.051	78
449.122	-792
449.193	68
449.263	337
449.334	-184
449.405	-443
449.475	1686
449.546	1373
449.616	2244
449.687	2556
449.758	570
449.828	488
449.899	-405
449.969	27
450.040	-356
450.110	136
450.181	-17
450.251	194
450.322	130
450.392	-96
450.463	197
450.533	-55
450.604	383
450.674	386
450.744	102
450.815	-526
450.885	307
450.955	288
451.026	-222
451.096	-72
451.166	612
451.237	2453
451.307	7444
451.377	4061
451.447	162
451.518	400
451.588	-327
451.658	770
451.728	1101
451.799	7283
451.869	8283
451.939	2004
452.009	-496
452.079	96
452.149	-86
452.219	1808
452.289	7868
452.360	6926
452.430	1852
452.500	763
452.570	1823
452.640	2838
452.710	8773
452.780	14242
452.850	8963
452.920	5332
452.990	2600
453.060	937
453.129	1265
453.199	1841
453.269	8308
453.339	22170
453.409	36088
453.479	32588
453.549	48434
453.619	52300
453.688	23207
453.758	4307
453.828	805
453.898	759
453.968	211
454.037	766
454.087	437
454.107	293
454.168	218
454.177	190
454.247	878
454.249	853
454.316	19
454.330	46
454.386	62
454.411	1283
454.456	3289
454.492	4942
454.525	6376
454.574	3476
454.595	2218
454.655	465
454.665	172
454.734	79
454.736	137
454.804	1813
454.817	2754
454.873	6389
454.898	7352
454.943	9093
454.979	5898
455.013	2967
455.060	1242
455.082	533
455.141	1789
455.152	1996
455.221	5230
455.222	5339
455.291	12890
455.303	13137
455.360	13540
455.384	20352
455.430	32265
455.465	26100
455.499	20172
455.546	12327
455.569	8722
455.627	6620
455.638	6238
455.707	1700
455.708	1701
455.777	352
455.789	494
455.846	959
455.869	790
455.916	550
455.950	1033
455.985	1377
456.031	870
456.054	616
456.112	830
456.124	869
456.193	640
456.193	628
456.262	722
456.274	923
456.332	1795
456.355	1623
456.401	1189
456.436	1231
456.470	1206
456.516	819
456.540	710
456.597	715
456.609	634
456.678	1021
456.678	1013
456.747	513
456.759	443
456.817	411
456.840	549
456.886	605
456.920	687
456.955	727
457.001	493
457.024	434
457.082	1068
457.093	1138
457.162	1632
457.163	1642
457.232	2213
457.243	2149
457.301	1479
457.324	1271
457.370	1092
457.405	1263
457.439	1376
457.485	1135
457.508	1027
457.566	1941
457.577	2064
457.646	2141
457.647	2155
457.715	3341
457.727	3704
457.784	6057
457.808	7838
457.853	10659
457.889	14401
457.922	16265
457.969	11582
457.991	10677
458.050	10721
458.060	10780
458.129	17086
458.130	17326
458.198	24131
458.211	22870
458.267	14629
458.292	10455
458.336	5933
458.372	4973
458.405	5152
458.453	6699
458.474	8345
458.533	16002
458.543	16887
458.611	31577
458.614	31863
458.680	27905
458.694	23816
458.749	11476
458.775	8026
458.818	4221
458.855	3621
458.887	3096
458.936	2264
458.955	2076
459.016	2354
459.024	2313
459.093	2252
459.097	2228
459.162	2096
459.177	2082
459.230	2068
459.257	2315
459.299	3006
459.338	3453
459.368	3381
459.418	3477
459.437	3476
459.499	2506
459.505	2414
459.574	2421
459.579	2400
459.643	2328
459.659	2339
459.711	2318
459.740	2437
459.780	2515
459.820	2475
459.849	2459
459.900	2387
459.917	2484
459.981	3382
459.986	3388
460.054	3213
460.061	3177
460.123	3480
460.141	3545
460.191	3286
460.222	3328
460.260	3845
460.302	4420
460.328	4253
460.382	3708
460.397	3717
460.462	3938
460.465	3996
460.534	5314
460.543	5535
460.602	16697
460.623	21233
460.671	34401
460.703	49135
460.739	53308
460.783	53383
460.808	47077
460.864	12585
460.876	9319
460.944	4279
460.945	4218
461.013	3621
461.024	3557
461.081	3202
461.104	3142
461.150	2925
461.184	2847
461.218	2905
461.264	2512
461.286	2362
461.345	2900
461.355	2998
461.423	3033
461.425	3038
461.491	3046
461.505	3036
461.559	3766
461.585	4210
461.628	5694
461.665	6905
461.696	7696
461.745	11021
461.764	10573
461.825	5666
461.832	5525
461.901	3265
461.905	3236
461.969	2937
461.985	2905
462.037	3259
462.065	3301
462.105	2840
462.145	2749
462.173	3804
462.225	5490
462.241	5520
462.305	6401
462.310	6373
462.378	5896
462.385	5641
462.446	4069
462.465	3716
462.514	3398
462.545	3507
462.582	3642
462.625	3779
462.650	3934
462.705	4127
462.718	3939
462.785	2891
462.786	2897
462.854	3336
462.865	3390
462.922	4121
462.945	4665
462.990	4445
463.025	3791
463.058	3779
463.104	3583
463.126	3348
463.184	3140
463.194	3185
463.262	3327
463.264	3342
463.330	3460
463.344	3456
463.398	3961
463.424	4103
463.466	3932
463.504	4068
463.533	4120
463.583	3488
463.601	3479
463.663	4211
463.669	4267
463.737	4575
463.743	4598
463.805	5459
463.823	5737
463.873	7208
463.903	8274
463.940	9750
463.982	11725
464.008	10356
464.062	6182
464.076	6052
464.142	5114
464.144	5063
464.211	3654
464.221	3445
464.279	3307
464.301	3339
464.347	3859
464.381	4153
464.414	4435
464.461	4827
464.482	4867
464.540	5251
464.550	5281
464.617	4911
464.620	4898
464.685	5717
464.699	5905
464.753	7075
464.779	7576
464.820	8208
464.859	9083
464.888	9067
464.938	8608
464.956	8585
465.018	8637
465.023	8578
465.091	7577
465.098	7460
465.158	7022
465.177	6858
465.226	7199
465.257	7459
465.293	7389
465.336	7245
465.361	7561
465.416	8380
465.428	8449
465.495	8545
465.496	8580
465.563	12125
465.575	12742
465.631	14391
465.654	15265
465.698	12457
465.734	9507
465.765	8896
465.813	7946
465.833	7765
465.893	7542
465.900	7491
465.968	6917
465.972	6869
466.035	7514
466.052	7702
466.102	7803
466.131	7743
466.170	7482
466.210	7279
466.237	7471
466.290	7733
466.304	7715
466.369	7649
466.372	7682
466.439	8278
466.449	8341
466.506	8938
466.528	9169
466.573	9791
466.607	10240
466.641	12909
466.687	16557
466.708	17922
466.766	21807
466.775	20807
466.842	12966
466.845	12570
466.909	9905
466.925	9294
466.977	9178
467.004	9150
467.044	9836
467.083	10464
467.111	11393
467.163	13109
467.178	13378
467.242	14394
467.245	14379
467.312	13576
467.321	13448
467.379	12056
467.400	11518
467.446	12175
467.480	12617
467.559	11057
467.638	10860
467.717	9840
467.796	10777
467.875	10619
467.955	10758
468.034	11173
468.113	19855
468.192	26200
468.271	14902
468.350	10208
468.429	11525
468.508	11659
468.588	11096
468.667	8912
468.746	9998
468.825	9154
468.904	9638
468.983	9263
469.062	10837
469.141	12484
469.220	9705
469.299	8710
469.378	10462
469.456	12034
469.535	12322
469.614	10998
469.693	10024
469.772	10605
469.851	12508
469.930	11049
470.009	9459
470.088	8674
470.166	9565
470.245	9948
470.324	9888
470.403	9442
470.482	9261
470.560	8839
470.639	9460
470.718	10382
470.797	9667
470.875	8975
470.954	10524
471.033	11550
471.111	9236
471.190	8928
471.269	8350
471.347	8915
471.426	8770
471.505	8556
471.583	10616
471.662	9984
471.740	9326
471.819	9451
471.898	8910
471.976	9320
472.055	9356
472.133	9010
472.212	10549
472.290	10006
472.369	9626
472.447	8506
472.526	8448
472.604	8928
472.683	8578
472.761	8788
472.839	8981
472.918	7603
472.996	8778
473.075	8846
473.153	8398
473.231	7595
473.310	8143
473.388	8023
473.466	8674
473.545	9440
473.623	9534
473.701	8675
473.780	8713
473.858	7241
473.936	8953
474.014	8643
474.093	9530
474.171	10208
474.249	12144
474.327	9881
474.405	8634
474.484	7133
474.562	7507
474.640	7838
474.718	8584
474.796	8304
474.874	9045
474.952	8094
475.030	7493
475.108	7148
475.187	8765
475.265	7598
475.343	9489
475.421	10192
475.499	8707
475.577	8022
475.655	8626
475.733	10613
475.811	15421
475.889	15246
475.966	13319
476.044	7384
476.122	7518
476.200	8268
476.278	8354
476.356	7153
476.434	7249
476.512	7484
476.590	8329
476.667	8439
476.745	7249
476.823	7560
476.901	7801
476.979	5948
477.056	8179
477.134	7470
477.212	6945
477.290	7776
477.367	7706
477.445	6517
477.523	6787
477.601	6979
477.678	7386
477.756	6604
477.834	8488
477.911	6342
477.989	6620
478.066	5938
478.144	7087
478.222	7425
478.299	8592
478.377	9075
478.454	7549
478.532	6530
478.609	6162
478.687	6338
478.764	6137
478.842	7852
478.919	6993
478.997	6586
479.074	7130
479.152	6345
479.229	8561
479.307	6082
479.384	6191
479.461	6970
479.539	6827
479.616	6181
479.694	6796
479.771	5941
479.848	7305
479.926	6718
480.003	8420
480.080	6323
480.157	6238
480.235	5901
480.312	6109
480.389	6708
480.467	8067
480.544	9737
480.621	7763
480.698	6278
480.775	7804
480.853	6871
480.930	6971
481.007	6659
481.084	8126
481.161	10088
481.238	9125
481.315	6667
481.392	6546
481.470	5739
481.547	7320
481.624	5955
481.701	6879
481.778	5675
481.855	6096
481.932	7380
482.009	9624
482.086	9289
482.163	7050
482.240	6325
482.317	8943
482.393	7934
482.470	7315
482.547	7189
482.624	6651
482.701	5888
482.778	5703
482.855	6282
482.932	6290
483.009	4958
483.085	6300
483.162	7731
483.239	9281
483.316	5436
483.393	6642
483.469	6166
483.546	6275
483.623	5940
483.699	6995
483.776	5166
483.853	6722
483.930	6798
484.006	14440
484.083	23635
484.160	24544
484.236	38061
484.313	33549
484.389	23100
484.466	22644
484.543	18588
484.619	19616
484.696	20668
484.772	19228
484.849	19406
484.925	19525
485.002	17891
485.078	18383
485.155	17836
485.231	17969
485.308	17727
485.384	18399
485.461	17628
485.537	21122
485.614	25730
485.690	18308
485.766	16402
485.843	16578
485.919	17678
485.995	18588
486.072	15417
486.148	14647
486.224	14812
486.301	16678
486.377	15741
486.453	16098
486.530	16689
486.606	22909
486.682	26012
486.758	24025
486.835	24478
486.911	21092
486.987	25267
487.063	26037
487.139	26454
487.215	24309
487.292	20468
487.368	17166
487.444	18139
487.520	20724
487.596	23695
487.672	29098
487.748	55070
487.824	93381
487.900	57265
487.976	23443
488.052	19777
488.128	19250
488.204	16638
488.280	15804
488.356	15229
488.432	20862
488.508	29186
488.584	18382
488.660	13579
488.736	14891
488.812	13845
488.888	16802
488.964	17376
489.039	21180
489.115	28687
489.191	24850
489.267	14412
489.343	13307
489.418	12597
489.494	13086
489.570	12062
489.646	13801
489.722	12471
489.797	13039
489.873	14522
489.949	21151
490.024	22798
490.100	12100
490.176	11501
490.251	12635
490.327	13070
490.403	11879
490.478	11280
490.554	11489
490.629	10750
490.705	10837
490.781	11578
490.856	11712
490.932	11851
491.007	10584
491.083	10972
491.158	10996
491.234	11552
491.309	16920
491.385	19726
491.460	11755
491.536	11216
491.611	10766
491.686	9498
491.762	11832
491.837	12741
491.913	21219
491.988	23077
492.063	31066
492.139	16906
492.214	13143
492.289	9376
492.365	8257
492.440	10180
492.515	9290
492.590	9895
492.666	8922
492.741	9297
492.816	12051
492.891	9821
492.967	9682
493.042	8055
493.117	9817
493.192	9985
493.267	13478
493.342	35986
493.418	62612
493.493	19796
493.568	9387
493.643	6908
493.718	8995
493.793	8582
493.868	11440
493.943	7697
494.018	8573
494.093	7834
494.168	8002
494.243	7355
494.318	7958
494.393	7438
494.468	8192
494.543	6726
494.618	7411
494.693	6415
494.768	6810
494.842	7892
494.917	6173
494.992	7106
495.067	7465
495.142	6629
495.217	7523
495.292	6741
495.366	7981
495.441	8482
495.516	9626
495.591	10403
495.665	19563
495.740	41139
495.815	30521
495.890	11021
495.964	8414
496.039	11135
496.114	9651
496.188	10775
496.263	12455
496.338	8328
496.412	9260
496.487	10634
496.561	9846
496.636	10045
496.710	9959
496.785	9365
496.860	11261
496.934	9587
497.009	9382
497.083	9850
497.158	10845
497.232	11159
497.307	11731
497.381	11616
497.455	11988
497.530	13561
497.604	13235
497.679	13187
497.753	17340
497.827	21004
497.902	21214
497.976	23132
498.050	33159
498.125	101272
498.199	151330
498.273	38548
498.348	24113
498.422	20810
498.496	19278
498.570	17125
498.645	16655
498.719	14460
498.793	16020
498.867	16644
498.941	20789
499.016	38540
499.090	116621
499.164	78717
499.238	12787
499.312	9912
499.386	11401
499.460	11282
499.534	10173
499.609	9193
499.683	13361
499.757	14197
499.831	18210
499.905	67102
499.979	100049
500.053	19717
500.127	14584
500.201	10671
500.275	9107
500.349	8395
500.422	8583
500.496	10324
500.570	15259
500.644	36477
500.718	84017
500.792	39133
500.866	9513
500.940	9674
501.013	9582
501.087	7612
501.161	11075
501.235	14673
501.309	22873
501.382	60663
501.456	84713
501.530	20650
501.603	24178
501.677	17284
501.751	7084
501.825	8473
501.898	11716
501.972	25930
502.046	28238
502.119	7782
502.193	12884
502.266	28757
502.340	24257
502.413	13149
502.487	26872
502.561	19492
502.634	9745
502.708	6196
502.781	6369
502.855	6090
502.928	5901
503.002	5005
503.075	5402
503.149	5766
503.222	5733
503.295	5786
503.369	7730
503.442	8370
503.516	17556
503.589	46977
503.662	44081
503.736	15615
503.809	22942
503.882	25678
503.956	29679
504.029	40958
504.102	32165
504.175	49530
504.249	29436
504.322	13647
504.395	11059
504.468	7056
504.542	6543
504.615	4995
504.688	6012
504.761	4576
504.834	6238
504.907	6459
504.980	8242
505.053	5746
505.127	5326
505.200	9264
505.273	6817
505.346	5900
505.419	5251
505.492	5714
505.565	4916
505.638	4593
505.711	4391
505.784	4082
505.857	4536
505.930	5503
506.003	3853
506.076	6611
506.149	5644
506.221	5887
506.294	6498
506.367	9356
506.440	36669
506.513	33986
506.586	8062
506.659	4633
506.731	5369
506.804	4513
506.877	5587
506.950	5771
507.022	4937
507.095	4900
507.168	6770
507.241	4287
507.313	4395
507.386	3515
507.459	5791
507.531	4465
507.604	4185
507.677	4914
507.749	4533
507.822	5377
507.894	10411
507.967	17375
508.040	11466
508.112	8903
508.185	9592
508.257	7523
508.330	9265
508.402	6918
508.475	8514
508.547	8255
508.620	7598
508.692	9202
508.765	9565
508.837	6929
508.909	7765
508.982	6020
509.054	7612
509.127	6825
509.199	6358
509.271	6328
509.344	6504
509.416	6381
509.488	7187
509.560	6419
509.633	6231
509.705	6683
509.777	7977
509.849	7630
509.922	7888
509.994	8465
510.066	8709
510.138	7237
510.210	15932
510.283	16437
510.355	13118
510.427	10150
510.499	9863
510.571	9296
510.643	9295
510.715	11451
510.787	10300
510.859	8635
510.931	10309
511.003	10646
511.076	12869
511.148	9140
511.219	9190
511.291	11169
511.363	12750
511.435	9238
511.507	8043
511.579	9073
511.651	8747
511.723	8336
511.795	7925
511.867	7405
511.939	8063
512.010	9905
512.082	11922
512.154	6767
512.226	8699
512.298	10157
512.369	16758
512.441	14677
512.513	12084
512.585	10209
512.656	10366
512.728	10228
512.800	9812
512.871	8659
512.943	9524
513.015	7865
513.086	9000
513.158	8326
513.230	8579
513.301	8438
513.373	9566
513.444	8545
513.516	8081
513.588	7577
513.659	8337
513.731	8449
513.802	8258
513.874	9772
513.945	13805
514.016	9403
514.088	7581
514.159	7302
514.231	10543
514.302	13519
514.374	12931
514.445	9396
514.516	14250
514.588	13754
514.659	9539
514.730	12525
514.802	13858
514.873	10213
514.944	13286
515.016	11585
515.087	10135
515.158	11504
515.229	15136
515.301	10931
515.372	15139
515.443	13410
515.514	10590
515.585	7998
515.656	9329
515.728	7976
515.799	8044
515.870	7547
515.941	9081
516.012	7930
516.083	11903
516.154	10898
516.225	11135
516.296	10336
516.367	9996
516.438	9525
516.509	10423
516.580	12446
516.651	21400
516.722	63725
516.793	59511
516.864	14785
516.935	14681
517.006	13661
517.077	16065
517.148	24340
517.219	59029
517.289	133691
517.360	66506
517.431	34365
517.502	11353
517.573	9671
517.643	10754
517.714	10746
517.785	12337
517.856	10072
517.926	14138
517.997	12813
518.068	13501
518.138	16137
518.209	17651
518.280	40159
518.350	159871
518.421	126960
518.492	22236
518.562	13201
518.633	15100
518.703	16368
518.774	25986
518.845	53481
518.915	71930
518.986	30403
519.056	17730
519.127	16768
519.197	21327
519.268	42378
519.338	47432
519.408	13627
519.479	12932
519.549	10851
519.620	10119
519.690	7530
519.760	8518
519.831	8033
519.901	7492
519.971	7772
520.042	8111
520.112	7967
520.182	9856
520.253	9125
520.323	8721
520.393	8894
520.463	14904
520.534	7346
520.604	17865
520.674	12825
520.744	8892
520.814	16003
520.885	20258
520.955	15329
521.025	51130
521.095	41142
521.165	9886
521.235	7641
521.305	7463
521.375	7803
521.445	7534
521.515	7311
521.585	8782
521.655	7736
521.725	9032
521.795	8295
521.865	5896
521.935	9535
522.005	9443
522.075	6870
522.145	8001
522.215	7546
522.285	9322
522.355	8981
522.424	14863
522.494	15416
522.564	10749
522.634	9901
522.704	25933
522.774	18972
522.843	8761
522.913	6516
522.983	7619
523.053	6529
523.122	7589
523.192	5887
523.262	12821
523.331	16500
523.401	8276
523.471	5840
523.540	6750
523.610	5851
523.680	5768
523.749	6422
523.819	7234
523.888	7281
523.958	6447
524.027	6057
524.097	6650
524.166	6171
524.236	6743
524.305	7650
524.375	5584
524.444	5158
524.514	8431
524.583	5577
524.653	7107
524.722	7581
524.791	6848
524.861	7502
524.930	5807
524.999	5546
525.069	7764
525.138	6618
525.207	6868
525.277	7017
525.346	6381
525.415	6852
525.484	7233
525.554	7696
525.623	8167
525.692	9007
525.761	9254
525.830	10151
525.900	11611
525.969	14186
526.038	22969
526.107	36788
526.176	119303
526.245	146189
526.314	51127
526.383	55134
526.452	107766
526.522	125337
526.591	204148
526.660	50402
526.729	23720
526.797	22862
526.867	31155
526.935	101489
527.004	270186
527.073	278384
527.142	41055
527.211	13389
527.280	11100
527.349	8783
527.418	6428
527.487	7509
527.555	6040
527.624	5706
527.693	5067
527.762	5947
527.831	4909
527.899	6126
527.968	6871
528.037	4151
528.106	6282
528.174	6651
528.243	7245
528.312	7889
528.380	10249
528.449	5536
528.518	6112
528.586	4838
528.655	5924
528.723	5646
528.792	4712
528.861	5751
528.929	4117
528.998	5282
529.066	6783
529.135	8095
529.203	8804
529.272	8050
529.340	13121
529.409	11686
529.477	9918
529.545	10223
529.614	13162
529.682	11735
529.751	15588
529.819	15492
529.887	16084
529.956	15104
530.024	13735
530.092	12686
530.161	13594
530.229	13931
530.297	14666
530.365	14612
530.434	14055
530.502	13851
530.570	14588
530.638	10793
530.707	12398
530.775	11824
530.843	11038
530.911	12909
530.979	12730
531.047	12821
531.115	14598
531.183	12456
531.252	12921
531.320	11723
531.388	11299
531.456	12365
531.524	13131
531.592	14421
531.660	15734
531.728	13605
531.796	14334
531.864	13945
531.932	13930
532.000	13116
532.067	14654
532.135	15903
532.203	16813
532.271	17005
532.339	19287
532.407	23206
532.475	22482
532.542	17738
532.610	18665
532.678	16819
532.746	29348
532.814	72782
532.881	40433
532.949	17845
533.017	16486
533.084	14191
533.152	14575
533.220	13153
533.287	14521
533.355	14968
533.423	15793
533.490	14497
533.558	15839
533.625	14782
533.693	16059
533.761	14804
533.828	14526
533.896	13208
533.963	18983
534.031	20276
534.098	22101
534.166	20276
534.233	15798
534.300	17306
534.368	16082
534.435	14904
534.503	15308
534.570	16085
534.637	15814
534.705	17000
534.772	19144
534.840	19444
534.907	51876
534.974	110349
535.041	30981
535.109	14454
535.176	12912
535.243	12126
535.310	12732
535.378	12292
535.445	12505
535.512	10883
535.579	11069
535.646	10078
535.714	12134
535.781	12600
535.848	14464
535.915	14329
535.982	15892
536.049	14542
536.116	14598
536.183	12453
536.250	12925
536.317	11279
536.384	11992
536.451	12156
536.518	13007
536.585	10839
536.652	12811
536.719	12696
536.786	11860
536.853	10741
536.920	11793
536.987	13562
537.053	13083
537.120	27964
537.187	45117
537.254	11560
537.321	11018
537.388	11404
537.454	9872
537.521	9969
537.588	8789
537.654	9328
537.721	11375
537.788	11828
537.855	9853
537.921	9384
537.988	9376
538.055	10658
538.121	9151
538.188	8338
538.254	9217
538.321	11591
538.388	11057
538.454	9199
538.521	9358
538.587	9012
538.654	9121
538.720	9040
538.787	9496
538.853	9412
538.920	9856
538.986	8948
539.053	9463
539.119	8941
539.185	9218
539.252	9710
539.318	9165
539.385	11152
539.451	11232
539.517	11792
539.583	11259
539.650	12761
539.716	27477
539.782	17549
539.849	9645
539.915	8927
539.981	8407
540.047	9280
540.114	9158
540.180	9157
540.246	10016
540.312	9614
540.378	12006
540.444	12767
540.510	12709
540.576	29310
540.643	19792
540.709	8246
540.775	8850
540.841	8137
540.907	10196
540.973	13642
541.039	11423
541.105	10842
541.171	9325
541.237	8309
541.303	10874
541.369	10015
541.435	10158
541.500	11528
541.566	9685
541.632	8633
541.698	8814
541.764	9039
541.830	9247
541.896	7040
541.961	9201
542.027	8069
542.093	10235
542.159	9072
542.224	9206
542.290	10806
542.356	11252
542.421	13725
542.487	10962
542.553	8871
542.618	9677
542.684	9477
542.750	8798
542.815	9137
542.881	10965
542.947	22899
543.012	30210
543.078	9566
543.143	8044
543.209	8619
543.274	9168
543.340	9685
543.405	11578
543.471	20289
543.536	10717
543.602	9080
543.667	8039
543.732	9530
543.798	8874
543.863	8422
543.928	9066
543.994	7928
544.059	9584
544.124	9130
544.190	9103
544.255	9171
544.320	9602
544.386	7986
544.451	10871
544.516	9890
544.581	10685
544.646	15386
544.712	32836
544.777	15004
544.842	10365
544.907	11700
544.972	10910
545.037	10361
545.102	11552
545.168	10166
545.233	11628
545.298	11882
545.363	11634
545.428	12411
545.493	14454
545.558	22991
545.623	19927
545.688	11144
545.753	11642
545.818	10740
545.883	11864
545.947	11709
546.012	12613
546.077	11710
546.142	13386
546.207	11374
546.272	12747
546.337	13259
546.401	14260
546.466	13463
546.531	13596
546.596	14303
546.661	15229
546.725	14621
546.790	15494
546.855	15432
546.919	15486
546.984	18008
547.049	19402
547.113	20167
547.178	21951
547.243	24052
547.307	28192
547.372	29848
547.436	31021
547.501	30971
547.565	33257
547.630	31632
547.695	30647
547.759	31368
547.823	31822
547.888	29697
547.952	31599
548.017	33286
548.081	35074
548.146	36412
548.210	36581
548.274	34240
548.339	35149
548.403	33077
548.468	30992
548.532	29166
548.596	31269
548.660	31073
548.725	33501
548.789	35360
548.853	38843
548.917	35166
548.982	35285
549.046	34738
549.110	28014
549.174	28150
549.238	32106
549.303	33785
549.367	37853
549.431	34983
549.495	33527
549.559	31790
549.623	36523
549.687	41159
549.751	42183
549.815	46697
549.879	48792
549.943	43658
550.007	48194
550.071	47234
550.135	47479
550.199	40450
550.263	42568
550.327	39722
550.391	41181
550.455	44054
550.519	46170
550.582	47648
550.646	53296
550.710	58076
550.774	55695
550.838	53400
550.901	56462
550.965	59764
551.029	61224
551.093	65281
551.156	69441
551.220	76997
551.284	88237
551.347	71704
551.411	68331
551.475	73723
551.538	61589
551.602	57477
551.666	53822
551.729	51008
551.793	49303
551.856	48703
551.920	48784
551.983	47546
552.047	47560
552.110	47591
552.174	48295
552.237	49431
552.301	47452
552.364	44956
552.428	42292
552.491	43764
552.554	45039
552.618	44972
552.681	45994
552.745	44682
552.808	45486
552.871	49141
552.934	48131
552.998	46187
553.061	46755
553.124	45326
553.187	45478
553.251	46654
553.314	48602
553.377	49980
553.440	56741
553.503	87908
553.567	179659
553.630	85968
553.693	51491
553.756	48784
553.819	48179
553.882	46383
553.945	46695
554.008	45911
554.071	44488
554.134	46650
554.197	45350
554.260	43662
554.323	44579
554.386	44792
554.449	45610
554.512	46976
554.575	45477
554.638	43896
554.701	43850
554.764	43217
554.827	43893
554.889	41157
554.952	39725
555.015	36860
555.078	39561
555.141	40306
555.203	39289
555.266	37909
555.329	37719
555.391	36053
555.454	36545
555.517	35506
555.580	34331
555.642	32563
555.705	32965
555.768	33063
555.830	32428
555.893	30664
555.955	29731
556.018	29261
556.080	29762
556.143	28251
556.206	30597
556.268	28230
556.330	29518
556.393	27434
556.455	28540
556.518	28798
556.580	29549
556.643	25669
556.705	25621
556.767	24207
556.830	26448
556.892	24274
556.955	25430
557.017	24547
557.079	24251
557.142	22771
557.204	22733
557.266	24658
557.328	25668
557.391	20182
557.453	20778
557.515	20281
557.577	22214
557.639	21311
557.701	21647
557.764	20570
557.826	21894
557.888	22575
557.950	22661
558.012	24290
558.074	26837
558.136	42511
558.198	119645
558.260	82846
558.322	26711
558.384	24806
558.446	28349
558.508	29742
558.570	34536
558.632	40888
558.694	52521
558.756	65846
558.818	149496
558.880	487348
558.942	287254
559.003	132946
559.065	108222
559.127	36651
559.189	33613
559.251	34759
559.312	43103
559.374	79551
559.436	286638
559.498	276297
559.559	51103
559.621	33674
559.683	35298
559.744	47506
559.806	117791
559.868	280232
559.929	97992
559.991	34896
560.052	41447
560.114	103823
560.176	114990
560.237	56684
560.299	125436
560.360	53181
560.422	18364
560.483	15788
560.545	14463
560.606	14030
560.667	14588
560.729	13261
560.790	14003
560.852	12703
560.913	13740
560.974	12651
561.036	12563
561.097	12570
561.158	13281
561.220	12335
561.281	12422
561.342	11756
561.403	13797
561.465	13192
561.526	17336
561.587	22584
561.648	13721
561.709	11110
561.771	12336
561.832	11425
561.893	11506
561.954	11169
562.015	11800
562.076	12071
562.137	12063
562.198	11602
562.259	11269
562.320	11485
562.381	12848
562.442	12643
562.503	13046
562.564	11293
562.625	11046
562.686	11298
562.747	10808
562.808	11401
562.869	11544
562.930	12316
562.991	12817
563.051	11875
563.112	11508
563.173	11227
563.234	11230
563.294	10898
563.355	10761
563.416	10686
563.477	10868
563.537	10729
563.598	11938
563.659	10551
563.720	11596
563.780	11327
563.841	12871
563.901	11186
563.962	11153
564.023	11083
564.083	11771
564.144	11074
564.204	11306
564.265	10235
564.325	11482
564.386	14630
564.446	17000
564.507	11339
564.567	12065
564.628	10839
564.688	11224
564.749	10383
564.809	12102
564.869	12245
564.930	11954
564.990	10894
565.050	11311
565.111	10212
565.171	11762
565.231	10395
565.292	12224
565.352	10243
565.412	12401
565.472	10966
565.532	12495
565.593	11155
565.653	11032
565.713	11291
565.773	12267
565.833	11410
565.893	13455
565.953	11900
566.013	12383
566.074	12955
566.134	13767
566.194	15648
566.254	17721
566.314	14437
566.374	13644
566.434	13153
566.494	12952
566.554	13531
566.614	14682
566.673	14096
566.733	14454
566.793	15209
566.853	15672
566.913	15491
566.973	16522
567.033	16647
567.092	17202
567.152	16195
567.212	16652
567.272	15762
567.331	18299
567.391	17969
567.451	19819
567.511	21150
567.570	22466
567.630	17999
567.690	17364
567.749	17329
567.809	18199
567.868	19464
567.928	22321
567.988	23641
568.047	28089
568.107	32068
568.166	41338
568.226	55868
568.285	77429
568.345	79780
568.404	70117
568.464	60494
568.523	55927
568.582	55195
568.642	57540
568.701	65204
568.761	85691
568.820	121658
568.879	141415
568.939	120277
568.998	94620
569.057	75110
569.116	60878
569.176	50137
569.235	40854
569.294	35315
569.353	31129
569.413	26726
569.472	25429
569.531	23278
569.590	22341
569.649	19837
569.708	18743
569.767	17408
569.827	18605
569.886	16255
569.945	15642
570.004	15406
570.063	14478
570.122	12849
570.181	15623
570.240	14311
570.299	15332
570.358	14378
570.417	13911
570.475	13648
570.534	13614
570.593	12972
570.652	13006
570.711	12603
570.770	12926
570.829	12918
570.887	12525
570.946	12969
571.005	11723
571.064	11376
571.122	11148
571.181	11895
571.240	11666
571.299	10356
571.357	11911
571.416	11214
571.475	12193
571.533	12892
571.592	11635
571.650	11154
571.709	12054
571.768	11301
571.826	11712
571.885	11180
571.943	11856
572.002	10066
572.060	11392
572.119	10683
572.177	11936
572.236	9966
572.294	11495
572.352	10988
572.411	9893
572.469	10569
572.528	10126
572.586	9477
572.644	10988
572.703	12093
572.761	11801
572.819	10468
572.877	10701
572.936	9914
572.994	9710
573.052	9415
573.110	10578
573.169	10085
573.227	9837
573.285	9855
573.343	10820
573.401	9172
573.459	10808
573.517	9353
573.576	10276
573.634	10061
573.692	10863
573.750	10375
573.808	9650
573.866	9795
573.924	10905
573.982	10252
574.040	10860
574.098	10121
574.155	9246
574.213	9638
574.271	9842
574.329	9205
574.387	8766
574.445	8506
574.503	9722
574.560	8816
574.618	9305
574.676	8798
574.734	9141
574.792	9414
574.849	10402
574.907	8714
574.965	9188
575.022	8292
575.080	8317
575.138	8555
575.195	7832
575.253	8877
575.311	9077
575.368	8317
575.426	8260
575.483	9023
575.541	9279
575.598	8686
575.656	9732
575.713	8723
575.771	9641
575.828	8423
575.886	8771
575.943	9189
576.001	9031
576.058	9180
576.115	9622
576.173	10020
576.230	10594
576.287	9457
576.345	10487
576.402	9936
576.459	10144
576.517	8643
576.574	10606
576.631	9910
576.688	9233
576.746	8375
576.803	9572
576.860	8929
576.917	10181
576.974	9791
577.031	9555
577.089	9264
577.146	9928
577.203	8691
577.260	9636
577.317	9632
577.374	10603
577.431	10032
577.488	10000
577.545	8980
577.602	9555
577.659	10487
577.716	10781
577.773	12125
577.830	11266
577.886	11435
577.943	10990
578.000	9296
578.057	10860
578.114	10395
578.171	13496
578.227	14962
578.284	17766
578.341	14504
578.398	13443
578.454	11549
578.511	11190
578.568	11695
578.625	10826
578.681	9705
578.738	9946
578.794	9890
578.851	10319
578.908	9568
578.964	10885
579.021	11373
579.077	10561
579.134	9969
579.190	10847
579.247	9591
579.303	9275
579.360	9006
579.416	9840
579.473	10433
579.529	10535
579.586	9507
579.642	9957
579.698	10644
579.755	11292
579.811	10615
579.867	11817
579.924	11138
579.980	12389
580.036	13847
580.093	16394
580.149	21405
580.205	27265
580.261	22457
580.317	20267
580.374	15269
580.430	15414
580.486	14161
580.542	14136
580.598	12326
580.619	12527
580.654	12886
580.692	11768
580.710	11222
580.765	12332
580.767	12373
580.823	12146
580.838	12300
580.879	12726
580.911	11941
580.935	11378
580.984	12345
580.991	12481
581.047	13733
581.057	13744
581.103	13843
581.130	13552
581.159	13261
581.203	14940
581.215	15375
581.270	15057
581.276	15079
581.326	15332
581.349	14482
581.382	13249
581.422	14059
581.438	14389
581.494	14079
581.494	14068
581.550	12972
581.567	12999
581.606	13068
581.640	13626
581.661	13994
581.713	13772
581.717	13743
581.773	14079
581.786	13807
581.829	12989
581.859	13909
581.885	14747
581.932	14281
581.940	14181
581.996	14301
582.004	14319
582.052	14346
582.077	14151
582.107	14012
582.150	13884
582.163	13808
582.219	14843
582.223	14792
582.274	14264
582.296	14931
582.330	15980
582.368	15548
582.386	15348
582.441	15118
582.441	15115
582.497	15192
582.514	15581
582.552	16609
582.587	17284
582.608	17565
582.659	17200
582.663	17165
582.719	17111
582.732	17086
582.774	17248
582.805	17422
582.830	17519
582.877	17949
582.885	18041
582.941	17778
582.950	18206
582.996	20588
583.023	21499
583.052	22410
583.095	23623
583.107	24013
583.162	25811
583.168	26035
583.218	27478
583.240	26658
583.273	25063
583.313	23763
583.328	23282
583.384	21518
583.385	21472
583.439	20312
583.458	19900
583.494	19287
583.531	19648
583.549	19923
583.603	19711
583.605	19699
583.660	20364
583.676	20050
583.715	19349
583.748	19940
583.770	20406
583.820	19279
583.825	19152
583.881	20279
583.893	20155
583.936	19707
583.965	19890
583.991	20180
584.038	20942
584.046	21075
584.101	21177
584.110	21134
584.156	20949
584.183	21399
584.211	21856
584.255	21093
584.266	20957
584.321	22055
584.328	22087
584.376	22237
584.400	22686
584.431	23288
584.472	22826
584.486	22726
584.541	24776
584.545	24707
584.596	23816
584.617	24153
584.651	24582
584.689	25397
584.706	25948
584.761	26433
584.762	26423
584.816	26616
584.834	26667
584.871	26991
584.906	27314
584.926	27363
584.978	28826
584.980	28926
585.035	29204
585.051	29629
585.090	30780
585.123	31672
585.145	32299
585.195	33509
585.200	33681
585.254	35351
585.267	36062
585.309	39342
585.340	41985
585.364	43713
585.412	45737
585.419	45992
585.473	47401
585.484	48050
585.528	54122
585.556	59859
585.583	70482
585.628	95315
585.637	107087
585.692	196270
585.700	216062
585.747	328950
585.772	336904
585.801	260918
585.845	127107
585.856	106639
585.910	60481
585.917	55866
585.965	49528
585.989	46438
586.019	44887
586.061	44140
586.074	44096
586.128	43442
586.133	43395
586.183	44162
586.205	44233
586.237	43916
586.277	43470
586.292	43658
586.346	44153
586.349	44162
586.401	46163
586.421	46369
586.455	46216
586.493	47028
586.509	48098
586.564	50500
586.565	50557
586.618	59716
586.637	62146
586.672	61690
586.709	57847
586.727	56547
586.781	55714
586.781	55799
586.835	56092
586.853	55929
586.889	55999
586.925	56227
586.944	56776
586.996	58266
586.998	58411
587.052	60549
587.068	60983
587.106	62371
587.140	63668
587.161	64723
587.212	66544
587.215	66816
587.269	70504
587.284	71269
587.323	73106
587.356	75071
587.377	76788
587.427	80693
587.431	81147
587.485	84961
587.499	85714
587.539	89753
587.571	92976
587.593	95382
587.643	100723
587.648	101514
587.702	108930
587.715	110357
587.755	115829
587.786	119901
587.810	123844
587.858	131819
587.864	133280
587.917	146086
587.930	148479
587.971	159047
588.001	167592
588.025	175392
588.073	189869
588.079	192597
588.133	214593
588.145	219420
588.187	241573
588.217	256953
588.241	272951
588.288	303719
588.295	309307
588.348	354098
588.360	363231
588.402	409922
588.431	443417
588.456	479316
588.503	547255
588.510	561384
588.564	673403
588.575	696566
588.617	822702
588.646	910815
588.671	1026390
588.718	1252630
588.725	1303185
588.778	1692366
588.789	1770656
588.832	2096141
588.861	2301714
588.886	2295112
588.932	2197430
588.939	2153102
588.993	1691429
589.004	1630344
589.047	2068169
589.075	2345022
589.100	2349422
589.147	2238736
589.154	2189105
589.207	1752630
589.218	1663859
589.261	1487809
589.290	1374435
589.314	1383867
589.361	1410698
589.368	1443890
589.421	1714813
589.433	1771797
589.475	2055034
589.504	2239578
589.528	2187794
589.576	1981646
589.582	1990701
589.635	2096016
589.647	2112576
589.689	2045853
589.718	1942753
589.742	1696078
589.790	1200415
589.795	1169685
589.849	871042
589.861	802134
589.902	679530
589.932	588300
589.955	544360
590.004	450458
590.009	445364
590.062	380494
590.075	363910
590.115	331114
590.146	304817
590.168	292598
590.218	263184
590.222	261958
590.275	238039
590.289	231104
590.328	218591
590.360	207677
590.381	201896
590.431	186448
590.435	186187
590.488	173338
590.503	169210
590.541	163179
590.574	157382
590.594	154659
590.645	146230
590.647	146354
590.700	138462
590.716	135673
590.753	132456
590.787	128863
590.806	127457
590.859	122285
590.859	122575
590.912	118150
590.930	116244
590.965	114058
591.001	111493
591.018	110512
591.071	106320
591.072	105954
591.124	104565
591.143	103592
591.177	102292
591.214	100286
591.230	99739
591.283	96979
591.285	96569
591.336	95724
591.356	94857
591.389	93434
591.427	91309
591.442	91042
591.495	88775
591.498	88342
591.547	86654
591.569	85428
591.600	84674
591.640	83089
591.653	83362
591.706	83366
591.711	83106
591.759	82802
591.782	82239
591.811	82938
591.853	83368
591.864	83228
591.917	80963
591.924	80381
591.969	79465
591.995	78517
592.022	78471
592.066	77835
592.075	78217
592.127	78904
592.137	78776
592.180	80259
592.208	80808
592.233	79842
592.279	77151
592.285	77245
592.338	75908
592.350	75354
592.390	74763
592.421	73879
592.443	74115
592.491	73855
592.495	74116
592.548	74341
592.562	74162
592.600	74056
592.633	73495
592.653	73773
592.704	73438
592.705	73813
592.775	71204
592.846	71403
592.916	72114
592.987	71654
593.058	70875
593.128	69480
593.199	69891
593.270	69150
593.341	68268
593.411	68522
593.482	69876
593.553	69403
593.623	69390
593.694	70253
593.764	70676
593.835	70514
593.906	69523
593.976	68721
594.047	70699
594.117	73420
594.188	74974
594.258	72542
594.329	71515
594.399	71709
594.470	72914
594.540	73340
594.611	75079
594.681	73858
594.751	75174
594.822	74491
594.892	77423
594.963	79109
595.033	79495
595.103	82125
595.174	82019
595.244	87663
595.314	95334
595.384	85922
595.455	84969
595.525	87487
595.595	89298
595.665	90459
595.736	89714
595.806	89767
595.876	89408
595.946	90359
596.016	92767
596.087	94659
596.157	94701
596.227	94058
596.297	97803
596.367	102914
596.437	109562
596.507	111893
596.577	116693
596.647	111132
596.717	112107
596.787	115818
596.857	116826
596.927	114699
596.997	116547
597.067	118439
597.137	123043
597.207	123514
597.277	120278
597.347	118151
597.417	114850
597.487	114653
597.557	117875
597.626	121677
597.696	122901
597.766	124855
597.836	127411
597.906	116287
597.975	111469
598.045	112714
598.115	115888
598.185	119616
598.254	131697
598.324	143499
598.394	147335
598.464	142772
598.533	141676
598.603	136375
598.672	131819
598.742	132903
598.812	136050
598.881	138196
598.951	138409
599.020	141435
599.090	143279
599.159	146805
599.229	144657
599.299	142126
599.368	144875
599.437	146624
599.507	138767
599.576	135651
599.646	138518
599.715	140755
599.785	135840
599.854	132697
599.924	134784
599.993	134755
600.062	136936
600.132	139734
600.201	144732
600.270	158985
600.340	171698
600.409	170029
600.478	170859
600.547	172885
600.617	173272
600.686	150402
600.755	142281
600.824	138465
600.894	138151
600.963	138527
601.032	139968
601.101	139622
601.170	138639
601.239	138538
601.308	141654
601.378	143483
601.447	144896
601.516	147981
601.585	151414
601.654	154864
601.723	158374
601.792	163225
601.861	169639
601.930	178909
601.999	185017
602.068	179337
602.137	179560
602.206	183409
602.275	183051
602.343	187149
602.412	188706
602.481	187384
602.550	189672
602.619	192219
602.688	194423
602.756	198298
602.825	195209
602.894	201198
602.963	202185
603.032	201485
603.100	207052
603.169	198938
603.238	207436
603.307	202687
603.375	198412
603.444	209627
603.513	201921
603.581	200804
603.650	218208
603.719	190928
603.787	175549
603.856	178763
603.924	183038
603.993	188169
604.061	193800
604.130	200069
604.198	205118
604.267	208868
604.335	212731
604.404	213569
604.472	219556
604.541	220280
604.609	224547
604.678	232277
604.746	233654
604.815	247243
604.883	244441
604.951	233947
605.020	241053
605.088	233838
605.156	219832
605.225	219103
605.293	220556
605.361	219847
605.429	219803
605.498	222844
605.566	223100
605.634	233117
605.702	237952
605.771	238596
605.839	249715
605.907	235791
605.975	235835
606.043	235335
606.111	219565
606.180	237093
606.248	231633
606.316	221678
606.384	232579
606.452	211677
606.520	177721
606.588	179229
606.656	178658
606.724	176850
606.792	168909
606.860	155061
606.928	140549
606.996	133496
607.064	129356
607.132	132364
607.200	139303
607.267	147176
607.335	148491
607.403	154081
607.471	149058
607.539	141800
607.607	146381
607.674	129754
607.742	127727
607.810	127153
607.878	126119
607.946	128406
608.013	133312
608.081	136236
608.149	137780
608.216	139389
608.284	145241
608.352	143735
608.419	145408
608.487	145235
608.555	139682
608.622	139095
608.690	145658
608.757	155204
608.825	165020
608.893	160398
608.960	154755
609.028	148035
609.095	149875
609.163	146832
609.230	135644
609.298	119244
609.365	122920
609.432	134125
609.500	142238
609.567	162309
609.635	187019
609.702	203155
609.769	198858
609.837	166067
609.904	133272
609.971	135148
610.039	149094
610.106	178165
610.173	285702
610.241	621992
610.308	655422
610.375	296272
610.442	168708
610.509	142017
610.577	137372
610.644	136389
610.711	139294
610.778	143503
610.845	148395
610.912	157387
610.980	167149
611.047	178561
611.114	172711
611.181	156873
611.248	155818
611.315	160710
611.382	166304
611.449	174392
611.516	177176
611.583	175359
611.650	176355
611.717	177700
611.784	181692
611.851	189516
611.918	199717
611.984	226881
612.051	290979
612.118	484681
612.185	1095586
612.252	1185269
612.319	350051
612.386	241023
612.452	220709
612.519	206748
612.586	203263
612.653	202564
612.719	206098
612.786	204667
612.853	188352
612.919	179080
612.986	184347
613.053	174913
613.120	165464
613.186	154976
613.253	158374
613.319	156557
613.386	156648
613.453	159293
613.519	163090
613.586	160418
613.652	166790
613.719	163542
613.785	163219
613.852	163017
613.918	165223
613.985	164903
614.051	178915
614.118	202053
614.184	216141
614.250	167136
614.317	166613
614.383	161860
614.449	165963
614.516	164913
614.582	166123
614.648	164975
614.715	161418
614.781	160847
614.847	157499
614.914	159043
614.980	157200
615.046	153200
615.112	159596
615.179	161784
615.245	165056
615.311	169629
615.377	188300
615.443	210218
615.509	184499
615.575	176346
615.642	174673
615.708	174765
615.774	184161
615.840	199817
615.906	218022
615.972	260354
616.038	379162
616.104	647648
616.170	1274024
616.236	1656224
616.302	529229
616.368	300633
616.434	241416
616.500	205535
616.565	210114
616.631	240802
616.697	234271
616.763	220803
616.829	265667
616.895	418442
616.961	510155
617.026	300954
617.092	192670
617.158	176690
617.224	170838
617.289	159700
617.355	153516
617.421	147913
617.487	149210
617.552	142318
617.618	138645
617.684	139450
617.749	139378
617.815	135311
617.880	131207
617.946	130772
618.012	133360
618.077	136498
618.143	133153
618.208	129537
618.274	140704
618.339	146039
618.405	126173
618.470	119335
618.536	121525
618.601	120107
618.667	115883
618.732	107346
618.798	104285
618.863	105245
618.928	103457
618.994	105094
619.059	105627
619.124	110810
619.190	108211
619.255	104210
619.320	103986
619.386	105792
619.451	104160
619.516	102049
619.581	101958
619.647	103753
619.712	106487
619.777	101516
619.842	101195
619.907	103597
619.972	106129
620.038	106084
620.103	101903
620.168	101535
620.233	103179
620.298	102720
620.363	103424
620.428	106959
620.493	109449
620.558	111039
620.623	112328
620.688	112667
620.753	110345
620.818	114199
620.883	114671
620.948	114237
621.013	112023
621.078	111145
621.143	112123
621.207	115646
621.272	112989
621.337	111528
621.402	110780
621.467	113079
621.532	115075
621.596	113388
621.661	109744
621.726	106057
621.791	107154
621.855	108688
621.920	107224
621.985	110181
622.049	111788
622.114	112640
622.179	113705
622.243	113877
622.308	117819
622.373	122604
622.437	122337
622.502	116766
622.566	113661
622.631	113689
622.695	115083
622.760	114445
622.824	115181
622.889	115032
622.953	116188
623.018	122344
623.082	127718
623.147	121476
623.211	118383
623.276	119118
623.340	114800
623.404	110017
623.469	109403
623.533	111398
623.597	110915
623.662	107867
623.726	103888
623.790	95823
623.854	96381
623.919	97257
623.983	96638
624.047	97180
624.111	100104
624.176	99928
624.240	102005
624.304	105415
624.368	101470
624.432	99175
624.496	101851
624.560	106042
624.625	109666
624.689	107196
624.753	110427
624.817	107816
624.881	103406
624.945	97894
625.009	92847
625.073	93738
625.137	95887
625.201	101806
625.265	103451
625.329	96507
625.393	97816
625.456	97445
625.520	99934
625.584	102424
625.648	107302
625.712	114075
625.776	139639
625.839	152064
625.903	113733
625.967	82892
626.031	91818
626.095	117923
626.158	104668
626.222	79736
626.286	71001
626.349	68763
626.413	66576
626.477	65292
626.540	65708
626.604	64113
626.668	63732
626.731	62924
626.795	64327
626.858	62626
626.922	62626
626.986	60758
627.049	61532
627.113	63327
627.176	62448
627.240	60528
627.303	59369
627.366	60471
627.430	60113
627.493	60098
627.557	59757
627.620	61088
627.684	61799
627.747	61715
627.810	59219
627.874	53627
627.937	50570
628.000	54037
628.064	52057
628.127	46922
628.190	46697
628.253	45802
628.317	45031
628.380	42697
628.443	41599
628.506	43549
628.569	41427
628.632	38612
628.696	38161
628.759	38645
628.822	37926
628.885	36659
628.948	37079
629.011	35893
629.074	35342
629.137	34760
629.200	33700
629.263	35382
629.326	33620
629.389	34276
629.452	33231
629.515	33578
629.578	32635
629.641	34837
629.704	34166
629.767	34240
629.830	32752
629.892	32328
629.955	32585
630.018	32463
630.081	32785
630.144	33948
630.207	31975
630.269	32856
630.332	32043
630.395	32317
630.458	30384
630.520	29007
630.583	30744
630.646	29622
630.708	30423
630.771	29416
630.834	31124
630.896	30282
630.959	30680
631.021	29486
631.084	29415
631.146	30117
631.209	31738
631.272	30266
631.334	30094
631.397	28721
631.459	29724
631.522	30419
631.584	30947
631.646	32619
631.709	32214
631.771	33088
631.834	33073
631.896	31788
631.958	29644
632.021	30210
632.083	28491
632.145	29216
632.208	28969
632.270	29181
632.332	27549
632.395	27306
632.457	29348
632.519	27271
632.581	27871
632.643	27425
632.706	28798
632.768	26971
632.830	27791
632.892	27767
632.954	27621
633.016	29497
633.078	27892
633.141	27565
633.203	27855
633.265	27722
633.327	26371
633.389	26383
633.451	27450
633.513	28976
633.575	29442
633.637	28640
633.698	29478
633.760	30449
633.822	29854
633.884	29062
633.946	30240
634.008	31259
634.070	32148
634.132	35038
634.193	34837
634.255	33813
634.317	34423
634.379	35180
634.441	32338
634.502	30742
634.564	28737
634.626	28048
634.687	28079
634.749	26778
634.811	26515
634.873	26245
634.934	25354
634.996	25382
635.057	26431
635.119	25253
635.181	27539
635.242	26782
635.304	25264
635.365	27657
635.427	25965
635.488	25564
635.550	26163
635.611	26553
635.673	25014
635.734	28201
635.796	28088
635.857	29157
635.918	30400
635.980	31710
636.041	31612
636.102	34023
636.164	34426
636.225	33992
636.286	31243
636.348	29887
636.409	27247
636.470	25711
636.531	25560
636.593	26735
636.654	26954
636.715	24092
636.776	24210
636.838	23116
636.899	24171
636.960	23476
637.021	22655
637.082	22606
637.143	22740
637.204	22031
637.265	21720
637.326	22976
637.387	22500
637.448	21743
637.509	21959
637.570	22728
637.631	21673
637.692	21851
637.753	20482
637.814	20278
637.875	21200
637.936	21926
637.997	20478
638.058	21002
638.119	21300
638.179	20908
638.240	20652
638.301	21242
638.362	20922
638.423	20059
638.483	20955
638.544	18912
638.605	20273
638.666	18822
638.726	20676
638.787	20239
638.848	20182
638.908	19984
638.969	18549
639.030	19108
639.090	18971
639.151	18515
639.211	20002
639.272	20604
639.332	23319
639.393	21580
639.453	19675
639.514	20196
639.574	18979
639.635	17976
639.695	18699
639.756	17863
639.816	18270
639.877	17198
639.937	21007
639.997	23001
640.058	17911
640.118	18270
640.178	18175
640.239	16636
640.299	17571
640.359	16998
640.420	18022
640.480	18790
640.540	20047
640.600	20291
640.661	20957
640.721	19456
640.781	23388
640.841	24439
640.901	19968
640.961	17525
641.021	17462
641.082	18486
641.142	20301
641.202	18659
641.262	16299
641.322	18321
641.382	17080
641.442	16791
641.502	16715
641.562	17091
641.622	15932
641.682	17815
641.742	18555
641.802	18411
641.861	17130
641.921	16869
641.981	16998
642.041	16177
642.101	17224
642.161	16208
642.221	15981
642.280	15093
642.340	16352
642.400	14702
642.460	16291
642.519	16011
642.579	16406
642.639	17326
642.698	15106
642.758	18408
642.818	17265
642.877	16921
642.937	16858
642.997	17010
643.056	19899
643.116	16489
643.175	17734
643.235	17730
643.294	17628
643.354	18631
643.414	19806
643.473	22612
643.532	27063
643.592	34775
643.651	49525
643.711	78533
643.770	137733
643.830	288077
643.889	776129
643.948	405467
644.008	61826
644.067	32340
644.126	25276
644.186	21995
644.245	19239
644.304	16663
644.363	18371
644.423	16463
644.482	17149
644.541	17631
644.600	17156
644.659	22015
644.719	24495
644.778	31996
644.837	47357
644.896	83809
644.955	215124
645.014	150064
645.073	32997
645.132	21672
645.191	19577
645.250	17128
645.309	18762
645.368	19205
645.427	22490
645.486	27321
645.545	54744
645.604	30885
645.663	16735
645.722	17040
645.781	19011
645.840	20702
645.898	23658
645.957	33036
646.016	45177
646.075	73218
646.134	131169
646.192	293164
646.251	668967
646.310	211783
646.369	40909
646.427	27746
646.486	23150
646.545	17587
646.603	18007
646.662	15890
646.721	14773
646.779	15807
646.838	15312
646.896	18583
646.955	22737
647.014	31314
647.072	49425
647.131	124817
647.189	126497
647.248	23583
647.306	15748
647.365	14306
647.423	12404
647.481	14153
647.540	11680
647.598	12236
647.657	12926
647.715	12749
647.773	11598
647.832	12106
647.890	10798
647.948	11112
648.007	11825
648.065	10388
648.123	10791
648.181	13038
648.240	13587
648.298	15066
648.356	11979
648.414	11104
648.472	11190
648.531	11228
648.589	10510
648.647	10495
648.705	10740
648.763	10981
648.821	11325
648.879	11354
648.937	12642
648.995	14531
649.053	18315
649.111	23750
649.169	35432
649.227	60078
649.285	107636
649.343	307116
649.401	315740
649.459	48681
649.516	28748
649.574	21497
649.632	28762
649.690	44327
649.748	28619
649.806	30051
649.863	54553
649.921	89343
649.979	111379
650.037	23149
650.094	11283
650.152	11254
650.210	9672
650.268	11082
650.325	10856
650.383	12536
650.440	9292
650.498	8991
650.556	9279
650.613	8424
650.671	8157
650.728	8249
650.786	9437
650.843	9763
650.901	9320
650.958	8381
651.016	7753
651.073	8093
651.131	7969
651.188	7406
651.246	8041
651.303	7376
651.360	7917
651.418	6831
651.475	7784
651.532	5903
651.590	7695
651.647	6350
651.704	7807
651.762	7423
651.819	6768
651.876	6038
651.933	7679
651.990	6814
652.048	6296
652.105	7358
652.162	7376
652.219	7046
652.276	6975
652.333	7371
652.390	6539
652.448	7591
652.505	8151
652.562	6743
652.619	8968
652.676	10940
652.733	16711
652.790	9074
652.847	6569
652.904	6066
652.961	6139
653.017	6008
653.074	7593
653.131	6867
653.188	5079
653.245	6296
653.302	6471
653.359	5619
653.415	6511
653.472	5738
653.529	6564
653.586	6027
653.642	5624
653.699	6436
653.756	4835
653.813	5448
653.869	6908
653.926	6013
653.983	5775
654.039	6212
654.096	5980
654.152	7071
654.209	5214
654.266	6839
654.322	5654
654.379	5934
654.435	6564
654.492	5879
654.548	6883
654.605	9082
654.661	8866
654.717	5939
654.774	6876
654.830	6655
654.887	6477
654.943	6524
655.000	7617
655.056	7500
655.112	6411
655.168	5776
655.225	6620
655.281	6936
655.337	5674
655.394	9100
655.450	8593
655.506	7465
655.562	7730
655.618	10912
655.675	5056
655.731	5739
655.787	5144
655.843	6878
655.899	5360
655.955	6284
656.011	6025
656.067	4922
656.123	6015
656.179	6070
656.235	6890
656.291	6165
656.347	6450
656.403	5503
656.459	6365
656.515	5323
656.571	6001
656.627	6658
656.683	5814
656.739	6691
656.795	5497
656.850	5751
656.906	6026
656.962	7115
657.018	6273
657.074	6146
657.129	8494
657.185	9050
657.241	16410
657.297	18216
657.352	7132
657.408	5253
657.464	6753
657.519	5666
657.575	5181
657.630	5271
657.686	5235
657.742	5319
657.797	5523
657.853	5477
657.908	6818
657.964	4532
658.019	4752
658.075	5063
658.130	5084
658.186	4466
658.241	5695
658.297	4420
658.352	4888
658.407	6035
658.463	4805
658.518	5772
658.573	5585
658.629	4241
658.684	4462
658.739	5370
658.795	4551
658.850	5886
658.905	4814
658.960	5334
659.016	4927
659.071	5266
659.126	5698
659.181	5431
659.236	7160
659.291	7939
659.346	5377
659.401	6966
659.457	8013
659.512	10422
659.567	9493
659.622	6358
659.677	5186
659.732	4842
659.787	5087
659.842	5518
659.897	6179
659.952	5887
660.007	5493
660.061	5386
660.116	4735
660.171	5047
660.226	5362
660.281	6062
660.336	4227
660.391	5006
660.445	4133
660.500	5541
660.555	4907
660.610	5320
660.664	5135
660.719	4173
660.774	6088
660.828	4827
660.883	5633
660.938	5403
660.992	4538
661.047	5810
661.101	4914
661.156	4930
661.211	4674
661.265	4957
661.320	5505
661.374	4552
661.429	4433
661.483	5457
661.538	4783
661.592	4934
661.647	5750
661.701	6320
661.755	6542
661.810	5203
661.864	3841
661.919	5348
661.973	5767
662.027	4986
662.081	4491
662.136	4787
662.190	4764
662.244	5267
662.299	4916
662.353	5346
662.407	5279
662.461	4745
662.515	5278
662.569	4480
662.624	5553
662.678	5004
662.732	5080
662.786	4825
662.840	5600
662.894	5253
662.948	4043
663.002	4245
663.056	4746
663.110	3912
663.164	4769
663.218	4291
663.272	5104
663.326	4664
663.380	4469
663.434	5188
663.488	4926
663.542	4744
663.595	4977
663.649	5013
663.703	5179
663.757	4279
663.811	3917
663.864	3952
663.918	5455
663.972	4166
664.026	4601
664.079	4227
664.133	5023
664.187	4541
664.240	5008
664.294	4599
664.348	4897
664.401	4477
664.455	4639
664.508	4287
664.562	4377
664.615	4302
664.669	3745
664.722	5075
664.776	5116
664.829	4517
664.883	5154
664.936	3986
664.990	4775
665.043	5173
665.097	4949
665.150	5563
665.203	5062
665.257	5328
665.310	4820
665.363	4618
665.417	5278
665.470	4928
665.523	5337
665.576	4739
665.630	5527
665.683	4606
665.736	5329
665.789	5179
665.842	4289
665.895	4638
665.949	5183
666.002	3958
666.055	5156
666.108	5034
666.161	5585
666.214	5369
666.267	5572
666.320	5876
666.373	5982
666.426	5263
666.479	4132
666.532	5338
666.585	5375
666.638	5736
666.691	5260
666.744	5777
666.796	5158
666.849	5221
666.902	5471
666.955	4482
667.008	4194
667.060	4829
667.113	4573
667.166	5385
667.219	5167
667.271	4637
667.324	5478
667.377	4763
667.430	5247
667.482	6005
667.535	7222
667.587	5059
667.640	4605
667.693	5338
667.745	6473
667.798	7348
667.850	5475
667.903	4938
667.955	5321
668.008	4937
668.060	5855
668.113	4466
668.165	6070
668.218	5604
668.270	5768
668.322	4949
668.375	4803
668.427	5756
668.479	4546
668.532	4992
668.584	5193
668.636	5159
668.689	4784
668.741	4368
668.793	5451
668.845	4908
668.898	5625
668.950	4851
669.002	5358
669.054	4753
669.106	5780
669.158	5620
669.211	5856
669.263	5923
669.315	6770
669.367	8399
669.419	6811
669.471	6513
669.523	6222
669.575	7180
669.627	7868
669.679	5193
669.731	6102
669.783	6137
669.835	6585
669.886	6955
669.938	6931
669.990	5964
670.042	6242
670.094	7002
670.146	7959
670.197	8376
670.249	9922
670.301	11936
670.353	16512
670.404	22741
670.456	31337
670.508	47119
670.560	74573
670.611	123623
670.663	208230
670.715	409997
670.766	783126
670.818	496009
670.869	112725
670.921	40943
670.972	26273
671.024	18339
671.075	15191
671.127	11945
671.178	10096
671.230	10015
671.281	7946
671.333	8524
671.384	8551
671.436	8731
671.487	10401
671.538	12817
671.590	15338
671.641	20787
671.692	30757
671.744	54302
671.795	64158
671.846	31980
671.897	14694
671.949	11221
672.000	8711
672.051	7125
672.102	7437
672.153	5628
672.204	5993
672.256	5342
672.307	5510
672.358	5568
672.409	5642
672.460	5098
672.511	4991
672.562	4973
672.613	4822
672.664	4414
672.715	4644
672.766	4488
672.817	4389
672.868	3780
672.919	4484
672.970	4095
673.021	3943
673.071	4515
673.122	4202
673.173	4561
673.224	3717
673.275	4119
673.326	4283
673.376	4043
673.427	3683
673.478	4077
673.528	4087
673.579	3680
673.630	4328
673.680	3777
673.731	3453
673.782	3743
673.832	4266
673.883	4008
673.934	3142
673.984	3522
674.035	4193
674.085	3918
674.136	4294
674.186	3375
674.237	4226
674.287	5256
674.338	5421
674.388	3653
674.438	3675
674.489	4206
674.539	3255
674.589	4108
674.640	4449
674.690	4671
674.740	4318
674.791	4036
674.841	3998
674.891	4421
674.942	4362
674.992	3095
675.042	3658
675.092	2932
675.142	3292
675.193	3172
675.243	2387
675.293	3112
675.343	3457
675.393	3570
675.443	4033
675.493	3695
675.543	3088
675.593	4051
675.643	3217
675.693	2923
675.743	3736
675.793	3114
675.843	3373
675.893	3985
675.943	3718
675.993	3021
676.043	3325
676.093	3541
676.142	3666
676.192	2200
676.242	2896
676.292	3426
676.341	3196
676.391	3694
676.441	2656
676.491	3029
676.540	3062
676.590	3524
676.640	3295
676.689	3266
676.739	2613
676.789	2525
676.838	2570
676.888	3137
676.937	2509
676.987	2495
677.037	2911
677.086	2076
677.136	2725
677.185	3043
677.235	2670
677.284	2551
677.333	2512
677.383	2656
677.432	2963
677.482	2310
677.531	3227
677.580	1931
677.630	2509
677.679	2376
677.728	3467
677.778	3202
677.827	2796
677.876	2088
677.925	2831
677.975	2250
678.024	2251
678.073	2213
678.122	3253
678.171	3287
678.220	2533
678.269	3416
678.319	3815
678.368	3110
678.417	2972
678.466	4096
678.515	3771
678.564	2320
678.613	3138
678.662	2634
678.711	3814
678.760	3199
678.809	3295
678.857	2897
678.906	3355
678.955	2441
679.004	3894
679.053	2756
679.102	3800
679.151	3190
679.199	2620
679.248	3602
679.297	3009
679.346	2713
679.394	2783
679.443	3445
679.492	2813
679.540	2627
679.589	3358
679.638	3336
679.686	2755
679.735	2081
679.784	2895
679.832	3389
679.881	2266
679.929	2489
679.978	1957
680.026	2342
680.075	2756
680.123	1899
680.172	2790
680.220	3002
680.268	2867
680.317	1874
680.365	2292
680.414	2285
680.462	2802
680.510	2278
680.559	1773
680.607	1488
680.655	2258
680.703	1625
680.752	2555
680.800	2225
680.848	2408
680.896	662
680.945	2662
680.993	1926
681.041	2379
681.089	2094
681.137	1780
681.185	1670
681.233	1721
681.258	1899
681.281	2044
681.329	1375
681.377	1722
681.380	1774
681.425	2265
681.473	2366
681.502	2957
681.521	3321
681.569	3005
681.617	2879
681.624	2866
681.665	2603
681.713	3463
681.745	3224
681.761	3067
681.809	1950
681.857	2877
681.867	2985
681.904	3293
681.952	2560
681.989	2678
682.000	2682
682.048	2587
682.096	2539
682.111	2973
682.143	3825
682.191	3632
682.233	3506
682.239	3460
682.286	3154
682.334	2842
682.354	3008
682.382	3192
682.430	3116
682.476	2451
682.477	2415
682.525	2547
682.572	2838
682.598	3016
682.620	3132
682.667	3140
682.715	3507
682.720	3568
682.763	3946
682.810	3502
682.841	3838
682.857	3977
682.905	3337
682.952	3585
682.963	3616
683.000	3636
683.047	3838
683.085	4043
683.095	4086
683.142	3386
683.190	3831
683.206	3754
683.237	3533
683.284	4137
683.328	4166
683.332	4150
683.379	3926
683.426	3297
683.449	3570
683.473	3831
683.521	4324
683.568	4074
683.571	4064
683.615	3630
683.662	3992
683.693	4219
683.709	4321
683.757	4977
683.804	3859
683.814	3916
683.851	4049
683.898	4242
683.936	4577
683.945	4658
683.992	4628
684.039	4369
684.057	4367
684.086	4292
684.133	5020
684.179	4614
684.180	4585
684.227	4913
684.274	5116
684.300	4796
684.321	4496
684.368	4543
684.415	4596
684.422	4590
684.462	4526
684.509	4486
684.543	4482
684.556	4446
684.603	5201
684.649	5682
684.665	5379
684.696	4747
684.743	5036
684.786	5026
684.790	5014
684.837	5547
684.883	5047
684.908	5207
684.930	5370
684.977	5868
685.023	6121
685.029	6097
685.070	5625
685.117	5497
685.150	5213
685.164	5168
685.210	5693
685.257	6181
685.272	6346
685.303	6503
685.350	5601
685.393	6206
685.396	6246
685.443	6035
685.490	6565
685.514	6412
685.536	6317
685.583	6280
685.629	6625
685.636	6580
685.675	6083
685.722	6077
685.757	6037
685.768	6065
685.815	6020
685.861	6534
685.878	6606
685.908	6698
685.954	5815
686.000	6818
686.000	6830
686.047	6691
686.093	7325
686.121	7956
686.139	8277
686.185	7431
686.232	7210
686.242	7241
686.278	7302
686.324	7342
686.363	7094
686.370	7040
686.416	6078
686.463	7159
686.484	6884
686.509	6737
686.555	7346
686.601	7161
686.606	7201
686.647	7215
686.693	7037
686.727	6882
686.739	6885
686.785	7090
686.831	6816
686.848	6920
686.877	6975
686.923	6986
686.969	6274
686.969	6270
687.015	6777
687.061	7406
687.090	7721
687.107	7930
687.153	7776
687.199	7441
687.211	7498
687.245	7455
687.291	7275
687.332	7200
687.336	7219
687.382	8193
687.428	7955
687.453	8091
687.474	8036
687.520	7937
687.565	7514
687.574	7551
687.611	8041
687.657	8480
687.695	8591
687.702	8696
687.748	9645
687.794	11225
687.816	11428
687.839	10995
687.885	10335
687.931	9516
687.937	9362
687.976	8532
688.022	8122
688.058	8120
688.067	8222
688.113	8056
688.158	7679
688.179	7840
688.204	8021
688.249	8208
688.295	8122
688.300	8163
688.340	8611
688.386	8635
688.421	8375
688.431	8273
688.477	8694
688.522	8392
688.542	8256
688.567	8199
688.613	8916
688.658	8703
688.663	8735
688.703	8894
688.749	8896
688.784	8885
688.794	8889
688.839	8951
688.884	8853
688.905	8741
688.930	8648
688.975	8718
689.020	8809
689.026	8838
689.065	9118
689.110	8888
689.146	8716
689.155	8727
689.201	9100
689.246	9444
689.267	9583
689.291	9552
689.336	9313
689.381	9020
689.388	9084
689.426	9450
689.471	8990
689.509	9109
689.516	9173
689.561	8899
689.606	8630
689.630	8752
689.651	8901
689.696	8599
689.741	8725
689.750	8777
689.785	9082
689.830	9383
689.871	9554
689.875	9545
689.920	9337
689.965	8915
689.992	8890
690.010	9046
690.054	8992
690.099	9200
690.112	9163
690.144	9047
690.189	9153
690.233	9580
690.233	9594
690.278	9662
690.323	8911
690.354	9239
690.367	9506
690.412	9913
690.457	10277
690.474	10553
690.501	10830
690.546	10508
690.590	10808
690.595	10788
690.635	11026
690.680	11638
690.716	11947
690.724	12205
690.769	13461
690.813	14962
690.836	15696
690.857	17304
690.902	21121
690.946	24814
690.957	25883
690.991	36069
691.035	50013
691.077	65222
691.080	65663
691.124	67589
691.168	66375
691.198	66865
691.213	61277
691.257	44974
691.301	29641
691.318	23551
691.346	21387
691.390	17981
691.434	14270
691.439	13878
691.478	13404
691.522	12793
691.559	12397
691.567	12394
691.611	11829
691.655	11707
691.680	11600
691.699	11619
691.743	11929
691.787	11087
691.800	11098
691.831	11241
691.875	11329
691.919	11188
691.921	11173
691.964	11518
692.008	11744
692.041	11578
692.052	11471
692.096	11514
692.139	11615
692.162	11243
692.183	11054
692.227	11155
692.271	11415
692.282	11434
692.315	11508
692.359	11300
692.402	11331
692.403	11352
692.447	11319
692.490	11271
692.523	11123
692.534	11172
692.578	11392
692.622	11878
692.643	11903
692.666	11715
692.709	11533
692.753	11023
692.763	11001
692.797	11525
692.840	11794
692.884	11923
692.884	11947
692.928	12067
692.971	12332
693.004	12516
693.015	12558
693.059	12149
693.102	12097
693.124	11867
693.146	12036
693.189	12884
693.233	13371
693.245	13512
693.276	14032
693.320	14652
693.363	15101
693.365	15097
693.407	16331
693.450	17599
693.485	18764
693.493	19409
693.537	22043
693.580	25173
693.605	26962
693.624	30682
693.667	39708
693.710	48807
693.725	52059
693.753	71471
693.797	102313
693.840	135658
693.845	139075
693.883	143345
693.926	143503
693.966	144887
693.970	141454
694.013	104115
694.056	66951
694.086	41732
694.099	39512
694.142	31863
694.185	24413
694.206	20794
694.229	19892
694.272	18349
694.315	16634
694.326	16206
694.358	15949
694.401	15676
694.444	14992
694.446	14928
694.487	14405
694.530	14007
694.566	13596
694.573	13584
694.616	13366
694.659	13013
694.686	12787
694.702	12762
694.745	12648
694.787	12617
694.806	12555
694.830	12417
694.873	11980
694.916	11750
694.926	11625
694.959	11657
695.002	11682
695.044	11760
695.046	11735
695.087	12063
695.130	12442
695.166	12584
695.172	12616
695.215	12839
695.258	12898
695.286	12969
695.301	12997
695.343	12867
695.386	12973
695.406	12887
695.428	12854
695.471	12759
695.514	12772
695.526	12726
695.556	13105
695.599	13773
695.641	14201
695.646	14214
695.684	14019
695.726	13715
695.766	13452
695.769	13478
695.811	13630
695.854	13480
695.886	13492
695.896	13534
695.938	13239
695.981	13080
696.005	13000
696.023	13052
696.065	13020
696.108	13054
696.125	13130
696.150	13495
696.192	13636
696.235	13982
696.245	14037
696.277	14055
696.319	14012
696.361	13964
696.365	13922
696.404	14323
696.446	14831
696.485	15243
696.488	15277
696.530	15083
696.572	14986
696.604	14918
696.614	14930
696.656	14733
696.698	14589
696.724	14486
696.740	14476
696.783	14284
696.825	14167
696.844	14023
696.867	13896
696.909	13773
696.951	13369
696.964	13282
696.992	13605
697.034	13933
697.076	14245
697.083	14275
697.118	14377
697.160	14456
697.202	14437
697.203	14400
697.244	14361
697.286	14436
697.323	14337
697.327	14360
697.369	14202
697.411	14167
697.442	14016
697.453	14100
697.494	14370
697.536	14634
697.562	14761
697.578	14845
697.620	14955
697.661	15018
697.682	15034
697.703	15149
697.744	15316
697.786	15478
697.801	15479
697.828	15604
697.869	15807
697.911	15878
697.921	15876
697.952	15904
697.994	15909
698.035	15911
698.040	15861
698.077	15467
698.118	15000
698.160	14555
698.160	14513
698.201	14624
698.243	14674
698.279	14700
698.284	14792
698.325	15290
698.367	15763
698.399	16090
698.408	16088
698.449	15891
698.491	15725
698.518	15546
698.532	15707
698.573	16081
698.614	16479
698.638	16642
698.656	16505
698.697	16115
698.738	15697
698.757	15471
698.779	15594
698.820	15742
698.862	15871
698.877	15883
698.903	16207
698.944	16661
698.985	17109
698.996	17191
699.026	16876
699.067	16380
699.116	15747
699.235	16591
699.354	15789
699.474	15764
699.593	16458
699.713	16630
699.832	15727
699.951	15593
700.070	15337
700.190	15100
700.309	15454
700.428	14885
700.547	15341
700.667	14698
700.786	15384
700.905	14364
701.024	14702
701.143	15140
701.262	13789
701.381	14538
701.500	15028
701.619	14550
701.738	14378
701.857	13503
701.976	13794
702.095	13667
702.214	15771
702.333	14339
702.452	14377
702.571	13937
702.690	14373
702.809	14987
702.928	13717
703.047	13862
703.165	14015
703.284	13432
703.403	13157
703.522	14251
703.640	13934
703.759	15026
703.878	16921
703.997	13962
704.115	13404
704.234	12845
704.353	12512
704.471	12453
704.590	12488
704.708	11753
704.827	12974
704.946	13589
705.064	12926
705.183	13152
705.301	12836
705.420	18292
705.538	17926
705.656	15293
705.775	18240
705.893	30273
706.012	50635
706.130	19450
706.249	16356
706.367	15697
706.485	15476
706.604	15114
706.722	15954
706.840	17520
706.958	22282
707.077	19807
707.195	14213
707.313	14885
707.431	14429
707.549	13383
707.668	13459
707.786	13766
707.904	14177
708.022	13286
708.140	13830
708.258	13529
708.376	14136
708.494	13317
708.612	14812
708.730	18610
708.848	18693
708.966	16134
709.084	16528
709.202	15614
709.320	16037
709.438	15386
709.556	16808
709.674	16119
709.791	16123
709.909	14931
710.027	14632
710.145	15298
710.263	15436
710.380	14725
710.498	15422
710.616	14651
710.733	14882
710.851	15198
710.969	15524
711.086	14477
711.204	14225
711.322	14644
711.439	14810
711.557	14568
711.674	13886
711.792	14971
711.909	15599
712.027	19428
712.144	14180
712.262	13262
712.379	14401
712.497	19235
712.614	20839
712.732	17911
712.849	16205
712.966	17095
713.084	18496
713.201	17641
713.318	17671
713.436	17536
713.553	17417
713.670	16963
713.787	18305
713.905	18718
714.022	17367
714.139	17359
714.256	20006
714.373	24663
714.490	37921
714.608	77260
714.725	328695
714.842	559575
714.959	56847
715.076	22207
715.193	17123
715.310	17792
715.427	16674
715.544	15222
715.661	14785
715.778	15088
715.895	16122
716.011	16046
716.128	15348
716.245	14476
716.362	14865
716.479	15997
716.596	14292
716.713	15568
716.829	14686
716.946	13770
717.063	14170
717.180	12782
717.296	13732
717.413	13628
717.530	13039
717.646	13036
717.763	14022
717.880	12337
717.996	11997
718.113	12573
718.229	12005
718.346	12044
718.462	11334
718.579	13063
718.695	15152
718.812	15666
718.928	13863
719.045	13255
719.161	12146
719.277	11803
719.394	12427
719.510	14210
719.626	12690
719.743	15772
719.859	19236
719.975	31532
720.092	96703
720.208	299724
720.324	66862
720.440	15646
720.557	14043
720.673	15451
720.789	18082
720.905	32823
721.021	20939
721.137	10576
721.253	11006
721.369	12006
721.486	12372
721.602	14479
721.718	11282
721.834	11158
721.950	10884
722.066	9940
722.181	10875
722.297	10547
722.413	10946
722.529	9900
722.645	10265
722.761	9670
722.877	10064
722.993	9591
723.108	11369
723.224	10627
723.340	10722
723.456	9804
723.571	9482
723.687	8840
723.803	8701
723.918	9449
724.034	9754
724.150	9827
724.265	9698
724.381	14260
724.497	20729
724.612	9766
724.728	9111
724.843	8689
724.959	10622
725.074	14101
725.190	18876
725.305	9892
725.421	9736
725.536	9298
725.651	8707
725.767	8867
725.882	8671
725.997	8839
726.113	8297
726.228	8300
726.343	8853
726.459	7037
726.574	8842
726.689	8026
726.804	8245
726.920	8184
727.035	8606
727.150	8636
727.265	7231
727.380	8602
727.495	8572
727.610	7884
727.725	8339
727.841	10370
727.956	20541
728.071	21610
728.186	8929
728.301	7655
728.416	8685
728.531	8020
728.645	7556
728.760	7201
728.875	7708
728.990	7566
729.105	7496
729.220	7303
729.335	7478
729.449	7978
729.564	6902
729.679	7513
729.794	7069
729.908	7592
730.023	7740
730.138	6733
730.253	7669
730.367	7558
730.482	6393
730.596	7373
730.711	8365
730.826	8428
730.940	10543
731.055	7795
731.169	7777
731.284	7460
731.398	7218
731.513	8424
731.627	9071
731.742	9001
731.856	9954
731.970	9358
732.085	10293
732.199	13605
732.313	20629
732.428	46684
732.542	141957
732.656	131566
732.771	23663
732.885	12534
732.999	11240
733.113	12328
733.227	11473
733.342	9581
733.456	10058
733.570	10766
733.684	8979
733.798	9195
733.912	9547
734.026	9049
734.140	9551
734.254	9121
734.368	11110
734.482	15137
734.596	9498
734.710	8803
734.824	8249
734.938	8715
735.052	7716
735.166	8957
735.280	9211
735.393	8141
735.507	7890
735.621	9773
735.735	13325
735.849	9403
735.962	8072
736.076	8547
736.190	8408
736.303	9929
736.417	11399
736.531	8282
736.644	9040
736.758	7236
736.872	7685
736.985	8090
737.099	8319
737.212	7355
737.326	7690
737.439	7603
737.553	7015
737.666	8464
737.780	7316
737.893	7387
738.007	7393
738.120	6938
738.233	6624
738.347	7975
738.460	6989
738.573	8050
738.687	7113
738.800	7985
738.913	8688
739.026	7320
739.140	8877
739.253	8571
739.366	7211
739.479	6876
739.592	6883
739.705	7248
739.818	7186
739.932	6794
740.045	7332
740.158	7664
740.271	7425
740.384	8196
740.497	6877
740.610	6898
740.723	6975
740.836	7292
740.949	7275
741.062	7622
741.174	9076
741.287	7004
741.400	6932
741.513	6061
741.626	6838
741.739	7429
741.851	7151
741.964	6535
742.077	6480
742.189	5629
742.302	7340
742.415	6973
742.527	6540
742.640	7026
742.753	6445
742.865	6172
742.978	6211
743.090	5955
743.203	6555
743.316	6773
743.428	6275
743.541	6239
743.653	5660
743.766	5539
743.878	6092
743.990	7065
744.103	7578
744.215	7429
744.327	6074
744.440	7289
744.552	8565
744.664	6910
744.777	6357
744.889	6597
745.001	5993
745.113	5832
745.226	6036
745.338	6490
745.450	6393
745.562	6938
745.674	6325
745.786	6182
745.898	6770
746.010	6586
746.122	6079
746.234	6540
746.347	6283
746.459	6497
746.570	5981
746.682	6495
746.794	7073
746.906	5599
747.018	5500
747.130	6528
747.242	5686
747.354	6420
747.466	6519
747.577	5921
747.689	5039
747.801	6737
747.913	5443
748.024	5744
748.136	5583
748.248	5823
748.359	5994
748.471	5925
748.583	5823
748.694	6512
748.806	9281
748.918	6724
749.029	6627
749.141	5984
749.252	6152
749.364	5824
749.475	7835
749.587	7321
749.698	5987
749.809	6684
749.921	5629
750.032	6389
750.144	5275
750.255	5180
750.366	5550
750.478	5967
750.589	6226
750.700	5610
750.811	6448
750.923	5718
751.034	7088
751.145	9440
751.256	5582
751.367	6135
751.479	5785
751.590	6179
751.701	5490
751.812	5011
751.923	5975
752.034	6607
752.145	5799
752.256	6079
752.367	6024
752.478	5996
752.589	5635
752.700	6417
752.811	5701
752.922	5400
753.032	5722
753.143	6014
753.254	5953
753.365	6980
753.476	6308
753.586	6098
753.697	4910
753.808	5939
753.919	5453
754.029	5447
754.140	6191
754.251	5574
754.361	6388
754.472	6045
754.582	5724
754.693	6004
754.804	6277
754.914	5663
755.025	6486
755.135	6307
755.246	6115
755.356	6503
755.466	6029
755.577	6137
755.687	6805
755.798	5984
755.908	5868
756.018	5151
756.129	6720
756.239	6445
756.349	6281
756.460	6699
756.570	6762
756.680	6795
756.790	6655
756.900	6850
757.011	6718
757.121	6816
757.231	6412
757.341	7355
757.451	6562
757.561	6974
757.671	6604
757.781	6591
757.891	6638
758.001	6980
758.111	7684
758.221	7905
758.331	7673
758.441	7730
758.551	8110
758.661	8879
758.771	8618
758.880	7741
758.990	8681
759.100	8648
759.210	8236
759.320	8674
759.429	8987
759.539	8517
759.649	9398
759.758	9309
759.868	10598
759.978	10058
760.087	9405
760.197	10841
760.307	10006
760.416	9604
760.526	10087
760.635	10795
760.745	10933
760.854	11240
760.964	12287
761.073	12498
761.182	12712
761.292	11719
761.401	11838
761.511	12314
761.620	11787
761.729	11907
761.839	12877
761.948	13199
762.057	13196
762.166	12720
762.276	13651
762.385	14532
762.494	14746
762.603	14465
762.712	15242
762.822	15831
762.931	16196
763.040	16975
763.149	17469
763.258	17857
763.367	18672
763.476	20745
763.585	20580
763.694	22652
763.803	23206
763.912	25116
764.021	25830
764.130	26847
764.238	28455
764.347	31636
764.456	34269
764.565	35353
764.674	38596
764.783	44010
764.891	46894
765.000	53356
765.109	60000
765.217	68719
765.326	81423
765.435	96727
765.543	117182
765.652	145527
765.761	190593
765.869	259078
765.978	367153
766.086	547696
766.195	845471
766.303	1215570
766.412	1153900
766.520	986187
766.629	1270095
766.737	910968
766.846	578154
766.954	386932
767.062	276852
767.171	207869
767.279	160351
767.387	126014
767.496	104126
767.604	89153
767.712	77411
767.820	68767
767.928	63485
768.037	58744
768.145	55126
768.253	52444
768.361	50400
768.469	50573
768.577	49993
768.685	52399
768.793	56526
768.901	61836
769.009	70911
769.117	83722
769.225	107609
769.333	148109
769.441	221844
769.549	360477
769.657	642769
769.765	1048424
769.873	1008259
769.981	1063098
770.088	743739
770.196	408641
770.304	253992
770.412	175929
770.519	130329
770.627	101337
770.735	80618
770.842	68231
770.950	58069
771.058	50393
771.165	45887
771.273	41019
771.380	38322
771.488	35092
771.595	31829
771.703	29332
771.810	28446
771.918	25482
772.025	24524
772.133	22698
772.240	22508
772.348	22393
772.455	21565
772.562	19272
772.670	18716
772.777	18362
772.884	17072
772.991	17065
773.099	16937
773.206	15748
773.313	16244
773.420	15243
773.528	14382
773.635	14496
773.742	13639
773.849	13661
773.956	13156
774.063	12168
774.170	12182
774.277	12553
774.384	12440
774.491	11900
774.598	12172
774.705	11259
774.812	11745
774.919	12152
775.026	11425
775.133	10619
775.239	11174
775.346	10339
775.453	10663
775.560	10516
775.667	9757
775.773	9468
775.880	9978
775.987	9108
776.093	8776
776.200	9757
776.307	8574
776.413	8947
776.520	8007
776.627	9241
776.733	7836
776.840	7296
776.946	9561
777.053	9173
777.159	8649
777.266	7300
777.372	9264
777.478	8732
777.585	9076
777.691	7422
777.798	8232
777.904	9064
778.010	10240
778.117	8591
778.223	7812
778.329	8217
778.435	7092
778.542	7887
778.648	6862
778.754	6639
778.860	7250
778.966	7119
779.072	6969
779.178	7235
779.284	7384
779.391	7913
779.497	7947
779.603	11485
779.708	16539
779.815	34307
779.920	111644
780.026	287604
780.132	73158
780.238	13118
780.344	8288
780.450	8781
780.556	7966
780.661	6103
780.767	6965
780.873	5809
780.979	6133
781.085	6175
781.190	5845
781.296	5069
781.402	5482
781.507	5241
781.613	5401
781.719	4604
781.824	6240
781.930	5193
782.035	5700
782.141	5232
782.246	4609
782.352	4627
782.457	5755
782.563	4968
782.668	4964
782.773	5193
782.879	4906
782.984	5117
783.090	5378
783.195	5773
783.300	5472
783.405	5168
783.511	4932
783.616	4572
783.721	4973
783.826	5188
783.932	4604
784.037	4576
784.142	4271
784.247	4132
784.352	3856
784.457	5462
784.562	4304
784.667	5597
784.772	4031
784.877	3429
784.982	5155
785.087	4884
785.192	4180
785.297	4007
785.402	4425
785.507	3497
785.611	3875
785.716	4444
785.821	3387
785.926	4134
786.031	4343
786.135	3396
786.240	4372
786.345	2623
786.450	3551
786.554	3432
786.659	3254
786.763	2541
786.868	4392
786.973	3993
787.077	3955
787.182	3135
787.286	4006
787.391	3593
787.495	3435
787.600	3458
787.704	3199
787.809	3673
787.913	2660
788.017	3539
788.122	3224
788.226	3471
788.330	2965
788.435	3275
788.539	3844
788.643	3342
788.747	3005
788.852	3200
788.956	3147
789.060	3598
789.164	3650
789.268	3003
789.372	3454
789.476	2939
789.580	3011
789.684	2580
789.788	3722
789.892	3306
789.996	3368
790.100	3288
790.204	3268
790.308	3958
790.412	3483
790.516	4231
790.620	4022
790.724	3473
790.828	2957
790.931	2909
791.035	3114
791.139	3976
791.242	2579
791.346	3283
791.450	3354
791.554	2856
791.657	1844
791.761	3833
791.864	3292
791.968	3494
792.072	3085
792.175	2813
792.279	2814
792.382	2786
792.486	2504
792.589	2516
792.693	3871
792.796	2827
792.899	2320
793.003	3062
793.106	2290
793.209	2471
793.313	3523
793.416	1903
793.519	3622
793.623	3073
793.726	3554
793.829	2821
793.932	3123
794.035	1851
794.138	3400
794.242	4728
794.345	4992
794.448	8933
794.551	18062
794.654	61933
794.757	166341
794.860	49512
794.963	6235
795.066	4037
795.169	3978
795.272	2855
795.375	3427
795.477	3109
795.580	2265
795.683	1403
795.786	2639
795.889	1376
795.991	3557
796.094	2605
796.197	2250
796.300	2693
796.402	2383
796.505	2991
796.608	2063
796.710	1829
796.813	1796
796.915	1959
797.018	2452
797.120	2594
797.223	1724
797.326	2260
797.428	1796
797.530	1924
797.633	1684
797.735	2705
797.838	3238
797.940	3902
798.042	2358
798.145	1789
798.247	2374
798.349	1868
798.452	2510
798.554	2610
798.656	1528
798.758	2233
798.860	2004
798.962	1384
799.065	1409
799.167	1152
799.269	2401
799.371	2594
799.473	1965
799.575	1884
799.677	2086
799.779	2944
799.881	1322
799.983	2487
800.085	1766
800.187	2012
800.289	1131
800.390	1037
800.492	2224
800.594	2526
800.696	1297
800.798	1336
800.899	1258
801.001	1707
801.103	1426
801.205	1698
801.306	1876
801.408	902
801.509	1769
801.611	2159
801.713	1377
801.814	1543
801.916	1060
802.017	1731
802.119	1296
802.220	887
802.322	1324
802.423	2422
802.525	2072
802.626	1125
802.727	2272
802.829	1789
802.930	-264
803.031	2240
803.133	1886
803.234	1492
803.335	1612
803.436	1680
803.538	1297
803.639	180
803.740	1135
803.841	899
803.942	2005
804.043	1952
804.144	1105
804.245	378
804.346	1003
804.447	1361
804.548	1399
804.649	2880
804.750	1355
804.851	1571
804.952	1784
805.053	1399
805.154	1297
805.255	1806
805.355	787
805.456	1214
805.557	1036
805.658	672
805.758	1707
805.859	1130
805.960	1399
806.061	840
806.161	1251
806.262	1299
806.362	1256
806.463	1301
806.564	1255
806.664	1146
806.765	1819
806.865	1815
806.966	1228
807.066	1098
807.166	1736
807.267	1828
807.367	930
807.468	1498
807.568	642
807.668	1575
807.769	1256
807.869	873
807.969	1729
808.069	920
808.170	931
808.270	377
808.370	2027
808.470	732
808.570	344
808.670	1186
808.770	1154
808.870	690
808.970	2000
809.070	664
809.170	882
809.271	1263
809.370	1271
809.470	1450
809.570	334
809.670	710
809.770	978
809.870	1403
809.970	1574
810.070	1121
810.169	740
810.269	-154
810.369	2322
810.469	1282
810.568	273
810.668	1447
810.768	273
810.867	757
810.967	888
811.066	908
811.166	1116
811.265	1160
811.365	818
811.464	879
811.564	919
811.663	1010
811.763	197
811.862	1381
811.962	1176
812.061	801
812.160	292
812.260	1587
812.359	1579
812.458	1686
812.557	5193
812.657	9502
812.756	4793
812.855	1435
812.954	1325
813.053	1234
813.153	1045
813.252	1199
813.351	1659
813.450	938
813.549	176
813.648	349
813.747	655
813.846	1472
813.945	1768
814.044	1298
814.143	1704
814.242	1480
814.341	727
814.439	1885
814.538	1236
814.637	1146
814.736	1854
814.835	2603
814.933	1021
815.032	1594
815.131	1913
815.229	1519
815.328	3550
815.427	3462
815.525	3123
815.624	2829
815.722	2525
815.821	2234
815.919	2739
816.018	2170
816.116	3515
816.215	3081
816.313	3184
816.412	4064
816.510	3913
816.609	5187
816.707	4634
816.805	4317
816.904	3679
817.002	4583
817.100	5509
817.198	5576
817.296	5528
817.395	5818
817.493	7680
817.591	8171
817.689	10410
817.787	13817
817.885	19705
817.983	34881
818.081	69754
818.179	159955
818.277	372279
818.375	434746
818.473	157178
818.571	53117
818.669	32634
818.767	25673
818.865	26574
818.963	29466
819.061	40696
819.158	65969
819.256	129046
819.354	274939
819.452	557149
819.549	504661
819.647	195458
819.745	74203
819.842	40778
819.940	27397
820.038	19582
820.135	16183
820.233	13561
820.330	10444
820.428	8140
820.525	8686
820.623	6359
820.720	6320
820.818	6526
820.915	5585
821.012	5491
821.110	4240
821.207	4729
821.304	4005
821.402	4168
821.499	4701
821.596	3950
821.693	3979
821.791	4007
821.888	3614
821.985	4623
822.082	3591
822.179	3293
822.276	3215
822.373	2872
822.470	2310
822.567	3223
822.664	2337
822.761	2205
822.858	2020
822.955	1980
823.052	2574
823.149	1895
823.246	2710
823.343	2058
823.440	1988
823.536	1996
823.633	2230
823.730	1683
823.827	1795
823.923	1974
824.020	2318
824.117	2126
824.213	1420
824.310	2053
824.407	1396
824.503	1683
824.600	2527
824.696	794
824.793	2187
824.889	1543
824.986	1603
825.082	1345
825.179	1627
825.275	805
825.371	1478
825.468	1984
825.564	-531
825.660	1384
825.757	2066
825.853	1895
825.949	647
826.045	1824
826.142	1041
826.238	1453
826.334	1640
826.430	649
826.526	1630
826.622	697
826.718	1496
826.814	1228
826.910	2150
827.006	508
827.102	243
827.198	1564
827.294	1064
827.390	1062
827.486	1585
827.582	575
827.678	882
827.774	2122
827.869	560
827.965	2302
828.061	661
828.157	828
828.252	116
828.348	592
828.444	1174
828.539	492
828.635	1501
828.731	1305
828.826	-47
828.922	2006
829.017	1319
829.113	300
829.208	1265
829.304	634
829.399	2580
829.495	837
829.590	1577
829.685	461
829.781	1306
829.876	913
829.971	195
830.066	676
830.162	315
830.257	1956
830.352	88
830.447	1563
830.543	986
830.638	66
830.733	1329
830.828	603
830.923	755
831.018	671
831.113	1730
831.208	713
831.303	1305
831.398	519
831.493	978
831.588	648
831.683	515
831.778	-191
831.873	703
831.967	1260
832.062	510
832.157	732
832.252	842
832.346	739
832.441	1410
832.536	1280
832.631	2518
832.725	2246
832.820	314
832.914	795
833.009	-55
833.104	796
833.198	1003
833.293	670
833.387	782
833.482	1007
833.576	331
833.670	579
833.765	842
833.859	929
833.954	491
834.048	879
834.142	93
834.237	297
834.331	1204
834.425	439
834.519	396
834.613	836
834.708	33
834.802	1204
834.896	-196
834.990	999
835.084	857
835.178	436
835.272	-192
835.366	623
835.460	598
835.554	720
835.648	551
835.742	935
835.836	93
835.930	-980
836.024	950
836.117	253
836.211	422
836.305	1090
836.399	1345
836.493	320
836.586	1525
836.680	22
836.774	34
836.867	784
836.961	714
837.055	512
837.148	-131
837.242	1252
837.335	-101
837.429	278
837.522	-72
837.616	-264
837.709	1826
837.803	173
837.896	113
837.989	1149
838.083	817
838.176	2340
838.269	2102
838.363	956
838.456	-478
838.549	934
838.642	1059
838.735	2635
838.829	1360
838.922	143
839.015	480
839.108	258
839.201	545
839.294	710
839.387	615
839.480	-187
839.573	448
839.666	915
839.759	440
839.852	-549
839.945	235
840.038	689
840.131	-78
840.223	-441
840.316	-387
840.409	107
840.502	404
840.594	588
840.687	-539
840.780	-185
840.873	-138
840.965	498
841.058	535
841.150	1614
841.243	1274
841.336	302
841.428	313
841.521	-548
841.613	-588
841.706	748
841.798	839
841.890	101
841.983	-446
842.075	737
842.167	453
842.260	384
842.352	978
842.444	1041
842.537	1553
842.629	3357
842.721	682
842.813	795
842.905	-712
842.997	-27
843.090	-104
843.182	836
843.274	1414
843.366	4271
843.458	9391
843.550	8644
843.642	1370
843.734	759
843.826	139
843.918	499
844.009	776
844.101	208
844.193	-180
844.285	190
844.377	893
844.469	482
844.560	367
844.652	-107
844.744	227
844.835	386
844.927	171
845.019	-9
845.110	-227
845.202	-172
845.293	561
845.385	-169
845.476	397
845.568	854
845.659	519
845.751	854
845.842	271
845.934	219
846.025	301
846.116	377
846.208	565
846.299	-336
846.390	89
846.482	718
846.573	373
846.664	542
846.755	457
846.846	1047
846.937	-472
847.029	724
847.120	-851
847.211	-211
847.302	686
847.393	-192
847.484	705
847.575	-421
847.666	-890
847.757	599
847.847	-585
847.938	626
848.029	-285
848.120	-210
848.211	-592
848.302	-447
848.392	-558
848.483	927
848.574	-175
848.664	-423
848.755	-7
848.846	54
848.936	-432
849.027	-675
849.118	390
849.208	237
849.299	730
849.389	1181
849.480	3230
849.570	5851
849.661	11096
849.751	23556
849.841	12838
849.932	1100
850.022	-524
850.112	583
850.203	370
850.293	-742
850.383	-148
850.474	-717
850.564	194
850.654	477
850.744	-316
850.834	-3
850.924	-353
851.014	396
851.104	582
851.194	-655
851.284	287
851.374	89
851.464	-85
851.554	283
851.644	449
851.734	1310
851.824	1517
851.914	2596
852.004	4956
852.094	6997
852.183	2006
852.273	228
852.363	-131
852.452	33
852.542	286
852.632	-489
852.721	385
852.811	-589
852.901	-436
852.990	30
853.080	151
853.169	118
853.259	-47
853.348	243
853.438	482
853.527	1280
853.617	1224
853.706	3911
853.795	8550
853.885	19333
853.974	39562
854.063	66650
854.152	132992
854.242	75924
854.331	11188
854.420	2645
854.509	2252
854.598	1880
854.687	1250
854.777	1001
854.866	917
854.955	697
855.044	-124
855.133	272
855.222	-265
855.311	-472
855.400	-96
855.488	-469
855.577	-247
855.666	437
855.755	662
855.844	1121
855.933	825
856.021	1050
856.110	299
856.199	-164
856.288	-148
856.376	55
856.465	-584
856.554	166
856.642	577
856.731	-91
856.819	-611
856.908	-1
856.996	-241
857.085	-385
857.173	80
857.262	290
857.350	-598
857.438	-52
857.527	-415
857.615	-501
857.703	387
857.792	-644
857.880	-76
857.968	-344
858.056	362
858.145	-197
858.233	-642
858.321	-698
858.409	610
858.497	-542
858.585	-228
858.673	-81
858.761	-321
858.849	-312
858.937	-742
859.025	-408
859.113	-77
859.201	-1095
859.289	275
859.377	-636
859.465	-493
859.552	-979
859.640	-349
859.728	-65
859.816	-15
859.903	-153
859.991	-744
860.079	-393
860.166	-734
860.254	-386
860.342	-341
860.429	-762
860.517	-424
860.604	191
860.692	-307
860.779	-632
860.867	-399
860.954	-273
861.042	-567
861.129	-597
861.216	-1035
861.304	-779
861.391	10
861.478	-924
861.565	-315
861.653	-386
861.740	-240
861.827	-736
861.914	457
862.001	-1036
862.089	-89
862.176	156
862.263	-80
862.350	-920
862.437	-1042
862.524	-432
862.611	-407
862.698	182
862.785	-470
862.871	-490
862.958	-497
863.045	-372
863.132	-156
863.219	-954
863.306	-877
863.392	509
863.479	-28
863.566	368
863.652	-300
863.739	-137
863.826	35
863.912	-562
863.999	-455
864.086	-107
864.172	-200
864.259	-485
864.345	64
864.432	-204
864.518	-237
864.604	-38
864.691	196
864.777	-221
864.863	185
864.950	952
865.036	474
865.122	1161
865.209	2107
865.295	607
865.381	1500
865.467	1869
865.553	2887
865.639	2797
865.726	4975
865.812	9368
865.898	20276
865.984	31090
866.070	50872
866.156	79450
866.242	30551
866.328	6130
866.414	2850
866.499	2188
866.585	2912
866.671	2076
866.757	1891
866.843	1928
866.928	921
867.014	1586
867.100	1613
867.186	647
867.271	1029
867.357	1588
867.442	2034
867.528	1647
867.614	1442
867.699	1291
867.785	1275
867.870	1143
867.956	798
868.041	1022
868.127	1579
868.212	1962
868.297	1714
868.383	1365
868.468	932
868.553	2616
868.639	1397
868.724	3102
868.809	4203
868.894	1613
868.979	1329
869.065	694
869.150	-197
869.235	171
869.320	927
869.405	410
869.490	266
869.575	465
869.660	318
869.745	1265
869.830	17
869.915	621
870.000	1378
870.085	460
870.169	446
870.254	620
870.339	110
870.424	176
870.509	68
870.593	1686
870.678	675
870.763	834
870.847	747
870.932	227
871.016	954
871.101	728
871.186	-175
871.270	1013
871.355	749
871.439	530
871.523	300
871.608	685
871.692	310
871.777	1071
871.861	1473
871.945	665
872.030	599
872.114	-584
872.198	378
872.282	358
872.367	-106
872.451	58
872.535	369
872.619	896
872.703	319
872.787	734
872.871	862
872.955	313
873.039	-458
873.123	21
873.207	1125
873.291	369
873.375	-351
873.459	442
873.543	-22
873.627	897
873.711	-116
873.794	519
873.878	-68
873.962	273
874.045	67
874.129	67
874.137	71
874.213	107
874.245	84
874.296	47
874.352	-91
874.380	-158
874.460	112
874.464	122
874.547	-512
874.568	-371
874.631	54
874.676	-9
874.714	-70
874.784	379
874.798	467
874.881	996
874.892	867
874.965	-14
874.999	-80
875.048	-170
875.107	379
875.131	597
875.215	131
875.215	130
875.298	-418
875.323	11
875.381	1067
875.430	1032
875.465	1009
875.538	565
875.548	498
875.631	282
875.646	175
875.714	-297
875.753	-112
875.798	110
875.861	377
875.881	446
875.964	554
875.968	508
876.047	-301
876.076	-67
876.130	376
876.183	157
876.213	61
876.291	660
876.296	692
876.379	6
876.398	32
876.462	165
876.506	-151
876.545	-382
876.613	-61
876.628	-6
876.711	806
876.721	767
876.794	521
876.828	530
876.877	477
876.935	431
876.960	430
877.043	711
877.043	709
877.125	84
877.150	205
877.208	627
877.258	593
877.291	488
877.365	-329
877.374	-403
877.456	591
877.472	676
877.539	815
877.579	473
877.622	209
877.687	420
877.704	450
877.787	-123
877.794	-98
877.869	233
877.901	214
877.952	307
878.008	-184
878.034	-487
878.115	67
878.117	80
878.199	46
878.222	149
878.282	425
878.329	431
878.364	536
878.437	1226
878.447	1271
878.529	-395
878.544	-328
878.611	39
878.651	100
878.694	237
878.758	298
878.776	353
878.858	403
878.865	376
878.941	-252
878.972	-399
879.023	-559
879.078	-261
879.105	-106
879.185	-26
879.187	-20
879.269	19
879.292	217
879.351	569
879.399	265
879.433	91
879.506	326
879.516	341
879.598	191
879.613	58
879.680	-530
879.720	-469
879.762	-205
879.827	-73
879.844	-134
879.926	-275
879.933	-295
880.007	-324
880.040	-312
880.089	-283
880.147	148
880.171	397
880.253	923
880.254	921
880.335	222
880.360	443
880.417	1097
880.467	1166
880.499	1255
880.574	2563
880.580	2619
880.662	421
880.680	271
880.744	198
880.787	82
880.825	-243
880.893	-520
880.907	-447
880.989	48
881.000	111
881.070	101
881.106	248
881.152	394
881.213	38
881.233	-140
881.315	-433
881.319	-453
881.396	137
881.426	215
881.478	-107
881.532	75
881.559	284
881.639	361
881.641	359
881.722	461
881.745	573
881.803	942
881.852	670
881.885	486
881.958	369
881.966	363
882.047	401
882.064	510
882.129	656
882.171	192
882.210	-60
882.277	-29
882.291	-16
882.372	776
882.383	666
882.454	-144
882.489	-3
882.535	236
882.596	274
882.616	315
882.697	520
882.702	521
882.778	462
882.808	455
882.859	170
882.914	-73
882.940	8
883.020	34
883.021	36
883.102	240
883.127	269
883.183	270
883.233	440
883.264	502
883.339	-257
883.345	-274
883.426	85
883.445	282
883.507	527
883.551	384
883.587	237
883.657	432
883.668	522
883.749	429
883.763	394
883.830	235
883.869	423
883.910	307
883.975	-120
883.991	-137
884.072	-162
884.081	-163
884.152	171
884.187	380
884.233	614
884.292	817
884.314	717
884.394	-75
884.398	-84
884.475	448
884.504	462
884.555	39
884.610	-367
884.636	-344
884.716	-263
884.716	-257
884.797	547
884.821	652
884.877	295
884.927	-192
884.958	-127
885.033	581
885.038	569
885.118	-83
885.139	-198
885.199	-107
885.244	-83
885.279	64
885.350	410
885.359	469
885.439	919
885.456	1006
885.520	739
885.561	502
885.600	394
885.667	291
885.680	368
885.760	681
885.773	765
885.840	666
885.878	549
885.920	357
885.984	24
886.000	43
886.080	94
886.089	106
886.160	84
886.195	141
886.240	479
886.300	634
886.320	636
886.400	967
886.406	972
886.480	1071
886.511	1037
886.560	542
886.616	211
886.640	267
886.720	351
886.722	350
886.800	112
886.827	-7
886.879	287
886.932	632
886.959	657
887.038	870
887.039	876
887.119	741
887.143	758
887.198	789
887.248	756
887.278	768
887.354	839
887.358	845
887.437	826
887.459	821
887.517	791
887.564	786
887.596	593
887.669	20
887.676	42
887.755	358
887.774	428
887.835	295
887.880	226
887.914	514
887.985	1109
887.994	1072
888.073	598
888.090	505
888.153	585
888.195	629
888.232	697
888.300	743
888.311	730
888.391	692
888.405	678
888.470	470
888.510	325
888.549	454
888.615	644
888.628	592
888.708	310
888.720	266
888.787	206
888.825	114
888.866	249
888.930	536
888.945	470
889.024	78
889.035	23
889.103	303
889.140	447
889.182	458
889.245	486
889.261	475
889.340	418
889.349	411
889.419	316
889.454	264
889.498	245
889.559	226
889.577	347
889.656	886
889.664	938
889.735	867
889.768	833
889.814	740
889.873	611
889.978	50
890.083	745
890.187	414
890.292	1260
890.397	-150
890.501	609
890.606	1055
890.710	1196
890.815	1078
890.919	659
891.024	345
891.128	138
891.233	631
891.337	1095
891.442	693
891.546	71
891.650	476
891.755	370
891.859	1809
891.963	552
892.068	243
892.172	713
892.276	-123
892.380	660
892.484	573
892.589	708
892.693	287
892.797	-201
892.901	543
893.005	294
893.109	425
893.213	968
893.317	447
893.421	372
893.525	228
893.629	-188
893.733	-61
893.837	532
893.941	407
894.045	1569
894.148	996
894.252	3846
894.356	2779
894.460	998
894.564	929
894.667	77
894.771	350
894.875	417
894.978	613
895.082	278
895.186	843
895.289	369
895.393	292
895.496	611
895.600	51
895.703	115
895.807	-200
895.910	191
896.014	547
896.117	-294
896.221	-381
896.324	648
896.427	510
896.531	-17
896.634	-348
896.737	-90
896.840	369
896.944	24
897.047	506
897.150	-42
897.253	590
897.356	574
897.460	-468
897.563	900
897.666	944
897.769	1636
897.872	480
897.975	305
898.078	-57
898.181	154
898.284	948
898.387	730
898.490	-68
898.593	-63
898.695	396
898.798	-550
898.901	16
899.004	492
899.107	-196
899.209	-430
899.312	982
899.415	897
899.518	444
899.620	420
899.723	476
899.826	198
899.928	374
900.031	-356
900.133	166
900.236	165
900.338	301
900.441	364
900.543	-117
900.646	-123
900.748	-72
900.851	683
900.953	148
901.055	-558
901.158	25
901.260	968
901.362	-512
901.465	-454
901.567	790
901.669	309
901.771	-104
901.873	618
901.976	91
902.078	106
902.180	-194
902.282	168
902.384	490
902.486	51
902.588	553
902.690	838
902.792	-528
902.894	-228
902.996	-430
903.098	464
903.200	553
903.302	-64
903.404	-84
903.505	-480
903.607	64
903.709	5
903.811	698
903.913	15
904.014	-2
904.116	290
904.218	30
904.319	344
904.421	50
904.523	661
904.624	-50
904.726	419
904.827	195
904.929	-230
905.030	-859
905.132	969
905.233	800
905.335	76
905.436	-551
905.537	-192
905.639	870
905.740	429
905.841	150
905.943	-175
906.044	-12
906.145	-493
906.247	31
906.348	604
906.449	443
906.550	270
906.651	330
906.752	-27
906.854	396
906.955	-121
907.056	32
907.157	-246
907.258	294
907.359	-246
907.460	218
907.561	533
907.662	-540
907.762	-438
907.863	90
907.964	-266
908.065	568
908.166	157
908.267	-217
908.367	-509
908.468	144
908.569	-246
908.670	96
908.770	305
908.871	-70
908.971	810
909.072	-156
909.173	233
909.273	161
909.374	-688
909.474	-249
909.575	444
909.675	118
909.776	107
909.876	372
909.977	-492
910.077	649
910.177	526
910.278	-328
910.378	-153
910.478	391
910.579	271
910.679	439
910.779	487
910.879	329
910.980	75
911.080	628
911.180	84
911.280	273
911.380	327
911.480	547
911.580	286
911.680	-606
911.780	455
911.880	48
911.980	-28
912.080	-636
912.180	88
912.280	498
912.380	420
912.480	476
912.580	338
912.679	-75
912.779	487
912.879	214
912.979	-210
913.078	408
913.178	210
913.278	281
913.377	755
913.477	-354
913.577	263
913.676	587
913.776	-81
913.875	151
913.975	910
914.074	284
914.174	608
914.273	-261
914.373	604
914.472	-472
914.572	-632
914.671	-382
914.770	624
914.870	35
914.969	-29
915.068	-544
915.167	-165
915.267	381
915.366	-584
915.465	891
915.564	181
915.663	-200
915.763	-458
915.862	1174
915.961	277
916.060	-670
916.159	-329
916.258	-445
916.357	129
916.456	307
916.555	-552
916.654	398
916.752	453
916.851	-172
916.950	352
917.049	677
917.148	-9
917.247	154
917.345	-226
917.444	444
917.543	100
917.642	-420
917.740	14
917.839	102
917.937	557
918.036	81
918.135	-277
918.233	628
918.332	-207
918.430	-446
918.529	493
918.627	-316
918.726	275
918.824	75
918.923	624
919.021	-272
919.119	-244
919.218	-528
919.316	-555
919.414	28
919.512	-5
919.611	-253
919.709	-474
919.807	-222
919.905	160
920.003	960
920.102	-457
920.200	559
920.298	273
920.396	-247
920.494	190
920.592	253
920.690	-305
920.788	313
920.886	145
920.984	78
921.082	-608
921.180	437
921.277	813
921.375	326
921.473	553
921.571	242
921.669	337
921.766	40
921.864	276
921.962	1207
922.060	511
922.157	472
922.255	885
922.352	781
922.450	217
922.548	1324
922.645	227
922.743	692
922.840	1484
922.938	2089
923.035	1548
923.133	1715
923.230	1199
923.327	1832
923.425	2115
923.522	2014
923.619	1410
923.717	743
923.814	2295
923.911	1127
924.008	2014
924.106	2192
924.203	777
924.300	1920
924.397	1428
924.494	1808
924.591	1237
924.688	975
924.786	1958
924.883	497
924.979	980
925.077	1492
925.173	1850
925.270	1707
925.367	1530
925.464	1422
925.561	1460
925.658	2313
925.755	1132
925.852	1342
925.948	1613
926.045	1443
926.142	1635
926.239	1939
926.335	1922
926.432	2440
926.529	1270
926.625	1675
926.722	1253
926.818	1303
926.915	1456
927.011	1436
927.108	515
927.204	1460
927.301	1727
927.397	1023
927.494	1608
927.590	1134
927.687	691
927.783	837
927.879	1664
927.976	1052
928.072	1358
928.168	1231
928.264	1027
928.361	1704
928.457	1309
928.553	945
928.649	795
928.745	1787
928.841	1009
928.937	1179
929.033	1467
929.129	837
929.225	1962
929.321	740
929.417	807
929.513	1332
929.609	1080
929.705	691
929.801	774
929.897	629
929.993	1080
930.089	507
930.184	639
930.280	1261
930.376	1217
930.471	636
930.567	1590
930.663	1086
930.758	-33
930.854	768
930.950	1210
931.045	550
931.141	1814
931.236	876
931.332	665
931.427	387
931.523	1372
931.618	1064
931.714	272
931.809	1050
931.905	1016
932.000	-269
932.095	835
932.191	595
932.286	1028
932.381	479
932.476	404
932.572	639
932.667	-45
932.762	919
932.857	823
932.952	1402
933.047	768
933.142	361
933.237	240
933.332	548
933.427	895
933.522	281
933.617	1208
933.712	1575
933.807	801
933.902	664
933.997	596
934.092	895
934.187	709
934.282	735
934.376	915
934.471	880
934.566	199
934.661	63
934.755	300
934.850	823
934.945	858
935.039	-85
935.134	285
935.228	206
935.323	1062
935.417	1204
935.512	392
935.606	-763
935.701	672
935.795	314
935.890	138
935.984	-34
936.079	557
936.173	930
936.267	361
936.362	915
936.456	1124
936.550	1631
936.644	362
936.738	532
936.833	78
936.927	610
937.021	313
937.115	775
937.209	736
937.303	1540
937.397	-221
937.491	195
937.585	1456
937.679	-503
937.773	176
937.867	372
937.961	593
938.055	186
938.149	677
938.243	80
938.337	959
938.430	958
938.524	762
938.618	636
938.712	569
938.805	186
938.899	839
938.993	1362
939.086	395
939.180	147
939.274	-72
939.367	829
939.461	984
939.554	731
939.648	-226
939.741	320
939.835	521
939.928	328
940.022	716
940.115	902
940.208	11
940.302	683
940.395	157
940.488	231
940.582	254
940.675	377
940.768	-73
940.861	776
940.954	303
941.048	-233
941.141	329
941.234	-126
941.327	-166
941.420	892
941.513	-103
941.606	-561
941.699	499
941.792	-36
941.885	670
941.978	396
942.071	-486
942.164	245
942.257	-533
942.349	1009
942.442	141
942.535	932
942.628	-41
942.721	892
942.813	354
942.906	72
942.999	198
943.091	252
943.184	-609
943.277	-531
943.369	-1191
943.462	-155
943.554	-277
943.647	177
943.739	315
943.832	283
943.924	-335
944.017	-229
944.109	-196
944.201	117
944.294	475
944.386	-361
944.478	266
944.571	-557
944.663	-652
944.755	31
944.847	-350
944.940	191
945.032	-454
945.124	202
945.216	-35
945.308	-51
945.400	205
945.492	-236
945.584	278
945.676	1300
945.768	-102
945.860	660
945.952	258
946.044	290
946.136	25
946.228	-906
946.320	-210
946.412	333
946.503	155
946.595	36
946.687	-317
946.779	-139
946.870	-311
946.962	153
947.054	-395
947.145	700
947.237	198
947.329	-737
947.420	-49
947.512	347
947.603	21
947.695	-391
947.786	-792
947.878	-316
947.969	496
948.061	368
948.152	73
948.243	-816
948.335	244
948.426	480
948.517	403
948.609	-662
948.700	-398
948.791	-528
948.882	-661
948.973	-804
949.065	228
949.156	837
949.247	337
949.338	-596
949.429	-707
949.520	-635
949.611	-462
949.702	110
949.793	459
949.884	275
949.975	-79
950.066	-280
950.157	93
950.247	-146
950.338	-98
950.429	-211
950.520	-413
950.611	-480
950.701	542
950.792	221
950.883	31
950.973	-206
951.064	128
951.155	618
951.245	-891
951.336	82
951.427	-844
951.517	68
951.608	-270
951.698	-149
951.788	468
951.879	-393
951.969	-691
952.060	-77
952.150	-332
952.240	467
952.331	-1216
952.421	30
952.511	585
952.602	122
952.692	-137
952.782	-438
952.872	-533
952.962	-222
953.052	-547
953.143	237
953.233	5
953.323	140
953.413	-220
953.503	371
953.593	562
953.683	103
953.773	-224
953.863	-665
953.953	192
954.042	79
954.132	-547
954.222	382
954.312	-225
954.402	-496
954.492	-986
954.581	536
954.671	-29
954.761	-869
954.850	-17
954.940	-339
955.030	171
955.119	-474
955.209	-475
955.298	-625
955.388	-183
955.477	-586
955.567	-538
955.656	-275
955.746	631
955.835	-431
955.925	-427
956.014	-149
956.103	496
956.193	56
956.282	274
956.371	-981
956.461	-228
956.550	-261
956.639	-167
956.728	-515
956.817	-415
956.906	-394
956.995	574
957.085	-289
957.174	750
957.263	262
957.352	-437
957.441	-107
957.530	-649
957.619	-108
957.708	-1043
957.796	-333
957.885	190
957.974	172
958.063	217
958.152	-769
958.241	-683
958.329	-299
958.418	-112
958.507	-611
958.596	-172
958.684	-115
958.773	406
958.861	-397
958.950	133
959.039	24
959.127	74
959.216	552
959.304	-766
959.393	477
959.481	-525
959.570	9
959.658	-468
959.746	186
959.835	986
959.923	221
960.011	28
960.100	-61
960.188	169
960.276	-484
960.365	-635
960.453	140
960.541	-703
960.629	-539
960.717	499
960.805	-323
960.893	1188
960.981	-220
961.069	891
961.158	79
961.245	570
961.333	645
961.421	375
961.509	-3
961.597	227
961.685	-627
961.773	-79
961.861	-811
961.949	184
962.036	-1091
962.124	398
962.212	-764
962.299	-826
962.387	147
962.475	-173
962.562	-880
962.650	261
962.738	-500
962.825	-81
962.913	-577
963.000	212
963.088	-385
963.175	-20
963.263	-776
963.350	-862
963.438	-173
963.525	170
963.612	72
963.700	922
963.787	2354
963.874	17
963.962	516
964.049	-549
964.136	-698
964.223	49
964.310	207
964.398	359
964.485	-62
964.572	-318
964.659	647
964.746	135
964.833	-866
964.920	-120
965.007	-224
965.094	-263
965.181	-440
965.268	31
965.355	-677
965.441	80
965.528	-170
965.615	295
965.702	-226
965.789	-1093
965.875	-544
965.962	95
966.049	-473
966.136	-893
966.222	-462
966.309	159
966.395	-687
966.482	255
966.569	-660
966.655	-519
966.742	-504
966.828	-111
966.915	-213
967.001	-61
967.087	204
967.174	-883
967.260	-166
967.347	142
967.433	99
967.519	702
967.605	4
967.692	-791
967.778	-857
967.864	-165
967.950	-1130
968.036	-671
968.123	315
968.209	-120
968.295	-928
968.381	-145
968.467	-603
968.553	-952
968.639	-195
968.725	41
968.811	-240
968.897	-303
968.983	187
969.069	-882
969.154	-777
969.240	-108
969.326	-98
969.412	-558
969.497	-1172
969.583	-458
969.669	-121
969.755	-575
969.840	-1085
969.926	192
970.012	-390
970.097	208
970.183	-425
970.268	-860
970.354	-17
970.439	52
970.525	496
970.610	288
970.696	-996
970.781	-78
970.866	-468
970.952	-62
971.037	-128
971.122	-893
971.208	-438
971.293	-295
971.378	-380
971.463	-738
971.549	-719
971.634	-855
971.719	-415
971.804	-575
971.889	-681
971.974	-383
972.059	-267
972.144	264
972.229	9
972.314	-31
972.399	-276
972.484	-303
972.569	238
972.654	-808
972.739	870
972.824	-800
972.908	-118
972.993	-305
973.078	246
973.163	-449
973.247	-85
973.332	-420
973.417	190
973.501	-173
973.586	-91
973.671	40
973.755	-368
973.840	-912
973.924	-688
974.009	-297
974.093	-892
974.178	-98
974.262	242
974.346	-448
974.431	-831
974.515	-486
974.600	17
974.684	-136
974.768	-964
974.852	231
974.937	-638
975.021	1021
975.105	-768
975.189	-1004
975.273	-689
975.358	-474
975.442	-1205
975.526	-308
975.610	-329
975.694	-165
975.778	-654
975.862	-569
975.946	-1796
976.030	516
976.114	-727
976.198	-684
976.281	-1017
976.365	-492
976.449	-565
976.533	87
976.617	-1034
976.700	-566
976.784	-458
976.868	-1471
976.951	27
977.035	-356
977.119	-610
977.202	236
977.286	-805
977.369	-133
977.453	-23
977.536	-582
977.620	-270
977.703	10
977.787	-341
977.870	566
977.953	250
978.037	-66
978.120	-329
978.203	-615
978.287	-451
978.370	226
978.453	-680
978.536	-985
978.620	83
978.703	145
978.786	-343
978.869	130
978.952	-1393
979.035	913
979.118	-331
979.201	-469
979.284	59
979.367	-463
979.450	-1009
979.533	-1021
979.616	-663
979.699	-566
979.782	8
979.865	-117
979.948	-615
980.030	-705
980.113	-701
980.196	-913
980.279	-183
980.361	-1060
980.444	-1213
980.526	-319
980.609	-658
980.692	-1369
980.774	504
980.857	-918
980.939	-47
981.022	-626
981.104	-768
981.187	-288
981.269	196
981.352	-536
981.434	-492
981.516	-611
981.599	-101
981.681	-830
981.763	407
981.846	313
981.928	-202
982.010	-202
982.092	-1172
982.174	-277
982.256	-430
982.339	-1036
982.421	240
982.503	-738
982.585	-515
982.667	-384
982.749	-358
982.831	-432
982.913	-1208
982.995	-623
983.077	-636
983.158	-466
983.240	-1146
983.322	-195
983.404	-7
983.486	-364
983.568	-132
983.649	-160
983.731	456
983.813	-819
983.894	-437
983.976	-1393
984.058	-1140
984.139	320
984.221	-893
984.302	-38
984.384	-259
984.465	-952
984.547	-516
984.628	-641
984.710	-200
984.791	-1155
984.872	-258
984.954	-1064
985.035	17
985.116	-317
985.198	-653
985.279	162
985.360	115
985.441	-561
985.522	286
985.604	-163
985.685	-1851
985.766	399
985.847	-155
985.928	-503
986.009	-200
986.090	-684
986.171	-523
986.252	-773
986.333	-486
986.414	-454
986.495	-298
986.576	-469
986.656	-457
986.737	320
986.818	-724
986.899	-775
986.980	331
987.060	35
987.141	-886
987.222	-872
987.302	-18
987.383	-904
987.464	176
987.544	-201
987.625	-568
987.705	100
987.786	-797
987.866	-139
987.947	-106
988.027	301
988.108	-226
988.188	-413
988.268	-295
988.349	-319
988.429	-29
988.509	-378
988.589	-133
988.670	-912
988.750	111
988.830	575
988.910	-341
988.990	-819
989.070	-1273
989.151	56
989.231	-836
989.311	-697
989.391	-404
989.471	-910
989.551	-448
989.631	-665
989.711	-322
989.791	-756
989.870	-519
989.950	-487
990.030	-804
990.110	-1133
990.190	-898
990.269	-645
990.349	-748
990.429	-915
990.509	143
990.588	-616
990.668	377
990.747	-294
990.827	-396
990.907	-455
990.986	-297
991.066	-368
991.145	-1324
991.225	-574
991.304	-415
991.383	369
991.463	-840
991.542	-612
991.622	-1656
991.701	-1451
991.780	-760
991.859	-268
991.939	-901
992.018	-1391
992.097	-1201
992.176	-561
992.256	-678
992.335	-642
992.414	-438
992.493	-939
992.572	-886
992.651	-202
992.730	-1145
992.809	-948
992.888	-347
992.967	-923
993.046	-1645
993.125	-1861
993.203	-472
993.282	-1171
993.361	-487
993.440	-1001
993.519	-918
993.597	-734
993.676	-1406
993.755	-147
993.834	-405
993.912	-1344
993.991	-735
994.069	-709
994.148	-859
994.226	-1129
994.305	-738
994.384	-596
994.462	-414
994.540	-1226
994.619	-679
994.697	-756
994.776	-941
994.854	-460
994.932	-1793
995.011	-940
995.089	-684
995.167	-883
995.245	-327
995.324	-1297
995.402	-607
995.480	-1013
995.558	-19
995.636	-1572
995.714	-856
995.792	-336
995.870	-1311
995.948	-486
996.026	-745
996.104	-1329
996.182	-525
996.260	-670
996.338	-1527
996.416	-1790
996.494	-377
996.572	-569
996.649	-785
996.727	-1733
996.805	-482
996.883	-230
996.960	-385
997.038	-691
997.116	-832
997.193	-1382
997.271	-216
997.348	-743
997.426	-717
997.504	-1345
997.581	-449
997.658	-948
997.736	-1079
997.813	-1122
997.891	265
997.968	-697
998.046	-1082
998.123	-785
998.200	-723
998.277	-624
998.355	-739
998.432	-1110
998.509	-1485
998.586	-475
998.663	-904
998.741	-943
998.818	-1394
998.895	-879
998.972	-269
999.049	-1483
999.126	-1145
999.203	-115
999.280	-1546
999.357	-941
999.434	-1770
999.511	-521
999.587	-687
999.664	-1360
999.741	-548
999.818	-326
999.895	-938
999.971	-1312
1000.048	-1126
1000.125	-979
1000.202	-421
1000.278	-952
1000.355	-264
1000.431	-1442
1000.508	-1515
1000.584	-285
1000.661	-988
1000.738	-1183
1000.814	-1330
1000.890	-438
1000.967	-1371
1001.043	-756
1001.120	-1407
1001.196	-747
1001.272	-1624
1001.349	-604
1001.425	-667
1001.501	-947
1001.577	-1526
1001.654	-752
1001.730	-1096
1001.806	-963
1001.882	-1805
1001.958	-352
1002.034	-1023
1002.110	-911
1002.186	-293
1002.262	-923
1002.338	-1948
1002.414	-276
1002.490	-491
1002.566	-1964
1002.642	-1788
1002.718	-934
1002.794	-1165
1002.870	-160
1002.945	-662
1003.021	-807
1003.097	-2192
1003.173	-873
1003.248	-1344
1003.324	-1257
1003.400	-543
1003.475	-1699
1003.551	-1019
1003.626	-1358
1003.702	-1710
1003.777	-548
1003.853	-463
1003.928	-808
1004.004	-1041
1004.079	-729
1004.155	-1068
1004.230	-2280
1004.305	-252
1004.381	-2195
1004.456	-555
1004.531	-766
1004.607	-1670
1004.682	-1702
1004.757	-1090
1004.832	-815
1004.907	-1469
1004.982	-729
1005.057	-532
1005.133	-1415
1005.208	-1242
1005.283	-1381
1005.358	-1359
1005.433	-1471
1005.508	-935
1005.583	-2016
1005.657	-1041
1005.732	-112
1005.807	-1836
1005.882	-1459
1005.957	-1625
1006.032	-983
1006.106	-1067
1006.181	-1106
1006.256	-501
1006.331	-1605
1006.405	-1278
1006.480	-361
1006.554	-1575
1006.629	-823
1006.704	-1081
1006.778	-1324
1006.853	-935
1006.927	-959
1007.002	-1340
1007.076	-831
1007.150	-636
1007.225	-1503
1007.299	-1096
1007.373	-2171
1007.448	-1770
1007.522	-786
1007.596	-1637
1007.671	-1443
1007.745	-548
1007.819	-717
1007.893	-912
1007.967	-252
1008.041	-2000
1008.115	-888
1008.190	-1068
1008.264	-557
1008.338	-2452
1008.412	-1679
1008.486	-914
1008.560	-386
1008.633	-1288
1008.707	-1276
1008.781	-1023
1008.855	-927
1008.929	-1283
1009.003	-1933
1009.076	-595
1009.150	-882
1009.224	-1406
1009.298	-1681
1009.371	-1056
1009.445	-1180
1009.519	-1081
1009.592	-2122
1009.666	-1373
1009.739	-1904
1009.813	-1532
1009.886	-779
1009.960	-1244
1010.033	-937
1010.107	-587
1010.180	-1288
1010.253	-697
1010.327	-1536
1010.400	-1189
1010.473	-1193
1010.547	-841
1010.620	-1450
1010.693	-620
1010.766	-1291
1010.840	-1567
1010.913	-618
1010.986	-932
1011.059	-1046
1011.132	-1082
1011.205	-430
1011.278	-1415
1011.351	-1091
1011.424	-1096
1011.497	-1852
1011.570	-1146
1011.643	-1177
1011.716	-1482
1011.789	-1366
1011.862	-342
1011.934	-1379
1012.007	-1769
1012.080	-954
1012.153	-1767
1012.225	-635
1012.298	-1707
1012.371	-1284
1012.443	-727
1012.516	-1330
1012.588	-1227
1012.661	-525
1012.733	-1714
1012.806	-956
1012.879	-1659
1012.951	-1415
1013.023	-832
1013.096	-861
1013.168	-2313
1013.241	-1253
1013.313	-1358
1013.385	-1322
1013.458	-1469
1013.530	-821
1013.602	-1475
1013.674	-568
1013.746	-1888
1013.819	-2240
1013.891	-1029
1013.963	-1713
1014.035	-734
1014.107	-1549
1014.179	-1117
1014.251	-2048
1014.323	-1120
1014.395	-1275
1014.467	-568
1014.539	-1173
1014.611	-1092
1014.683	-1658
1014.754	-1200
1014.826	-1463
1014.898	-1597
1014.970	-2253
1015.042	-724
1015.113	-961
1015.185	-937
1015.257	-2023
1015.328	-1045
1015.400	-2187
1015.471	-1391
1015.543	-1841
1015.615	-938
1015.686	-1684
1015.757	-1126
1015.829	-1696
1015.901	-1557
1015.972	-1162
1016.043	-1260
1016.115	-2237
1016.186	-1575
1016.257	-1450
1016.328	-1025
1016.400	-883
1016.471	-1845
1016.542	-1429
1016.613	-1233
1016.685	-1290
1016.756	-1974
1016.827	-1623
1016.898	-2292
1016.969	-928
1017.040	-1494
1017.111	-1944
1017.182	-1999
1017.253	-1297
1017.324	-1997
1017.395	-1554
1017.466	-1385
1017.537	-1480
1017.608	-1628
1017.678	-1674
1017.749	-953
1017.820	-886
1017.891	-1498
1017.961	-1710
1018.032	-1979
1018.103	-1480
1018.173	-1056
1018.244	-1887
1018.315	-1523
1018.385	-952
1018.456	-754
1018.526	-2134
1018.597	-2209
1018.667	-2084
1018.738	-2039
1018.808	-1893
1018.878	-1323
1018.949	-1551
1019.019	-1590
1019.089	-859
1019.160	-1218
1019.230	-2005
1019.300	-1903
1019.371	-2618
1019.441	-1424
1019.511	-1567
1019.581	-1895
1019.651	-310
1019.721	-1322
1019.791	-1866
1019.861	-1093
1019.931	-1400
1020.001	-2229
1020.071	-1483
1020.141	-1699
1020.211	-998
1020.281	-1493
1020.351	-1516
1020.421	-1465
1020.491	-1120
1020.560	-2135
1020.630	-1322
1020.700	-1299
1020.770	-1437
1020.839	-1270
1020.909	-1830
1020.979	-1847
1021.048	-1752
1021.118	-1567
1021.187	-598
1021.257	-997
1021.326	-1243
1021.396	-1825
1021.465	-1206
1021.535	-1823
1021.604	-2256
1021.674	-1435
1021.743	-887
1021.812	-1914
1021.882	-1745
1021.951	-1421
1022.020	-1911
1022.089	-1509
1022.159	-1465
1022.228	-1709
1022.297	-1144
1022.366	-1756
1022.435	-1797
1022.504	-1170
1022.573	-1714
1022.642	-1567
1022.711	-1921
1022.781	-1575
1022.849	-566
1022.918	-1617
1022.987	-1547
1023.056	-2714
1023.125	-1595
1023.194	-1901
1023.263	-1308
1023.331	-1200
1023.400	-2116
1023.469	-1746
1023.538	-1331
1023.606	-2234
1023.675	-1564
1023.744	-1986
1023.812	-2365
1023.881	-2079
1023.949	-630
1024.018	-1966
1024.086	-1600
1024.155	-1054
1024.223	-1867
1024.292	-1357
1024.360	-1569
1024.429	-1092
1024.497	-1810
1024.565	-968
1024.634	-1256
1024.702	-1336
1024.770	-1272
1024.838	-2261
1024.907	-1857
1024.975	-1360
1025.043	-1111
1025.111	-1890
1025.179	-1416
1025.247	-1481
1025.315	-1511
1025.383	-1447
1025.451	-2096
1025.519	-1513
1025.587	-2149
1025.655	-2098
1025.723	-1133
1025.791	-1575
1025.859	-1559
1025.927	-2021
1025.995	-1681
1026.062	-1449
1026.130	-1092
1026.198	-1608
1026.266	-2834
1026.333	-1799
1026.401	-1535
1026.469	-1776
1026.536	-1714
1026.604	-2007
1026.671	-2104
1026.739	-1754
1026.806	-1135
1026.874	-1805
1026.941	-1207
1027.009	-2092
1027.076	-1496
1027.144	-1888
1027.211	-1824
1027.278	-2426
1027.345	-1833
1027.413	-1450
1027.480	-2108
1027.547	-2160
1027.614	-1485
1027.682	-1227
1027.749	-1257
1027.816	-2539
1027.883	-1107
1027.950	-2298
1028.017	-2229
1028.084	-2000
1028.151	-2156
1028.218	-1824
1028.285	-2496
1028.352	-1833
1028.419	-1829
1028.486	-2399
1028.553	-1563
1028.619	-2219
1028.686	-2422
1028.753	-1670
1028.820	-811
1028.886	-2058
1028.953	-1176
1029.020	-1513
1029.086	-1775
1029.153	-1907
1029.220	-1599
1029.286	-1446
1029.353	-1628
1029.419	-1265
1029.486	-1698
1029.552	-1989
1029.619	-1632
1029.685	-1729
1029.751	-1322
1029.818	-1723
1029.884	-1419
1029.951	-1417
1030.017	-2662
1030.083	-1716
1030.149	-2121
1030.216	-1725
1030.282	-1852
1030.348	-1414
1030.414	-1866
1030.480	-1616
1030.546	-2181
1030.612	-2367
1030.678	-1854
1030.744	-1675
1030.810	-1919
1030.876	-1820
1030.942	-888
1031.008	-1971
1031.074	-2447
1031.140	-2363
1031.206	-1329
1031.272	-2027
1031.337	-2232
1031.403	-1761
1031.469	-1827
1031.534	-1385
1031.600	-1344
1031.666	-2155
1031.731	-2094
1031.797	-1979
1031.863	-2305
1031.928	-3064
1031.994	-2475
1032.059	-1973
1032.125	-1770
1032.190	-2496
1032.256	-2406
1032.321	-2032
1032.386	-2573
1032.452	-1818
1032.517	-1783
1032.582	-2295
1032.647	-1710
1032.713	-1708
1032.778	-2391
1032.843	-1292
1032.908	-2652
1032.974	-2239
1033.039	-2519
1033.104	-2186
1033.169	-1951
1033.234	-2379
1033.299	-1886
1033.364	-1788
1033.429	-1608
1033.494	-1974
1033.559	-2018
1033.624	-1551
1033.688	-1765
1033.753	-2088
1033.818	-1963
1033.883	-2248
1033.948	-1993
1034.013	-2116
1034.077	-1198
1034.142	-1987
1034.207	-2770
1034.271	-1728
1034.336	-1442
1034.400	-1832
1034.465	-2265
1034.530	-2150
1034.594	-2170
1034.658	-2156
1034.723	-1768
1034.787	-2373
1034.852	-2763
1034.916	-1604
1034.981	-2608
1035.045	-1639
1035.109	-2431
1035.173	-2266
1035.238	-2274
1035.302	-2509
1035.366	-2437
1035.430	-1635
1035.495	-2144
1035.559	-1818
1035.623	-1652
1035.687	-1876
1035.751	-1011
1035.815	-2198
1035.879	-2075
1035.943	-2202
1036.007	-1822
1036.071	-2137
1036.135	-1622
1036.198	-1909
1036.262	-2511
1036.326	-2322
1036.390	-2349
1036.454	-2762
1036.517	-2097
1036.581	-1748
1036.645	-1931
1036.709	-2158
1036.772	-2545
1036.836	-1985
1036.900	-2367
1036.963	-2111
1037.026	-2243
1037.090	-2168
1037.154	-2175
1037.217	-2210
1037.280	-2625
1037.344	-2295
1037.407	-2590
1037.471	-1768
1037.534	-1346
1037.597	-2343
1037.661	-2260
1037.724	-1850
1037.787	-2304
1037.850	-2505
1037.913	-2431
1037.977	-1487
1038.040	-2115
1038.103	-1395
1038.166	-2717
1038.229	-2632
1038.292	-2085
1038.355	-2044
1038.418	-1662
1038.481	-1765
1038.544	-2698
1038.607	-1829
1038.670	-2705
1038.732	-1336
1038.795	-1696
1038.858	-1849
1038.921	-1837
1038.984	-1349
1039.046	-2940
1039.109	-2544
1039.172	-2405
1039.234	-2117
1039.297	-2447
1039.360	-1807
1039.422	-1574
1039.485	-3164
1039.547	-2458
1039.610	-2063
1039.672	-2396
1039.734	-2237
1039.797	-2118
1039.859	-1832
1039.922	-2306
1039.984	-1515
1040.046	-2588
1040.109	-1840
1040.171	-1987
1040.233	-2832
1040.295	-2217
1040.358	-1939
1040.420	-2245
1040.482	-2537
1040.544	-2488
1040.606	-1775
1040.668	-2639
1040.730	-2866
1040.792	-2665
1040.854	-2373
1040.916	-2519
1040.978	-1665
1041.040	-1284
1041.102	-2609
1041.164	-2397
1041.225	-2584
1041.287	-2283
1041.349	-2467
1041.411	-2222
1041.472	-1816
1041.534	-2202
1041.596	-2754
1041.657	-1673
1041.719	-3482
1041.781	-2759
1041.842	-2518
1041.904	-2361
1041.965	-2692
1042.027	-2088
1042.088	-2090
1042.150	-1700
1042.211	-1868
1042.272	-2333
1042.334	-1976
1042.395	-2303
1042.456	-2276
1042.518	-2118
1042.579	-1806
1042.640	-2158
1042.701	-2332
1042.763	-2572
1042.824	-2679
1042.885	-2553
1042.946	-2446
1043.007	-2171
1043.068	-1976
1043.129	-2703
1043.190	-2813
1043.251	-2333
1043.312	-2425
1043.373	-2598
1043.434	-1695
1043.495	-1636
1043.556	-1452
1043.616	-2887
1043.677	-2372
1043.738	-2369
1043.799	-2251
1043.859	-2370
1043.920	-2475
1043.981	-1990
1044.041	-2564
1044.102	-3110
1044.162	-3127
1044.223	-2479
1044.284	-2234
1044.344	-2538
1044.405	-2331
1044.465	-2087
1044.525	-2166
1044.586	-2209
1044.646	-2990
1044.707	-1757
1044.767	-2804
1044.827	-2487
1044.887	-2528
1044.948	-2558
1045.008	-2624
1045.068	-2811
1045.128	-2436
1045.188	-2546
1045.249	-2386
1045.309	-1973
1045.369	-2182
1045.429	-1951
1045.489	-1997
1045.549	-2461
1045.609	-2264
1045.669	-2973
1045.729	-2510
1045.789	-1853
1045.848	-2216
1045.908	-1430
1045.968	-2193
1046.028	-1463
1046.088	-1791
1046.147	-1871
1046.207	-2175
1046.267	-2088
1046.326	-1387
1046.386	-1785
1046.446	-694
1046.505	-2024
1046.565	-955
1046.624	-1297
1046.684	-854
1046.743	-1079
1046.803	-1830
1046.862	-273
1046.922	0
