'Start Wavelength	183.907
'End Wavelength	1046.922
'Gate Delay	5.000
'Gate Width (ms)	1.050
'Laser Output Level	0.000
'X Position	0.000
'Y Position	0.000
'Z Position	0.000
'Grid Point Number	1.000
'Shot Number	100.000
183.907	-128.000
183.977	-588.000
184.047	-736
184.116	42
184.186	54
184.256	-99
184.325	286
184.395	485
184.465	561
184.534	429
184.604	326
184.674	343
184.743	-216
184.813	58
184.883	345
184.952	778
185.022	-258
185.092	561
185.161	620
185.231	224
185.301	-433
185.370	629
185.440	-396
185.509	752
185.579	-623
185.649	643
185.718	-183
185.788	746
185.857	-433
185.927	-330
185.996	-561
186.066	-162
186.136	-540
186.205	695
186.275	-58
186.344	181
186.414	-231
186.483	485
186.553	711
186.622	813
186.692	-183
186.761	357
186.831	217
186.900	410
186.970	-245
187.039	566
187.109	679
187.178	770
187.248	118
187.317	482
187.387	-1215
187.456	670
187.526	100
187.595	416
187.664	-237
187.734	805
187.803	413
187.873	230
187.942	341
188.012	428
188.081	111
188.150	381
188.220	425
188.289	719
188.358	673
188.428	146
188.497	-513
188.567	186
188.636	288
188.705	-30
188.775	-313
188.844	-354
188.913	62
188.983	491
189.052	-615
189.121	606
189.191	176
189.260	1002
189.329	474
189.399	540
189.468	233
189.537	-60
189.606	292
189.676	641
189.745	296
189.814	409
189.883	-39
189.953	-12
190.022	215
190.091	854
190.161	135
190.230	1098
190.299	-156
190.368	-523
190.437	125
190.507	459
190.576	280
190.645	-45
190.714	-398
190.783	-86
190.853	111
190.922	639
190.991	-292
191.060	163
191.129	-509
191.198	-281
191.268	-89
191.337	210
191.406	-261
191.475	111
191.544	-763
191.613	704
191.682	-290
191.752	626
191.821	35
191.890	795
191.959	130
192.028	218
192.097	272
192.166	245
192.235	-42
192.304	467
192.373	129
192.442	22
192.511	223
192.580	271
192.650	-67
192.719	702
192.788	143
192.857	756
192.926	-19
192.995	489
193.064	408
193.133	870
193.202	898
193.271	546
193.340	622
193.409	958
193.478	869
193.547	1790
193.615	1040
193.684	1546
193.753	447
193.822	1306
193.891	783
193.960	913
194.029	-697
194.098	1127
194.167	22
194.236	1370
194.305	219
194.374	94
194.443	-72
194.512	187
194.580	159
194.649	794
194.718	-84
194.787	893
194.856	263
194.925	853
194.994	462
195.062	435
195.131	789
195.200	708
195.269	544
195.338	363
195.407	662
195.475	93
195.544	596
195.613	451
195.682	-198
195.751	718
195.819	135
195.888	617
195.957	873
196.026	937
196.094	310
196.163	813
196.232	786
196.301	925
196.369	1186
196.438	518
196.507	262
196.576	147
196.644	877
196.713	591
196.782	410
196.850	945
196.919	279
196.988	784
197.056	-446
197.125	914
197.194	214
197.262	117
197.331	227
197.400	-160
197.468	-376
197.537	225
197.606	456
197.674	1581
197.743	1664
197.812	666
197.880	954
197.949	859
198.017	1184
198.086	618
198.155	86
198.223	718
198.292	816
198.360	959
198.429	469
198.497	1093
198.566	664
198.635	1632
198.703	1027
198.772	1922
198.840	922
198.909	1877
198.977	896
199.046	1907
199.114	187
199.183	1008
199.251	436
199.320	1223
199.388	180
199.457	762
199.525	1241
199.594	357
199.662	-28
199.731	631
199.799	205
199.867	48
199.936	-566
200.004	718
200.073	670
200.141	1070
200.210	23
200.278	507
200.346	989
200.415	1165
200.483	1043
200.552	1852
200.620	751
200.688	1045
200.757	520
200.825	871
200.893	293
200.962	1231
201.030	-91
201.098	634
201.167	649
201.235	1785
201.303	511
201.372	831
201.440	596
201.508	1048
201.577	659
201.645	1367
201.713	328
201.781	1118
201.850	1386
201.918	1027
201.986	719
202.055	1326
202.123	641
202.191	979
202.259	627
202.327	351
202.396	435
202.464	588
202.532	1047
202.600	2202
202.669	1561
202.737	1257
202.805	578
202.873	1115
202.941	420
203.009	1120
203.078	781
203.146	370
203.214	1091
203.282	208
203.350	644
203.418	1050
203.487	316
203.555	529
203.623	503
203.691	965
203.759	238
203.827	1017
203.895	627
203.963	1668
204.031	837
204.099	1420
204.168	280
204.236	973
204.304	1423
204.372	1399
204.440	1298
204.508	67
204.576	587
204.644	1525
204.712	266
204.780	1364
204.848	513
204.916	1814
204.984	539
205.052	1630
205.120	458
205.188	1334
205.256	314
205.324	1899
205.392	915
205.460	1673
205.528	1133
205.596	1184
205.664	379
205.732	825
205.799	1808
205.867	2608
205.935	658
206.003	907
206.071	289
206.139	1068
206.207	926
206.275	338
206.343	327
206.411	635
206.478	1052
206.546	1320
206.614	871
206.682	1128
206.750	1313
206.818	1698
206.885	1754
206.953	194
207.021	995
207.089	1578
207.157	531
207.225	895
207.292	1049
207.360	1328
207.428	342
207.496	1556
207.563	618
207.631	973
207.699	730
207.767	1426
207.834	262
207.902	1634
207.970	1411
208.038	1574
208.105	1023
208.173	1673
208.241	888
208.309	2198
208.376	1601
208.444	2438
208.512	902
208.579	1357
208.647	1522
208.715	1657
208.782	916
208.850	1658
208.918	734
208.985	1884
209.053	2045
209.120	1672
209.188	655
209.256	1431
209.323	1064
209.391	2363
209.459	1314
209.526	1757
209.594	1060
209.661	891
209.729	1169
209.796	2136
209.864	1415
209.932	683
209.999	1655
210.067	2083
210.134	1523
210.202	1460
210.269	1774
210.337	2747
210.404	930
210.472	1653
210.539	1716
210.607	1279
210.674	1466
210.742	1677
210.809	1315
210.877	2191
210.944	2134
211.012	1542
211.079	2556
211.146	1356
211.214	1545
211.281	2791
211.349	1405
211.416	1605
211.484	1760
211.551	1983
211.618	1523
211.686	2408
211.753	1144
211.821	2051
211.888	863
211.955	1500
212.023	1768
212.090	1950
212.157	2162
212.225	2270
212.292	3325
212.359	4280
212.427	6996
212.494	3856
212.561	2672
212.629	1849
212.696	2148
212.763	2170
212.831	936
212.898	2017
212.965	1572
213.032	2343
213.100	1067
213.167	957
213.234	1510
213.301	2717
213.369	1326
213.436	2289
213.503	2162
213.570	2736
213.638	1497
213.705	2513
213.772	686
213.839	895
213.906	1263
213.973	2274
214.041	1293
214.108	2546
214.175	1821
214.242	2121
214.309	1414
214.376	1990
214.444	1257
214.511	1762
214.578	1969
214.645	3262
214.712	2318
214.779	2167
214.846	1996
214.913	3052
214.980	2856
215.048	3157
215.115	2563
215.182	2862
215.249	2015
215.316	1721
215.383	1457
215.450	3129
215.517	2433
215.584	1522
215.651	1228
215.718	1615
215.785	1229
215.852	1890
215.919	1857
215.986	2779
216.053	1420
216.120	2078
216.187	1939
216.254	2367
216.321	2013
216.388	2233
216.455	1928
216.522	2638
216.589	2328
216.656	3625
216.722	3119
216.789	3505
216.856	3076
216.923	2839
216.990	2655
217.057	3302
217.124	3650
217.191	3439
217.258	4096
217.324	4361
217.391	4783
217.458	4143
217.525	2777
217.592	3228
217.659	1329
217.725	2992
217.792	2932
217.859	2441
217.926	1226
217.993	2078
218.059	2520
218.126	2006
218.193	1752
218.260	1812
218.327	1402
218.393	2193
218.460	1611
218.527	1933
218.594	1474
218.660	2961
218.727	2453
218.794	1752
218.860	1197
218.927	1242
218.994	1367
219.061	1042
219.127	2047
219.194	2102
219.261	1549
219.327	1271
219.394	1297
219.461	1399
219.527	1214
219.594	2519
219.661	1125
219.727	955
219.794	1923
219.860	972
219.927	1820
219.994	3134
220.060	3518
220.127	3881
220.193	2381
220.260	3633
220.326	4137
220.393	6072
220.460	6302
220.526	5502
220.593	3360
220.659	4156
220.726	4178
220.792	6633
220.859	7090
220.925	9975
220.992	9868
221.058	10151
221.125	7659
221.191	6442
221.258	3229
221.324	2922
221.391	2046
221.457	2328
221.524	2311
221.590	3100
221.657	6058
221.723	4148
221.789	4497
221.856	4384
221.922	2366
221.989	2352
222.055	1361
222.121	2113
222.188	3113
222.254	2750
222.321	2071
222.387	1992
222.453	1568
222.520	1948
222.586	1535
222.652	2305
222.719	885
222.785	2180
222.851	1389
222.918	1420
222.984	1132
223.050	1995
223.116	549
223.183	1660
223.249	1036
223.315	913
223.382	643
223.448	1596
223.514	1232
223.580	1830
223.647	1184
223.713	1478
223.779	1193
223.845	1512
223.911	1301
223.978	694
224.044	1484
224.110	1990
224.176	1416
224.242	2280
224.309	363
224.375	1518
224.441	723
224.507	1265
224.573	966
224.639	1845
224.705	144
224.772	1609
224.838	462
224.904	2027
224.970	1672
225.036	2168
225.102	1009
225.168	1861
225.234	1710
225.300	2129
225.366	1232
225.432	1782
225.499	1433
225.565	2194
225.631	1835
225.697	1867
225.763	2184
225.829	2921
225.895	2750
225.961	4321
226.027	3627
226.093	2917
226.159	4220
226.225	7138
226.291	12596
226.357	16540
226.423	8898
226.489	7269
226.554	4351
226.620	4748
226.686	5107
226.752	8967
226.818	12244
226.884	20497
226.950	16317
227.016	8405
227.082	6178
227.148	4875
227.214	3599
227.279	3477
227.345	2742
227.411	3374
227.477	3279
227.543	6478
227.609	5596
227.674	4592
227.740	2488
227.806	3683
227.872	1955
227.938	3110
228.003	2822
228.069	3341
228.135	1059
228.201	2575
228.267	1655
228.332	2319
228.398	1887
228.464	2136
228.530	1394
228.595	2291
228.661	1117
228.727	3292
228.792	2210
228.858	1914
228.924	1055
228.990	2779
229.055	1499
229.121	2542
229.187	1459
229.252	1894
229.318	932
229.384	1673
229.449	2160
229.515	697
229.581	280
229.646	2756
229.712	2489
229.777	3275
229.843	2523
229.909	3088
229.974	2846
230.040	3317
230.105	3234
230.171	2151
230.236	3398
230.302	4956
230.368	3764
230.433	2560
230.499	2672
230.564	3526
230.630	2425
230.695	2630
230.761	3161
230.826	1419
230.892	2875
230.957	2300
231.023	1756
231.088	2073
231.154	2115
231.219	2192
231.284	2238
231.350	3464
231.415	2370
231.481	3147
231.546	2097
231.612	2828
231.677	1034
231.742	1367
231.808	2446
231.873	1671
231.939	455
232.004	3165
232.069	2120
232.135	1647
232.200	2026
232.265	3033
232.331	1420
232.396	1338
232.461	998
232.527	1995
232.592	968
232.657	2261
232.723	2162
232.788	2486
232.853	1811
232.918	1600
232.984	1308
233.049	2023
233.114	1538
233.179	3153
233.245	3685
233.310	4186
233.375	889
233.440	1912
233.506	1280
233.571	1825
233.636	1132
233.701	2146
233.766	2654
233.832	2975
233.897	1452
233.962	1404
234.027	2751
234.092	2232
234.157	1582
234.222	2113
234.288	3705
234.353	6975
234.418	5417
234.483	5185
234.548	3319
234.613	3448
234.678	2661
234.743	3791
234.808	7567
234.873	5400
234.938	4139
235.004	2585
235.069	2931
235.134	2933
235.199	1990
235.264	2426
235.329	1559
235.394	2577
235.459	2981
235.524	3381
235.589	2913
235.654	2333
235.719	978
235.784	3012
235.849	2801
235.913	4757
235.978	4147
236.043	4736
236.108	3155
236.173	3231
236.238	2868
236.303	3304
236.368	2135
236.433	4687
236.498	4486
236.563	5509
236.627	11476
236.692	28362
236.757	22321
236.822	10646
236.887	7272
236.952	7195
237.017	5273
237.081	7089
237.146	8188
237.211	18084
237.276	28203
237.341	34216
237.405	19738
237.470	10288
237.535	6391
237.600	5775
237.664	4779
237.729	4164
237.794	5115
237.859	10710
237.923	5791
237.988	4275
238.053	5068
238.118	4621
238.182	9579
238.247	8619
238.312	5129
238.376	4673
238.441	2220
238.506	4044
238.570	1972
238.635	3350
238.700	2869
238.764	2663
238.829	4833
238.893	4878
238.958	3824
239.023	3370
239.087	2256
239.152	3394
239.216	1967
239.281	3456
239.346	1970
239.410	2789
239.475	2385
239.539	10305
239.604	4963
239.668	3848
239.733	2313
239.797	6095
239.862	12398
239.926	11050
239.991	4838
240.055	3571
240.120	2692
240.184	3462
240.249	2078
240.313	2844
240.378	2458
240.442	5960
240.507	8123
240.571	4203
240.635	4710
240.700	5135
240.764	3099
240.829	2085
240.893	1112
240.957	2714
241.022	6125
241.086	7956
241.151	4287
241.215	2315
241.279	3121
241.344	4990
241.408	3074
241.472	3296
241.537	3535
241.601	3869
241.665	2626
241.730	3523
241.794	3423
241.858	3981
241.922	3548
241.987	3584
242.051	2779
242.115	2681
242.179	3093
242.244	2806
242.308	3224
242.372	3618
242.436	3253
242.501	3461
242.565	2766
242.629	2487
242.693	2570
242.757	1788
242.822	2352
242.886	3546
242.950	2414
243.014	2850
243.078	3951
243.142	3789
243.206	2337
243.271	3788
243.335	3430
243.399	5372
243.463	15705
243.527	32184
243.591	10290
243.655	5924
243.719	3326
243.783	4466
243.847	6378
243.911	7584
243.975	8643
244.040	5849
244.104	4106
244.168	4493
244.232	4098
244.296	6821
244.360	6479
244.424	3545
244.488	3000
244.552	3616
244.615	2366
244.679	2916
244.743	3356
244.807	3052
244.871	2966
244.935	2709
244.999	1715
245.063	2698
245.127	4195
245.191	5871
245.255	3669
245.319	4355
245.383	2718
245.446	4080
245.510	1547
245.574	3457
245.638	3092
245.702	3226
245.766	6545
245.829	4836
245.893	2826
245.957	3142
246.021	4016
246.085	3839
246.149	4131
246.212	8985
246.276	10223
246.340	5496
246.404	4232
246.467	5467
246.531	5401
246.595	4729
246.659	4708
246.722	3993
246.786	4836
246.850	5170
246.913	5593
246.977	3286
247.041	3291
247.104	3284
247.168	4229
247.232	9189
247.295	14635
247.359	7708
247.423	4175
247.486	7122
247.550	4528
247.614	3950
247.677	5081
247.741	3824
247.804	2964
247.868	4481
247.932	7594
247.995	14878
248.059	5994
248.122	3029
248.186	5832
248.249	10125
248.313	23045
248.376	21951
248.440	14326
248.503	6730
248.567	6572
248.630	8439
248.694	10618
248.757	15282
248.821	22959
248.884	16254
248.948	15241
249.011	20074
249.075	26132
249.138	21307
249.202	10753
249.265	7793
249.328	9179
249.392	7525
249.455	6662
249.519	5966
249.582	5965
249.645	10472
249.709	8013
249.772	8320
249.835	5962
249.899	4944
249.962	5336
250.025	4940
250.089	11861
250.152	12949
250.215	6867
250.279	6227
250.342	5916
250.405	5858
250.468	5611
250.532	7757
250.595	12578
250.658	34912
250.721	46497
250.785	19071
250.848	11998
250.911	7876
250.974	7167
251.038	10347
251.101	15150
251.164	9322
251.227	10039
251.290	9618
251.354	15111
251.417	47177
251.480	39020
251.543	36822
251.606	75668
251.669	51469
251.732	24504
251.795	25348
251.859	25359
251.922	51294
251.985	26627
252.048	13564
252.111	10587
252.174	10892
252.237	16963
252.300	29354
252.363	36265
252.426	56368
252.489	24519
252.552	14176
252.615	9535
252.678	13031
252.741	23896
252.804	34611
252.867	61687
252.930	36534
252.993	19318
253.056	14416
253.119	8969
253.182	8737
253.245	13293
253.308	10389
253.371	8598
253.434	7872
253.497	8020
253.559	15124
253.622	9914
253.685	14540
253.748	11542
253.811	7256
253.874	8110
253.937	7970
254.000	6770
254.062	11449
254.125	15459
254.188	16185
254.251	11223
254.314	7247
254.376	12112
254.439	12342
254.502	10534
254.565	12146
254.628	17650
254.690	11119
254.753	6474
254.816	6098
254.878	5988
254.941	12719
255.004	8893
255.067	6241
255.129	5067
255.192	4669
255.255	3439
255.317	4765
255.380	2537
255.443	2752
255.505	2378
255.568	3092
255.631	2297
255.693	3711
255.756	2430
255.819	3690
255.881	2094
255.944	2627
256.006	2315
256.069	2552
256.132	2361
256.194	4519
256.257	7458
256.319	5790
256.382	5248
256.444	5694
256.507	3821
256.569	4601
256.632	4231
256.694	7297
256.757	21889
256.819	49588
256.882	18802
256.944	9698
257.007	8202
257.069	7098
257.132	5367
257.194	5842
257.257	3724
257.319	4876
257.381	5758
257.444	18145
257.506	58227
257.569	55627
257.631	25957
257.693	14226
257.756	8158
257.818	7205
257.880	4266
257.943	5924
258.005	3536
258.067	4531
258.130	3131
258.192	5554
258.254	7310
258.317	5772
258.379	4089
258.441	10515
258.503	8534
258.566	11469
258.628	10663
258.690	4376
258.753	5363
258.815	8850
258.877	4602
258.939	4274
259.001	3893
259.064	3194
259.126	4086
259.188	5121
259.250	5147
259.312	5867
259.375	9998
259.437	6470
259.499	3882
259.561	4037
259.623	5502
259.685	3728
259.747	4248
259.809	11440
259.872	14717
259.934	26275
259.996	20625
260.058	7765
260.120	4149
260.182	3024
260.244	3657
260.306	2580
260.368	2928
260.430	3511
260.492	7011
260.554	11525
260.616	6500
260.678	15694
260.740	13508
260.802	5880
260.864	4048
260.926	3792
260.988	4097
261.050	4723
261.112	9784
261.174	21015
261.236	11228
261.298	5510
261.359	8574
261.421	9893
261.483	3541
261.545	4436
261.607	2817
261.669	4110
261.731	5449
261.793	11379
261.854	4920
261.916	5256
261.978	4422
262.040	4072
262.102	3098
262.164	5187
262.225	4093
262.287	4137
262.349	9054
262.411	5936
262.472	3991
262.534	6151
262.596	8744
262.658	4775
262.719	2694
262.781	5190
262.843	8748
262.904	4893
262.966	4375
263.028	6112
263.090	23584
263.151	44877
263.213	15113
263.275	9744
263.336	4562
263.398	4401
263.459	2873
263.521	3664
263.583	8230
263.644	5406
263.706	2210
263.767	1828
263.829	2805
263.891	1726
263.952	2039
264.014	1507
264.075	5118
264.137	10237
264.198	5080
264.260	2092
264.321	2684
264.383	8093
264.444	15468
264.506	3919
264.567	3766
264.629	8577
264.690	12308
264.752	6383
264.813	3670
264.875	2603
264.936	2118
264.998	2898
265.059	3073
265.120	4131
265.182	6890
265.243	32411
265.305	25874
265.366	7113
265.427	4333
265.489	4141
265.550	1720
265.611	4101
265.673	3632
265.734	2396
265.795	2715
265.857	2958
265.918	3682
265.979	11592
266.040	47566
266.102	32784
266.163	10566
266.224	8222
266.286	4884
266.347	3381
266.408	4063
266.469	3672
266.530	3247
266.592	3127
266.653	5788
266.714	8098
266.775	2845
266.836	2804
266.898	2246
266.959	4567
267.020	2606
267.081	3311
267.142	2583
267.203	2785
267.264	1029
267.326	3512
267.387	1801
267.448	1707
267.509	2531
267.570	2507
267.631	2197
267.692	1920
267.753	2734
267.814	2429
267.875	5863
267.936	11011
267.997	7675
268.058	7230
268.119	3633
268.180	3719
268.241	2129
268.302	3021
268.363	2133
268.424	3374
268.485	3683
268.546	2662
268.607	1285
268.668	1890
268.729	1911
268.790	2341
268.851	2940
268.912	7259
268.972	6615
269.033	3728
269.094	2382
269.155	2949
269.216	2484
269.277	3140
269.338	2819
269.398	3436
269.459	2415
269.520	4667
269.581	5566
269.642	7119
269.702	3833
269.763	4084
269.824	3421
269.885	4424
269.945	5438
270.006	3706
270.067	1866
270.128	3013
270.188	2325
270.249	2939
270.310	1511
270.370	3573
270.431	1724
270.492	2473
270.553	2949
270.613	6435
270.674	9935
270.734	4659
270.795	2330
270.856	4459
270.916	3265
270.977	3411
271.038	3215
271.098	3791
271.159	4919
271.219	5016
271.280	2599
271.340	3054
271.401	3093
271.462	5416
271.522	4622
271.583	2460
271.643	2593
271.704	2953
271.764	3448
271.825	9481
271.885	24443
271.946	25554
272.006	10833
272.066	16873
272.127	20390
272.187	9501
272.248	5247
272.308	6598
272.369	15639
272.429	8135
272.489	8309
272.550	7816
272.610	8567
272.671	6512
272.731	5500
272.791	7046
272.852	4731
272.912	5650
272.972	1720
273.033	3692
273.093	3849
273.153	5031
273.214	4033
273.274	5359
273.334	14989
273.394	20453
273.455	9311
273.515	11121
273.575	19375
273.635	7823
273.696	11959
273.756	19549
273.816	7798
273.876	5996
273.936	10271
273.997	13880
274.057	4861
274.117	5482
274.177	8444
274.237	28613
274.297	18805
274.358	14034
274.418	17490
274.478	13164
274.538	5538
274.598	4767
274.658	13701
274.718	14543
274.778	5941
274.838	5259
274.898	8683
274.958	18601
275.018	20367
275.078	13023
275.138	5384
275.198	4476
275.258	3505
275.318	4531
275.378	7702
275.438	9054
275.498	5679
275.558	11775
275.618	19904
275.678	12749
275.738	10806
275.798	8064
275.858	4973
275.918	4000
275.978	3494
276.038	3414
276.098	3471
276.157	7495
276.217	15947
276.277	8255
276.337	5467
276.397	4035
276.457	3806
276.517	3678
276.576	3333
276.636	2866
276.696	5165
276.756	11570
276.815	6531
276.875	4088
276.935	4693
276.995	4541
277.055	3064
277.114	3829
277.174	5973
277.234	12503
277.293	5425
277.353	4038
277.413	3104
277.472	3940
277.532	3364
277.592	5753
277.651	14833
277.711	19449
277.771	8816
277.830	28544
277.890	18395
277.950	18477
278.009	37034
278.069	13774
278.128	18956
278.188	20954
278.248	11626
278.307	27045
278.367	12817
278.426	5251
278.486	4607
278.545	3824
278.605	3357
278.664	3770
278.724	4592
278.783	11788
278.843	19257
278.902	6650
278.962	4774
279.021	6112
279.081	6988
279.140	8160
279.199	6571
279.259	6960
279.318	6099
279.378	9174
279.437	16426
279.496	44529
279.556	106903
279.615	65046
279.675	20692
279.734	15418
279.793	21199
279.853	27114
279.912	12255
279.971	8446
280.031	7175
280.090	15074
280.149	19990
280.208	20479
280.268	75405
280.327	58340
280.386	15621
280.445	14593
280.505	11862
280.564	7685
280.623	6244
280.682	9518
280.742	11041
280.801	4745
280.860	3518
280.919	3813
280.978	2970
281.037	3430
281.097	2376
281.156	4063
281.215	2934
281.274	4316
281.333	14638
281.392	8510
281.451	3077
281.510	3045
281.569	2448
281.628	2997
281.688	1995
281.747	3935
281.806	2581
281.865	3575
281.924	2676
281.983	2733
282.042	1761
282.101	2238
282.160	2741
282.219	3007
282.278	3264
282.337	8829
282.396	5454
282.454	3844
282.513	4913
282.572	13243
282.631	7198
282.690	3195
282.749	2246
282.808	4302
282.867	3167
282.926	3413
282.985	2013
283.043	2284
283.102	2435
283.161	3437
283.220	7770
283.279	12885
283.338	4935
283.396	3415
283.455	3137
283.514	3947
283.573	5239
283.631	4127
283.690	3100
283.749	2745
283.808	7867
283.866	6366
283.925	3325
283.984	3699
284.043	4776
284.101	4943
284.160	3569
284.219	5548
284.277	4170
284.336	7618
284.395	18407
284.453	12965
284.512	7363
284.570	9337
284.629	7437
284.688	8624
284.746	7903
284.805	10751
284.863	12819
284.922	16253
284.981	20654
285.039	30439
285.098	48677
285.156	86865
285.215	86991
285.273	86565
285.332	73775
285.390	51155
285.449	33431
285.507	25201
285.566	17476
285.624	14906
285.683	12390
285.741	9688
285.799	8068
285.858	7349
285.916	6719
285.975	5122
286.033	4775
286.091	5551
286.150	3688
286.208	4265
286.267	4496
286.325	5005
286.383	6451
286.442	4722
286.500	3257
286.558	2879
286.616	3271
286.675	4997
286.733	3767
286.791	4477
286.850	4912
286.908	5442
286.966	6812
287.024	3923
287.083	2801
287.141	3138
287.199	3056
287.257	5265
287.315	3531
287.374	3963
287.432	8323
287.490	5111
287.548	3646
287.606	3068
287.664	3677
287.723	5091
287.781	5195
287.839	3761
287.897	3988
287.955	5813
288.013	9773
288.071	22473
288.129	70692
288.187	130672
288.245	59932
288.303	22828
288.361	13088
288.419	10753
288.477	8092
288.535	5257
288.593	4266
288.651	4302
288.709	2469
288.767	3973
288.825	3014
288.883	3112
288.941	2347
288.999	2982
289.057	2626
289.115	2429
289.173	2488
289.231	2993
289.289	2329
289.346	3276
289.404	3356
289.462	6014
289.520	4960
289.578	3653
289.636	1509
289.694	1470
289.751	1511
289.809	2652
289.867	2392
289.925	4487
289.983	3233
290.040	3052
290.098	1575
290.156	2794
290.214	3239
290.271	2271
290.329	1833
290.387	2183
290.444	1243
290.502	1562
290.560	1485
290.617	2275
290.675	1538
290.733	2388
290.790	2085
290.848	2044
290.906	1470
290.963	2893
291.021	1947
291.078	2448
291.136	3725
291.194	8875
291.251	12756
291.309	4405
291.366	1389
291.424	2114
291.481	2286
291.539	2103
291.596	1968
291.654	1627
291.711	1909
291.769	2774
291.826	4593
291.884	3233
291.941	1393
291.999	2018
292.056	2583
292.114	3295
292.171	2229
292.228	2969
292.286	2838
292.343	5739
292.401	5613
292.458	3575
292.515	2683
292.573	3235
292.630	3131
292.687	3201
292.745	2820
292.802	3977
292.859	9341
292.917	14382
292.974	7191
293.031	3925
293.089	2741
293.146	2727
293.203	2878
293.260	1838
293.318	2289
293.375	4027
293.432	2146
293.489	3095
293.546	2548
293.604	4253
293.661	10309
293.718	20822
293.775	11087
293.832	6813
293.889	4265
293.947	5879
294.004	3094
294.061	4651
294.118	8739
294.175	16667
294.232	17927
294.289	7625
294.346	6008
294.403	6917
294.460	3792
294.517	4128
294.574	2711
294.631	3670
294.688	4619
294.745	9477
294.802	26798
294.859	26104
294.916	10235
294.973	5739
295.030	5073
295.087	4107
295.144	3524
295.201	3127
295.258	2730
295.315	4503
295.372	11199
295.429	16790
295.486	7735
295.542	6225
295.599	14750
295.656	20531
295.713	14262
295.770	16303
295.827	7397
295.883	4625
295.940	4240
295.997	6849
296.054	5143
296.111	3622
296.167	2465
296.224	2568
296.281	2406
296.338	2567
296.394	2032
296.451	3785
296.508	8932
296.564	14126
296.621	11125
296.678	21671
296.734	25253
296.791	10869
296.848	6867
296.904	8987
296.961	15370
297.018	19892
297.074	13099
297.131	7018
297.187	5520
297.244	7943
297.301	20289
297.357	27191
297.414	10543
297.470	6166
297.527	4143
297.583	3919
297.640	3477
297.696	3214
297.753	2462
297.809	2969
297.866	1983
297.922	2604
297.979	2332
298.035	3275
298.092	4361
298.148	12373
298.204	10006
298.261	6448
298.317	11067
298.374	23323
298.430	12479
298.486	6933
298.543	4920
298.599	6164
298.656	8075
298.712	11674
298.768	20893
298.824	13787
298.881	5128
298.937	4500
298.993	3614
299.050	4923
299.106	4172
299.162	3757
299.218	3748
299.275	2743
299.331	4832
299.387	7996
299.443	22532
299.500	23924
299.556	11725
299.612	5842
299.668	5572
299.724	10181
299.780	10052
299.837	5560
299.893	7619
299.949	21961
300.005	24202
300.061	21205
300.117	29761
300.173	13952
300.229	7954
300.285	9438
300.341	9771
300.397	5804
300.453	3514
300.510	3844
300.566	4150
300.622	8003
300.678	19600
300.734	27959
300.790	19898
300.845	20715
300.901	16203
300.957	23749
301.013	13903
301.069	7307
301.125	4683
301.181	5320
301.237	3911
301.293	2611
301.349	3023
301.405	2633
301.461	3224
301.516	4240
301.572	4336
301.628	6585
301.684	5897
301.740	9320
301.796	11957
301.851	10056
301.907	15403
301.963	15582
302.019	24376
302.074	52582
302.130	47199
302.186	24120
302.242	10329
302.297	7983
302.353	8051
302.409	13574
302.464	11787
302.520	10377
302.576	21668
302.631	22767
302.687	13628
302.743	6134
302.798	5066
302.854	4482
302.910	4504
302.965	5879
303.021	9111
303.076	9266
303.132	10798
303.187	12248
303.243	6207
303.299	3780
303.354	3240
303.410	4593
303.465	3172
303.521	3481
303.576	4216
303.632	5436
303.687	8559
303.743	18943
303.798	14877
303.853	6669
303.909	4390
303.964	4897
304.020	6832
304.075	10019
304.130	8135
304.186	14994
304.241	15300
304.297	11877
304.352	6692
304.358	6506
304.407	4997
304.449	5313
304.463	5420
304.518	5180
304.539	4617
304.573	3718
304.629	4808
304.630	4855
304.684	7226
304.720	12956
304.739	15800
304.794	20081
304.811	17426
304.850	10871
304.902	5482
304.905	5153
304.960	4655
304.992	4510
305.015	4387
305.071	5084
305.083	4904
305.126	4218
305.173	3007
305.181	2824
305.236	2230
305.264	3132
305.292	4036
305.347	3446
305.354	3756
305.402	5777
305.445	5310
305.457	5160
305.512	6385
305.535	6018
305.567	5514
305.622	5762
305.626	5941
305.678	10799
305.716	20210
305.733	23316
305.788	23053
305.807	20320
305.843	15846
305.897	19631
305.898	19664
305.953	18381
305.988	13029
306.008	10130
306.063	7029
306.078	6385
306.118	5171
306.168	3202
306.173	3039
306.228	3411
306.259	3228
306.283	3132
306.338	3272
306.349	3364
306.393	3847
306.440	4334
306.448	4376
306.503	4043
306.530	4556
306.558	6251
306.613	12170
306.620	12895
306.668	17714
306.711	22661
306.723	22800
306.778	16758
306.801	13451
306.833	9932
306.888	5133
306.892	4957
306.943	4281
306.982	4109
306.997	4087
307.052	4051
307.072	3809
307.107	3757
307.162	5432
307.163	5441
307.217	6865
307.253	8246
307.272	8559
307.327	7650
307.343	7428
307.381	7080
307.434	6805
307.436	7028
307.491	14031
307.524	19442
307.546	20461
307.600	20809
307.614	19060
307.655	12340
307.704	7429
307.710	7415
307.765	8544
307.795	10135
307.819	11683
307.874	16434
307.885	16542
307.929	14598
307.975	13927
307.984	14799
308.038	23396
308.065	29284
308.093	47734
308.148	92981
308.156	101463
308.202	141278
308.246	162568
308.257	156315
308.312	94971
308.336	70053
308.366	54635
308.421	32837
308.426	30944
308.475	21305
308.517	15336
308.530	14422
308.585	12648
308.607	11619
308.639	11192
308.694	11610
308.697	11675
308.748	17695
308.787	23356
308.803	23062
308.857	18430
308.877	16936
308.912	16794
308.967	17090
308.967	17107
309.021	26084
309.058	32902
309.076	41365
309.130	71240
309.148	82534
309.185	128366
309.238	200813
309.239	201477
309.293	208403
309.328	199694
309.348	176164
309.402	100812
309.418	80780
309.457	59827
309.508	36597
309.511	36133
309.566	31535
309.598	29650
309.620	32305
309.674	40502
309.688	42629
309.729	40901
309.778	35919
309.783	35195
309.837	26385
309.868	21985
309.892	25306
309.946	34286
309.959	37023
310.001	45494
310.049	52268
310.055	50396
310.109	29963
310.139	18875
310.163	15330
310.218	9286
310.229	8161
310.272	7084
310.319	6213
310.326	6063
310.381	4947
310.409	4602
310.435	4841
310.489	4793
310.499	4893
310.543	5190
310.589	5294
310.598	5296
310.652	5428
310.679	5239
310.706	4641
310.760	3823
310.769	3670
310.814	3501
310.859	3535
310.868	3623
310.923	3843
310.948	3961
310.977	4152
311.031	4598
311.038	4659
311.085	4663
311.128	4393
311.139	4319
311.193	4274
311.218	4130
311.247	3983
311.301	3696
311.308	3671
311.356	3806
311.398	3898
311.410	3828
311.464	3394
311.488	3174
311.518	3274
311.572	3567
311.578	3595
311.626	5373
311.668	6981
311.680	6916
311.734	6403
311.758	6188
311.788	6337
311.842	6580
311.847	6590
311.896	7475
311.937	8288
311.950	8260
312.004	8013
312.027	7884
312.058	6732
312.112	4661
312.117	4450
312.165	4218
312.207	4017
312.297	6013
312.386	5330
312.476	5272
312.566	9903
312.656	5870
312.745	3733
312.835	4783
312.925	5356
313.015	4553
313.104	5218
313.194	4051
313.284	4824
313.374	5665
313.463	4935
313.553	3582
313.643	3793
313.732	3542
313.822	4026
313.912	4525
314.001	4531
314.091	5293
314.180	7206
314.270	6309
314.360	6947
314.449	5844
314.539	4519
314.628	3925
314.718	4916
314.808	6569
314.897	4339
314.987	4353
315.076	5634
315.166	6632
315.255	6292
315.345	6766
315.434	5991
315.524	6273
315.613	6709
315.703	9424
315.792	14615
315.881	36091
315.971	15690
316.060	11684
316.150	14886
316.239	13649
316.328	6329
316.418	4383
316.507	5033
316.597	6905
316.686	5899
316.775	7727
316.865	14109
316.954	5136
317.043	3678
317.133	4730
317.222	4350
317.311	3575
317.400	3474
317.490	7052
317.579	7044
317.668	5776
317.757	9781
317.847	21795
317.936	65023
318.025	30138
318.114	16668
318.203	10664
318.293	13138
318.382	23716
318.471	19217
318.560	25393
318.649	42933
318.738	11585
318.828	7353
318.917	8292
319.006	8704
319.095	19712
319.184	54179
319.273	32674
319.362	17111
319.451	6073
319.540	6156
319.629	13621
319.718	22406
319.807	11106
319.896	20954
319.985	67046
320.074	26338
320.163	7466
320.252	10211
320.341	8621
320.430	8834
320.519	11390
320.608	7584
320.697	5953
320.786	5959
320.875	9144
320.964	11062
321.053	16478
321.142	22554
321.230	23781
321.319	19364
321.408	39201
321.497	17109
321.586	16713
321.675	16706
321.764	16469
321.852	12510
321.941	22693
322.030	15509
322.119	17767
322.207	38908
322.296	24698
322.385	14775
322.474	18630
322.562	47576
322.651	25712
322.740	18026
322.829	24205
322.917	21034
323.006	14360
323.095	12499
323.183	10186
323.272	15351
323.361	24326
323.449	58175
323.538	22408
323.626	39492
323.715	25367
323.804	12634
323.892	35678
323.981	21787
324.069	8672
324.158	20752
324.246	18864
324.335	9431
324.424	14101
324.512	6891
324.601	7540
324.689	12371
324.778	19670
324.866	15463
324.954	6143
325.043	5331
325.131	9995
325.220	16040
325.308	17026
325.397	13816
325.485	9064
325.574	4337
325.662	3927
325.750	5091
325.839	4437
325.927	3233
326.015	5461
326.104	6507
326.192	9576
326.280	4474
326.369	4194
326.457	7028
326.545	11694
326.634	5559
326.722	3532
326.810	3982
326.898	3969
326.987	4776
327.075	11643
327.163	10656
327.251	5326
327.340	7572
327.428	9885
327.516	4328
327.604	4292
327.692	4074
327.781	5455
327.869	7467
327.957	4719
328.045	5049
328.133	4112
328.221	4524
328.309	4596
328.397	4383
328.485	6631
328.574	7976
328.662	25137
328.750	14091
328.838	5279
328.926	3907
329.014	4478
329.102	6566
329.190	15395
329.278	10506
329.366	3742
329.454	3279
329.542	4217
329.630	3886
329.718	4446
329.806	6144
329.893	6540
329.981	9115
330.069	17552
330.157	60498
330.245	135774
330.333	78214
330.421	18012
330.509	13283
330.597	31801
330.684	21201
330.772	8124
330.860	9769
330.948	11786
331.036	6286
331.123	3385
331.211	3615
331.299	4607
331.387	10729
331.475	17782
331.562	5795
331.650	3978
331.738	3130
331.825	5057
331.913	3680
332.001	2339
332.089	4511
332.176	8212
332.264	18763
332.352	14309
332.439	5586
332.527	4924
332.614	3880
332.702	4684
332.790	3835
332.877	10434
332.965	17779
333.052	7017
333.140	8146
333.228	16046
333.315	5697
333.403	4320
333.490	11283
333.578	11434
333.665	20683
333.753	11241
333.840	4993
333.928	6102
334.015	12789
334.103	23515
334.190	63487
334.278	19921
334.365	9531
334.452	7846
334.540	5546
334.627	6963
334.715	9796
334.802	18601
334.889	70854
334.977	69033
335.064	14077
335.151	7554
335.239	7617
335.326	9411
335.413	34960
335.501	44906
335.588	8956
335.675	6769
335.762	9294
335.850	14096
335.937	12979
336.024	28239
336.111	79502
336.199	38199
336.286	11659
336.373	6744
336.460	4712
336.547	4973
336.635	5327
336.722	5372
336.809	4876
336.896	8288
336.983	22809
337.070	51981
337.157	69537
337.245	46211
337.332	30187
337.419	6006
337.506	4326
337.593	5656
337.680	17799
337.767	47211
337.854	14823
337.941	16068
338.028	15663
338.115	6875
338.202	8717
338.289	15277
338.376	42592
338.463	16665
338.550	28700
338.637	30753
338.724	10188
338.811	12616
338.898	4566
338.984	3820
339.071	4190
339.158	6047
339.245	15019
339.332	9358
339.419	9968
339.506	10008
339.593	2654
339.679	3870
339.766	3328
339.853	5466
339.940	11789
340.027	4459
340.113	4328
340.200	6339
340.287	4492
340.374	5523
340.460	10360
340.547	5682
340.634	8236
340.720	29613
340.807	16642
340.894	3741
340.980	3501
341.067	3568
341.154	4440
341.240	7683
341.327	14368
341.414	5774
341.500	5761
341.587	4665
341.674	2881
341.760	9683
341.847	11490
341.933	3894
342.020	1315
342.106	2589
342.193	3976
342.279	7602
342.366	6280
342.452	9593
342.539	6138
342.625	14184
342.712	31923
342.798	14324
342.885	6121
342.971	2305
343.058	2366
343.144	2661
343.230	2433
343.317	3469
343.403	2563
343.490	2746
343.576	2390
343.662	3109
343.749	3364
343.835	5510
343.921	10391
344.008	51538
344.094	100731
344.180	26122
344.267	11016
344.353	33812
344.439	32041
344.525	15881
344.612	9505
344.698	9633
344.784	6652
344.870	3873
344.957	3811
345.043	6297
345.129	5217
345.215	9568
345.301	6221
345.387	4552
345.474	2344
345.560	3227
345.646	3451
345.732	2773
345.818	4149
345.904	3689
345.990	3938
346.076	4242
346.162	6503
346.249	4428
346.335	3062
346.421	3978
346.507	14798
346.593	44013
346.679	11508
346.765	3731
346.851	3591
346.937	4078
347.023	3613
347.108	4338
347.194	3125
347.280	4142
347.366	5651
347.452	16683
347.538	54290
347.624	42310
347.710	31601
347.796	6205
347.882	4326
347.967	3524
348.053	4441
348.139	3547
348.225	2453
348.311	3260
348.397	2869
348.482	4096
348.568	4973
348.654	3180
348.740	5829
348.825	6367
348.911	8481
348.997	26550
349.083	44534
349.168	10100
349.254	4824
349.340	3881
349.425	4041
349.511	4152
349.597	6185
349.682	11720
349.768	34459
349.854	16276
349.939	3391
350.025	2986
350.110	3524
350.196	3240
350.282	2307
350.367	2024
350.453	5426
350.538	4946
350.624	5306
350.709	5085
350.795	3024
350.880	3208
350.966	4576
351.051	5516
351.137	4321
351.222	4080
351.308	12192
351.393	30917
351.479	8251
351.564	3958
351.649	3008
351.735	2498
351.820	2086
351.906	3094
351.991	5155
352.076	21010
352.162	30496
352.247	6865
352.332	4611
352.418	9032
352.503	12791
352.588	45634
352.673	36201
352.759	9269
352.844	4964
352.929	5643
353.014	6938
353.100	4949
353.185	7737
353.270	12359
353.355	12010
353.441	3557
353.526	4646
353.611	11322
353.696	12297
353.781	7155
353.866	3894
353.952	4387
354.037	10423
354.122	23881
354.207	20898
354.292	8625
354.377	3605
354.462	4130
354.547	5034
354.632	4855
354.717	6859
354.802	9323
354.887	4450
354.972	2300
355.057	2969
355.142	2338
355.227	4374
355.312	7169
355.397	16500
355.482	36629
355.567	18495
355.652	13064
355.737	13721
355.822	41293
355.907	32479
355.991	6440
356.076	3540
356.161	4001
356.246	2159
356.331	4533
356.416	11514
356.501	60347
356.585	60004
356.670	10004
356.755	7124
356.840	11778
356.924	48691
357.009	138655
357.094	57205
357.179	13555
357.263	8973
357.348	8946
357.433	9417
357.517	7735
357.602	7177
357.687	6233
357.771	10062
357.856	29462
357.941	19214
358.025	37171
358.110	134348
358.195	65258
358.279	12334
358.364	9549
358.448	32200
358.533	78739
358.617	57616
358.702	55103
358.787	21372
358.871	11664
358.956	10248
359.040	3767
359.125	3667
359.209	4294
359.294	13797
359.378	24635
359.462	10934
359.547	5437
359.631	3558
359.716	3180
359.800	3992
359.885	6094
359.969	3913
360.053	3227
360.138	3012
360.222	6552
360.306	11725
360.391	9354
360.475	17370
360.559	36586
360.644	31640
360.728	21665
360.812	36180
360.896	87824
360.981	39816
361.065	21459
361.149	6589
361.233	5997
361.318	4871
361.402	6071
361.486	5204
361.570	4141
361.654	6106
361.739	15749
361.823	62398
361.907	87100
361.991	18335
362.075	11766
362.159	23449
362.243	19251
362.327	21545
362.411	24634
362.495	13957
362.580	7810
362.664	5079
362.748	6149
362.832	8682
362.916	17106
363.000	49050
363.084	98326
363.168	111181
363.252	29883
363.336	11340
363.420	15373
363.503	50936
363.587	57232
363.671	11620
363.755	8827
363.839	11683
363.923	6739
364.007	13976
364.091	17107
364.175	26112
364.258	89614
364.342	79937
364.426	89984
364.510	48956
364.594	23095
364.677	23639
364.761	79086
364.845	55936
364.929	21709
365.013	17514
365.096	13710
365.180	18489
365.264	23943
365.347	76082
365.431	32759
365.515	8830
365.598	4744
365.682	5338
365.766	8530
365.849	9734
365.933	6007
366.017	7676
366.100	5787
366.184	2865
366.267	3575
366.351	3147
366.435	3345
366.518	2684
366.602	3219
366.685	3222
366.769	4993
366.852	8413
366.936	13647
367.019	8333
367.103	6222
367.186	11369
367.270	4197
367.353	2206
367.436	3551
367.520	3020
367.603	5509
367.687	7339
367.770	13234
367.853	8801
367.937	24642
368.020	38245
368.104	10388
368.187	10749
368.270	15205
368.353	13246
368.437	16417
368.520	29932
368.603	20984
368.687	31837
368.770	53906
368.853	14637
368.936	14014
369.020	12841
369.103	5459
369.186	3577
369.269	4301
369.352	9256
369.436	12992
369.519	8629
369.602	3825
369.685	4395
369.768	4862
369.851	4778
369.934	3074
370.018	4670
370.101	10535
370.184	9285
370.267	7465
370.350	11570
370.433	17937
370.516	43423
370.599	52803
370.682	19668
370.765	32690
370.848	37942
370.931	66127
371.014	25862
371.097	6191
371.180	4962
371.263	3250
371.346	1855
371.429	3402
371.511	4056
371.594	7256
371.677	11832
371.760	13622
371.843	12067
371.926	53236
372.009	112036
372.091	38556
372.174	26666
372.257	56887
372.340	23581
372.423	18810
372.505	20702
372.588	10562
372.671	22334
372.754	67046
372.836	33317
372.919	25306
373.002	45922
373.085	15425
373.167	12277
373.250	30921
373.332	60913
373.415	80522
373.498	151067
373.580	60911
373.663	79266
373.746	99777
373.828	26487
373.911	12210
373.993	13921
374.076	46204
374.159	41598
374.241	20949
374.324	57548
374.406	38074
374.489	47267
374.571	121829
374.654	51894
374.736	28055
374.819	77503
374.901	109855
374.983	109226
375.066	21834
375.148	9309
375.231	38002
375.313	69047
375.395	25303
375.478	6685
375.560	5183
375.643	8001
375.725	26185
375.807	97277
375.890	73138
375.972	28931
376.054	17861
376.136	23041
376.219	11907
376.301	30961
376.383	84726
376.465	33121
376.548	21801
376.630	27693
376.712	74238
376.794	33884
376.877	5472
376.959	3655
377.041	4199
377.123	9652
377.205	10491
377.287	2420
377.369	3183
377.452	3357
377.534	3577
377.616	2697
377.698	3008
377.780	2943
377.862	4289
377.944	4198
378.026	2391
378.108	1963
378.190	3416
378.272	2979
378.354	2253
378.436	2250
378.518	6162
378.600	20032
378.682	19516
378.764	41024
378.846	31896
378.928	9895
379.010	12639
379.091	7046
379.173	3888
379.255	2389
379.337	5806
379.419	21363
379.501	57234
379.583	22531
379.664	6347
379.746	15789
379.828	41367
379.910	55301
379.991	46757
380.073	8909
380.155	5271
380.237	4261
380.318	3092
380.400	4606
380.482	9229
380.564	14269
380.645	13599
380.727	12884
380.809	7962
380.890	6043
380.972	3556
381.053	3689
381.135	5437
381.217	15366
381.298	42104
381.380	21356
381.461	19151
381.543	76110
381.624	89329
381.706	18697
381.787	9903
381.869	10945
381.951	34891
382.032	115113
382.113	72396
382.195	18046
382.276	14087
382.358	27624
382.439	66286
382.521	74222
382.602	110564
382.684	58017
382.765	106243
382.846	123110
382.928	171423
383.009	99357
383.090	83056
383.172	258908
383.253	346144
383.334	129153
383.416	111570
383.497	60355
383.578	37082
383.659	73291
383.741	239399
383.822	505495
383.903	261218
383.984	98786
384.066	138115
384.147	84937
384.228	21703
384.309	15144
384.390	12971
384.471	8844
384.553	10958
384.634	13091
384.715	13043
384.796	8415
384.877	10627
384.958	38516
385.039	46090
385.120	17556
385.201	8551
385.282	10514
385.363	10732
385.444	9918
385.525	18315
385.606	51808
385.687	42364
385.768	12964
385.849	14829
385.930	58162
386.011	91708
386.092	27238
386.173	8551
386.254	6342
386.335	6383
386.416	7717
386.496	25762
386.577	41262
386.658	15611
386.739	9528
386.820	9084
386.901	7222
386.981	7290
387.062	5763
387.143	11177
387.224	40466
387.304	36886
387.385	13721
387.466	8817
387.547	11032
387.627	8688
387.708	17393
387.789	69293
387.869	79232
387.950	21728
388.031	5855
388.111	5542
388.192	12843
388.273	18445
388.353	12048
388.434	7329
388.514	14769
388.595	58505
388.676	76146
388.756	41251
388.837	39370
388.917	23930
388.998	5901
389.078	5460
389.159	4929
389.239	4168
389.320	8115
389.400	6966
389.480	16567
389.561	40526
389.641	20079
389.722	8058
389.802	12369
389.883	18789
389.963	46542
390.043	28107
390.124	8835
390.204	16401
390.284	46837
390.365	31060
390.445	37154
390.525	95513
390.605	83592
390.686	26543
390.766	9433
390.846	5941
390.927	4240
391.007	4432
391.087	5642
391.167	5414
391.247	4318
391.328	7940
391.408	11800
391.488	8588
391.568	3318
391.648	6867
391.728	9913
391.808	9697
391.888	10313
391.969	23336
392.049	37495
392.129	18148
392.209	19848
392.289	46597
392.369	26839
392.449	22402
392.529	14415
392.609	13408
392.689	18036
392.769	47348
392.849	41020
392.929	33479
393.009	70213
393.089	59053
393.169	64307
393.248	193661
393.328	581923
393.408	602896
393.488	197654
393.568	61590
393.648	31299
393.728	21166
393.807	16021
393.887	14006
393.967	13379
394.047	14709
394.127	18284
394.206	31901
394.286	102123
394.366	345778
394.446	362545
394.525	110714
394.605	32865
394.685	21880
394.764	34448
394.844	53864
394.924	40211
395.003	14867
395.083	10911
395.163	9904
395.242	8452
395.322	9956
395.402	7294
395.481	11563
395.561	24910
395.640	62188
395.720	57082
395.799	70531
395.879	56777
395.958	48911
396.038	154043
396.117	443209
396.197	466451
396.276	181552
396.356	65054
396.435	41038
396.515	30569
396.594	34666
396.673	58610
396.753	196216
396.832	533500
396.912	401472
396.991	110314
397.070	33534
397.150	17999
397.229	14480
397.308	19891
397.388	33893
397.467	18780
397.546	8268
397.625	5474
397.705	9406
397.784	8823
397.863	5067
397.942	4497
398.022	5426
398.101	17346
398.180	51224
398.259	26442
398.338	7665
398.417	5903
398.497	3942
398.576	4469
398.655	2523
398.734	2919
398.813	4149
398.892	17994
398.971	54855
399.050	26070
399.129	3547
399.208	2687
399.287	3386
399.366	1914
399.445	2689
399.524	2690
399.603	2720
399.682	6802
399.761	19076
399.840	60542
399.919	43362
399.998	6423
400.077	2232
400.156	1586
400.235	3999
400.313	2373
400.392	3551
400.471	22712
400.550	35115
400.629	9762
400.708	4187
400.786	3440
400.865	11668
400.944	12787
401.023	6495
401.102	1912
401.180	1595
401.259	1941
401.338	2429
401.416	3856
401.495	3233
401.574	3277
401.652	2429
401.731	3828
401.810	3251
401.888	2159
401.967	783
402.046	2400
402.124	3726
402.203	4622
402.281	3861
402.360	5146
402.438	14476
402.517	9184
402.596	3553
402.674	2017
402.753	2232
402.831	1805
402.910	3075
402.988	13887
403.066	47510
403.145	26972
403.223	16011
403.302	39757
403.380	29374
403.459	28468
403.537	11631
403.615	4457
403.694	1022
403.772	1834
403.850	2254
403.929	800
404.007	1844
404.085	6499
404.164	6823
404.242	3918
404.320	13230
404.398	41804
404.477	49893
404.555	101343
404.633	87295
404.711	36090
404.789	19670
404.868	5670
404.946	2719
405.024	2778
405.102	1419
405.180	1952
405.258	803
405.336	2998
405.415	1593
405.493	5994
405.571	4782
405.649	1275
405.727	1033
405.805	4140
405.883	3572
405.961	3743
406.039	4068
406.117	2104
406.195	5460
406.273	24160
406.351	83572
406.429	48158
406.507	7616
406.585	1932
406.663	3514
406.740	4129
406.818	3814
406.896	1756
406.974	3194
407.052	7726
407.130	49842
407.208	69842
407.285	14101
407.363	2329
407.441	2078
407.519	2589
407.596	4596
407.674	17767
407.752	66029
407.830	55449
407.907	13112
407.985	3381
408.063	2663
408.141	1291
408.218	5049
408.296	4063
408.373	3273
408.451	3852
408.529	2801
408.606	1265
408.684	1048
408.762	41
408.839	579
408.917	613
408.994	1544
409.072	630
409.149	2037
409.227	4029
409.304	5082
409.382	4712
409.459	5107
409.537	6720
409.614	7142
409.692	4997
409.769	5223
409.846	7086
409.924	10151
410.001	7333
410.079	5593
410.156	5020
410.233	4849
410.311	2411
410.388	1709
410.465	2345
410.543	3391
410.620	2016
410.697	2362
410.775	3476
410.852	1027
410.929	3802
411.006	4159
411.083	2406
411.161	6535
411.238	7013
411.315	3205
411.392	2021
411.469	4316
411.547	3931
411.624	929
411.701	1345
411.778	2948
411.855	7276
411.932	3371
412.009	1397
412.086	2026
412.163	2707
412.240	3421
412.317	3588
412.394	3126
412.471	642
412.548	684
412.625	1107
412.702	3152
412.779	5610
412.856	4132
412.933	1517
413.010	1978
413.087	4047
413.164	20500
413.241	28963
413.318	6525
413.395	4570
413.471	5678
413.548	3226
413.625	2171
413.702	2546
413.779	1815
413.855	815
413.932	357
414.009	143
414.086	560
414.162	1928
414.239	2905
414.316	20182
414.393	44205
414.469	14991
414.546	1690
414.623	710
414.699	721
414.776	1838
414.853	1150
414.929	930
415.006	1587
415.082	2727
415.159	1162
415.236	906
415.312	2244
415.389	4533
415.465	5296
415.542	2355
415.618	828
415.695	4271
415.771	1816
415.848	2068
415.924	1519
416.000	1173
416.077	872
416.153	-269
416.230	111
416.306	452
416.383	761
416.459	1103
416.535	77
416.612	754
416.688	806
416.764	794
416.841	527
416.917	658
416.993	856
417.069	1908
417.146	3735
417.222	6036
417.298	3344
417.374	704
417.451	2424
417.527	2543
417.603	2531
417.679	2284
417.755	1187
417.831	189
417.908	933
417.984	343
418.060	113
418.136	5243
418.212	6906
418.288	1484
418.364	948
418.440	838
418.516	3332
418.592	4529
418.668	8787
418.744	13300
418.820	9176
418.896	2203
418.972	-51
419.048	1398
419.124	5417
419.200	3952
419.276	846
419.352	-75
419.428	1173
419.504	965
419.579	2938
419.655	1455
419.731	2131
419.807	8857
419.883	16328
419.959	11106
420.034	3578
420.110	6567
420.186	27771
420.262	21180
420.337	3832
420.413	2867
420.489	2000
420.565	1945
420.640	1654
420.716	2171
420.792	529
420.867	1632
420.943	1823
421.019	4937
421.094	3132
421.170	2484
421.245	926
421.321	2321
421.397	3101
421.472	12382
421.548	38174
421.623	23294
421.699	7046
421.774	5362
421.850	5294
421.925	8597
422.001	8232
422.076	7129
422.152	9529
422.227	15036
422.302	20544
422.378	29848
422.453	53537
422.529	124385
422.604	280787
422.679	364275
422.755	287821
422.830	135008
422.905	59524
422.981	32088
423.056	21226
423.131	15729
423.207	11154
423.282	9560
423.357	14039
423.432	10029
423.508	9185
423.583	16474
423.658	12637
423.733	5986
423.808	5285
423.883	5871
423.959	5796
424.034	4316
424.109	3348
424.184	2440
424.259	2236
424.334	2061
424.409	1311
424.484	1714
424.559	2836
424.634	1682
424.709	2635
424.784	2800
424.859	2269
424.934	4039
425.009	19051
425.084	31890
425.159	10846
425.234	1998
425.309	1457
425.384	7214
425.459	12336
425.534	3921
425.609	1299
425.683	462
425.758	742
425.833	719
425.908	2845
425.983	11070
426.058	32620
426.132	13821
426.207	2326
426.282	4270
426.357	2406
426.431	1555
426.506	1984
426.581	1379
426.655	1238
426.730	722
426.805	482
426.879	2230
426.954	1886
427.029	4335
427.103	30759
427.178	73859
427.253	30548
427.327	4405
427.402	5534
427.476	14417
427.551	6452
427.625	1829
427.700	1784
427.774	975
427.849	1483
427.923	1029
427.998	1348
428.072	1750
428.147	6993
428.221	31170
428.296	93712
428.370	49523
428.444	7616
428.519	6089
428.593	10465
428.667	8960
428.742	12056
428.816	14180
428.890	57256
428.965	93319
429.039	29094
429.113	12906
429.188	5538
429.262	2132
429.336	4980
429.410	15024
429.485	9459
429.559	9894
429.633	7316
429.707	2978
429.781	10799
429.855	60689
429.930	91113
430.004	42241
430.078	53307
430.152	55886
430.226	118975
430.300	117323
430.374	21350
430.448	7582
430.522	18779
430.596	51096
430.670	36501
430.744	95159
430.818	127466
430.892	26311
430.966	4307
431.040	2311
431.114	804
431.188	543
431.262	431
431.336	800
431.410	5170
431.484	14180
431.557	9214
431.631	1027
431.705	2923
431.779	17930
431.853	81617
431.927	56287
432.000	7195
432.074	1478
432.148	2005
432.222	1065
432.295	332
432.369	729
432.443	3211
432.516	28205
432.590	70759
432.664	24662
432.737	2680
432.811	375
432.885	341
432.958	287
433.032	156
433.106	20
433.179	227
433.253	464
433.326	152
433.400	-301
433.473	571
433.547	-525
433.620	908
433.694	2272
433.767	2961
433.841	499
433.914	219
433.988	-509
434.061	439
434.134	228
434.208	65
434.281	-596
434.355	-158
434.428	625
434.501	290
434.575	-876
434.648	230
434.721	-440
434.795	-485
434.868	-13
434.941	301
435.014	-59
435.088	966
435.161	1436
435.234	2412
435.307	4314
435.381	1635
435.454	928
435.527	3022
435.600	3071
435.673	2823
435.746	2148
435.819	1521
435.892	1084
435.966	327
436.039	-31
436.112	1123
436.185	-159
436.258	-16
436.331	-253
436.404	-706
436.477	-140
436.550	-134
436.623	33
436.696	-54
436.769	218
436.842	-294
436.915	351
436.987	1292
437.060	427
437.133	-695
437.206	-573
437.279	868
437.352	163
437.425	21
437.498	470
437.570	3904
437.643	3151
437.716	80
437.789	7
437.861	2058
437.934	8717
438.007	3328
438.080	901
438.152	596
438.225	4728
438.298	35111
438.370	92359
438.443	36912
438.516	8230
438.588	1369
438.661	364
438.734	329
438.806	1086
438.879	1084
438.951	1553
439.024	4047
439.096	701
439.169	-672
439.241	-347
439.314	-533
439.386	1752
439.459	2274
439.531	3518
439.604	850
439.676	422
439.749	-238
439.821	-81
439.893	433
439.966	396
440.038	117
440.110	1474
440.183	295
440.255	-71
440.327	2218
440.400	14794
440.472	60329
440.544	35521
440.617	4382
440.689	3128
440.761	3254
440.833	7033
440.905	3471
440.978	255
441.050	-162
441.122	-606
441.194	-321
441.266	813
441.338	439
441.411	2466
441.483	18370
441.555	27043
441.627	4683
441.699	2674
441.771	1816
441.843	-241
441.915	171
441.987	276
442.059	561
442.131	890
442.203	2179
442.275	3066
442.347	3796
442.419	7364
442.491	40946
442.563	97888
442.635	41038
442.706	16758
442.778	10991
442.850	2262
442.922	914
442.994	1562
443.066	2672
443.137	2235
443.209	2844
443.281	5021
443.353	12360
443.425	52821
443.496	177822
443.568	168657
443.640	60473
443.711	12312
443.783	3994
443.855	2210
443.926	1229
443.998	1182
444.070	1637
444.141	1647
444.213	3007
444.285	3891
444.356	2380
444.428	2285
444.499	657
444.571	542
444.642	761
444.714	1474
444.785	2407
444.857	3600
444.928	8772
445.000	4968
445.071	6122
445.143	7630
445.214	5847
445.285	11385
445.357	33092
445.428	116600
445.500	249918
445.571	156661
445.642	82160
445.714	28665
445.785	17794
445.856	5703
445.928	5412
445.999	3707
446.070	3087
446.141	3407
446.213	4359
446.284	1928
446.355	1924
446.426	1128
446.497	307
446.569	2514
446.640	3377
446.711	1851
446.782	-290
446.853	676
446.924	1749
446.995	668
447.066	452
447.138	2136
447.209	1285
447.280	-350
447.351	-630
447.422	-68
447.493	1188
447.564	1056
447.635	2349
447.706	466
447.777	-1207
447.847	-196
447.918	-554
447.989	750
448.060	1242
448.131	5315
448.202	4234
448.273	2577
448.344	1119
448.414	174
448.485	119
448.556	239
448.627	-775
448.698	-504
448.768	260
448.839	-239
448.910	2417
448.981	1964
449.051	127
449.122	-627
449.193	-198
449.263	-19
449.334	182
449.405	1012
449.475	4897
449.546	2186
449.616	3017
449.687	2112
449.758	327
449.828	604
449.899	-5
449.969	373
450.040	331
450.110	695
450.181	1036
450.251	-34
450.322	426
450.392	107
450.463	312
450.533	-111
450.604	851
450.674	-293
450.744	281
450.815	-289
450.885	390
450.955	-215
451.026	5
451.096	-663
451.166	374
451.237	3028
451.307	8388
451.377	2520
451.447	-450
451.518	105
451.588	-252
451.658	375
451.728	934
451.799	8796
451.869	8982
451.939	736
452.009	873
452.079	-70
452.149	195
452.219	1988
452.289	11619
452.360	5861
452.430	586
452.500	1047
452.570	1739
452.640	3678
452.710	9796
452.780	14768
452.850	9358
452.920	7639
452.990	1383
453.060	1012
453.129	2057
453.199	2420
453.269	12454
453.339	24097
453.409	35790
453.479	38485
453.549	54662
453.619	55681
453.688	18580
453.758	3044
453.828	1134
453.898	47
453.968	-261
454.037	799
454.087	608
454.107	518
454.168	116
454.177	41
454.247	551
454.249	551
454.316	151
454.330	329
454.386	978
454.411	2329
454.456	4392
454.492	5609
454.525	6670
454.574	3449
454.595	2046
454.655	454
454.665	218
454.734	813
454.736	891
454.804	2536
454.817	3765
454.873	8401
454.898	9065
454.943	9952
454.979	5701
455.013	1959
455.060	885
455.082	560
455.141	1057
455.152	1115
455.221	6961
455.222	7105
455.291	14582
455.303	15076
455.360	16008
455.384	23348
455.430	35258
455.465	25915
455.499	16963
455.546	11745
455.569	9394
455.627	5293
455.638	4579
455.707	135
455.708	151
455.777	568
455.789	588
455.846	494
455.869	366
455.916	158
455.950	342
455.985	433
456.031	575
456.054	630
456.112	209
456.124	133
456.193	210
456.193	194
456.262	618
456.274	682
456.332	775
456.355	853
456.401	955
456.436	836
456.470	673
456.516	551
456.540	484
456.597	124
456.609	37
456.678	331
456.678	318
456.747	-338
456.759	-316
456.817	198
456.840	77
456.886	-256
456.920	173
456.955	564
457.001	591
457.024	600
457.082	729
457.093	772
457.162	1981
457.163	1999
457.232	2096
457.243	1817
457.301	577
457.324	522
457.370	543
457.405	766
457.439	1087
457.485	1142
457.508	967
457.566	1154
457.577	1302
457.646	1861
457.647	1885
457.715	3538
457.727	4056
457.784	7601
457.808	9834
457.853	13062
457.889	15899
457.922	16150
457.969	11631
457.991	11157
458.050	11600
458.060	12005
458.129	22198
458.130	22481
458.198	26344
458.211	24800
458.267	14161
458.292	9830
458.336	6154
458.372	4908
458.405	5697
458.453	8285
458.474	10933
458.533	21175
458.543	22305
458.611	38981
458.614	39287
458.680	28474
458.694	23948
458.749	10935
458.775	7572
458.818	4731
458.855	3416
458.887	2693
458.936	2366
458.955	2323
459.016	1786
459.024	1767
459.093	2615
459.097	2614
459.162	1929
459.177	1975
459.230	2564
459.257	2793
459.299	2826
459.338	2834
459.368	2859
459.418	2604
459.437	2280
459.499	1987
459.505	2051
459.574	2113
459.579	2156
459.643	2335
459.659	2199
459.711	2023
459.740	2293
459.780	2570
459.820	2605
459.849	2673
459.900	3331
459.917	3430
459.981	3110
459.986	3086
460.054	3033
460.061	3076
460.123	3338
460.141	3324
460.191	4407
460.222	5266
460.260	5675
460.302	6275
460.328	6207
460.382	5758
460.397	5688
460.462	4491
460.465	4582
460.534	7887
460.543	8367
460.602	25876
460.623	32584
460.671	50912
460.703	70173
460.739	73415
460.783	68519
460.808	56741
460.864	12501
460.876	8899
460.944	3279
460.945	3231
461.013	3509
461.024	3403
461.081	2854
461.104	2921
461.150	3190
461.184	3368
461.218	3275
461.264	2908
461.286	2848
461.345	3020
461.355	2983
461.423	2613
461.425	2603
461.491	2293
461.505	2264
461.559	4202
461.585	5179
461.628	8482
461.665	11856
461.696	13660
461.745	17898
461.764	16200
461.825	5701
461.832	5338
461.901	3254
461.905	3219
461.969	2845
461.985	2673
462.037	2764
462.065	2997
462.105	3195
462.145	3343
462.173	4627
462.225	6794
462.241	7417
462.305	10877
462.310	10692
462.378	7264
462.385	6684
462.446	3729
462.465	3186
462.514	3358
462.545	3380
462.582	3065
462.625	2859
462.650	2778
462.705	2400
462.718	2485
462.785	3244
462.786	3277
462.854	4775
462.865	5051
462.922	6333
462.945	7075
462.990	5704
463.025	3879
463.058	3258
463.104	2716
463.126	2745
463.184	3105
463.194	3125
463.262	2804
463.264	2811
463.330	3519
463.344	3542
463.398	3502
463.424	3671
463.466	3688
463.504	3696
463.533	4013
463.583	4286
463.601	4291
463.663	4255
463.669	4297
463.737	4971
463.743	5032
463.805	7328
463.823	7999
463.873	12275
463.903	15023
463.940	16681
463.982	18688
464.008	15687
464.062	7986
464.076	7277
464.142	3977
464.144	3946
464.211	3349
464.221	3246
464.279	3900
464.301	4139
464.347	4293
464.381	4436
464.414	5034
464.461	5802
464.482	6193
464.540	7448
464.550	7176
464.617	4577
464.620	4495
464.685	5784
464.699	6036
464.753	7200
464.779	7759
464.820	8667
464.859	9628
464.888	9076
464.938	7857
464.956	7869
465.018	7985
465.023	7985
465.091	7453
465.098	7417
465.158	7168
465.177	7099
465.226	6846
465.257	6585
465.293	6885
465.336	7258
465.361	7668
465.416	8580
465.428	9152
465.495	12224
465.496	12275
465.563	16867
465.575	17711
465.631	21955
465.654	23834
465.698	16785
465.734	10288
465.765	9160
465.813	7674
465.833	7729
465.893	8113
465.900	8062
465.968	7398
465.972	7337
466.035	7945
466.052	8111
466.102	7991
466.131	7878
466.170	7989
466.210	8048
466.237	8485
466.290	9393
466.304	9390
466.369	9240
466.372	9309
466.439	10801
466.449	11006
466.506	10828
466.528	10710
466.573	13491
466.607	15544
466.641	20103
466.687	26427
466.708	29566
466.766	38226
466.775	36041
466.842	18942
466.845	18091
466.909	13444
466.925	12364
466.977	12099
467.004	11943
467.044	12204
467.083	12406
467.111	13116
467.163	14401
467.178	14764
467.242	16134
467.245	16089
467.312	14564
467.321	14335
467.379	14768
467.400	14885
467.446	14362
467.480	13934
467.559	13751
467.638	12523
467.717	12161
467.796	12783
467.875	13341
467.955	12404
468.034	15250
468.113	29401
468.192	42366
468.271	19389
468.350	13121
468.429	13366
468.508	14195
468.588	11881
468.667	10573
468.746	9598
468.825	10545
468.904	8445
468.983	10829
469.062	13443
469.141	16556
469.220	9265
469.299	9397
469.378	9398
469.456	11490
469.535	10943
469.614	9977
469.693	10378
469.772	12746
469.851	14101
469.930	13901
470.009	8402
470.088	9907
470.166	10093
470.245	13383
470.324	15845
470.403	14132
470.482	10918
470.560	10067
470.639	9409
470.718	11178
470.797	9503
470.875	10066
470.954	12381
471.033	14053
471.111	7905
471.190	8202
471.269	6447
471.347	7636
471.426	7537
471.505	8974
471.583	10331
471.662	10274
471.740	8187
471.819	8337
471.898	7383
471.976	8212
472.055	7343
472.133	9452
472.212	12138
472.290	11921
472.369	8590
472.447	7565
472.526	6635
472.604	9038
472.683	7510
472.761	9121
472.839	7718
472.918	7512
472.996	7171
473.075	8232
473.153	8096
473.231	7084
473.310	9000
473.388	9402
473.466	7788
473.545	9473
473.623	12008
473.701	12232
473.780	7785
473.858	7610
473.936	9373
474.014	8207
474.093	8785
474.171	11980
474.249	15539
474.327	13565
474.405	7510
474.484	7303
474.562	7351
474.640	8461
474.718	7993
474.796	9655
474.874	8679
474.952	8164
475.030	8069
475.108	8339
475.187	9849
475.265	11494
475.343	12439
475.421	15493
475.499	9695
475.577	8499
475.655	9692
475.733	15477
475.811	25072
475.889	26492
475.966	21629
476.044	8767
476.122	8843
476.200	10517
476.278	10299
476.356	6978
476.434	7617
476.512	8651
476.590	10905
476.667	11366
476.745	6029
476.823	7365
476.901	6726
476.979	7516
477.056	6861
477.134	6967
477.212	7638
477.290	7385
477.367	6352
477.445	6103
477.523	5658
477.601	6589
477.678	6787
477.756	8248
477.834	8102
477.911	6781
477.989	6689
478.066	6738
478.144	7241
478.222	9037
478.299	11844
478.377	14344
478.454	8481
478.532	6933
478.609	6329
478.687	7928
478.764	5491
478.842	7058
478.919	6807
478.997	7115
479.074	5792
479.152	7224
479.229	7026
479.307	7462
479.384	4997
479.461	5947
479.539	5656
479.616	7589
479.694	6538
479.771	7391
479.848	6823
479.926	8349
480.003	11167
480.080	7118
480.157	5085
480.235	6026
480.312	6232
480.389	6632
480.467	9205
480.544	12026
480.621	8700
480.698	6317
480.775	7071
480.853	7592
480.930	5636
481.007	7553
481.084	8602
481.161	12784
481.238	12519
481.315	6521
481.392	5972
481.470	5882
481.547	6695
481.624	5628
481.701	5397
481.778	6084
481.855	6653
481.932	9768
482.009	14915
482.086	14216
482.163	6620
482.240	9205
482.317	14971
482.393	15201
482.470	7292
482.547	7119
482.624	6262
482.701	6955
482.778	6081
482.855	5511
482.932	4877
483.009	5922
483.085	7129
483.162	11078
483.239	11355
483.316	7471
483.393	6300
483.469	6844
483.546	6794
483.623	7440
483.699	5710
483.776	6622
483.853	6883
483.930	9855
484.006	21504
484.083	38434
484.160	28474
484.236	35255
484.313	31118
484.389	22800
484.466	19681
484.543	18838
484.619	19161
484.696	20118
484.772	20161
484.849	20898
484.925	17008
485.002	17525
485.078	17839
485.155	18460
485.231	16110
485.308	16733
485.384	15899
485.461	18355
485.537	26130
485.614	34940
485.690	18445
485.766	16054
485.843	15558
485.919	21072
485.995	23281
486.072	16173
486.148	14783
486.224	13599
486.301	15150
486.377	17210
486.453	16504
486.530	17248
486.606	20977
486.682	25593
486.758	27308
486.835	30537
486.911	25490
486.987	34411
487.063	43828
487.139	50696
487.215	42864
487.292	27420
487.368	18461
487.444	19471
487.520	23847
487.596	30792
487.672	39278
487.748	84858
487.824	151244
487.900	96461
487.976	34082
488.052	24118
488.128	24350
488.204	20703
488.280	17776
488.356	18244
488.432	28503
488.508	48303
488.584	25738
488.660	15656
488.736	14420
488.812	15253
488.888	19388
488.964	23255
489.039	39818
489.115	71878
489.191	57192
489.267	19478
489.343	14742
489.418	13086
489.494	12229
489.570	12238
489.646	14153
489.722	12605
489.797	13814
489.873	16422
489.949	32431
490.024	37573
490.100	13481
490.176	12692
490.251	14793
490.327	18712
490.403	13966
490.478	12310
490.554	10615
490.629	11712
490.705	11424
490.781	12175
490.856	10648
490.932	14257
491.007	12571
491.083	13173
491.158	11102
491.234	13917
491.309	25266
491.385	32201
491.460	14133
491.536	12990
491.611	11605
491.686	13222
491.762	16524
491.837	26516
491.913	49327
491.988	64728
492.063	93385
492.139	38204
492.214	18288
492.289	10635
492.365	9093
492.440	12021
492.515	11015
492.590	11212
492.666	8697
492.741	12208
492.816	16876
492.891	13083
492.967	10484
493.042	10046
493.117	10407
493.192	12207
493.267	17243
493.342	58186
493.418	104581
493.493	29742
493.568	8898
493.643	9307
493.718	10892
493.793	14234
493.868	17405
493.943	13609
494.018	9616
494.093	8902
494.168	8481
494.243	8078
494.318	8039
494.393	8408
494.468	7533
494.543	7633
494.618	8509
494.693	9905
494.768	8107
494.842	9700
494.917	8054
494.992	8216
495.067	8527
495.142	8286
495.217	8297
495.292	9071
495.366	9563
495.441	12461
495.516	14229
495.591	18544
495.665	49581
495.740	137346
495.815	103619
495.890	18357
495.964	11032
496.039	13694
496.114	12444
496.188	17381
496.263	18236
496.338	12855
496.412	12605
496.487	14954
496.561	16340
496.636	16466
496.710	14674
496.785	15959
496.860	17616
496.934	15663
497.009	14410
497.083	16607
497.158	17381
497.232	19660
497.307	21367
497.381	21534
497.455	22152
497.530	28607
497.604	24385
497.679	25446
497.753	32222
497.827	42412
497.902	43869
497.976	46750
498.050	67291
498.125	205277
498.199	309578
498.273	80596
498.348	52225
498.422	47442
498.496	43133
498.570	41164
498.645	32936
498.719	31186
498.793	30867
498.867	35933
498.941	42541
499.016	79646
499.090	233577
499.164	160027
499.238	23470
499.312	18731
499.386	19418
499.460	19652
499.534	16278
499.609	18489
499.683	23122
499.757	23885
499.831	33985
499.905	134480
499.979	200633
500.053	37731
500.127	28014
500.201	22748
500.275	15807
500.349	13072
500.422	13820
500.496	18046
500.570	34370
500.644	81776
500.718	170187
500.792	75023
500.866	13575
500.940	14993
501.013	13778
501.087	12813
501.161	19798
501.235	27344
501.309	42035
501.382	124900
501.456	166755
501.530	36961
501.603	45307
501.677	31219
501.751	9921
501.825	12476
501.898	16947
501.972	50355
502.046	53897
502.119	12834
502.193	21451
502.266	56833
502.340	46582
502.413	23458
502.487	52666
502.561	39197
502.634	16052
502.708	9923
502.781	9108
502.855	9467
502.928	6667
503.002	6789
503.075	6614
503.149	7843
503.222	7874
503.295	7979
503.369	9687
503.442	12868
503.516	32533
503.589	98597
503.662	93922
503.736	29002
503.809	44099
503.882	53875
503.956	53591
504.029	78144
504.102	55210
504.175	82470
504.249	51193
504.322	22676
504.395	16484
504.468	11572
504.542	8857
504.615	8054
504.688	7178
504.761	6497
504.834	9054
504.907	9390
504.980	15413
505.053	10675
505.127	8715
505.200	14961
505.273	11247
505.346	8228
505.419	5245
505.492	6152
505.565	4772
505.638	5618
505.711	4434
505.784	4678
505.857	4378
505.930	6535
506.003	4089
506.076	7376
506.149	6532
506.221	10171
506.294	9503
506.367	17171
506.440	67105
506.513	66019
506.586	12275
506.659	8030
506.731	5896
506.804	7365
506.877	10031
506.950	9644
507.022	5869
507.095	6000
507.168	9683
507.241	7064
507.313	4937
507.386	5827
507.459	7981
507.531	7384
507.604	4208
507.677	5621
507.749	3318
507.822	6283
507.894	12868
507.967	19438
508.040	11687
508.112	9921
508.185	7973
508.257	8060
508.330	12394
508.402	10179
508.475	8186
508.547	8475
508.620	7801
508.692	12148
508.765	9920
508.837	6576
508.909	6234
508.982	7643
509.054	7548
509.127	7720
509.199	6184
509.271	6601
509.344	5557
509.416	6932
509.488	5962
509.560	6729
509.633	6585
509.705	7834
509.777	8398
509.849	11084
509.922	10620
509.994	8329
510.066	8009
510.138	7864
510.210	14949
510.283	16063
510.355	12728
510.427	11266
510.499	9565
510.571	9744
510.643	9627
510.715	13037
510.787	14618
510.859	10542
510.931	10482
511.003	14205
511.076	15018
511.148	9271
511.219	8490
511.291	12637
511.363	17178
511.435	11112
511.507	8493
511.579	9032
511.651	8736
511.723	7935
511.795	7733
511.867	7781
511.939	8795
512.010	14220
512.082	16855
512.154	8447
512.226	8160
512.298	10613
512.369	18361
512.441	14686
512.513	13396
512.585	11456
512.656	10857
512.728	11594
512.800	10208
512.871	9812
512.943	9004
513.015	8747
513.086	10091
513.158	10931
513.230	9677
513.301	13371
513.373	17232
513.444	10584
513.516	8959
513.588	9108
513.659	9959
513.731	11701
513.802	9459
513.874	16545
513.945	33321
514.016	19777
514.088	9524
514.159	9620
514.231	12090
514.302	17997
514.374	13329
514.445	11974
514.516	19471
514.588	19966
514.659	11216
514.730	17868
514.802	19919
514.873	15963
514.944	21208
515.016	18032
515.087	16499
515.158	15837
515.229	24342
515.301	19299
515.372	26892
515.443	24813
515.514	18205
515.585	14153
515.656	12952
515.728	11026
515.799	9788
515.870	10318
515.941	9704
516.012	9597
516.083	12733
516.154	15204
516.225	16637
516.296	17482
516.367	15778
516.438	17196
516.509	20765
516.580	26622
516.651	64347
516.722	256736
516.793	234235
516.864	38897
516.935	30462
517.006	30828
517.077	38823
517.148	74958
517.219	242782
517.289	600808
517.360	223626
517.431	73195
517.502	19355
517.573	15334
517.643	14362
517.714	16747
517.785	16889
517.856	17398
517.926	22131
517.997	24342
518.068	30838
518.138	41107
518.209	54692
518.280	157252
518.350	678334
518.421	554303
518.492	74555
518.562	32772
518.633	28581
518.703	29597
518.774	44617
518.845	92946
518.915	119691
518.986	54972
519.056	29812
519.127	33017
519.197	43814
519.268	87833
519.338	88306
519.408	20571
519.479	21811
519.549	19484
519.620	13029
519.690	9719
519.760	9487
519.831	10035
519.901	10334
519.971	8826
520.042	8030
520.112	9775
520.182	12065
520.253	14355
520.323	10352
520.393	12322
520.463	23701
520.534	14562
520.604	29913
520.674	20465
520.744	13121
520.814	28566
520.885	37314
520.955	24688
521.025	91963
521.095	72923
521.165	12545
521.235	9353
521.305	8254
521.375	8445
521.445	9300
521.515	11584
521.585	13588
521.655	14670
521.725	11124
521.795	10748
521.865	6704
521.935	11786
522.005	10669
522.075	7623
522.145	8062
522.215	9353
522.285	13316
522.355	15460
522.424	26246
522.494	29916
522.564	18196
522.634	20590
522.704	71664
522.774	54681
522.843	10762
522.913	9453
522.983	12134
523.053	10221
523.122	9086
523.192	11045
523.262	30447
523.331	55105
523.401	15059
523.471	7731
523.540	8446
523.610	6514
523.680	6835
523.749	7667
523.819	8484
523.888	11211
523.958	6900
524.027	7133
524.097	7161
524.166	7083
524.236	6559
524.305	9284
524.375	6501
524.444	6658
524.514	7944
524.583	6816
524.653	7944
524.722	11304
524.791	8971
524.861	8352
524.930	7457
524.999	6423
525.069	10844
525.138	9346
525.207	9587
525.277	9534
525.346	7635
525.415	9257
525.484	8282
525.554	9990
525.623	10337
525.692	12722
525.761	13709
525.830	14934
525.900	16585
525.969	22990
526.038	37941
526.107	65634
526.176	208959
526.245	262505
526.314	92000
526.383	100757
526.452	189658
526.522	221251
526.591	365431
526.660	106732
526.729	48837
526.797	40077
526.867	59730
526.935	220047
527.004	523509
527.073	511308
527.142	77453
527.211	24097
527.280	15412
527.349	15760
527.418	8956
527.487	9370
527.555	6892
527.624	6564
527.693	6144
527.762	7035
527.831	5241
527.899	6347
527.968	6368
528.037	5616
528.106	7913
528.174	13641
528.243	13257
528.312	14167
528.380	23555
528.449	11243
528.518	7593
528.586	4423
528.655	6441
528.723	5617
528.792	4617
528.861	5592
528.929	4928
528.998	6875
529.066	6095
529.135	9045
529.203	9211
529.272	10070
529.340	14412
529.409	13944
529.477	10396
529.545	11744
529.614	15599
529.682	14492
529.751	18816
529.819	20761
529.887	20307
529.956	17451
530.024	16885
530.092	14907
530.161	15079
530.229	19221
530.297	17655
530.365	16646
530.434	16352
530.502	16889
530.570	14696
530.638	12826
530.707	13421
530.775	14822
530.843	12608
530.911	14706
530.979	13797
531.047	15033
531.115	16102
531.183	13867
531.252	14495
531.320	14163
531.388	12426
531.456	14292
531.524	14665
531.592	15871
531.660	19599
531.728	16465
531.796	15977
531.864	15164
531.932	15048
532.000	15997
532.067	17223
532.135	19099
532.203	19967
532.271	21429
532.339	25523
532.407	44288
532.475	43542
532.542	24098
532.610	22875
532.678	24015
532.746	52281
532.814	170646
532.881	86912
532.949	25098
533.017	20019
533.084	18224
533.152	16510
533.220	16841
533.287	18043
533.355	18568
533.423	16992
533.490	17493
533.558	18184
533.625	17648
533.693	17391
533.761	17457
533.828	18161
533.896	15908
533.963	23292
534.031	31672
534.098	35300
534.166	28532
534.233	18866
534.300	20010
534.368	18858
534.435	18154
534.503	17738
534.570	19449
534.637	20579
534.705	21387
534.772	22732
534.840	28005
534.907	85170
534.974	196049
535.041	48519
535.109	18747
535.176	14753
535.243	15832
535.310	14850
535.378	14490
535.445	13164
535.512	12564
535.579	12563
535.646	12419
535.714	12181
535.781	14361
535.848	13921
535.915	15749
535.982	16019
536.049	15898
536.116	15832
536.183	14634
536.250	13114
536.317	12873
536.384	13584
536.451	17906
536.518	18311
536.585	14774
536.652	17023
536.719	21044
536.786	19126
536.853	15122
536.920	18625
536.987	25707
537.053	24092
537.120	63978
537.187	103446
537.254	19209
537.321	11473
537.388	13441
537.454	9855
537.521	10978
537.588	10038
537.654	11814
537.721	13561
537.788	13650
537.855	10113
537.921	11999
537.988	9607
538.055	12207
538.121	9866
538.188	11106
538.254	13285
538.321	24758
538.388	20316
538.454	11646
538.521	10671
538.587	10448
538.654	9762
538.720	9924
538.787	9446
538.853	10216
538.920	11315
538.986	12742
539.053	10680
539.119	10710
539.185	10284
539.252	11867
539.318	15564
539.385	16993
539.451	12532
539.517	15497
539.583	13978
539.650	20058
539.716	64609
539.782	36073
539.849	11411
539.915	11826
539.981	11046
540.047	13025
540.114	12341
540.180	12940
540.246	11491
540.312	14063
540.378	21692
540.444	28053
540.510	23335
540.576	67472
540.643	43341
540.709	11536
540.775	10365
540.841	10742
540.907	11402
540.973	19206
541.039	18082
541.105	18681
541.171	12467
541.237	10192
541.303	10956
541.369	12392
541.435	13928
541.500	21389
541.566	17262
541.632	11211
541.698	9069
541.764	9733
541.830	8897
541.896	8693
541.961	10753
542.027	10487
542.093	9989
542.159	11522
542.224	10126
542.290	15752
542.356	20315
542.421	26878
542.487	16699
542.553	12548
542.618	12412
542.684	10977
542.750	10628
542.815	11916
542.881	15937
542.947	49836
543.012	69767
543.078	13496
543.143	9265
543.209	10870
543.274	9497
543.340	12681
543.405	18867
543.471	45345
543.536	17451
543.602	10638
543.667	8998
543.732	10534
543.798	8768
543.863	10339
543.928	9172
543.994	8724
544.059	9897
544.124	9097
544.190	9377
544.255	11235
544.320	10625
544.386	10951
544.451	14160
544.516	15760
544.581	13924
544.646	29356
544.712	73008
544.777	25589
544.842	12290
544.907	12647
544.972	11779
545.037	11776
545.102	12738
545.168	12512
545.233	12101
545.298	13248
545.363	14341
545.428	15937
545.493	21109
545.558	48950
545.623	35344
545.688	14505
545.753	12609
545.818	11657
545.883	12556
545.947	13068
546.012	13404
546.077	14099
546.142	14095
546.207	13914
546.272	15599
546.337	17332
546.401	15333
546.466	15467
546.531	14510
546.596	16032
546.661	15706
546.725	16761
546.790	14414
546.855	16033
546.919	16132
546.984	18718
547.049	19356
547.113	21689
547.178	23064
547.243	24716
547.307	27866
547.372	30638
547.436	33618
547.501	30520
547.565	32734
547.630	34149
547.695	32869
547.759	33952
547.823	33092
547.888	30011
547.952	31317
548.017	32696
548.081	37852
548.146	41886
548.210	37923
548.274	34438
548.339	33932
548.403	32695
548.468	30326
548.532	29250
548.596	31269
548.660	30751
548.725	32424
548.789	36403
548.853	39381
548.917	33861
548.982	35199
549.046	37750
549.110	27752
549.174	27713
549.238	29296
549.303	34041
549.367	34898
549.431	33663
549.495	32410
549.559	31142
549.623	34650
549.687	39031
549.751	43473
549.815	46921
549.879	47081
549.943	42893
550.007	44711
550.071	46234
550.135	45273
550.199	43121
550.263	40003
550.327	39344
550.391	42701
550.455	47244
550.519	44520
550.582	46743
550.646	53601
550.710	60540
550.774	53568
550.838	53416
550.901	53988
550.965	59443
551.029	60522
551.093	67712
551.156	74854
551.220	94672
551.284	114405
551.347	81847
551.411	78965
551.475	94414
551.538	62403
551.602	54705
551.666	49762
551.729	46040
551.793	46385
551.856	45354
551.920	45317
551.983	44663
552.047	44102
552.110	43811
552.174	44744
552.237	47968
552.301	43887
552.364	41104
552.428	39611
552.491	39593
552.554	43240
552.618	43049
552.681	43918
552.745	43822
552.808	49146
552.871	61886
552.934	56647
552.998	46701
553.061	44229
553.124	43300
553.187	42653
553.251	44363
553.314	45924
553.377	46191
553.440	52593
553.503	88117
553.567	186422
553.630	80605
553.693	47213
553.756	44735
553.819	41914
553.882	41091
553.945	41161
554.008	41509
554.071	40066
554.134	42329
554.197	38756
554.260	38549
554.323	40290
554.386	39770
554.449	41096
554.512	43310
554.575	39211
554.638	39483
554.701	38755
554.764	39123
554.827	37177
554.889	35510
554.952	34868
555.015	33069
555.078	33665
555.141	35578
555.203	34224
555.266	34421
555.329	33521
555.391	32342
555.454	33686
555.517	32631
555.580	32028
555.642	29212
555.705	29244
555.768	29445
555.830	30034
555.893	26817
555.955	26676
556.018	26450
556.080	26190
556.143	28087
556.206	26929
556.268	27340
556.330	28038
556.393	28393
556.455	26010
556.518	30091
556.580	32336
556.643	24617
556.705	23758
556.767	23017
556.830	24276
556.892	24617
556.955	28557
557.017	28949
557.079	23234
557.142	22666
557.204	22753
557.266	32090
557.328	36720
557.391	22335
557.453	20206
557.515	21116
557.577	21722
557.639	25791
557.701	22176
557.764	21283
557.826	22171
557.888	24222
557.950	24450
558.012	26342
558.074	32724
558.136	60150
558.198	191582
558.260	128202
558.322	33993
558.384	31294
558.446	33706
558.508	39220
558.570	46707
558.632	59257
558.694	87963
558.756	101123
558.818	234195
558.880	795517
558.942	478464
559.003	219384
559.065	172783
559.127	54010
559.189	46233
559.251	48219
559.312	60344
559.374	121490
559.436	470065
559.498	454953
559.559	79231
559.621	47297
559.683	47594
559.744	66979
559.806	180963
559.868	461574
559.929	155554
559.991	49978
560.052	58166
560.114	163339
560.176	181753
560.237	88109
560.299	204878
560.360	83924
560.422	23327
560.483	18697
560.545	16686
560.606	14929
560.667	14623
560.729	13870
560.790	13085
560.852	13300
560.913	13540
560.974	13737
561.036	12596
561.097	13835
561.158	12857
561.220	14413
561.281	13436
561.342	14264
561.403	15039
561.465	17146
561.526	28294
561.587	52412
561.648	22858
561.709	14584
561.771	13047
561.832	13186
561.893	12727
561.954	13267
562.015	12169
562.076	13073
562.137	12505
562.198	12616
562.259	13009
562.320	13073
562.381	13141
562.442	16000
562.503	17419
562.564	12652
562.625	11994
562.686	12918
562.747	12715
562.808	13555
562.869	11847
562.930	13816
562.991	13729
563.051	14223
563.112	12234
563.173	13109
563.234	11674
563.294	12707
563.355	11646
563.416	13039
563.477	11375
563.537	12668
563.598	12667
563.659	13027
563.720	12110
563.780	13148
563.841	13625
563.901	14368
563.962	12443
564.023	12902
564.083	12324
564.144	12966
564.204	13000
564.265	13362
564.325	13637
564.386	19643
564.446	23435
564.507	13399
564.567	12814
564.628	13630
564.688	12422
564.749	14000
564.809	13545
564.869	15919
564.930	14229
564.990	13841
565.050	12429
565.111	13596
565.171	13427
565.231	14203
565.292	14460
565.352	13590
565.412	13737
565.472	14544
565.532	14009
565.593	14331
565.653	13784
565.713	15768
565.773	16004
565.833	16339
565.893	21076
565.953	17576
566.013	16360
566.074	17185
566.134	18368
566.194	23554
566.254	27764
566.314	22799
566.374	18887
566.434	19804
566.494	20151
566.554	21177
566.614	22221
566.673	23706
566.733	24351
566.793	25925
566.853	26002
566.913	27323
566.973	27391
567.033	29030
567.092	28348
567.152	28130
567.212	28803
567.272	28849
567.331	29910
567.391	31510
567.451	32289
567.511	35143
567.570	36692
567.630	30994
567.690	28550
567.749	30075
567.809	30897
567.868	34185
567.928	37984
567.988	44260
568.047	52323
568.107	61237
568.166	76631
568.226	107267
568.285	149833
568.345	158219
568.404	144728
568.464	131928
568.523	121730
568.582	118648
568.642	124549
568.701	140396
568.761	172771
568.820	237030
568.879	274007
568.939	249784
568.998	210572
569.057	174996
569.116	143422
569.176	118180
569.235	100878
569.294	85702
569.353	73469
569.413	64910
569.472	57790
569.531	50567
569.590	43967
569.649	41011
569.708	37600
569.767	35978
569.827	34088
569.886	31545
569.945	26828
570.004	26795
570.063	24916
570.122	23808
570.181	22918
570.240	23440
570.299	22947
570.358	24038
570.417	20945
570.475	19685
570.534	18925
570.593	19207
570.652	18534
570.711	19193
570.770	16177
570.829	18089
570.887	16594
570.946	17762
571.005	15884
571.064	15874
571.122	15822
571.181	16860
571.240	15833
571.299	13838
571.357	14930
571.416	14953
571.475	13700
571.533	16283
571.592	13698
571.650	14427
571.709	12362
571.768	13133
571.826	13622
571.885	12597
571.943	12768
572.002	11931
572.060	12155
572.119	12488
572.177	11958
572.236	12208
572.294	11298
572.352	12059
572.411	11717
572.469	11167
572.528	11238
572.586	12401
572.644	11979
572.703	15455
572.761	11967
572.819	11296
572.877	10024
572.936	10656
572.994	10040
573.052	10558
573.110	10504
573.169	11640
573.227	10546
573.285	11216
573.343	9829
573.401	10563
573.459	11078
573.517	11324
573.576	9963
573.634	11364
573.692	11614
573.750	10968
573.808	10148
573.866	11033
573.924	11629
573.982	12936
574.040	9975
574.098	10602
574.155	10050
574.213	10866
574.271	9725
574.329	11483
574.387	9565
574.445	8831
574.503	8799
574.560	9327
574.618	9404
574.676	9992
574.734	9535
574.792	9408
574.849	9255
574.907	9559
574.965	9183
575.022	8346
575.080	8923
575.138	9940
575.195	9106
575.253	9869
575.311	9617
575.368	10214
575.426	7963
575.483	10142
575.541	8792
575.598	9500
575.656	9436
575.713	9161
575.771	9145
575.828	9055
575.886	9074
575.943	9628
576.001	8955
576.058	9573
576.115	9458
576.173	10467
576.230	11312
576.287	12292
576.345	12303
576.402	9072
576.459	10067
576.517	10361
576.574	10044
576.631	9967
576.688	9845
576.746	9088
576.803	9087
576.860	10262
576.917	9145
576.974	9746
577.031	9790
577.089	10570
577.146	9546
577.203	10104
577.260	10257
577.317	10416
577.374	10749
577.431	10525
577.488	9998
577.545	9373
577.602	9845
577.659	9941
577.716	10870
577.773	11871
577.830	10513
577.886	10663
577.943	9825
578.000	11199
578.057	10555
578.114	11906
578.171	12270
578.227	15314
578.284	15943
578.341	14824
578.398	12867
578.454	13843
578.511	12762
578.568	12689
578.625	11598
578.681	11837
578.738	10209
578.794	10701
578.851	10643
578.908	10132
578.964	10088
579.021	11365
579.077	10961
579.134	10840
579.190	10797
579.247	10497
579.303	10141
579.360	11080
579.416	10578
579.473	10548
579.529	10298
579.586	10959
579.642	10818
579.698	11233
579.755	11165
579.811	11779
579.867	10932
579.924	12204
579.980	12345
580.036	13834
580.093	15343
580.149	19374
580.205	24948
580.261	21855
580.317	19450
580.374	17067
580.430	16567
580.486	16255
580.542	14768
580.598	13210
580.619	13333
580.654	13565
580.692	13428
580.710	13389
580.765	12354
580.767	12336
580.823	12768
580.838	12812
580.879	12975
580.911	12892
580.935	12881
580.984	13032
580.991	13063
581.047	13026
581.057	13099
581.103	13506
581.130	13658
581.159	13851
581.203	15063
581.215	15399
581.270	15215
581.276	15097
581.326	14123
581.349	14076
581.382	14041
581.422	13862
581.438	13791
581.494	14012
581.494	13992
581.550	13357
581.567	13744
581.606	14464
581.640	13364
581.661	12784
581.713	14114
581.717	14219
581.773	13201
581.786	13275
581.829	13607
581.859	13590
581.885	13635
581.932	13762
581.940	13792
581.996	14187
582.004	14243
582.052	14476
582.077	14095
582.107	13732
582.150	14351
582.163	14527
582.219	13991
582.223	14011
582.274	14576
582.296	14611
582.330	14478
582.368	14586
582.386	14749
582.441	14533
582.441	14539
582.497	15019
582.514	14972
582.552	14922
582.587	16003
582.608	16644
582.659	15953
582.663	15904
582.719	16118
582.732	15894
582.774	15106
582.805	15546
582.830	16029
582.877	15917
582.885	15879
582.941	16521
582.950	16690
582.996	17744
583.023	18659
583.052	19603
583.095	19409
583.107	19423
583.162	21611
583.168	21736
583.218	22514
583.240	22376
583.273	22120
583.313	20531
583.328	19941
583.384	18727
583.385	18715
583.439	18348
583.458	17993
583.494	17366
583.531	17277
583.549	17245
583.603	17126
583.605	17114
583.660	16404
583.676	16320
583.715	16414
583.748	17140
583.770	17475
583.820	17322
583.825	17317
583.881	16421
583.893	16692
583.936	17574
583.965	17343
583.991	17147
584.038	17721
584.046	17791
584.101	16520
584.110	16632
584.156	17311
584.183	17557
584.211	17768
584.255	17914
584.266	17982
584.321	18259
584.328	18281
584.376	18180
584.400	18154
584.431	18239
584.472	18450
584.486	18501
584.541	18722
584.545	18767
584.596	19235
584.617	19278
584.651	19293
584.689	19902
584.706	20264
584.761	20508
584.762	20524
584.816	20800
584.834	20789
584.871	20787
584.906	21032
584.926	21151
584.978	21350
584.980	21347
585.035	22059
585.051	22214
585.090	22546
585.123	23294
585.145	23877
585.195	24771
585.200	24857
585.254	26435
585.267	27077
585.309	29147
585.340	31242
585.364	32665
585.412	32905
585.419	32908
585.473	35199
585.484	35732
585.528	38671
585.556	43036
585.583	49521
585.628	67837
585.637	74067
585.692	133580
585.700	149574
585.747	232748
585.772	221800
585.801	178357
585.845	85968
585.856	68333
585.910	41806
585.917	40009
585.965	34596
585.989	33231
586.019	32224
586.061	30846
586.074	30456
586.128	31511
586.133	31514
586.183	31262
586.205	31605
586.237	31657
586.277	31354
586.292	31476
586.346	31569
586.349	31683
586.401	32015
586.421	31911
586.455	32101
586.493	32698
586.509	33272
586.564	36022
586.565	36183
586.618	42358
586.637	43761
586.672	43902
586.709	40616
586.727	39059
586.781	39841
586.781	39796
586.835	39092
586.853	39322
586.889	39541
586.925	39434
586.944	39476
586.996	41179
586.998	41171
587.052	42236
587.068	42796
587.106	44004
587.140	45153
587.161	45750
587.212	47366
587.215	47352
587.269	49334
587.284	49757
587.323	51467
587.356	53179
587.377	53806
587.427	56551
587.431	56710
587.485	59336
587.499	60348
587.539	62832
587.571	64970
587.593	66467
587.643	70801
587.648	71031
587.702	74551
587.715	75726
587.755	79692
587.786	83202
587.810	85499
587.858	90978
587.864	91581
587.917	99857
587.930	102152
587.971	109024
588.001	114247
588.025	118194
588.073	128282
588.079	129537
588.133	143337
588.145	147220
588.187	160422
588.217	170806
588.241	179482
588.288	197106
588.295	199444
588.348	226279
588.360	232870
588.402	258184
588.431	277611
588.456	295688
588.503	334938
588.510	340897
588.564	399216
588.575	412721
588.617	472482
588.646	518454
588.671	568603
588.718	667767
588.725	686723
588.778	837748
588.789	866074
588.832	986904
588.861	1049122
588.886	1042008
588.932	987762
588.939	967076
588.993	810204
589.004	798697
589.047	953698
589.075	1065487
589.100	1062882
589.147	1008973
589.154	992680
589.207	833224
589.218	799678
589.261	732181
589.290	693202
589.314	692615
589.361	706805
589.368	717153
589.421	817158
589.433	838497
589.475	945889
589.504	1000881
589.528	976098
589.576	895512
589.582	891589
589.635	929143
589.647	941591
589.689	901444
589.718	840571
589.742	755688
589.790	565406
589.795	550878
589.849	424722
589.861	397836
589.902	340741
589.932	302428
589.955	277883
590.004	232087
590.009	228065
590.062	195877
590.075	189059
590.115	170037
590.146	157300
590.168	149388
590.218	134343
590.222	132755
590.275	119204
590.289	116226
590.328	109017
590.360	103918
590.381	99904
590.431	92484
590.435	91735
590.488	83983
590.503	82307
590.541	78166
590.574	75147
590.594	72954
590.645	68512
590.647	68132
590.700	64202
590.716	63279
590.753	61087
590.787	59450
590.806	57643
590.859	53814
590.859	53600
590.912	51656
590.930	51271
590.965	49852
591.001	48704
591.018	47886
591.071	45963
591.072	46084
591.124	43641
591.143	43021
591.177	41738
591.214	40494
591.230	40144
591.283	39869
591.285	39967
591.336	38393
591.356	38005
591.389	37131
591.427	36220
591.442	35807
591.495	34854
591.498	34884
591.547	33196
591.569	32634
591.600	32235
591.640	31805
591.653	31542
591.706	30973
591.711	31001
591.759	30724
591.782	30748
591.811	30789
591.853	31015
591.864	30725
591.917	29712
591.924	29624
591.969	29019
591.995	28883
592.022	28246
592.066	27341
592.075	27348
592.127	27923
592.137	28104
592.180	28902
592.208	29557
592.233	28228
592.279	25807
592.285	25737
592.338	25857
592.350	25972
592.390	24889
592.421	24176
592.443	24401
592.491	25140
592.495	25003
592.548	24046
592.562	23851
592.600	22926
592.633	22265
592.653	22294
592.704	22439
592.705	22561
592.775	22331
592.846	22323
592.916	22526
592.987	23126
593.058	23129
593.128	21110
593.199	21329
593.270	21138
593.341	21006
593.411	19950
593.482	20850
593.553	21449
593.623	21224
593.694	20805
593.764	21706
593.835	19582
593.906	19414
593.976	20726
594.047	20701
594.117	22274
594.188	22338
594.258	20311
594.329	21192
594.399	20733
594.470	20654
594.540	20471
594.611	20769
594.681	20074
594.751	20554
594.822	21215
594.892	21031
594.963	21731
595.033	21549
595.103	21343
595.174	21995
595.244	24943
595.314	29364
595.384	23898
595.455	22926
595.525	22780
595.595	23156
595.665	23608
595.736	24071
595.806	23258
595.876	23653
595.946	22429
596.016	23768
596.087	23479
596.157	23661
596.227	23292
596.297	25096
596.367	25470
596.437	27210
596.507	28891
596.577	31849
596.647	27842
596.717	27635
596.787	28198
596.857	28142
596.927	27999
596.997	28134
597.067	28832
597.137	31533
597.207	30502
597.277	29374
597.347	28890
597.417	28534
597.487	28372
597.557	29469
597.626	28986
597.696	30747
597.766	30680
597.836	32088
597.906	29365
597.975	27727
598.045	27271
598.115	28504
598.185	27390
598.254	32251
598.324	34453
598.394	35405
598.464	34108
598.533	33259
598.603	32714
598.672	32255
598.742	31524
598.812	32719
598.881	31707
598.951	32525
599.020	32836
599.090	33482
599.159	34040
599.229	33204
599.299	32735
599.368	33413
599.437	33894
599.507	32230
599.576	31935
599.646	32626
599.715	32485
599.785	31737
599.854	31145
599.924	31846
599.993	31359
600.062	31797
600.132	30873
600.201	33452
600.270	36629
600.340	38686
600.409	37210
600.478	37004
600.547	38591
600.617	37748
600.686	32995
600.755	31427
600.824	30331
600.894	30886
600.963	31056
601.032	31032
601.101	31714
601.170	30657
601.239	29695
601.308	31207
601.378	30821
601.447	30994
601.516	31784
601.585	32837
601.654	33037
601.723	34952
601.792	34326
601.861	35572
601.930	38080
601.999	38528
602.068	38079
602.137	37877
602.206	37651
602.275	37829
602.343	39531
602.412	39484
602.481	39137
602.550	38654
602.619	38616
602.688	39714
602.756	40453
602.825	40900
602.894	39702
602.963	41492
603.032	41127
603.100	41305
603.169	39925
603.238	42203
603.307	41441
603.375	41142
603.444	42396
603.513	40913
603.581	40305
603.650	44666
603.719	39811
603.787	37531
603.856	37378
603.924	39316
603.993	39708
604.061	40234
604.130	42100
604.198	43834
604.267	43375
604.335	44119
604.404	44026
604.472	45226
604.541	45885
604.609	46394
604.678	48029
604.746	48527
604.815	49994
604.883	49360
604.951	49065
605.020	48193
605.088	47989
605.156	46391
605.225	45938
605.293	47129
605.361	46172
605.429	47344
605.498	47013
605.566	47799
605.634	50102
605.702	50123
605.771	51123
605.839	52120
605.907	49652
605.975	49220
606.043	48688
606.111	46101
606.180	50249
606.248	49443
606.316	47924
606.384	48054
606.452	45176
606.520	41700
606.588	40937
606.656	39299
606.724	39477
606.792	38281
606.860	34317
606.928	31377
606.996	30616
607.064	29218
607.132	29950
607.200	31401
607.267	33082
607.335	33685
607.403	34099
607.471	33690
607.539	32368
607.607	32038
607.674	29495
607.742	29340
607.810	29811
607.878	29302
607.946	28685
608.013	30149
608.081	30203
608.149	32018
608.216	32155
608.284	33823
608.352	32990
608.419	32777
608.487	34503
608.555	31762
608.622	30967
608.690	32892
608.757	35214
608.825	37334
608.893	37062
608.960	35425
609.028	36173
609.095	34388
609.163	33845
609.230	31265
609.298	28343
609.365	28802
609.432	29765
609.500	33105
609.567	37259
609.635	42560
609.702	45584
609.769	45017
609.837	38128
609.904	32443
609.971	33880
610.039	41647
610.106	54244
610.173	99996
610.241	236552
610.308	246966
610.375	126462
610.442	50898
610.509	36489
610.577	34739
610.644	32358
610.711	33541
610.778	32759
610.845	34646
610.912	35894
610.980	39019
611.047	42525
611.114	40518
611.181	36013
611.248	35261
611.315	37678
611.382	37592
611.449	38515
611.516	39952
611.583	39435
611.650	39831
611.717	39835
611.784	42657
611.851	44900
611.918	51125
611.984	60757
612.051	87462
612.118	170194
612.185	428753
612.252	401128
612.319	89079
612.386	57097
612.452	50313
612.519	46829
612.586	47287
612.653	46600
612.719	47571
612.786	44358
612.853	40648
612.919	38494
612.986	41617
613.053	39537
613.120	36675
613.186	35091
613.253	35777
613.319	35227
613.386	35641
613.453	36606
613.519	37343
613.586	37069
613.652	42199
613.719	39072
613.785	39312
613.852	37266
613.918	36392
613.985	38076
614.051	43315
614.118	56157
614.184	64073
614.250	38395
614.317	38525
614.383	36051
614.449	37730
614.516	37403
614.582	37326
614.648	35764
614.715	36739
614.781	35438
614.847	35931
614.914	35419
614.980	35099
615.046	35030
615.112	34992
615.179	36779
615.245	39790
615.311	42031
615.377	53299
615.443	63480
615.509	48092
615.575	41371
615.642	40290
615.708	42488
615.774	44971
615.840	51410
615.906	61330
615.972	83470
616.038	139436
616.104	258258
616.170	528465
616.236	633270
616.302	148892
616.368	81536
616.434	58394
616.500	50921
616.565	53122
616.631	65254
616.697	59279
616.763	56295
616.829	75665
616.895	134106
616.961	155666
617.026	74896
617.092	44211
617.158	39604
617.224	37519
617.289	35988
617.355	33423
617.421	33355
617.487	33727
617.552	32250
617.618	31670
617.684	30674
617.749	32661
617.815	30667
617.880	29059
617.946	28315
618.012	29835
618.077	30592
618.143	29953
618.208	29799
618.274	30694
618.339	32401
618.405	26908
618.470	27011
618.536	26176
618.601	27758
618.667	26070
618.732	24437
618.798	23988
618.863	23794
618.928	23156
618.994	24195
619.059	24794
619.124	27527
619.190	26868
619.255	22787
619.320	23390
619.386	23974
619.451	22963
619.516	22411
619.581	23949
619.647	23490
619.712	23255
619.777	22772
619.842	23312
619.907	24135
619.972	23792
620.038	24008
620.103	22502
620.168	22167
620.233	22831
620.298	23058
620.363	23044
620.428	23421
620.493	25055
620.558	23967
620.623	24996
620.688	24069
620.753	24374
620.818	24566
620.883	25275
620.948	25671
621.013	24420
621.078	25205
621.143	24017
621.207	27153
621.272	26029
621.337	24970
621.402	25193
621.467	25058
621.532	26600
621.596	25529
621.661	25438
621.726	23780
621.791	24586
621.855	24150
621.920	24936
621.985	24639
622.049	26708
622.114	26402
622.179	26376
622.243	24966
622.308	25773
622.373	27047
622.437	28089
622.502	25774
622.566	25315
622.631	24205
622.695	25877
622.760	25465
622.824	25867
622.889	26009
622.953	25365
623.018	30640
623.082	32563
623.147	27020
623.211	26974
623.276	26110
623.340	25421
623.404	24023
623.469	24509
623.533	24812
623.597	24436
623.662	23658
623.726	22948
623.790	21255
623.854	20178
623.919	21465
623.983	21497
624.047	22306
624.111	22220
624.176	22772
624.240	22627
624.304	23956
624.368	22543
624.432	22077
624.496	22319
624.560	23759
624.625	25165
624.689	23475
624.753	24124
624.817	22969
624.881	22620
624.945	20951
625.009	20596
625.073	20371
625.137	20789
625.201	24439
625.265	23737
625.329	21027
625.393	20843
625.456	21496
625.520	22698
625.584	22793
625.648	24104
625.712	28262
625.776	39016
625.839	47764
625.903	30836
625.967	18898
626.031	24221
626.095	32940
626.158	24076
626.222	17100
626.286	15700
626.349	15607
626.413	14378
626.477	15895
626.540	15229
626.604	13541
626.668	15101
626.731	14184
626.795	14191
626.858	14469
626.922	14298
626.986	14112
627.049	13145
627.113	14180
627.176	13898
627.240	12312
627.303	13553
627.366	13396
627.430	13602
627.493	13138
627.557	13433
627.620	13237
627.684	13565
627.747	13879
627.810	12809
627.874	12557
627.937	10935
628.000	13483
628.064	12625
628.127	9591
628.190	11203
628.253	10774
628.317	9877
628.380	8695
628.443	10565
628.506	9836
628.569	9715
628.632	9169
628.696	9330
628.759	8100
628.822	9377
628.885	7833
628.948	8692
629.011	8559
629.074	8402
629.137	7352
629.200	8147
629.263	8176
629.326	7785
629.389	8194
629.452	7363
629.515	7188
629.578	7145
629.641	8657
629.704	8237
629.767	7960
629.830	7526
629.892	6609
629.955	7399
630.018	7856
630.081	7121
630.144	8605
630.207	7487
630.269	9021
630.332	7541
630.395	7358
630.458	7374
630.520	6232
630.583	7827
630.646	7082
630.708	6508
630.771	6947
630.834	6818
630.896	7163
630.959	7004
631.021	5958
631.084	6890
631.146	7305
631.209	8132
631.272	7052
631.334	6170
631.397	7548
631.459	7067
631.522	7292
631.584	7670
631.646	7996
631.709	8445
631.771	9065
631.834	9346
631.896	7471
631.958	6752
632.021	8012
632.083	6475
632.145	6752
632.208	6587
632.270	7529
632.332	5944
632.395	5632
632.457	5780
632.519	6189
632.581	6727
632.643	5098
632.706	6178
632.768	5484
632.830	6590
632.892	6336
632.954	6545
633.016	7457
633.078	6008
633.141	6831
633.203	6403
633.265	6692
633.327	5434
633.389	5984
633.451	6837
633.513	7054
633.575	7786
633.637	7496
633.698	7393
633.760	6955
633.822	7126
633.884	7623
633.946	6410
634.008	6712
634.070	7548
634.132	9377
634.193	9349
634.255	9102
634.317	8864
634.379	9071
634.441	8667
634.502	6716
634.564	6629
634.626	5970
634.687	7226
634.749	5739
634.811	6302
634.873	5974
634.934	5995
634.996	6395
635.057	5628
635.119	5645
635.181	6259
635.242	6308
635.304	4662
635.365	7340
635.427	6012
635.488	5731
635.550	5958
635.611	6754
635.673	4934
635.734	7480
635.796	6084
635.857	8352
635.918	6887
635.980	8253
636.041	8671
636.102	8868
636.164	9243
636.225	9430
636.286	7669
636.348	7479
636.409	7157
636.470	5904
636.531	5489
636.593	5984
636.654	7032
636.715	5529
636.776	5347
636.838	4627
636.899	5931
636.960	5076
637.021	5468
637.082	4838
637.143	5365
637.204	4610
637.265	4382
637.326	5251
637.387	4328
637.448	4023
637.509	5201
637.570	5293
637.631	5796
637.692	4586
637.753	4134
637.814	4271
637.875	4599
637.936	4749
637.997	4511
638.058	4646
638.119	5200
638.179	4411
638.240	4709
638.301	4209
638.362	3500
638.423	3163
638.483	4078
638.544	3406
638.605	4161
638.666	2800
638.726	3867
638.787	5219
638.848	3785
638.908	4007
638.969	5190
639.030	4375
639.090	4790
639.151	3873
639.211	4626
639.272	5279
639.332	7245
639.393	6005
639.453	3654
639.514	4254
639.574	4668
639.635	3939
639.695	4432
639.756	3528
639.816	4378
639.877	4464
639.937	6151
639.997	7970
640.058	3760
640.118	3476
640.178	5226
640.239	3280
640.299	3044
640.359	2982
640.420	4380
640.480	4829
640.540	4744
640.600	4865
640.661	4495
640.721	4079
640.781	7142
640.841	5641
640.901	5290
640.961	4169
641.021	4475
641.082	3262
641.142	5956
641.202	4842
641.262	2776
641.322	3802
641.382	2663
641.442	3361
641.502	3833
641.562	3576
641.622	2963
641.682	3158
641.742	4229
641.802	4095
641.861	4075
641.921	3277
641.981	5089
642.041	4335
642.101	4254
642.161	3814
642.221	2894
642.280	2947
642.340	2889
642.400	3000
642.460	3662
642.519	3391
642.579	3517
642.639	4258
642.698	1384
642.758	5199
642.818	2986
642.877	3417
642.937	3437
642.997	4691
643.056	5330
643.116	3516
643.175	4674
643.235	4002
643.294	3947
643.354	3580
643.414	5472
643.473	6213
643.532	8474
643.592	11953
643.651	19688
643.711	34666
643.770	60310
643.830	131398
643.889	362312
643.948	157462
644.008	20048
644.067	9912
644.126	6165
644.186	5031
644.245	6165
644.304	3977
644.363	4476
644.423	3029
644.482	3770
644.541	3790
644.600	3574
644.659	6038
644.719	6589
644.778	9970
644.837	15985
644.896	29769
644.955	80080
645.014	48956
645.073	9802
645.132	5044
645.191	5027
645.250	3222
645.309	5665
645.368	3762
645.427	5580
645.486	6753
645.545	17198
645.604	8362
645.663	4888
645.722	4358
645.781	5240
645.840	5440
645.898	7606
645.957	11894
646.016	16808
646.075	31136
646.134	56780
646.192	131638
646.251	291639
646.310	74455
646.369	12498
646.427	8124
646.486	5654
646.545	4782
646.603	4296
646.662	4007
646.721	3775
646.779	3322
646.838	3353
646.896	5622
646.955	6660
647.014	9886
647.072	16847
647.131	46444
647.189	40675
647.248	5592
647.306	4347
647.365	3884
647.423	2079
647.481	3340
647.540	762
647.598	2587
647.657	2319
647.715	3295
647.773	2246
647.832	2296
647.890	1325
647.948	1727
648.007	2986
648.065	1760
648.123	2481
648.181	3341
648.240	4407
648.298	2707
648.356	2392
648.414	2572
648.472	2732
648.531	2069
648.589	1924
648.647	1811
648.705	1986
648.763	2225
648.821	2339
648.879	2240
648.937	3536
648.995	4579
649.053	5354
649.111	8037
649.169	14415
649.227	23173
649.285	43913
649.343	130439
649.401	117927
649.459	18689
649.516	11062
649.574	6354
649.632	12860
649.690	18639
649.748	9378
649.806	9107
649.863	17457
649.921	32495
649.979	35688
650.037	6123
650.094	1467
650.152	2460
650.210	2382
650.268	2554
650.325	2569
650.383	3469
650.440	1689
650.498	2421
650.556	1939
650.613	1830
650.671	1889
650.728	1790
650.786	2220
650.843	1977
650.901	794
650.958	1391
651.016	1657
651.073	1433
651.131	1069
651.188	1299
651.246	1966
651.303	252
651.360	1355
651.418	544
651.475	934
651.532	545
651.590	1278
651.647	887
651.704	1456
651.762	1422
651.819	2241
651.876	247
651.933	791
651.990	1907
652.048	731
652.105	350
652.162	629
652.219	317
652.276	1717
652.333	1431
652.390	761
652.448	2004
652.505	980
652.562	1485
652.619	1561
652.676	3250
652.733	4087
652.790	1452
652.847	659
652.904	937
652.961	-414
653.017	-168
653.074	1495
653.131	1449
653.188	852
653.245	786
653.302	1201
653.359	661
653.415	1315
653.472	232
653.529	1742
653.586	398
653.642	-67
653.699	309
653.756	596
653.813	384
653.869	1344
653.926	600
653.983	207
654.039	859
654.096	1422
654.152	1466
654.209	373
654.266	1289
654.322	455
654.379	1591
654.435	1379
654.492	939
654.548	1721
654.605	2011
654.661	2518
654.717	151
654.774	2112
654.830	1810
654.887	1516
654.943	1323
655.000	2099
655.056	1137
655.112	864
655.168	152
655.225	768
655.281	1035
655.337	643
655.394	1951
655.450	2587
655.506	1357
655.562	1764
655.618	3704
655.675	497
655.731	2186
655.787	545
655.843	1552
655.899	1288
655.955	3034
656.011	1622
656.067	1425
656.123	2412
656.179	1967
656.235	3261
656.291	2069
656.347	3260
656.403	1997
656.459	1254
656.515	1349
656.571	1824
656.627	1663
656.683	923
656.739	1768
656.795	734
656.850	1251
656.906	1527
656.962	2092
657.018	868
657.074	687
657.129	811
657.185	2455
657.241	3367
657.297	2813
657.352	2021
657.408	445
657.464	2167
657.519	663
657.575	1070
657.630	828
657.686	574
657.742	481
657.797	404
657.853	-875
657.908	895
657.964	494
658.019	992
658.075	520
658.130	802
658.186	-42
658.241	618
658.297	740
658.352	92
658.407	1229
658.463	349
658.518	360
658.573	811
658.629	-296
658.684	629
658.739	622
658.795	-758
658.850	875
658.905	216
658.960	609
659.016	-689
659.071	-465
659.126	695
659.181	872
659.236	2034
659.291	2771
659.346	1197
659.401	774
659.457	1581
659.512	2138
659.567	2245
659.622	1489
659.677	468
659.732	-278
659.787	889
659.842	741
659.897	1104
659.952	709
660.007	251
660.061	584
660.116	-195
660.171	-885
660.226	605
660.281	963
660.336	339
660.391	-43
660.445	778
660.500	-180
660.555	1012
660.610	172
660.664	1177
660.719	-833
660.774	746
660.828	772
660.883	61
660.938	541
660.992	229
661.047	1213
661.101	521
661.156	434
661.211	-287
661.265	-592
661.320	257
661.374	494
661.429	476
661.483	196
661.538	-261
661.592	-550
661.647	596
661.701	1125
661.755	1206
661.810	938
661.864	484
661.919	-695
661.973	925
662.027	-557
662.081	-363
662.136	55
662.190	-50
662.244	630
662.299	625
662.353	681
662.407	-189
662.461	-1075
662.515	1088
662.569	-269
662.624	853
662.678	161
662.732	168
662.786	-274
662.840	939
662.894	122
662.948	353
663.002	178
663.056	-22
663.110	41
663.164	94
663.218	949
663.272	579
663.326	708
663.380	168
663.434	507
663.488	-139
663.542	-239
663.595	-26
663.649	-602
663.703	752
663.757	574
663.811	-259
663.864	445
663.918	358
663.972	-469
664.026	89
664.079	176
664.133	878
664.187	-91
664.240	63
664.294	-498
664.348	181
664.401	613
664.455	301
664.508	-128
664.562	676
664.615	250
664.669	258
664.722	493
664.776	714
664.829	109
664.883	-412
664.936	154
664.990	-20
665.043	871
665.097	-119
665.150	1150
665.203	-117
665.257	-388
665.310	330
665.363	126
665.417	744
665.470	744
665.523	465
665.576	-32
665.630	626
665.683	-35
665.736	508
665.789	375
665.842	147
665.895	227
665.949	395
666.002	155
666.055	522
666.108	656
666.161	498
666.214	393
666.267	360
666.320	244
666.373	415
666.426	27
666.479	-153
666.532	215
666.585	299
666.638	1366
666.691	662
666.744	832
666.796	933
666.849	-146
666.902	949
666.955	113
667.008	-67
667.060	-379
667.113	65
667.166	232
667.219	148
667.271	-169
667.324	638
667.377	-285
667.430	1209
667.482	-368
667.535	1647
667.587	419
667.640	1508
667.693	614
667.745	1429
667.798	1717
667.850	1514
667.903	-57
667.955	-14
668.008	380
668.060	748
668.113	-16
668.165	-76
668.218	256
668.270	475
668.322	37
668.375	1142
668.427	836
668.479	5
668.532	761
668.584	335
668.636	-242
668.689	877
668.741	48
668.793	257
668.845	105
668.898	1071
668.950	-69
669.002	305
669.054	-494
669.106	-486
669.158	1166
669.211	572
669.263	262
669.315	1783
669.367	1084
669.419	858
669.471	1147
669.523	1675
669.575	1895
669.627	1877
669.679	891
669.731	1256
669.783	497
669.835	1329
669.886	815
669.938	952
669.990	602
670.042	552
670.094	2084
670.146	2031
670.197	3177
670.249	4250
670.301	4731
670.353	7897
670.404	11778
670.456	16126
670.508	25036
670.560	39709
670.611	59974
670.663	99466
670.715	197317
670.766	348701
670.818	227072
670.869	58226
670.921	20324
670.972	12071
671.024	7689
671.075	5380
671.127	4247
671.178	2372
671.230	2608
671.281	2802
671.333	1695
671.384	3093
671.436	2424
671.487	3187
671.538	4218
671.590	4176
671.641	6905
671.692	10758
671.744	21344
671.795	23433
671.846	9088
671.897	3758
671.949	1172
672.000	2010
672.051	1087
672.102	1392
672.153	5
672.204	597
672.256	432
672.307	732
672.358	1000
672.409	902
672.460	-513
672.511	-52
672.562	240
672.613	287
672.664	-127
672.715	639
672.766	28
672.817	-375
672.868	-496
672.919	443
672.970	-540
673.021	145
673.071	-397
673.122	-169
673.173	-301
673.224	361
673.275	83
673.326	-43
673.376	174
673.427	-140
673.478	-33
673.528	923
673.579	-181
673.630	-249
673.680	-538
673.731	109
673.782	-1003
673.832	-86
673.883	145
673.934	417
673.984	-249
674.035	98
674.085	-757
674.136	196
674.186	146
674.237	262
674.287	398
674.338	317
674.388	-386
674.438	-291
674.489	441
674.539	568
674.589	-858
674.640	182
674.690	131
674.740	-249
674.791	255
674.841	-171
674.891	-314
674.942	-983
674.992	-466
675.042	-763
675.092	-279
675.142	-34
675.193	-730
675.243	-912
675.293	-294
675.343	-448
675.393	-466
675.443	-304
675.493	-410
675.543	-786
675.593	-1144
675.643	-103
675.693	-183
675.743	-1220
675.793	467
675.843	-208
675.893	-697
675.943	341
675.993	71
676.043	1
676.093	-373
676.142	-812
676.192	-310
676.242	173
676.292	-721
676.341	-194
676.391	74
676.441	-825
676.491	-592
676.540	-271
676.590	-1442
676.640	-267
676.689	-440
676.739	-638
676.789	-943
676.838	-683
676.888	-910
676.937	-410
676.987	-717
677.037	-181
677.086	-1035
677.136	-357
677.185	-456
677.235	-498
677.284	-905
677.333	-859
677.383	-509
677.432	-1025
677.482	-1081
677.531	-495
677.580	-1342
677.630	-296
677.679	-1025
677.728	-598
677.778	-465
677.827	-671
677.876	-906
677.925	-234
677.975	-452
678.024	-680
678.073	-1094
678.122	-588
678.171	-549
678.220	541
678.269	-627
678.319	324
678.368	-422
678.417	130
678.466	-187
678.515	31
678.564	-768
678.613	-755
678.662	-673
678.711	-658
678.760	-1366
678.809	-593
678.857	-969
678.906	-1341
678.955	-1020
679.004	94
679.053	-841
679.102	-755
679.151	-514
679.199	-841
679.248	-785
679.297	-688
679.346	-1249
679.394	-1226
679.443	-437
679.492	-124
679.540	-933
679.589	-700
679.638	-336
679.686	-331
679.735	-850
679.784	-577
679.832	-1031
679.881	-665
679.929	-729
679.978	-314
680.026	-807
680.075	-174
680.123	-1668
680.172	-146
680.220	-996
680.268	-749
680.317	-1236
680.365	-909
680.414	-1164
680.462	-62
680.510	-667
680.559	-984
680.607	-211
680.655	-172
680.703	-116
680.752	-435
680.800	-918
680.848	-798
680.896	-570
680.945	-1106
680.993	-1156
681.041	-158
681.089	-1176
681.137	-448
681.185	-980
681.233	-1092
681.258	-928
681.281	-784
681.329	-1029
681.377	-1119
681.380	-1064
681.425	-204
681.473	-576
681.502	-784
681.521	-953
681.569	-6
681.617	-583
681.624	-696
681.665	-1485
681.713	-1071
681.745	-1254
681.761	-1358
681.809	-631
681.857	-1024
681.867	-856
681.904	-321
681.952	-449
681.989	-411
682.000	-409
682.048	-1311
682.096	-878
682.111	-729
682.143	-442
682.191	-169
682.233	-417
682.239	-463
682.286	-80
682.334	-323
682.354	-659
682.382	-1140
682.430	-558
682.476	-744
682.477	-759
682.525	-354
682.572	-465
682.598	-691
682.620	-889
682.667	-239
682.715	-480
682.720	-430
682.763	-45
682.810	-431
682.841	-105
682.857	46
682.905	-303
682.952	-310
682.963	-212
683.000	36
683.047	-68
683.085	-185
683.095	-213
683.142	-511
683.190	-178
683.206	-219
683.237	-317
683.284	-266
683.328	-379
683.332	-395
683.379	35
683.426	253
683.449	-29
683.473	-343
683.521	-744
683.568	-104
683.571	-110
683.615	-333
683.662	-641
683.693	-246
683.709	-17
683.757	-211
683.804	42
683.814	-32
683.851	-369
683.898	102
683.936	-211
683.945	-290
683.992	-139
684.039	192
684.057	87
684.086	-68
684.133	148
684.179	616
684.180	623
684.227	375
684.274	385
684.300	220
684.321	97
684.368	-123
684.415	-111
684.422	-46
684.462	307
684.509	178
684.543	592
684.556	723
684.603	169
684.649	734
684.665	421
684.696	-246
684.743	462
684.786	142
684.790	121
684.837	-31
684.883	396
684.908	502
684.930	533
684.977	538
685.023	477
685.029	421
685.070	3
685.117	237
685.150	588
685.164	688
685.210	1563
685.257	954
685.272	1098
685.303	1500
685.350	919
685.393	1281
685.396	1291
685.443	914
685.490	1061
685.514	730
685.536	536
685.583	1032
685.629	1006
685.636	1039
685.675	1070
685.722	1053
685.757	1381
685.768	1493
685.815	1445
685.861	1034
685.878	1058
685.908	1049
685.954	737
686.000	1068
686.000	1073
686.047	1034
686.093	1269
686.121	1404
686.139	1448
686.185	1200
686.232	1139
686.242	1159
686.278	1286
686.324	1301
686.363	883
686.370	799
686.416	1183
686.463	1828
686.484	1562
686.509	1221
686.555	987
686.601	1064
686.606	1071
686.647	1187
686.693	959
686.727	1212
686.739	1338
686.785	1645
686.831	1593
686.848	1663
686.877	1624
686.923	895
686.969	844
686.969	845
687.015	1220
687.061	1784
687.090	1258
687.107	892
687.153	1652
687.199	1860
687.211	1864
687.245	1923
687.291	1497
687.332	1650
687.336	1665
687.382	1520
687.428	1616
687.453	1587
687.474	1574
687.520	1833
687.565	2165
687.574	2096
687.611	1832
687.657	1971
687.695	1949
687.702	2005
687.748	2405
687.794	3388
687.816	3662
687.839	3528
687.885	2752
687.931	2493
687.937	2412
687.976	2123
688.022	2128
688.058	1844
688.067	1811
688.113	1594
688.158	2190
688.179	2057
688.204	1936
688.249	1522
688.295	1680
688.300	1698
688.340	1868
688.386	2368
688.421	1962
688.431	1854
688.477	1853
688.522	2238
688.542	2426
688.567	2641
688.613	2358
688.658	2065
688.663	2104
688.703	2368
688.749	2118
688.784	1963
688.794	1942
688.839	1929
688.884	2201
688.905	2066
688.930	1843
688.975	2394
689.020	1775
689.026	1759
689.065	1797
689.110	1760
689.146	2295
689.155	2431
689.201	2257
689.246	2696
689.267	2635
689.291	2469
689.336	2422
689.381	1622
689.388	1598
689.426	1769
689.471	2007
689.509	2560
689.516	2641
689.561	2317
689.606	2120
689.630	2319
689.651	2516
689.696	2392
689.741	2249
689.750	2310
689.785	2554
689.830	2276
689.871	2441
689.875	2450
689.920	2330
689.965	2467
689.992	2386
690.010	2402
690.054	2040
690.099	2555
690.112	2502
690.144	2432
690.189	2472
690.233	2483
690.233	2488
690.278	2673
690.323	2534
690.354	2763
690.367	2901
690.412	2741
690.457	2437
690.474	2677
690.501	3003
690.546	3127
690.590	3056
690.595	3004
690.635	2941
690.680	3628
690.716	3548
690.724	3530
690.769	4234
690.813	4720
690.836	4941
690.857	5497
690.902	6181
690.946	7403
690.957	7717
690.991	10816
691.035	15296
691.077	19434
691.080	19491
691.124	19493
691.168	18398
691.198	17608
691.213	15994
691.257	12416
691.301	8024
691.318	6493
691.346	5943
691.390	4661
691.434	3348
691.439	3260
691.478	3359
691.522	3340
691.559	3254
691.567	3269
691.611	2802
691.655	3155
691.680	2828
691.699	2664
691.743	3142
691.787	3150
691.800	3160
691.831	3162
691.875	3253
691.919	3397
691.921	3391
691.964	3313
692.008	3382
692.041	2878
692.052	2854
692.096	3430
692.139	3672
692.162	3795
692.183	3628
692.227	3346
692.271	3326
692.282	3246
692.315	3286
692.359	3227
692.402	3253
692.403	3265
692.447	3515
692.490	3798
692.523	3801
692.534	3752
692.578	3787
692.622	3766
692.643	3624
692.666	3415
692.709	3333
692.753	2956
692.763	2889
692.797	3148
692.840	3297
692.884	4097
692.884	4111
692.928	3738
692.971	3722
693.004	3582
693.015	3642
693.059	4025
693.102	3779
693.124	4097
693.146	4273
693.189	3933
693.233	4004
693.245	3904
693.276	3903
693.320	4690
693.363	4674
693.365	4670
693.407	5018
693.450	5032
693.485	5447
693.493	5687
693.537	6787
693.580	7844
693.605	8343
693.624	9511
693.667	12616
693.710	15541
693.725	16561
693.753	22495
693.797	32011
693.840	42217
693.845	43243
693.883	42465
693.926	40846
693.966	39304
693.970	38402
694.013	28461
694.056	18784
694.086	12271
694.099	11656
694.142	9213
694.185	7034
694.206	5970
694.229	5750
694.272	5314
694.315	4857
694.326	4761
694.358	4908
694.401	4942
694.444	4990
694.446	4976
694.487	4951
694.530	4881
694.566	4869
694.573	4834
694.616	4605
694.659	4188
694.686	3993
694.702	4034
694.745	4062
694.787	4149
694.806	4212
694.830	4151
694.873	3901
694.916	3526
694.926	3455
694.959	3619
695.002	3738
695.044	3981
695.046	3967
695.087	3763
695.130	4005
695.166	3772
695.172	3794
695.215	4255
695.258	4406
695.286	4659
695.301	4664
695.343	4566
695.386	4328
695.406	4206
695.428	4291
695.471	4582
695.514	4652
695.526	4714
695.556	4645
695.599	4625
695.641	4273
695.646	4238
695.684	4510
695.726	4716
695.766	5159
695.769	5171
695.811	4721
695.854	4454
695.886	4226
695.896	4262
695.938	4399
695.981	4493
696.005	4513
696.023	4510
696.065	4600
696.108	4557
696.125	4548
696.150	4667
696.192	4844
696.235	5004
696.245	4998
696.277	4894
696.319	4886
696.361	4841
696.365	4817
696.404	5016
696.446	5405
696.485	5359
696.488	5352
696.530	5426
696.572	5300
696.604	5179
696.614	5160
696.656	5081
696.698	4939
696.724	4846
696.740	4919
696.783	5036
696.825	5232
696.844	5284
696.867	5194
696.909	4914
696.951	4800
696.964	4735
696.992	4725
697.034	4517
697.076	4436
697.083	4405
697.118	4702
697.160	5079
697.202	5468
697.203	5459
697.244	5289
697.286	5165
697.323	4963
697.327	4977
697.369	4998
697.411	5009
697.442	5025
697.453	5117
697.494	5387
697.536	5633
697.562	5840
697.578	5872
697.620	5784
697.661	5707
697.682	5659
697.703	5576
697.744	5428
697.786	5236
697.801	5147
697.828	5275
697.869	5431
697.911	5568
697.921	5595
697.952	5524
697.994	5443
698.035	5248
698.040	5212
698.077	5095
698.118	4911
698.160	4787
698.160	4768
698.201	4912
698.243	5010
698.279	5088
698.284	5155
698.325	5620
698.367	6102
698.399	6427
698.408	6425
698.449	6336
698.491	6247
698.518	6152
698.532	6164
698.573	6168
698.614	6160
698.638	6136
698.656	6106
698.697	5987
698.738	5858
698.757	5781
698.779	5813
698.820	5849
698.862	5867
698.877	5861
698.903	6026
698.944	6244
698.985	6475
698.996	6518
699.026	6435
699.067	6292
699.116	6103
699.235	5456
699.354	6174
699.474	5710
699.593	6707
699.713	5613
699.832	5824
699.951	5559
700.070	6607
700.190	5564
700.309	5177
700.428	4914
700.547	5002
700.667	5128
700.786	6312
700.905	5031
701.024	5330
701.143	5060
701.262	5666
701.381	5388
701.500	5341
701.619	5531
701.738	5733
701.857	4886
701.976	5105
702.095	5132
702.214	5466
702.333	5238
702.452	5553
702.571	5493
702.690	5597
702.809	4797
702.928	5009
703.047	4756
703.165	4399
703.284	5118
703.403	4929
703.522	5052
703.640	5757
703.759	5977
703.878	5598
703.997	4691
704.115	3944
704.234	4316
704.353	4542
704.471	4230
704.590	4733
704.708	5026
704.827	4517
704.946	4930
705.064	4630
705.183	4076
705.301	5138
705.420	5737
705.538	6229
705.656	5436
705.775	5469
705.893	9534
706.012	14442
706.130	5376
706.249	6068
706.367	4591
706.485	6073
706.604	5173
706.722	4988
706.840	6763
706.958	10044
707.077	7855
707.195	5106
707.313	5451
707.431	5346
707.549	4392
707.668	4837
707.786	4742
707.904	4725
708.022	4486
708.140	4884
708.258	4391
708.376	4715
708.494	4162
708.612	5303
708.730	5102
708.848	6023
708.966	5340
709.084	5818
709.202	6380
709.320	5692
709.438	5151
709.556	5184
709.674	5500
709.791	5920
709.909	4402
710.027	5408
710.145	5165
710.263	5375
710.380	5351
710.498	5628
710.616	5534
710.733	5291
710.851	4763
710.969	5632
711.086	4581
711.204	4739
711.322	4538
711.439	5266
711.557	4282
711.674	4697
711.792	4122
711.909	4857
712.027	6212
712.144	5353
712.262	4895
712.379	4798
712.497	6029
712.614	6769
712.732	6134
712.849	6242
712.966	5234
713.084	5772
713.201	6042
713.318	6165
713.436	5642
713.553	5733
713.670	5123
713.787	6275
713.905	6215
714.022	6272
714.139	5744
714.256	7120
714.373	7431
714.490	12690
714.608	26706
714.725	116390
714.842	164889
714.959	15487
715.076	6537
715.193	5603
715.310	5757
715.427	5270
715.544	5228
715.661	5461
715.778	4539
715.895	5818
716.011	5293
716.128	5336
716.245	4917
716.362	5122
716.479	5279
716.596	5118
716.713	5040
716.829	5254
716.946	3994
717.063	4353
717.180	3231
717.296	4990
717.413	4952
717.530	4556
717.646	3758
717.763	4455
717.880	3787
717.996	4364
718.113	4078
718.229	5097
718.346	2902
718.462	4657
718.579	4057
718.695	5730
718.812	5420
718.928	4606
719.045	4236
719.161	3994
719.277	3231
719.394	4688
719.510	4593
719.626	3284
719.743	4846
719.859	6405
719.975	10108
720.092	32108
720.208	88349
720.324	16718
720.440	5370
720.557	4773
720.673	4968
720.789	5841
720.905	9245
721.021	6020
721.137	3671
721.253	4701
721.369	4234
721.486	3818
721.602	4507
721.718	3713
721.834	2738
721.950	3923
722.066	3516
722.181	3504
722.297	3457
722.413	3951
722.529	3473
722.645	3371
722.761	3643
722.877	3211
722.993	2505
723.108	3875
723.224	3173
723.340	3228
723.456	3179
723.571	3383
723.687	3095
723.803	3377
723.918	2375
724.034	3204
724.150	3305
724.265	3176
724.381	4267
724.497	5891
724.612	2232
724.728	2201
724.843	2907
724.959	3030
725.074	4572
725.190	5595
725.305	2783
725.421	2727
725.536	3277
725.651	3467
725.767	3277
725.882	3304
725.997	2081
726.113	2975
726.228	2272
726.343	3267
726.459	2611
726.574	3202
726.689	2819
726.804	3058
726.920	3048
727.035	2757
727.150	3219
727.265	2465
727.380	2675
727.495	1833
727.610	2694
727.725	3879
727.841	2796
727.956	6818
728.071	5809
728.186	2761
728.301	2139
728.416	3814
728.531	2627
728.645	2115
728.760	2125
728.875	2345
728.990	2825
729.105	3371
729.220	2227
729.335	4002
729.449	2303
729.564	2531
729.679	2820
729.794	2168
729.908	3227
730.023	2763
730.138	2622
730.253	2845
730.367	2060
730.482	3133
730.596	2277
730.711	3110
730.826	3264
730.940	4294
731.055	2911
731.169	2253
731.284	2666
731.398	2365
731.513	2501
731.627	3009
731.742	3083
731.856	3622
731.970	3249
732.085	3771
732.199	3881
732.313	6508
732.428	13689
732.542	42302
732.656	31741
732.771	6521
732.885	3608
732.999	3764
733.113	2863
733.227	3849
733.342	3470
733.456	4032
733.570	2356
733.684	2770
733.798	3127
733.912	3077
734.026	2495
734.140	2876
734.254	3013
734.368	3824
734.482	4911
734.596	2935
734.710	2882
734.824	3214
734.938	2465
735.052	2700
735.166	3396
735.280	2981
735.393	2655
735.507	2722
735.621	3023
735.735	3810
735.849	2793
735.962	3060
736.076	3212
736.190	2729
736.303	2508
736.417	3458
736.531	3002
736.644	2248
736.758	2667
736.872	2264
736.985	2900
737.099	3569
737.212	1177
737.326	3380
737.439	3147
737.553	2601
737.666	1715
737.780	2815
737.893	2510
738.007	2241
738.120	2011
738.233	2182
738.347	2888
738.460	2856
738.573	2157
738.687	2601
738.800	2353
738.913	2709
739.026	2722
739.140	3041
739.253	3048
739.366	2493
739.479	1879
739.592	1929
739.705	2048
739.818	3481
739.932	2445
740.045	2311
740.158	2506
740.271	2545
740.384	2076
740.497	2697
740.610	2301
740.723	2559
740.836	2112
740.949	2486
741.062	2142
741.174	3020
741.287	1738
741.400	2571
741.513	2770
741.626	2305
741.739	1790
741.851	1670
741.964	1349
742.077	2510
742.189	1486
742.302	2727
742.415	3195
742.527	2868
742.640	2796
742.753	2243
742.865	1490
742.978	2446
743.090	1929
743.203	2342
743.316	1408
743.428	2036
743.541	1554
743.653	1741
743.766	1987
743.878	2524
743.990	1763
744.103	3666
744.215	4018
744.327	2775
744.440	2363
744.552	3237
744.664	1647
744.777	2313
744.889	1712
745.001	2171
745.113	1314
745.226	1795
745.338	1933
745.450	1885
745.562	2113
745.674	1683
745.786	2083
745.898	2108
746.010	1641
746.122	2190
746.234	2154
746.347	1991
746.459	2649
746.570	3122
746.682	3109
746.794	5835
746.906	3466
747.018	2028
747.130	2525
747.242	1663
747.354	2194
747.466	1771
747.577	1624
747.689	2150
747.801	1843
747.913	2546
748.024	1705
748.136	1283
748.248	1899
748.359	1894
748.471	2051
748.583	1978
748.694	1037
748.806	2705
748.918	2398
749.029	1949
749.141	1917
749.252	2651
749.364	1973
749.475	2106
749.587	1943
749.698	1854
749.809	1709
749.921	2595
750.032	2478
750.144	1909
750.255	1943
750.366	1633
750.478	1420
750.589	1401
750.700	2142
750.811	1876
750.923	1673
751.034	3050
751.145	2940
751.256	955
751.367	881
751.479	1613
751.590	1641
751.701	2390
751.812	1263
751.923	1726
752.034	1387
752.145	2400
752.256	1750
752.367	1531
752.478	1427
752.589	1759
752.700	1491
752.811	2088
752.922	1536
753.032	1831
753.143	2412
753.254	1527
753.365	921
753.476	2003
753.586	1333
753.697	1467
753.808	1394
753.919	1356
754.029	2089
754.140	1788
754.251	781
754.361	1290
754.472	1772
754.582	1660
754.693	1969
754.804	1773
754.914	1806
755.025	1246
755.135	1605
755.246	2302
755.356	1274
755.466	2203
755.577	1703
755.687	1912
755.798	1411
755.908	1720
756.018	1749
756.129	2179
756.239	2450
756.349	2232
756.460	1705
756.570	1957
756.680	2546
756.790	2320
756.900	1343
757.011	2618
757.121	2128
757.231	1228
757.341	2241
757.451	2424
757.561	1043
757.671	2165
757.781	1295
757.891	2749
758.001	1540
758.111	1725
758.221	2103
758.331	3156
758.441	2194
758.551	2125
758.661	2663
758.771	2250
758.880	1909
758.990	2786
759.100	1491
759.210	1902
759.320	1463
759.429	2545
759.539	1865
759.649	2318
759.758	2666
759.868	2787
759.978	2522
760.087	1861
760.197	3044
760.307	3305
760.416	3316
760.526	2353
760.635	2885
760.745	2897
760.854	2938
760.964	3611
761.073	2824
761.182	3417
761.292	2775
761.401	3314
761.511	2674
761.620	3640
761.729	3800
761.839	3615
761.948	3822
762.057	4736
762.166	3238
762.276	3191
762.385	4223
762.494	4408
762.603	3716
762.712	4360
762.822	4850
762.931	4432
763.040	4423
763.149	4882
763.258	4452
763.367	5881
763.476	6142
763.585	6622
763.694	6597
763.803	5947
763.912	6614
764.021	7834
764.130	7381
764.238	8520
764.347	8135
764.456	8957
764.565	9640
764.674	10766
764.783	11512
764.891	12819
765.000	15494
765.109	16994
765.217	17985
765.326	22519
765.435	26746
765.543	32707
765.652	40931
765.761	54997
765.869	73345
765.978	108553
766.086	163849
766.195	265056
766.303	422601
766.412	474060
766.520	424687
766.629	423645
766.737	266338
766.846	163433
766.954	108455
767.062	77304
767.171	58750
767.279	46320
767.387	35871
767.496	30507
767.604	25793
767.712	22022
767.820	20073
767.928	18211
768.037	16085
768.145	16458
768.253	15423
768.361	14079
768.469	13729
768.577	14488
768.685	15545
768.793	16408
768.901	18070
769.009	20453
769.117	24081
769.225	32539
769.333	44027
769.441	66611
769.549	109934
769.657	206582
769.765	372888
769.873	410418
769.981	372394
770.088	215316
770.196	114269
770.304	72449
770.412	49204
770.519	36648
770.627	28417
770.735	22863
770.842	19240
770.950	15368
771.058	14617
771.165	13146
771.273	10207
771.380	10767
771.488	9580
771.595	9264
771.703	7011
771.810	7727
771.918	6084
772.025	7032
772.133	6094
772.240	6193
772.348	5685
772.455	6293
772.562	5078
772.670	5630
772.777	5359
772.884	4910
772.991	5101
773.099	4174
773.206	3465
773.313	5194
773.420	4139
773.528	3715
773.635	3452
773.742	4147
773.849	3271
773.956	3688
774.063	3649
774.170	2882
774.277	3019
774.384	4040
774.491	2476
774.598	3444
774.705	3072
774.812	3236
774.919	2952
775.026	2492
775.133	2353
775.239	3497
775.346	2336
775.453	3316
775.560	2120
775.667	2990
775.773	2950
775.880	3023
775.987	2701
776.093	3225
776.200	2695
776.307	2035
776.413	2177
776.520	2080
776.627	1812
776.733	2230
776.840	1355
776.946	3140
777.053	3877
777.159	9615
777.266	3915
777.372	8189
777.478	5568
777.585	4122
777.691	2055
777.798	1994
777.904	2480
778.010	2525
778.117	2637
778.223	2446
778.329	952
778.435	2466
778.542	1837
778.648	2191
778.754	1025
778.860	2274
778.966	1530
779.072	2112
779.178	1814
779.284	2033
779.391	1158
779.497	1627
779.603	3538
779.708	4973
779.815	10942
779.920	38336
780.026	90477
780.132	19235
780.238	3103
780.344	2397
780.450	2990
780.556	2237
780.661	834
780.767	2172
780.873	1052
780.979	1552
781.085	468
781.190	1500
781.296	1176
781.402	630
781.507	701
781.613	2002
781.719	661
781.824	1522
781.930	990
782.035	1606
782.141	1462
782.246	1685
782.352	861
782.457	800
782.563	1064
782.668	1463
782.773	396
782.879	1171
782.984	1230
783.090	2655
783.195	1730
783.300	1985
783.405	761
783.511	987
783.616	875
783.721	1051
783.826	1060
783.932	1071
784.037	810
784.142	1466
784.247	-199
784.352	1310
784.457	619
784.562	214
784.667	1012
784.772	1055
784.877	992
784.982	1413
785.087	731
785.192	1426
785.297	604
785.402	416
785.507	876
785.611	858
785.716	175
785.821	1258
785.926	117
786.031	947
786.135	684
786.240	711
786.345	-190
786.450	607
786.554	1065
786.659	427
786.763	-322
786.868	952
786.973	1009
787.077	421
787.182	145
787.286	898
787.391	897
787.495	585
787.600	870
787.704	454
787.809	1123
787.913	361
788.017	764
788.122	723
788.226	522
788.330	441
788.435	245
788.539	337
788.643	618
788.747	630
788.852	-357
788.956	1118
789.060	1164
789.164	828
789.268	95
789.372	1534
789.476	-560
789.580	904
789.684	167
789.788	701
789.892	-495
789.996	668
790.100	-309
790.204	756
790.308	273
790.412	1245
790.516	1012
790.620	410
790.724	563
790.828	-520
790.931	208
791.035	1256
791.139	399
791.242	267
791.346	1175
791.450	494
791.554	682
791.657	407
791.761	853
791.864	452
791.968	672
792.072	774
792.175	-62
792.279	350
792.382	697
792.486	552
792.589	174
792.693	883
792.796	-897
792.899	648
793.003	301
793.106	149
793.209	209
793.313	694
793.416	-504
793.519	1458
793.623	286
793.726	606
793.829	-122
793.932	349
794.035	-290
794.138	591
794.242	308
794.345	1470
794.448	1571
794.551	5761
794.654	20816
794.757	51527
794.860	12025
794.963	2001
795.066	86
795.169	87
795.272	413
795.375	845
795.477	98
795.580	266
795.683	-1058
795.786	606
795.889	-1067
795.991	1029
796.094	155
796.197	-788
796.300	619
796.402	-6
796.505	-292
796.608	373
796.710	601
796.813	732
796.915	175
797.018	823
797.120	23
797.223	216
797.326	466
797.428	-137
797.530	-45
797.633	-858
797.735	120
797.838	-430
797.940	662
798.042	275
798.145	-430
798.247	1138
798.349	-814
798.452	108
798.554	275
798.656	-56
798.758	789
798.860	199
798.962	-506
799.065	159
799.167	-1693
799.269	189
799.371	382
799.473	208
799.575	-326
799.677	187
799.779	650
799.881	-261
799.983	886
800.085	30
800.187	-791
800.289	-110
800.390	-507
800.492	949
800.594	526
800.696	-203
800.798	-110
800.899	-377
801.001	80
801.103	285
801.205	-489
801.306	341
801.408	-807
801.509	108
801.611	-692
801.713	646
801.814	-1120
801.916	374
802.017	-811
802.119	146
802.220	-246
802.322	-473
802.423	1077
802.525	-641
802.626	-1014
802.727	-537
802.829	-995
802.930	-847
803.031	610
803.133	-284
803.234	-80
803.335	-246
803.436	-817
803.538	-454
803.639	-1233
803.740	-1032
803.841	-884
803.942	164
804.043	205
804.144	271
804.245	120
804.346	-237
804.447	-645
804.548	-109
804.649	-64
804.750	-904
804.851	-874
804.952	-287
805.053	-229
805.154	-360
805.255	394
805.355	-222
805.456	-656
805.557	-11
805.658	-782
805.758	579
805.859	-650
805.960	-896
806.061	-371
806.161	150
806.262	-440
806.362	-314
806.463	-193
806.564	53
806.664	-157
806.765	-322
806.865	-1056
806.966	-182
807.066	-774
807.166	-22
807.267	206
807.367	-845
807.468	-308
807.568	-1164
807.668	-77
807.769	-510
807.869	-409
807.969	-372
808.069	-522
808.170	-633
808.270	-1807
808.370	509
808.470	-131
808.570	-1764
808.670	18
808.770	-336
808.870	-1582
808.970	-18
809.070	-608
809.170	234
809.271	-49
809.370	-193
809.470	-311
809.570	508
809.670	-205
809.770	-461
809.870	285
809.970	279
810.070	472
810.169	184
810.269	-1681
810.369	795
810.469	-478
810.568	-598
810.668	-915
810.768	-366
810.867	-380
810.967	-760
811.066	-793
811.166	-89
811.265	-175
811.365	-479
811.464	-1142
811.564	170
811.663	146
811.763	-1120
811.862	363
811.962	689
812.061	-1032
812.160	-951
812.260	-312
812.359	314
812.458	-17
812.557	3172
812.657	4063
812.756	1432
812.855	447
812.954	99
813.053	-227
813.153	-640
813.252	24
813.351	490
813.450	-414
813.549	-621
813.648	-22
813.747	-344
813.846	-54
813.945	-805
814.044	-848
814.143	146
814.242	-149
814.341	-361
814.439	-756
814.538	181
814.637	-191
814.736	-335
814.835	-286
814.933	28
815.032	130
815.131	-315
815.229	-268
815.328	1506
815.427	-8
815.525	856
815.624	49
815.722	58
815.821	533
815.919	639
816.018	-244
816.116	1142
816.215	-439
816.313	815
816.412	489
816.510	358
816.609	1369
816.707	1227
816.805	625
816.904	966
817.002	764
817.100	1614
817.198	1358
817.296	1754
817.395	1607
817.493	3203
817.591	3834
817.689	5137
817.787	5928
817.885	9535
817.983	17858
818.081	38085
818.179	88877
818.277	207728
818.375	211531
818.473	69478
818.571	24622
818.669	15072
818.767	13563
818.865	12711
818.963	14156
819.061	21096
819.158	35286
819.256	72528
819.354	153747
819.452	307841
819.549	242226
819.647	87984
819.745	34725
819.842	19275
819.940	12414
820.038	9296
820.135	7022
820.233	5870
820.330	4031
820.428	3789
820.525	3871
820.623	3066
820.720	1383
820.818	1848
820.915	2194
821.012	1818
821.110	471
821.207	1216
821.304	590
821.402	1921
821.499	1930
821.596	4130
821.693	1765
821.791	862
821.888	901
821.985	1920
822.082	613
822.179	912
822.276	476
822.373	855
822.470	-300
822.567	898
822.664	-644
822.761	660
822.858	-359
822.955	802
823.052	-97
823.149	204
823.246	216
823.343	333
823.440	121
823.536	29
823.633	-583
823.730	179
823.827	-663
823.923	-131
824.020	768
824.117	814
824.213	-432
824.310	1384
824.407	-831
824.503	81
824.600	567
824.696	-623
824.793	700
824.889	-805
824.986	-14
825.082	-233
825.179	-440
825.275	-360
825.371	-795
825.468	-109
825.564	-1100
825.660	430
825.757	-551
825.853	621
825.949	-347
826.045	-73
826.142	-904
826.238	-116
826.334	-166
826.430	-977
826.526	150
826.622	100
826.718	-372
826.814	-1331
826.910	-326
827.006	-499
827.102	-876
827.198	396
827.294	-1120
827.390	-877
827.486	-393
827.582	-1150
827.678	-991
827.774	214
827.869	-997
827.965	326
828.061	-428
828.157	-261
828.252	-930
828.348	-888
828.444	-340
828.539	-1214
828.635	-365
828.731	-49
828.826	-1902
828.922	-136
829.017	-907
829.113	-386
829.208	-704
829.304	287
829.399	92
829.495	-158
829.590	-536
829.685	-349
829.781	-659
829.876	0
829.971	-728
830.066	-342
830.162	-185
830.257	-23
830.352	-409
830.447	237
830.543	-1444
830.638	-1219
830.733	-492
830.828	-1384
830.923	-269
831.018	-638
831.113	-559
831.208	-279
831.303	-1945
831.398	-137
831.493	-1321
831.588	79
831.683	-504
831.778	54
831.873	-1040
831.967	-71
832.062	-1190
832.157	-1200
832.252	268
832.346	-134
832.441	-916
832.536	411
832.631	-234
832.725	453
832.820	-726
832.914	-511
833.009	-1769
833.104	-33
833.198	282
833.293	-719
833.387	-900
833.482	343
833.576	-1659
833.670	-77
833.765	-504
833.859	-704
833.954	-218
834.048	-146
834.142	-1317
834.237	-1113
834.331	-202
834.425	-307
834.519	-635
834.613	732
834.708	-1381
834.802	-50
834.896	-1182
834.990	-298
835.084	-463
835.178	-326
835.272	-538
835.366	-1087
835.460	-554
835.554	-356
835.648	-331
835.742	-858
835.836	-360
835.930	-2038
836.024	-580
836.117	-205
836.211	-1636
836.305	-872
836.399	-23
836.493	-1029
836.586	-317
836.680	-859
836.774	-1233
836.867	-44
836.961	-1551
837.055	-1482
837.148	-874
837.242	-503
837.335	-1197
837.429	-939
837.522	-807
837.616	269
837.709	-1323
837.803	-659
837.896	-1009
837.989	-644
838.083	-653
838.176	-704
838.269	-1035
838.363	-729
838.456	-1655
838.549	-80
838.642	-718
838.735	-285
838.829	-439
838.922	-406
839.015	-519
839.108	-936
839.201	-661
839.294	-507
839.387	-734
839.480	-832
839.573	-1045
839.666	-1005
839.759	-1027
839.852	-1855
839.945	-795
840.038	-792
840.131	-1317
840.223	-816
840.316	16
840.409	-463
840.502	-1710
840.594	118
840.687	-2584
840.780	-761
840.873	-806
840.965	-1087
841.058	-853
841.150	-468
841.243	-602
841.336	-657
841.428	-925
841.521	-1080
841.613	-1599
841.706	-448
841.798	-666
841.890	-879
841.983	-1453
842.075	-258
842.167	-937
842.260	-872
842.352	-487
842.444	-455
842.537	-471
842.629	-245
842.721	-1170
842.813	-212
842.905	-1385
842.997	-682
843.090	-1317
843.182	-577
843.274	-1064
843.366	879
843.458	1948
843.550	2325
843.642	-1181
843.734	-84
843.826	-1437
843.918	-525
844.009	-678
844.101	-481
844.193	-799
844.285	-448
844.377	-36
844.469	-347
844.560	136
844.652	-315
844.744	-828
844.835	-604
844.927	-445
845.019	-531
845.110	-638
845.202	-907
845.293	-1093
845.385	-1233
845.476	-600
845.568	-214
845.659	-1143
845.751	-449
845.842	-433
845.934	-1103
846.025	-1663
846.116	-481
846.208	-1651
846.299	-859
846.390	-980
846.482	-163
846.573	-269
846.664	252
846.755	-1168
846.846	-349
846.937	-2377
847.029	-762
847.120	-1425
847.211	-1263
847.302	-1211
847.393	-1990
847.484	-724
847.575	-612
847.666	-1233
847.757	-1556
847.847	-1568
847.938	31
848.029	-975
848.120	-659
848.211	-1499
848.302	-1361
848.392	-1380
848.483	-781
848.574	-2039
848.664	-213
848.755	-962
848.846	-613
848.936	-1066
849.027	-737
849.118	-1557
849.208	-1215
849.299	-766
849.389	-186
849.480	534
849.570	1532
849.661	3580
849.751	7373
849.841	2607
849.932	-845
850.022	-1164
850.112	290
850.203	-1669
850.293	-1187
850.383	-1224
850.474	-813
850.564	-1043
850.654	-78
850.744	-996
850.834	-119
850.924	-1372
851.014	-286
851.104	-1453
851.194	-570
851.284	-1046
851.374	-410
851.464	-1340
851.554	-643
851.644	-1515
851.734	-628
851.824	110
851.914	590
852.004	1612
852.094	2288
852.183	-401
852.273	-486
852.363	-599
852.452	-1687
852.542	-1207
852.632	-1425
852.721	-1038
852.811	-1015
852.901	-1303
852.990	-639
853.080	-1193
853.169	-913
853.259	-907
853.348	-972
853.438	-1491
853.527	42
853.617	-820
853.706	1143
853.795	1854
853.885	7898
853.974	15293
854.063	27153
854.152	50138
854.242	24095
854.331	2366
854.420	-391
854.509	-228
854.598	27
854.687	-694
854.777	-1225
854.866	-871
854.955	-196
855.044	-1311
855.133	-495
855.222	-1421
855.311	-330
855.400	-875
855.488	-924
855.577	-1937
855.666	-1255
855.755	-663
855.844	-285
855.933	-1189
856.021	-442
856.110	-1333
856.199	-1027
856.288	-1978
856.376	-690
856.465	-1768
856.554	-490
856.642	-556
856.731	-698
856.819	-579
856.908	-1305
856.996	-1075
857.085	-1293
857.173	-546
857.262	-896
857.350	-1335
857.438	-680
857.527	-1442
857.615	-801
857.703	-778
857.792	-1395
857.880	-1595
857.968	-968
858.056	-1135
858.145	-425
858.233	-877
858.321	-730
858.409	-444
858.497	-805
858.585	-1541
858.673	-389
858.761	-1482
858.849	-862
858.937	-1632
859.025	-569
859.113	-1280
859.201	-870
859.289	-1363
859.377	-853
859.465	-1375
859.552	-441
859.640	-871
859.728	-874
859.816	-1671
859.903	-263
859.991	-1451
860.079	-1441
860.166	-868
860.254	-330
860.342	-1038
860.429	-1161
860.517	-1864
860.604	-854
860.692	-1604
860.779	-1402
860.867	-882
860.954	-1124
861.042	-1299
861.129	-745
861.216	-1139
861.304	-954
861.391	-1652
861.478	-1821
861.565	-975
861.653	-766
861.740	-1921
861.827	-1541
861.914	-1190
862.001	-2035
862.089	-1266
862.176	-600
862.263	-1774
862.350	-1080
862.437	-823
862.524	-475
862.611	-1312
862.698	-631
862.785	-1051
862.871	-597
862.958	-1304
863.045	-808
863.132	-746
863.219	-814
863.306	-1632
863.392	263
863.479	-1116
863.566	-657
863.652	-1391
863.739	-1703
863.826	-1095
863.912	-609
863.999	-1302
864.086	-733
864.172	-1774
864.259	-1509
864.345	-1192
864.432	-144
864.518	-1147
864.604	-973
864.691	-745
864.777	-858
864.863	-1398
864.950	-94
865.036	-1348
865.122	-279
865.209	-469
865.295	30
865.381	-405
865.467	56
865.553	-151
865.639	-296
865.726	157
865.812	3169
865.898	6852
865.984	11595
866.070	20302
866.156	27678
866.242	8556
866.328	735
866.414	-111
866.499	178
866.585	-670
866.671	8
866.757	-678
866.843	144
866.928	-635
867.014	-484
867.100	-234
867.186	-805
867.271	-205
867.357	-354
867.442	-392
867.528	-478
867.614	-614
867.699	49
867.785	433
867.870	533
867.956	-276
868.041	447
868.127	290
868.212	520
868.297	-260
868.383	-171
868.468	-238
868.553	334
868.639	-483
868.724	437
868.809	-142
868.894	-7
868.979	-349
869.065	-1065
869.150	-1478
869.235	-471
869.320	-1604
869.405	-730
869.490	-1411
869.575	-452
869.660	-816
869.745	-402
869.830	-578
869.915	-89
870.000	-526
870.085	-571
870.169	-192
870.254	-522
870.339	-919
870.424	-585
870.509	-1321
870.593	-634
870.678	-1545
870.763	-511
870.847	-281
870.932	-988
871.016	-810
871.101	-993
871.186	-1376
871.270	-369
871.355	-1185
871.439	-119
871.523	-1225
871.608	-576
871.692	-947
871.777	-232
871.861	-773
871.945	-1804
872.030	-402
872.114	-695
872.198	-1049
872.282	-994
872.367	-1310
872.451	-768
872.535	-1179
872.619	-467
872.703	-1354
872.787	-1124
872.871	-696
872.955	-605
873.039	-1837
873.123	-600
873.207	-421
873.291	-222
873.375	-1427
873.459	-580
873.543	-1029
873.627	-778
873.711	-1134
873.794	-470
873.878	-1917
873.962	-1285
874.045	-2142
874.129	-955
874.137	-955
874.213	-954
874.245	-985
874.296	-1041
874.352	-1055
874.380	-1066
874.460	-724
874.464	-711
874.547	-788
874.568	-708
874.631	-496
874.676	-852
874.714	-1134
874.784	-899
874.798	-860
874.881	-453
874.892	-537
874.965	-1078
874.999	-1134
875.048	-1243
875.107	-751
875.131	-548
875.215	-213
875.215	-213
875.298	-1058
875.323	-1074
875.381	-1088
875.430	-760
875.465	-569
875.538	-1326
875.548	-1421
875.631	-838
875.646	-876
875.714	-1078
875.753	-843
875.798	-574
875.861	-554
875.881	-547
875.964	-201
875.968	-247
876.047	-1078
876.076	-787
876.130	-155
876.183	-718
876.213	-1116
876.291	22
876.296	108
876.379	-256
876.398	-273
876.462	-414
876.506	-974
876.545	-1403
876.613	-529
876.628	-351
876.711	-1078
876.721	-922
876.794	307
876.828	-57
876.877	-597
876.935	-354
876.960	-204
877.043	-103
877.043	-102
877.125	222
877.150	180
877.208	156
877.258	66
877.291	-32
877.365	-585
877.374	-629
877.456	-72
877.472	-99
877.539	-286
877.579	-12
877.622	239
877.687	34
877.704	2
877.787	302
877.794	289
877.869	137
877.901	280
877.952	447
878.008	114
878.034	-65
878.115	-60
878.117	-51
878.199	-397
878.222	-195
878.282	185
878.329	216
878.364	292
878.437	226
878.447	210
878.529	41
878.544	91
878.611	142
878.651	79
878.694	146
878.758	223
878.776	264
878.858	344
878.865	327
878.941	-41
878.972	35
879.023	221
879.078	183
879.105	263
879.185	230
879.187	224
879.269	761
879.292	454
879.351	-46
879.399	62
879.433	-39
879.506	165
879.516	241
879.598	849
879.613	661
879.680	-220
879.720	74
879.762	402
879.827	358
879.844	299
879.926	360
879.933	316
880.007	391
880.040	622
880.089	869
880.147	719
880.171	687
880.253	1169
880.254	1162
880.335	1058
880.360	1598
880.417	3499
880.467	4000
880.499	4706
880.574	7441
880.580	7295
880.662	3080
880.680	2445
880.744	1421
880.787	248
880.825	-7
880.893	847
880.907	955
880.989	431
881.000	478
881.070	1017
881.106	791
881.152	363
881.213	455
881.233	554
881.315	291
881.319	327
881.396	902
881.426	617
881.478	323
881.532	833
881.559	1073
881.639	816
881.641	802
881.722	241
881.745	139
881.803	431
881.852	780
881.885	927
881.958	1009
881.966	1037
882.047	1003
882.064	950
882.129	751
882.171	956
882.210	1403
882.277	1980
882.291	1982
882.372	1984
882.383	1883
882.454	912
882.489	623
882.535	508
882.596	562
882.616	754
882.697	1503
882.702	1518
882.778	1207
882.808	1092
882.859	933
882.914	767
882.940	732
883.020	1039
883.021	1051
883.102	1340
883.127	1452
883.183	1374
883.233	1157
883.264	958
883.339	879
883.345	902
883.426	620
883.445	735
883.507	1391
883.551	1410
883.587	1265
883.657	1174
883.668	1193
883.749	1550
883.763	1576
883.830	1432
883.869	1180
883.910	1000
883.975	921
883.991	956
884.072	918
884.081	932
884.152	1321
884.187	1379
884.233	1540
884.292	2060
884.314	2003
884.394	1095
884.398	1051
884.475	1198
884.504	1370
884.555	1334
884.610	1115
884.636	1127
884.716	1076
884.716	1086
884.797	1145
884.821	1240
884.877	1269
884.927	1046
884.958	991
885.033	886
885.038	874
885.118	818
885.139	712
885.199	805
885.244	919
885.279	953
885.350	1037
885.359	1085
885.439	1352
885.456	1424
885.520	1306
885.561	1197
885.600	1300
885.667	1438
885.680	1479
885.760	1634
885.773	1653
885.840	1360
885.878	1221
885.920	1459
885.984	1527
886.000	1487
886.080	1786
886.089	1752
886.160	1566
886.195	1527
886.240	1621
886.300	1775
886.320	1716
886.400	1603
886.406	1566
886.480	1660
886.511	1782
886.560	1819
886.616	1699
886.640	1749
886.720	1938
886.722	1934
886.800	1407
886.827	1140
886.879	1175
886.932	1260
886.959	1676
887.038	3021
887.039	3024
887.119	1857
887.143	1576
887.198	1634
887.248	1525
887.278	1615
887.354	1947
887.358	1959
887.437	1862
887.459	1868
887.517	2237
887.564	2402
887.596	2316
887.669	2221
887.676	2215
887.755	1784
887.774	1735
887.835	1720
887.880	1603
887.914	1629
887.985	1642
887.994	1738
888.073	2430
888.090	2605
888.153	2612
888.195	2510
888.232	2597
888.300	2729
888.311	2673
888.391	2130
888.405	2034
888.470	1903
888.510	1772
888.549	1722
888.615	1663
888.628	1820
888.708	2592
888.720	2722
888.787	2574
888.825	2400
888.866	2362
888.930	2357
888.945	2416
889.024	2596
889.035	2611
889.103	2538
889.140	2465
889.182	2144
889.245	1677
889.261	1871
889.340	2745
889.349	2835
889.419	2667
889.454	2565
889.498	2626
889.559	2682
889.577	2733
889.656	2913
889.664	2920
889.735	2948
889.768	2939
889.814	2928
889.873	2890
889.978	2435
890.083	1949
890.187	2682
890.292	2763
890.397	2554
890.501	2453
890.606	2671
890.710	3088
890.815	3057
890.919	2761
891.024	2632
891.128	2122
891.233	2795
891.337	2823
891.442	2859
891.546	2022
891.650	2111
891.755	2189
891.859	3791
891.963	2579
892.068	2988
892.172	2183
892.276	2455
892.380	2369
892.484	2760
892.589	2164
892.693	2687
892.797	2037
892.901	2716
893.005	1338
893.109	2644
893.213	2908
893.317	2476
893.421	1783
893.525	1500
893.629	2295
893.733	2397
893.837	2313
893.941	2144
894.045	3314
894.148	4491
894.252	11624
894.356	6525
894.460	3404
894.564	2314
894.667	2457
894.771	2059
894.875	1849
894.978	2174
895.082	1983
895.186	2392
895.289	1987
895.393	2355
895.496	2486
895.600	2534
895.703	2041
895.807	2414
895.910	2761
896.014	2744
896.117	2141
896.221	2071
896.324	2227
896.427	1862
896.531	1986
896.634	2347
896.737	1931
896.840	2626
896.944	2494
897.047	2245
897.150	2309
897.253	2313
897.356	2228
897.460	1675
897.563	1033
897.666	2224
897.769	1668
897.872	2247
897.975	1600
898.078	2276
898.181	1529
898.284	2635
898.387	2405
898.490	2758
898.593	1361
898.695	1449
898.798	2457
898.901	1728
899.004	1501
899.107	2296
899.209	1963
899.312	2078
899.415	2743
899.518	1767
899.620	1263
899.723	2336
899.826	3744
899.928	2912
900.031	2195
900.133	2110
900.236	1972
900.338	1658
900.441	2398
900.543	2161
900.646	1337
900.748	2359
900.851	1718
900.953	1330
901.055	2017
901.158	1777
901.260	1668
901.362	2083
901.465	2125
901.567	1635
901.669	2029
901.771	1066
901.873	1595
901.976	1785
902.078	2075
902.180	1389
902.282	1777
902.384	1382
902.486	3172
902.588	2347
902.690	1994
902.792	1291
902.894	2087
902.996	2455
903.098	1805
903.200	1181
903.302	1672
903.404	2003
903.505	1648
903.607	2096
903.709	1696
903.811	1759
903.913	1048
904.014	2073
904.116	1248
904.218	2250
904.319	2421
904.421	2196
904.523	2352
904.624	2159
904.726	2233
904.827	2668
904.929	2286
905.030	2597
905.132	1662
905.233	2479
905.335	1620
905.436	1872
905.537	1057
905.639	2290
905.740	1939
905.841	2232
905.943	2213
906.044	2581
906.145	2008
906.247	1801
906.348	1755
906.449	2680
906.550	1334
906.651	2488
906.752	1972
906.854	1578
906.955	1297
907.056	1492
907.157	2073
907.258	1374
907.359	1832
907.460	2079
907.561	1595
907.662	2250
907.762	1348
907.863	1558
907.964	2379
908.065	2131
908.166	2365
908.267	1914
908.367	1218
908.468	1424
908.569	1998
908.670	1968
908.770	2709
908.871	2649
908.971	2098
909.072	2226
909.173	1067
909.273	1966
909.374	2209
909.474	1765
909.575	1846
909.675	1520
909.776	2891
909.876	1968
909.977	2379
910.077	2149
910.177	1961
910.278	1973
910.378	1329
910.478	2053
910.579	2137
910.679	1639
910.779	2096
910.879	1834
910.980	1599
911.080	1857
911.180	1418
911.280	2521
911.380	1614
911.480	1840
911.580	917
911.680	2314
911.780	1576
911.880	2179
911.980	1858
912.080	1542
912.180	1601
912.280	1814
912.380	1587
912.480	1328
912.580	1878
912.679	1402
912.779	2172
912.879	1758
912.979	1753
913.078	1515
913.178	1036
913.278	1535
913.377	1530
913.477	1082
913.577	1641
913.676	2236
913.776	1428
913.875	2262
913.975	1634
914.074	2074
914.174	1470
914.273	1892
914.373	2902
914.472	1822
914.572	1543
914.671	1581
914.770	2214
914.870	1413
914.969	1888
915.068	1286
915.167	1645
915.267	991
915.366	1988
915.465	1398
915.564	2075
915.663	1520
915.763	1512
915.862	2734
915.961	1732
916.060	2173
916.159	1834
916.258	1298
916.357	1416
916.456	1390
916.555	2230
916.654	1346
916.752	1889
916.851	1105
916.950	1570
917.049	1838
917.148	1087
917.247	2388
917.345	2428
917.444	1575
917.543	914
917.642	1025
917.740	2346
917.839	1530
917.937	2236
918.036	2553
918.135	1660
918.233	1427
918.332	1350
918.430	1926
918.529	937
918.627	1548
918.726	1668
918.824	1814
918.923	1777
919.021	1883
919.119	1476
919.218	1745
919.316	1268
919.414	1926
919.512	1806
919.611	2102
919.709	856
919.807	1579
919.905	2133
920.003	1342
920.102	1293
920.200	1353
920.298	1984
920.396	2337
920.494	1255
920.592	1758
920.690	1834
920.788	1562
920.886	2436
920.984	2405
921.082	1925
921.180	2483
921.277	1354
921.375	2202
921.473	2917
921.571	1658
921.669	2705
921.766	2396
921.864	1774
921.962	3019
922.060	2473
922.157	2496
922.255	2138
922.352	2772
922.450	2858
922.548	2210
922.645	3250
922.743	3800
922.840	4863
922.938	4705
923.035	4682
923.133	4291
923.230	5525
923.327	5927
923.425	5899
923.522	5105
923.619	5102
923.717	4356
923.814	4423
923.911	4199
924.008	5020
924.106	4832
924.203	4483
924.300	5176
924.397	4471
924.494	4885
924.591	3846
924.688	3808
924.786	3404
924.883	4434
924.979	3995
925.077	4051
925.173	4284
925.270	4358
925.367	4216
925.464	4805
925.561	4984
925.658	5070
925.755	4975
925.852	5679
925.948	5004
926.045	5131
926.142	4902
926.239	5143
926.335	4804
926.432	5218
926.529	5663
926.625	5546
926.722	4954
926.818	5315
926.915	4491
927.011	4204
927.108	4831
927.204	3489
927.301	3714
927.397	3779
927.494	3989
927.590	4021
927.687	3240
927.783	4764
927.879	4716
927.976	4695
928.072	2670
928.168	4326
928.264	3845
928.361	3857
928.457	4413
928.553	2942
928.649	4228
928.745	2818
928.841	3850
928.937	3454
929.033	3649
929.129	3636
929.225	4158
929.321	3086
929.417	3664
929.513	3716
929.609	3110
929.705	3075
929.801	3787
929.897	4241
929.993	3363
930.089	3527
930.184	3844
930.280	2512
930.376	4244
930.471	3369
930.567	3493
930.663	3277
930.758	4259
930.854	3053
930.950	4338
931.045	3268
931.141	2991
931.236	4106
931.332	2856
931.427	2789
931.523	3708
931.618	3974
931.714	2798
931.809	3533
931.905	4607
932.000	2221
932.095	1852
932.191	3206
932.286	3639
932.381	3315
932.476	3477
932.572	2779
932.667	3097
932.762	2531
932.857	4016
932.952	3970
933.047	3277
933.142	2485
933.237	2956
933.332	4484
933.427	3058
933.522	3370
933.617	2604
933.712	2880
933.807	3589
933.902	3353
933.997	3035
934.092	3073
934.187	3083
934.282	3021
934.376	3128
934.471	3209
934.566	2177
934.661	3364
934.755	2492
934.850	2874
934.945	3505
935.039	2825
935.134	2626
935.228	2995
935.323	4032
935.417	3075
935.512	2877
935.606	2402
935.701	3382
935.795	3238
935.890	2577
935.984	2951
936.079	2449
936.173	3210
936.267	3038
936.362	2454
936.456	2565
936.550	2924
936.644	2998
936.738	2136
936.833	3131
936.927	2907
937.021	3369
937.115	3131
937.209	2458
937.303	2802
937.397	2125
937.491	2753
937.585	2916
937.679	2670
937.773	2447
937.867	2453
937.961	1795
938.055	3215
938.149	2859
938.243	2619
938.337	2053
938.430	2311
938.524	3001
938.618	3358
938.712	3190
938.805	2351
938.899	3095
938.993	3785
939.086	2741
939.180	3614
939.274	5003
939.367	3243
939.461	3136
939.554	1795
939.648	2664
939.741	2555
939.835	2418
939.928	2211
940.022	2569
940.115	2152
940.208	2980
940.302	3594
940.395	3332
940.488	2464
940.582	2882
940.675	1505
940.768	1831
940.861	3490
940.954	2381
941.048	1933
941.141	1956
941.234	1925
941.327	2554
941.420	3428
941.513	1902
941.606	2280
941.699	2491
941.792	2033
941.885	2269
941.978	2289
942.071	2234
942.164	2344
942.257	1331
942.349	2381
942.442	2156
942.535	1464
942.628	1332
942.721	2523
942.813	1803
942.906	3282
942.999	2240
943.091	1630
943.184	2010
943.277	1842
943.369	1421
943.462	1802
943.554	2563
943.647	2272
943.739	2905
943.832	2073
943.924	1873
944.017	2400
944.109	2191
944.201	2149
944.294	1750
944.386	2073
944.478	1794
944.571	2083
944.663	2103
944.755	2301
944.847	1917
944.940	2292
945.032	1693
945.124	1855
945.216	1928
945.308	2054
945.400	1977
945.492	1992
945.584	2165
945.676	1327
945.768	2855
945.860	2764
945.952	1513
946.044	2611
946.136	2262
946.228	1778
946.320	2402
946.412	1752
946.503	1667
946.595	1465
946.687	1592
946.779	1755
946.870	1330
946.962	1821
947.054	2270
947.145	2366
947.237	1748
947.329	2015
947.420	1740
947.512	1512
947.603	1477
947.695	1752
947.786	1853
947.878	2105
947.969	1206
948.061	920
948.152	1300
948.243	1213
948.335	1399
948.426	1420
948.517	2007
948.609	1135
948.700	1470
948.791	2184
948.882	1685
948.973	1539
949.065	999
949.156	1788
949.247	923
949.338	1315
949.429	1372
949.520	2030
949.611	1170
949.702	2644
949.793	1723
949.884	1362
949.975	1982
950.066	1077
950.157	1413
950.247	1493
950.338	399
950.429	1754
950.520	1296
950.611	2206
950.701	1790
950.792	2349
950.883	1876
950.973	2087
951.064	1593
951.155	1139
951.245	2226
951.336	1638
951.427	1532
951.517	1999
951.608	1797
951.698	1604
951.788	1217
951.879	1718
951.969	946
952.060	1242
952.150	1583
952.240	2111
952.331	286
952.421	1997
952.511	1063
952.602	1505
952.692	1650
952.782	863
952.872	1664
952.962	1593
953.052	1566
953.143	1357
953.233	929
953.323	1225
953.413	1445
953.503	1485
953.593	1659
953.683	1720
953.773	454
953.863	749
953.953	546
954.042	1439
954.132	1293
954.222	1601
954.312	868
954.402	1178
954.492	938
954.581	2805
954.671	1281
954.761	978
954.850	1831
954.940	835
955.030	1989
955.119	621
955.209	926
955.298	1681
955.388	2328
955.477	1194
955.567	1448
955.656	1369
955.746	1613
955.835	1450
955.925	1434
956.014	839
956.103	764
956.193	2379
956.282	1717
956.371	1561
956.461	1443
956.550	1329
956.639	1647
956.728	666
956.817	1114
956.906	1134
956.995	2101
957.085	872
957.174	1911
957.263	1338
957.352	1573
957.441	1946
957.530	1635
957.619	1249
957.708	1651
957.796	1532
957.885	1787
957.974	1088
958.063	1480
958.152	1481
958.241	1330
958.329	1451
958.418	1784
958.507	1014
958.596	2322
958.684	2129
958.773	1941
958.861	1295
958.950	1479
959.039	2504
959.127	2051
959.216	2043
959.304	2159
959.393	1853
959.481	1787
959.570	1662
959.658	1727
959.746	1477
959.835	2192
959.923	3207
960.011	1784
960.100	2318
960.188	1890
960.276	1837
960.365	1527
960.453	1722
960.541	761
960.629	1551
960.717	1977
960.805	1093
960.893	1734
960.981	643
961.069	2314
961.158	1544
961.245	1711
961.333	830
961.421	1524
961.509	797
961.597	1262
961.685	1296
961.773	1232
961.861	938
961.949	1697
962.036	254
962.124	1581
962.212	751
962.299	713
962.387	678
962.475	702
962.562	962
962.650	1405
962.738	1572
962.825	71
962.913	1112
963.000	227
963.088	772
963.175	512
963.263	1074
963.350	994
963.438	1194
963.525	1170
963.612	2322
963.700	4517
963.787	7856
963.874	3893
963.962	1624
964.049	1135
964.136	894
964.223	677
964.310	1293
964.398	1037
964.485	1333
964.572	1635
964.659	1470
964.746	1151
964.833	679
964.920	259
965.007	1133
965.094	548
965.181	1121
965.268	768
965.355	824
965.441	146
965.528	660
965.615	1231
965.702	498
965.789	761
965.875	895
965.962	457
966.049	817
966.136	981
966.222	364
966.309	977
966.395	1382
966.482	862
966.569	1129
966.655	612
966.742	352
966.828	-61
966.915	-110
967.001	1303
967.087	370
967.174	501
967.260	1412
967.347	1825
967.433	3426
967.519	3927
967.605	2162
967.692	1313
967.778	872
967.864	-143
967.950	1086
968.036	126
968.123	-177
968.209	464
968.295	249
968.381	1584
968.467	986
968.553	440
968.639	1066
968.725	624
968.811	588
968.897	983
968.983	779
969.069	27
969.154	31
969.240	413
969.326	913
969.412	91
969.497	543
969.583	313
969.669	2009
969.755	673
969.840	311
969.926	1682
970.012	1108
970.097	2004
970.183	1337
970.268	1599
970.354	662
970.439	1823
970.525	3624
970.610	1412
970.696	1450
970.781	549
970.866	781
970.952	1209
971.037	288
971.122	110
971.208	978
971.293	1036
971.378	736
971.463	104
971.549	760
971.634	492
971.719	1062
971.804	655
971.889	1531
971.974	971
972.059	367
972.144	653
972.229	236
972.314	230
972.399	679
972.484	-298
972.569	955
972.654	625
972.739	1843
972.824	1635
972.908	897
972.993	163
973.078	1267
973.163	388
973.247	958
973.332	-532
973.417	1294
973.501	56
973.586	748
973.671	-137
973.755	647
973.840	1395
973.924	1074
974.009	1578
974.093	1015
974.178	1299
974.262	1942
974.346	1008
974.431	635
974.515	-206
974.600	147
974.684	1242
974.768	14
974.852	1078
974.937	384
975.021	607
975.105	561
975.189	275
975.273	542
975.358	-488
975.442	-262
975.526	1121
975.610	695
975.694	-469
975.778	1589
975.862	381
975.946	-26
976.030	979
976.114	70
976.198	775
976.281	456
976.365	628
976.449	527
976.533	787
976.617	784
976.700	277
976.784	-256
976.868	871
976.951	493
977.035	363
977.119	35
977.202	-209
977.286	1399
977.369	525
977.453	1427
977.536	1025
977.620	16
977.703	706
977.787	669
977.870	1188
977.953	731
978.037	-193
978.120	1063
978.203	1278
978.287	1482
978.370	703
978.453	250
978.536	24
978.620	639
978.703	55
978.786	190
978.869	415
978.952	472
979.035	1546
979.118	1162
979.201	-476
979.284	708
979.367	-354
979.450	819
979.533	-203
979.616	302
979.699	398
979.782	1041
979.865	-132
979.948	907
980.030	-213
980.113	41
980.196	-406
980.279	692
980.361	402
980.444	372
980.526	819
980.609	1308
980.692	960
980.774	629
980.857	-254
980.939	1357
981.022	760
981.104	104
981.187	162
981.269	585
981.352	1293
981.434	-68
981.516	-183
981.599	1526
981.681	156
981.763	777
981.846	350
981.928	491
982.010	403
982.092	-339
982.174	289
982.256	74
982.339	875
982.421	100
982.503	684
982.585	370
982.667	-426
982.749	709
982.831	129
982.913	58
982.995	863
983.077	477
983.158	595
983.240	-448
983.322	666
983.404	1511
983.486	372
983.568	1888
983.649	-28
983.731	1497
983.813	218
983.894	663
983.976	784
984.058	-179
984.139	974
984.221	287
984.302	1050
984.384	-57
984.465	-310
984.547	-157
984.628	53
984.710	1158
984.791	426
984.872	-174
984.954	867
985.035	539
985.116	439
985.198	102
985.279	1396
985.360	-10
985.441	1109
985.522	525
985.604	-278
985.685	-827
985.766	1083
985.847	1241
985.928	549
986.009	15
986.090	243
986.171	657
986.252	39
986.333	177
986.414	758
986.495	1002
986.576	-537
986.656	587
986.737	-67
986.818	789
986.899	163
986.980	171
987.060	593
987.141	-15
987.222	-9
987.302	873
987.383	168
987.464	130
987.544	152
987.625	703
987.705	490
987.786	462
987.866	492
987.947	246
988.027	-292
988.108	-328
988.188	751
988.268	1369
988.349	-28
988.429	237
988.509	853
988.589	600
988.670	-1146
988.750	890
988.830	646
988.910	1386
988.990	-372
989.070	314
989.151	47
989.231	641
989.311	325
989.391	307
989.471	40
989.551	420
989.631	319
989.711	1052
989.791	-796
989.870	-290
989.950	493
990.030	747
990.110	666
990.190	-134
990.269	542
990.349	-128
990.429	573
990.509	31
990.588	-26
990.668	798
990.747	-772
990.827	-100
990.907	1065
990.986	-527
991.066	1015
991.145	-426
991.225	93
991.304	-541
991.383	130
991.463	-38
991.542	546
991.622	151
991.701	383
991.780	-183
991.859	6
991.939	-317
992.018	471
992.097	882
992.176	-505
992.256	-561
992.335	-184
992.414	1253
992.493	-511
992.572	124
992.651	543
992.730	333
992.809	-41
992.888	-847
992.967	934
993.046	64
993.125	-894
993.203	117
993.282	-565
993.361	-33
993.440	117
993.519	-923
993.597	-357
993.676	-414
993.755	120
993.834	-382
993.912	-1244
993.991	32
994.069	-862
994.148	-168
994.226	-18
994.305	-324
994.384	-1086
994.462	986
994.540	-689
994.619	-550
994.697	-359
994.776	-563
994.854	-265
994.932	-827
995.011	907
995.089	-383
995.167	-812
995.245	4
995.324	-692
995.402	-155
995.480	-597
995.558	-493
995.636	-1324
995.714	-470
995.792	688
995.870	-718
995.948	-414
996.026	18
996.104	-988
996.182	382
996.260	-443
996.338	-1338
996.416	-355
996.494	-280
996.572	251
996.649	-558
996.727	-552
996.805	182
996.883	-671
996.960	-1353
997.038	43
997.116	-299
997.193	-661
997.271	-607
997.348	213
997.426	-1063
997.504	-717
997.581	-1252
997.658	-562
997.736	-14
997.813	186
997.891	-256
997.968	-305
998.046	-202
998.123	-569
998.200	31
998.277	-1577
998.355	73
998.432	-896
998.509	-73
998.586	203
998.663	-325
998.741	-299
998.818	-668
998.895	-668
998.972	100
999.049	-36
999.126	-404
999.203	-544
999.280	-735
999.357	-1249
999.434	-81
999.511	-644
999.587	-492
999.664	-1007
999.741	4
999.818	93
999.895	-266
999.971	-1001
1000.048	98
1000.125	-37
1000.202	-1146
1000.278	-1204
1000.355	93
1000.431	-10
1000.508	-1003
1000.584	-901
1000.661	529
1000.738	-1202
1000.814	-350
1000.890	-420
1000.967	-395
1001.043	-699
1001.120	-1375
1001.196	-309
1001.272	-627
1001.349	-686
1001.425	238
1001.501	-981
1001.577	-229
1001.654	-385
1001.730	-1019
1001.806	-169
1001.882	-1371
1001.958	-408
1002.034	-268
1002.110	-622
1002.186	-967
1002.262	-1534
1002.338	-885
1002.414	79
1002.490	-693
1002.566	-1207
1002.642	-789
1002.718	261
1002.794	-295
1002.870	-980
1002.945	-842
1003.021	-1455
1003.097	-889
1003.173	-278
1003.248	-1317
1003.324	-227
1003.400	-768
1003.475	-2066
1003.551	-930
1003.626	-229
1003.702	-1177
1003.777	-221
1003.853	-699
1003.928	-868
1004.004	-633
1004.079	-1570
1004.155	-1035
1004.230	-504
1004.305	-1190
1004.381	-964
1004.456	-812
1004.531	163
1004.607	-451
1004.682	-620
1004.757	-433
1004.832	-210
1004.907	-654
1004.982	-954
1005.057	-402
1005.133	-1029
1005.208	-803
1005.283	-1439
1005.358	-503
1005.433	-323
1005.508	474
1005.583	-955
1005.657	-720
1005.732	-131
1005.807	-963
1005.882	-1071
1005.957	-772
1006.032	-815
1006.106	82
1006.181	-865
1006.256	-109
1006.331	-1184
1006.405	-974
1006.480	-699
1006.554	-552
1006.629	-1141
1006.704	-1702
1006.778	-525
1006.853	-321
1006.927	-1009
1007.002	-1412
1007.076	-562
1007.150	-1541
1007.225	-412
1007.299	-855
1007.373	-1643
1007.448	-974
1007.522	-651
1007.596	-565
1007.671	-884
1007.745	-1097
1007.819	-1789
1007.893	-1584
1007.967	-322
1008.041	-1905
1008.115	-914
1008.190	-1288
1008.264	-525
1008.338	-1489
1008.412	-2021
1008.486	-302
1008.560	-667
1008.633	-875
1008.707	-927
1008.781	-764
1008.855	-722
1008.929	-831
1009.003	-1184
1009.076	-794
1009.150	-970
1009.224	-894
1009.298	-968
1009.371	-1182
1009.445	74
1009.519	-944
1009.592	-1649
1009.666	-672
1009.739	-662
1009.813	-1612
1009.886	102
1009.960	-1079
1010.033	-1993
1010.107	-647
1010.180	-1960
1010.253	-274
1010.327	-1477
1010.400	-1099
1010.473	-1123
1010.547	-496
1010.620	-1022
1010.693	-644
1010.766	-2051
1010.840	-498
1010.913	-1056
1010.986	-1388
1011.059	-490
1011.132	-516
1011.205	83
1011.278	-726
1011.351	-754
1011.424	-667
1011.497	-844
1011.570	-657
1011.643	-675
1011.716	-957
1011.789	-1587
1011.862	-1127
1011.934	-238
1012.007	-1361
1012.080	-83
1012.153	-1697
1012.225	-427
1012.298	-933
1012.371	-1177
1012.443	-1048
1012.516	-1456
1012.588	-879
1012.661	-1050
1012.733	-1430
1012.806	-667
1012.879	-1052
1012.951	-926
1013.023	-742
1013.096	-1156
1013.168	-1739
1013.241	-396
1013.313	-915
1013.385	-1770
1013.458	-488
1013.530	-1529
1013.602	-1500
1013.674	-178
1013.746	-197
1013.819	-1556
1013.891	-738
1013.963	-1140
1014.035	-417
1014.107	-1093
1014.179	-874
1014.251	-1540
1014.323	-882
1014.395	-1102
1014.467	-830
1014.539	-1140
1014.611	-875
1014.683	-782
1014.754	79
1014.826	-1868
1014.898	-709
1014.970	-1241
1015.042	-834
1015.113	-1302
1015.185	-804
1015.257	-1538
1015.328	-1214
1015.400	-1696
1015.471	-1208
1015.543	-1641
1015.615	-839
1015.686	-965
1015.757	-1210
1015.829	-1023
1015.901	-1239
1015.972	-1232
1016.043	-1438
1016.115	-992
1016.186	-957
1016.257	-1390
1016.328	-865
1016.400	-771
1016.471	-1953
1016.542	-698
1016.613	-1922
1016.685	-1141
1016.756	-643
1016.827	-1248
1016.898	-1984
1016.969	-202
1017.040	-1012
1017.111	-735
1017.182	-1725
1017.253	-1585
1017.324	-1037
1017.395	-1450
1017.466	-1834
1017.537	-1350
1017.608	-831
1017.678	-1807
1017.749	-1389
1017.820	-700
1017.891	-1741
1017.961	-1240
1018.032	-1693
1018.103	-481
1018.173	-669
1018.244	-1602
1018.315	-341
1018.385	-972
1018.456	-1647
1018.526	-1927
1018.597	-1108
1018.667	-875
1018.738	-1283
1018.808	-1315
1018.878	-1382
1018.949	-1937
1019.019	-1351
1019.089	-1323
1019.160	-1453
1019.230	-1585
1019.300	-1469
1019.371	-1385
1019.441	-1334
1019.511	-1239
1019.581	-761
1019.651	-1946
1019.721	-1217
1019.791	-1197
1019.861	-1512
1019.931	-1121
1020.001	-1359
1020.071	-1070
1020.141	-2180
1020.211	-1628
1020.281	-2106
1020.351	-1459
1020.421	-1439
1020.491	-536
1020.560	-1666
1020.630	-1121
1020.700	-1544
1020.770	-1060
1020.839	-1382
1020.909	-1314
1020.979	-1597
1021.048	-876
1021.118	-1490
1021.187	-1660
1021.257	-1810
1021.326	-402
1021.396	-1190
1021.465	-1338
1021.535	-1142
1021.604	-1862
1021.674	-1345
1021.743	-1171
1021.812	-1578
1021.882	-911
1021.951	-1623
1022.020	-1562
1022.089	-629
1022.159	-1038
1022.228	-1568
1022.297	-1122
1022.366	-1365
1022.435	-2112
1022.504	-1493
1022.573	-2420
1022.642	-1732
1022.711	-1627
1022.781	-1618
1022.849	-982
1022.918	-1714
1022.987	-1740
1023.056	-1788
1023.125	-976
1023.194	-1751
1023.263	-855
1023.331	-732
1023.400	-2554
1023.469	-1612
1023.538	-1266
1023.606	-1948
1023.675	-1543
1023.744	-1766
1023.812	-1845
1023.881	-1367
1023.949	-1194
1024.018	-1935
1024.086	-1541
1024.155	-1252
1024.223	-1588
1024.292	-1298
1024.360	-1156
1024.429	-1953
1024.497	-1642
1024.565	-1714
1024.634	-892
1024.702	-2061
1024.770	-1685
1024.838	-2266
1024.907	-1149
1024.975	-1565
1025.043	-1540
1025.111	-1760
1025.179	-1571
1025.247	-1954
1025.315	-2417
1025.383	-1120
1025.451	-1262
1025.519	-1772
1025.587	-1488
1025.655	-1244
1025.723	-2283
1025.791	-1217
1025.859	-2134
1025.927	-1229
1025.995	-1646
1026.062	-1178
1026.130	-1985
1026.198	-1543
1026.266	-1793
1026.333	-1830
1026.401	-880
1026.469	-2444
1026.536	-1722
1026.604	-1151
1026.671	-2214
1026.739	-1746
1026.806	-1461
1026.874	-1411
1026.941	-1612
1027.009	-1041
1027.076	-1676
1027.144	-1424
1027.211	-1941
1027.278	-2063
1027.345	-1058
1027.413	-1154
1027.480	-1831
1027.547	-1954
1027.614	-2338
1027.682	-1375
1027.749	-1155
1027.816	-1759
1027.883	-1545
1027.950	-2671
1028.017	-2664
1028.084	-1581
1028.151	-1626
1028.218	-2918
1028.285	-1448
1028.352	-1655
1028.419	-1780
1028.486	-1740
1028.553	-1099
1028.619	-2184
1028.686	-1624
1028.753	-1759
1028.820	-2274
1028.886	-2237
1028.953	-1578
1029.020	-1164
1029.086	-1792
1029.153	-1502
1029.220	-1535
1029.286	-1583
1029.353	-1034
1029.419	-1468
1029.486	-2261
1029.552	-2136
1029.619	-1929
1029.685	-1722
1029.751	-1815
1029.818	-759
1029.884	-1958
1029.951	-1138
1030.017	-2044
1030.083	-1302
1030.149	-1028
1030.216	-1638
1030.282	-1136
1030.348	-1633
1030.414	-1789
1030.480	-1500
1030.546	-1011
1030.612	-1332
1030.678	-2217
1030.744	-1267
1030.810	-2140
1030.876	-2083
1030.942	-2540
1031.008	-2050
1031.074	-1189
1031.140	-2637
1031.206	-1149
1031.272	-1946
1031.337	-2250
1031.403	-1807
1031.469	-1585
1031.534	-2280
1031.600	-1856
1031.666	-1770
1031.731	-2244
1031.797	-1659
1031.863	-2061
1031.928	-1612
1031.994	-2122
1032.059	-1523
1032.125	-1443
1032.190	-1600
1032.256	-1892
1032.321	-1462
1032.386	-1225
1032.452	-1350
1032.517	-1650
1032.582	-2015
1032.647	-1425
1032.713	-1387
1032.778	-1715
1032.843	-1778
1032.908	-1483
1032.974	-1628
1033.039	-1671
1033.104	-1447
1033.169	-2458
1033.234	-2093
1033.299	-861
1033.364	-1138
1033.429	-1703
1033.494	-1296
1033.559	-2087
1033.624	-1748
1033.688	-1653
1033.753	-2167
1033.818	-1993
1033.883	-1546
1033.948	-960
1034.013	-1422
1034.077	-1985
1034.142	-647
1034.207	-1206
1034.271	-29
1034.336	576
1034.400	-853
1034.465	-351
1034.530	-824
1034.594	-1352
1034.658	-1004
1034.723	-1984
1034.787	-648
1034.852	-1318
1034.916	-1717
1034.981	-1985
1035.045	-843
1035.109	-1875
1035.173	-1486
1035.238	-1503
1035.302	-1795
1035.366	-1863
1035.430	-1267
1035.495	-2033
1035.559	-1387
1035.623	-1636
1035.687	-1662
1035.751	-2067
1035.815	-1655
1035.879	-1584
1035.943	-1820
1036.007	-2185
1036.071	-1355
1036.135	-1868
1036.198	-1706
1036.262	-1664
1036.326	-2065
1036.390	-999
1036.454	-1707
1036.517	-1498
1036.581	-1485
1036.645	-1116
1036.709	-446
1036.772	-1997
1036.836	-1158
1036.900	-1590
1036.963	-2094
1037.026	-1659
1037.090	-1491
1037.154	-1238
1037.217	-1987
1037.280	-2014
1037.344	-1263
1037.407	-1828
1037.471	-2207
1037.534	-1386
1037.597	-1763
1037.661	-1521
1037.724	-1803
1037.787	-1847
1037.850	-2627
1037.913	-1485
1037.977	-1132
1038.040	-1929
1038.103	-1936
1038.166	-1346
1038.229	-1122
1038.292	-2234
1038.355	-1383
1038.418	-1623
1038.481	-1729
1038.544	-860
1038.607	-1634
1038.670	-1879
1038.732	-1325
1038.795	-1741
1038.858	-1593
1038.921	-2465
1038.984	-1303
1039.046	-1506
1039.109	-1219
1039.172	-2662
1039.234	-1532
1039.297	-1992
1039.360	-1803
1039.422	-1866
1039.485	-1825
1039.547	-2402
1039.610	-1195
1039.672	-1872
1039.734	-1237
1039.797	-1879
1039.859	-1723
1039.922	-1211
1039.984	-1059
1040.046	-1442
1040.109	-1687
1040.171	-1389
1040.233	-1640
1040.295	-1506
1040.358	-1574
1040.420	-1803
1040.482	-1892
1040.544	-2693
1040.606	-1110
1040.668	-1735
1040.730	-1531
1040.792	-1578
1040.854	-1773
1040.916	-1769
1040.978	-1717
1041.040	-1251
1041.102	-2009
1041.164	-2142
1041.225	-1345
1041.287	-1630
1041.349	-1818
1041.411	-1807
1041.472	-2218
1041.534	-1174
1041.596	-1436
1041.657	-1879
1041.719	-1125
1041.781	-791
1041.842	-1646
1041.904	-1901
1041.965	-2047
1042.027	-1671
1042.088	-1004
1042.150	-2132
1042.211	-1020
1042.272	-1848
1042.334	-2021
1042.395	-1150
1042.456	-1478
1042.518	-1875
1042.579	-1518
1042.640	-1651
1042.701	-1410
1042.763	-1654
1042.824	-1420
1042.885	-2018
1042.946	-1711
1043.007	-2065
1043.068	-1945
1043.129	-1477
1043.190	-1547
1043.251	-1300
1043.312	-1500
1043.373	-1855
1043.434	-1887
1043.495	-2097
1043.556	-911
1043.616	-1650
1043.677	-1997
1043.738	-1720
1043.799	-1584
1043.859	-1414
1043.920	-2398
1043.981	-1443
1044.041	-1757
1044.102	-1834
1044.162	-2175
1044.223	-1802
1044.284	-2271
1044.344	-1961
1044.405	-911
1044.465	-2006
1044.525	-1560
1044.586	-1075
1044.646	-1267
1044.707	-1426
1044.767	-1605
1044.827	-1877
1044.887	-1924
1044.948	-1741
1045.008	-1244
1045.068	-1875
1045.128	-1912
1045.188	-2423
1045.249	-790
1045.309	-1613
1045.369	-1655
1045.429	-1200
1045.489	-2086
1045.549	-1619
1045.609	-1547
1045.669	-1046
1045.729	-1633
1045.789	-1595
1045.848	-2055
1045.908	-1268
1045.968	-1849
1046.028	-1012
1046.088	-2218
1046.147	-1660
1046.207	-1028
1046.267	-1130
1046.326	-1097
1046.386	-789
1046.446	-873
1046.505	-1759
1046.565	-575
1046.624	-1009
1046.684	-916
1046.743	-622
1046.803	-625
1046.862	-266
1046.922	0
