'Start Wavelength	183.907
'End Wavelength	1046.922
'Gate Delay	5.000
'Gate Width (ms)	1.050
'Laser Output Level	0.000
'X Position	0.000
'Y Position	0.000
'Z Position	0.000
'Grid Point Number	1.000
'Shot Number	100.000
183.907	351.000
183.977	54.000
184.047	-372
184.116	7
184.186	575
184.256	-96
184.325	-392
184.395	-159
184.465	769
184.534	-235
184.604	88
184.674	11
184.743	88
184.813	466
184.883	123
184.952	585
185.022	498
185.092	280
185.161	-72
185.231	179
185.301	633
185.370	205
185.440	509
185.509	364
185.579	677
185.649	199
185.718	479
185.788	753
185.857	-323
185.927	-329
185.996	295
186.066	454
186.136	71
186.205	187
186.275	227
186.344	731
186.414	350
186.483	-314
186.553	578
186.622	624
186.692	99
186.761	336
186.831	1123
186.900	-60
186.970	396
187.039	534
187.109	1382
187.178	1019
187.248	-181
187.317	1029
187.387	140
187.456	-69
187.526	786
187.595	260
187.664	1068
187.734	485
187.803	1119
187.873	415
187.942	1181
188.012	332
188.081	-403
188.150	409
188.220	567
188.289	807
188.358	169
188.428	244
188.497	-58
188.567	52
188.636	542
188.705	158
188.775	-777
188.844	-288
188.913	923
188.983	671
189.052	321
189.121	795
189.191	885
189.260	478
189.329	597
189.399	710
189.468	802
189.537	178
189.606	642
189.676	665
189.745	1209
189.814	293
189.883	684
189.953	714
190.022	781
190.091	1762
190.161	2816
190.230	973
190.299	725
190.368	787
190.437	-265
190.507	323
190.576	323
190.645	101
190.714	466
190.783	558
190.853	1062
190.922	256
190.991	252
191.060	968
191.129	734
191.198	928
191.268	945
191.337	46
191.406	1097
191.475	266
191.544	-132
191.613	167
191.682	262
191.752	79
191.821	489
191.890	-38
191.959	308
192.028	-313
192.097	1026
192.166	353
192.235	-151
192.304	948
192.373	403
192.442	365
192.511	172
192.580	767
192.650	396
192.719	599
192.788	557
192.857	793
192.926	827
192.995	558
193.064	1224
193.133	1767
193.202	1618
193.271	1366
193.340	1518
193.409	1453
193.478	1817
193.547	2341
193.615	2768
193.684	3000
193.753	2160
193.822	1597
193.891	792
193.960	839
194.029	1550
194.098	713
194.167	683
194.236	774
194.305	232
194.374	608
194.443	870
194.512	584
194.580	867
194.649	829
194.718	1064
194.787	529
194.856	463
194.925	298
194.994	1275
195.062	624
195.131	691
195.200	836
195.269	1521
195.338	810
195.407	570
195.475	196
195.544	1861
195.613	626
195.682	578
195.751	1175
195.819	1153
195.888	744
195.957	1954
196.026	1455
196.094	1337
196.163	832
196.232	1396
196.301	1097
196.369	1298
196.438	1009
196.507	1630
196.576	1112
196.644	797
196.713	1366
196.782	363
196.850	276
196.919	446
196.988	412
197.056	119
197.125	553
197.194	1074
197.262	777
197.331	1175
197.400	-151
197.468	855
197.537	345
197.606	1069
197.674	2107
197.743	2107
197.812	1067
197.880	2866
197.949	1676
198.017	2991
198.086	2161
198.155	596
198.223	1315
198.292	3119
198.360	1086
198.429	1098
198.497	978
198.566	1311
198.635	2080
198.703	1252
198.772	1111
198.840	3006
198.909	2212
198.977	1020
199.046	367
199.114	950
199.183	1091
199.251	766
199.320	751
199.388	1039
199.457	812
199.525	1578
199.594	1364
199.662	948
199.731	1451
199.799	1256
199.867	1095
199.936	1313
200.004	254
200.073	1587
200.141	735
200.210	450
200.278	843
200.346	766
200.415	617
200.483	1955
200.552	1372
200.620	1162
200.688	1170
200.757	1249
200.825	982
200.893	1632
200.962	1275
201.030	1437
201.098	622
201.167	1102
201.235	1314
201.303	1494
201.372	1282
201.440	1326
201.508	881
201.577	1714
201.645	1011
201.713	1106
201.781	433
201.850	1653
201.918	1104
201.986	1174
202.055	1131
202.123	1081
202.191	648
202.259	1011
202.327	1205
202.396	1764
202.464	1069
202.532	1531
202.600	3935
202.669	2661
202.737	612
202.805	1398
202.873	1811
202.941	1660
203.009	886
203.078	678
203.146	1482
203.214	1689
203.282	294
203.350	1026
203.418	577
203.487	1829
203.555	499
203.623	1169
203.691	1275
203.759	1452
203.827	847
203.895	944
203.963	83
204.031	1470
204.099	1658
204.168	1194
204.236	758
204.304	1863
204.372	1671
204.440	918
204.508	1095
204.576	1087
204.644	1279
204.712	1729
204.780	1087
204.848	1404
204.916	779
204.984	903
205.052	744
205.120	1674
205.188	1133
205.256	1299
205.324	1199
205.392	1445
205.460	2116
205.528	1909
205.596	837
205.664	1713
205.732	1615
205.799	3699
205.867	5608
205.935	1738
206.003	2045
206.071	1348
206.139	1752
206.207	1400
206.275	967
206.343	1315
206.411	1545
206.478	2018
206.546	1833
206.614	1329
206.682	1969
206.750	1725
206.818	2438
206.885	1588
206.953	954
207.021	2492
207.089	803
207.157	877
207.225	789
207.292	1194
207.360	1932
207.428	2143
207.496	913
207.563	1658
207.631	2039
207.699	2009
207.767	1938
207.834	1045
207.902	1148
207.970	2053
208.038	1247
208.105	1790
208.173	2060
208.241	2134
208.309	2014
208.376	2281
208.444	3944
208.512	2060
208.579	1760
208.647	2383
208.715	2414
208.782	2073
208.850	2066
208.918	2014
208.985	2338
209.053	1254
209.120	1875
209.188	1284
209.256	2741
209.323	1320
209.391	2906
209.459	2455
209.526	2417
209.594	1686
209.661	1964
209.729	1925
209.796	2453
209.864	2179
209.932	859
209.999	2600
210.067	2396
210.134	2473
210.202	2111
210.269	3261
210.337	2578
210.404	2450
210.472	1886
210.539	2746
210.607	1676
210.674	3170
210.742	2376
210.809	2549
210.877	2697
210.944	2634
211.012	1848
211.079	3546
211.146	2206
211.214	3172
211.281	2138
211.349	3243
211.416	1683
211.484	1941
211.551	2344
211.618	3176
211.686	1510
211.753	2239
211.821	2052
211.888	2913
211.955	2788
212.023	2114
212.090	2037
212.157	2374
212.225	2675
212.292	4663
212.359	8190
212.427	13590
212.494	7182
212.561	3561
212.629	2523
212.696	3194
212.763	2295
212.831	2687
212.898	2390
212.965	2243
213.032	2720
213.100	2747
213.167	2424
213.234	3495
213.301	2859
213.369	3259
213.436	2264
213.503	1998
213.570	2631
213.638	2944
213.705	2118
213.772	2478
213.839	2547
213.906	3043
213.973	2738
214.041	2571
214.108	2308
214.175	2500
214.242	2197
214.309	2836
214.376	2459
214.444	3444
214.511	3550
214.578	2151
214.645	2816
214.712	2923
214.779	2827
214.846	3087
214.913	4304
214.980	3013
215.048	3923
215.115	4908
215.182	3483
215.249	3117
215.316	2482
215.383	3287
215.450	2549
215.517	2926
215.584	3360
215.651	2430
215.718	2145
215.785	2714
215.852	3064
215.919	2871
215.986	3287
216.053	2172
216.120	2201
216.187	3013
216.254	3147
216.321	3595
216.388	3134
216.455	3210
216.522	3171
216.589	3264
216.656	4673
216.722	5012
216.789	4253
216.856	4520
216.923	3637
216.990	3822
217.057	4394
217.124	5153
217.191	3646
217.258	6258
217.324	5819
217.391	6298
217.458	4930
217.525	3452
217.592	3455
217.659	3606
217.725	3848
217.792	4582
217.859	4418
217.926	2363
217.993	2387
218.059	2530
218.126	2930
218.193	2417
218.260	2168
218.327	1751
218.393	2280
218.460	2023
218.527	1545
218.594	2322
218.660	2981
218.727	3920
218.794	1625
218.860	2584
218.927	1651
218.994	2649
219.061	2306
219.127	3150
219.194	3713
219.261	2307
219.327	1703
219.394	2205
219.461	1224
219.527	2506
219.594	2650
219.661	2062
219.727	915
219.794	1669
219.860	1104
219.927	3087
219.994	3579
220.060	5226
220.127	4573
220.193	3311
220.260	4384
220.326	6495
220.393	8052
220.460	9522
220.526	6929
220.593	5373
220.659	5841
220.726	6507
220.792	10292
220.859	10134
220.925	13206
220.992	15511
221.058	14494
221.125	12794
221.191	9080
221.258	4417
221.324	3965
221.391	3986
221.457	2475
221.524	3214
221.590	3593
221.657	9934
221.723	7151
221.789	6916
221.856	6836
221.922	3752
221.989	2953
222.055	2553
222.121	1982
222.188	3394
222.254	2898
222.321	2027
222.387	1662
222.453	1939
222.520	2003
222.586	1734
222.652	1868
222.719	1675
222.785	1676
222.851	1686
222.918	1333
222.984	2331
223.050	1682
223.116	1347
223.183	2202
223.249	1139
223.315	1493
223.382	2223
223.448	1474
223.514	1771
223.580	1371
223.647	2651
223.713	742
223.779	2517
223.845	1561
223.911	2535
223.978	1685
224.044	1978
224.110	986
224.176	1760
224.242	1419
224.309	886
224.375	1565
224.441	1657
224.507	1835
224.573	2242
224.639	1914
224.705	619
224.772	1333
224.838	1781
224.904	1882
224.970	1302
225.036	1613
225.102	1431
225.168	2350
225.234	1374
225.300	1111
225.366	1593
225.432	1591
225.499	1141
225.565	1226
225.631	2533
225.697	2034
225.763	3060
225.829	3124
225.895	4378
225.961	4508
226.027	4647
226.093	3980
226.159	5684
226.225	9442
226.291	19089
226.357	23642
226.423	13871
226.489	9099
226.554	6911
226.620	5501
226.686	8427
226.752	11335
226.818	18257
226.884	31068
226.950	26804
227.016	13996
227.082	8552
227.148	6364
227.214	6142
227.279	4202
227.345	4092
227.411	3571
227.477	3325
227.543	6175
227.609	7048
227.674	4396
227.740	3365
227.806	3629
227.872	3009
227.938	3409
228.003	4445
228.069	3543
228.135	2464
228.201	1665
228.267	2594
228.332	3158
228.398	3425
228.464	2512
228.530	1478
228.595	1945
228.661	1530
228.727	3443
228.792	2868
228.858	1670
228.924	1919
228.990	2768
229.055	2839
229.121	4116
229.187	2304
229.252	1622
229.318	1767
229.384	1871
229.449	2792
229.515	831
229.581	1001
229.646	2915
229.712	2777
229.777	4603
229.843	5042
229.909	4281
229.974	4454
230.040	3841
230.105	2774
230.171	3006
230.236	4501
230.302	5741
230.368	5256
230.433	3361
230.499	3429
230.564	4034
230.630	2118
230.695	2476
230.761	2865
230.826	1656
230.892	4126
230.957	1481
231.023	1548
231.088	2140
231.154	2668
231.219	2439
231.284	4033
231.350	4025
231.415	2215
231.481	2514
231.546	2257
231.612	1809
231.677	1616
231.742	996
231.808	2910
231.873	1889
231.939	1886
232.004	3017
232.069	3755
232.135	2450
232.200	2501
232.265	1573
232.331	1198
232.396	1087
232.461	1546
232.527	1301
232.592	1963
232.657	1998
232.723	3093
232.788	1992
232.853	2416
232.918	1640
232.984	1398
233.049	1331
233.114	1864
233.179	2868
233.245	4217
233.310	3968
233.375	1364
233.440	974
233.506	2014
233.571	2257
233.636	1142
233.701	1957
233.766	3434
233.832	3565
233.897	1867
233.962	1622
234.027	2882
234.092	2363
234.157	2346
234.222	1932
234.288	3932
234.353	9504
234.418	8658
234.483	5808
234.548	3978
234.613	2617
234.678	3510
234.743	3531
234.808	9860
234.873	5632
234.938	3994
235.004	3160
235.069	2804
235.134	2254
235.199	3485
235.264	2448
235.329	2124
235.394	2571
235.459	3639
235.524	2941
235.589	2682
235.654	2181
235.719	1805
235.784	2019
235.849	3264
235.913	5811
235.978	6790
236.043	6150
236.108	3688
236.173	2710
236.238	4289
236.303	2477
236.368	3555
236.433	5099
236.498	7148
236.563	7291
236.627	16121
236.692	40697
236.757	33658
236.822	15351
236.887	10009
236.952	9422
237.017	6553
237.081	8041
237.146	10740
237.211	23204
237.276	41235
237.341	51905
237.405	30383
237.470	15003
237.535	9781
237.600	7413
237.664	5919
237.729	4580
237.794	6881
237.859	13937
237.923	7931
237.988	4519
238.053	6240
238.118	6092
238.182	14467
238.247	10707
238.312	6174
238.376	4603
238.441	3340
238.506	4289
238.570	1910
238.635	2926
238.700	3094
238.764	2992
238.829	6807
238.893	6355
238.958	4736
239.023	3783
239.087	2994
239.152	3310
239.216	2394
239.281	2853
239.346	3081
239.410	1819
239.475	2799
239.539	12584
239.604	7792
239.668	4172
239.733	2904
239.797	5107
239.862	9975
239.926	11048
239.991	4793
240.055	3665
240.120	2569
240.184	2919
240.249	2455
240.313	1798
240.378	3334
240.442	7913
240.507	10465
240.571	3183
240.635	5861
240.700	6768
240.764	3201
240.829	1772
240.893	1702
240.957	2440
241.022	7455
241.086	10988
241.151	5150
241.215	960
241.279	4361
241.344	5961
241.408	3720
241.472	2775
241.537	3803
241.601	3615
241.665	2896
241.730	2596
241.794	3083
241.858	3241
241.922	3597
241.987	3276
242.051	2476
242.115	2586
242.179	2706
242.244	2288
242.308	3608
242.372	3660
242.436	3749
242.501	2697
242.565	3360
242.629	2844
242.693	2885
242.757	1674
242.822	2596
242.886	3245
242.950	2906
243.014	3400
243.078	4309
243.142	3770
243.206	2908
243.271	3578
243.335	4493
243.399	7024
243.463	24175
243.527	48482
243.591	15030
243.655	6831
243.719	4500
243.783	5599
243.847	8647
243.911	10128
243.975	11622
244.040	6454
244.104	4620
244.168	3899
244.232	6606
244.296	8327
244.360	8600
244.424	4353
244.488	3272
244.552	3199
244.615	2244
244.679	2796
244.743	3999
244.807	3891
244.871	3217
244.935	2698
244.999	1646
245.063	2379
245.127	3782
245.191	6656
245.255	6736
245.319	4827
245.383	4095
245.446	3616
245.510	1918
245.574	2834
245.638	3334
245.702	2590
245.766	8617
245.829	4768
245.893	3813
245.957	2912
246.021	4897
246.085	3389
246.149	4420
246.212	12074
246.276	14919
246.340	6514
246.404	5447
246.467	5565
246.531	7914
246.595	5705
246.659	5403
246.722	4288
246.786	6605
246.850	6743
246.913	7111
246.977	3854
247.041	4234
247.104	4077
247.168	4385
247.232	11253
247.295	21287
247.359	9796
247.423	5751
247.486	10749
247.550	5518
247.614	4582
247.677	6940
247.741	3719
247.804	3491
247.868	5169
247.932	10342
247.995	18873
248.059	7142
248.122	3705
248.186	6558
248.249	11489
248.313	33541
248.376	31546
248.440	20725
248.503	7553
248.567	8287
248.630	10392
248.694	15626
248.757	18980
248.821	33474
248.884	19947
248.948	20114
249.011	27482
249.075	38737
249.138	32770
249.202	13297
249.265	8162
249.328	10699
249.392	8203
249.455	7213
249.519	6092
249.582	7605
249.645	13840
249.709	12034
249.772	11817
249.835	8336
249.899	6213
249.962	6347
250.025	5886
250.089	15225
250.152	16950
250.215	10080
250.279	7566
250.342	8260
250.405	6027
250.468	5774
250.532	8855
250.595	15757
250.658	50236
250.721	67211
250.785	27725
250.848	15837
250.911	9782
250.974	10202
251.038	12806
251.101	21132
251.164	11457
251.227	12636
251.290	12096
251.354	20632
251.417	66017
251.480	59964
251.543	52616
251.606	104620
251.669	78970
251.732	37814
251.795	35966
251.859	37088
251.922	72322
251.985	41768
252.048	17827
252.111	12970
252.174	12715
252.237	23879
252.300	42654
252.363	52303
252.426	80938
252.489	37672
252.552	20434
252.615	14660
252.678	16225
252.741	33593
252.804	48516
252.867	87982
252.930	53757
252.993	28783
253.056	18641
253.119	13874
253.182	11751
253.245	20164
253.308	13581
253.371	12846
253.434	11586
253.497	10942
253.559	19792
253.622	13606
253.685	17533
253.748	15928
253.811	8316
253.874	10588
253.937	9932
254.000	8016
254.062	15010
254.125	20441
254.188	21077
254.251	16387
254.314	8453
254.376	16113
254.439	16356
254.502	14067
254.565	15743
254.628	24685
254.690	14920
254.753	7767
254.816	6417
254.878	7927
254.941	15209
255.004	14306
255.067	6856
255.129	7372
255.192	4723
255.255	3703
255.317	4637
255.380	4370
255.443	3037
255.505	3449
255.568	2356
255.631	3285
255.693	3717
255.756	1742
255.819	3598
255.881	2746
255.944	3029
256.006	2819
256.069	3518
256.132	2544
256.194	4809
256.257	10201
256.319	7177
256.382	6767
256.444	4938
256.507	4909
256.569	4292
256.632	5521
256.694	8068
256.757	27217
256.819	67751
256.882	28488
256.944	11667
257.007	9268
257.069	8545
257.132	6192
257.194	6000
257.257	5151
257.319	5536
257.381	7017
257.444	20449
257.506	77297
257.569	77413
257.631	32701
257.693	17584
257.756	10258
257.818	7546
257.880	5806
257.943	4648
258.005	4229
258.067	3906
258.130	4461
258.192	5897
258.254	10648
258.317	4977
258.379	4993
258.441	11244
258.503	10913
258.566	14941
258.628	16482
258.690	4289
258.753	5835
258.815	9001
258.877	6187
258.939	4453
259.001	3652
259.064	3340
259.126	5391
259.188	5466
259.250	4766
259.312	5245
259.375	9811
259.437	6229
259.499	4543
259.561	3761
259.623	4420
259.685	3865
259.747	4644
259.809	13825
259.872	22662
259.934	37195
259.996	28138
260.058	8589
260.120	3988
260.182	3676
260.244	4070
260.306	2355
260.368	4171
260.430	3166
260.492	7664
260.554	11573
260.616	7596
260.678	19531
260.740	21321
260.802	6544
260.864	6028
260.926	3291
260.988	4799
261.050	4239
261.112	11585
261.174	26754
261.236	17019
261.298	6740
261.359	10927
261.421	13762
261.483	4669
261.545	4877
261.607	2415
261.669	3458
261.731	7875
261.793	17055
261.854	7107
261.916	4705
261.978	4598
262.040	4498
262.102	3352
262.164	6825
262.225	4823
262.287	3437
262.349	11701
262.411	7892
262.472	4152
262.534	8364
262.596	13524
262.658	4472
262.719	3373
262.781	6054
262.843	13105
262.904	6279
262.966	5249
263.028	7158
263.090	35632
263.151	73683
263.213	22707
263.275	12545
263.336	6357
263.398	4266
263.459	3209
263.521	3250
263.583	8975
263.644	6696
263.706	2920
263.767	2156
263.829	2727
263.891	1172
263.952	1384
264.014	1705
264.075	5215
264.137	11319
264.198	6025
264.260	2189
264.321	2571
264.383	9864
264.444	19119
264.506	5949
264.567	4089
264.629	8888
264.690	14764
264.752	5594
264.813	4340
264.875	2360
264.936	2937
264.998	2648
265.059	2570
265.120	3112
265.182	8469
265.243	40643
265.305	35498
265.366	9685
265.427	5557
265.489	4748
265.550	2972
265.611	3597
265.673	3226
265.734	2094
265.795	2042
265.857	2531
265.918	4189
265.979	13238
266.040	63347
266.102	47386
266.163	13810
266.224	10421
266.286	6177
266.347	3581
266.408	3772
266.469	3802
266.530	2973
266.592	2954
266.653	6630
266.714	10261
266.775	3592
266.836	2613
266.898	2409
266.959	4393
267.020	3180
267.081	3595
267.142	2793
267.203	2138
267.264	2199
267.326	3451
267.387	1746
267.448	1542
267.509	2318
267.570	2203
267.631	2689
267.692	1632
267.753	2689
267.814	1798
267.875	7172
267.936	12813
267.997	7408
268.058	6249
268.119	4794
268.180	3504
268.241	2872
268.302	2566
268.363	2309
268.424	2577
268.485	3158
268.546	1535
268.607	1250
268.668	1651
268.729	902
268.790	2010
268.851	2817
268.912	8498
268.972	9495
269.033	4661
269.094	2696
269.155	2092
269.216	2708
269.277	2181
269.338	1686
269.398	1944
269.459	3497
269.520	5157
269.581	5781
269.642	6751
269.702	4701
269.763	3360
269.824	2724
269.885	3555
269.945	7635
270.006	2656
270.067	1875
270.128	1287
270.188	1748
270.249	2473
270.310	1695
270.370	2141
270.431	1486
270.492	1572
270.553	3623
270.613	7520
270.674	13030
270.734	5269
270.795	3286
270.856	4962
270.916	3113
270.977	2647
271.038	3434
271.098	3148
271.159	6233
271.219	4357
271.280	2759
271.340	2809
271.401	3032
271.462	7561
271.522	3820
271.583	2655
271.643	2798
271.704	2486
271.764	4723
271.825	11866
271.885	34008
271.946	37467
272.006	13720
272.066	19729
272.127	30086
272.187	9221
272.248	6450
272.308	5916
272.369	21614
272.429	10788
272.489	9536
272.550	8800
272.610	10533
272.671	7519
272.731	6855
272.791	9757
272.852	5841
272.912	5282
272.972	3639
273.033	2639
273.093	5364
273.153	6699
273.214	3892
273.274	4257
273.334	18154
273.394	30260
273.455	12209
273.515	13396
273.575	28953
273.635	10855
273.696	16445
273.756	28343
273.816	10648
273.876	7431
273.936	14965
273.997	21746
274.057	6233
274.117	6383
274.177	10612
274.237	41130
274.297	28484
274.358	19591
274.418	25034
274.478	17117
274.538	6645
274.598	5910
274.658	20349
274.718	22293
274.778	9068
274.838	5043
274.898	12429
274.958	31415
275.018	30335
275.078	17603
275.138	8233
275.198	4175
275.258	4498
275.318	4893
275.378	10068
275.438	10405
275.498	6892
275.558	17108
275.618	32443
275.678	20030
275.738	14026
275.798	9306
275.858	5316
275.918	3095
275.978	6038
276.038	4155
276.098	3060
276.157	9193
276.217	23696
276.277	9568
276.337	6640
276.397	3663
276.457	6162
276.517	3157
276.576	3715
276.636	3279
276.696	5917
276.756	13442
276.815	9483
276.875	4735
276.935	5514
276.995	3741
277.055	2624
277.114	3100
277.174	6428
277.234	17220
277.293	7450
277.353	3886
277.413	3015
277.472	3684
277.532	4437
277.592	5445
277.651	19867
277.711	29428
277.771	11974
277.830	39774
277.890	27198
277.950	23098
278.009	56872
278.069	19648
278.128	25564
278.188	30189
278.248	14882
278.307	37129
278.367	19279
278.426	6209
278.486	4709
278.545	3579
278.605	3604
278.664	3377
278.724	4853
278.783	13737
278.843	28523
278.902	8705
278.962	5873
279.021	6726
279.081	8117
279.140	7274
279.199	6282
279.259	6607
279.318	6820
279.378	8923
279.437	17674
279.496	54832
279.556	150594
279.615	102210
279.675	29618
279.734	19754
279.793	26566
279.853	33437
279.912	13987
279.971	8671
280.031	7302
280.090	14534
280.149	22890
280.208	25647
280.268	107644
280.327	92578
280.386	23820
280.445	19314
280.505	16544
280.564	9001
280.623	7196
280.682	12218
280.742	15625
280.801	5029
280.860	4161
280.919	3841
280.978	3244
281.037	2499
281.097	2376
281.156	3732
281.215	3677
281.274	4576
281.333	21119
281.392	13090
281.451	4415
281.510	3486
281.569	2238
281.628	2213
281.688	2485
281.747	3247
281.806	2926
281.865	2608
281.924	2666
281.983	3173
282.042	1480
282.101	1392
282.160	1993
282.219	1513
282.278	2595
282.337	12665
282.396	7253
282.454	3179
282.513	5336
282.572	17747
282.631	9043
282.690	3516
282.749	2477
282.808	3102
282.867	3624
282.926	4091
282.985	2689
283.043	1756
283.102	3009
283.161	3338
283.220	10319
283.279	19290
283.338	5950
283.396	3011
283.455	3960
283.514	3642
283.573	6861
283.631	4419
283.690	3794
283.749	3619
283.808	8257
283.866	8593
283.925	3760
283.984	2771
284.043	5812
284.101	5542
284.160	3532
284.219	4509
284.277	4825
284.336	8915
284.395	26310
284.453	17918
284.512	7821
284.570	11304
284.629	8902
284.688	8379
284.746	9596
284.805	11747
284.863	14156
284.922	17888
284.981	22080
285.039	33827
285.098	59976
285.156	122526
285.215	159039
285.273	157657
285.332	115109
285.390	66095
285.449	40937
285.507	29252
285.566	22533
285.624	16752
285.683	13419
285.741	9826
285.799	8760
285.858	7885
285.916	7660
285.975	5395
286.033	4550
286.091	4220
286.150	4561
286.208	4121
286.267	4569
286.325	5254
286.383	7786
286.442	6505
286.500	4510
286.558	3052
286.616	2993
286.675	5711
286.733	3844
286.791	4186
286.850	4838
286.908	6764
286.966	9709
287.024	3612
287.083	3358
287.141	2691
287.199	3264
287.257	5172
287.315	3517
287.374	5105
287.432	11484
287.490	6588
287.548	4715
287.606	3072
287.664	4029
287.723	5599
287.781	6476
287.839	3773
287.897	5878
287.955	8002
288.013	12710
288.071	32120
288.129	107449
288.187	213293
288.245	103275
288.303	37575
288.361	22466
288.419	15977
288.477	11712
288.535	8515
288.593	6990
288.651	4554
288.709	3408
288.767	4018
288.825	3606
288.883	2791
288.941	2765
288.999	2179
289.057	2500
289.115	2291
289.173	2657
289.231	2727
289.289	2317
289.346	2343
289.404	3643
289.462	5496
289.520	6767
289.578	2753
289.636	1697
289.694	1865
289.751	2193
289.809	2388
289.867	1423
289.925	2983
289.983	3231
290.040	1181
290.098	1124
290.156	2956
290.214	3251
290.271	1518
290.329	2215
290.387	989
290.444	890
290.502	362
290.560	1622
290.617	1611
290.675	2418
290.733	1658
290.790	2222
290.848	833
290.906	1121
290.963	1887
291.021	1728
291.078	1980
291.136	2956
291.194	9827
291.251	19575
291.309	4367
291.366	2233
291.424	1978
291.481	2886
291.539	1729
291.596	2403
291.654	859
291.711	1566
291.769	2682
291.826	5793
291.884	3800
291.941	1648
291.999	1803
292.056	1881
292.114	2120
292.171	1955
292.228	1792
292.286	3747
292.343	6054
292.401	7625
292.458	3842
292.515	2721
292.573	3410
292.630	3210
292.687	3118
292.745	2295
292.802	3875
292.859	11877
292.917	20412
292.974	11093
293.031	3170
293.089	1980
293.146	2263
293.203	2022
293.260	1451
293.318	2377
293.375	3673
293.432	2912
293.489	2606
293.546	1735
293.604	4566
293.661	12655
293.718	30694
293.775	14509
293.832	6822
293.889	5362
293.947	4618
294.004	3643
294.061	4770
294.118	10021
294.175	19752
294.232	23962
294.289	8816
294.346	5278
294.403	5501
294.460	4518
294.517	2414
294.574	3060
294.631	2146
294.688	4709
294.745	10338
294.802	36672
294.859	36667
294.916	13015
294.973	7184
295.030	5929
295.087	4790
295.144	4186
295.201	3702
295.258	3273
295.315	4779
295.372	14471
295.429	24046
295.486	10924
295.542	6730
295.599	18042
295.656	27578
295.713	18406
295.770	22629
295.827	8049
295.883	5735
295.940	5451
295.997	8699
296.054	8908
296.111	3697
296.167	2493
296.224	1217
296.281	1958
296.338	1634
296.394	2344
296.451	3502
296.508	11997
296.564	20070
296.621	14743
296.678	30312
296.734	38171
296.791	13248
296.848	7988
296.904	9389
296.961	19550
297.018	28006
297.074	19155
297.131	7676
297.187	5654
297.244	10093
297.301	29173
297.357	44433
297.414	15226
297.470	6948
297.527	4669
297.583	3890
297.640	4427
297.696	3045
297.753	1971
297.809	1839
297.866	1507
297.922	2056
297.979	1593
298.035	2374
298.092	5602
298.148	17681
298.204	14842
298.261	6889
298.317	15422
298.374	32647
298.430	17796
298.486	8173
298.543	6063
298.599	5928
298.656	8613
298.712	15156
298.768	35368
298.824	23337
298.881	8343
298.937	4875
298.993	4055
299.050	4983
299.106	4388
299.162	3554
299.218	4868
299.275	3008
299.331	4236
299.387	9321
299.443	30780
299.500	29818
299.556	12141
299.612	5510
299.668	6037
299.724	7674
299.780	8008
299.837	5019
299.893	8700
299.949	27970
300.005	31440
300.061	26207
300.117	40829
300.173	18292
300.229	9084
300.285	11279
300.341	12899
300.397	6066
300.453	4437
300.510	3841
300.566	4434
300.622	5822
300.678	15912
300.734	28353
300.790	25104
300.845	28419
300.901	18849
300.957	28124
301.013	20894
301.069	8379
301.125	5092
301.181	5409
301.237	4823
301.293	3696
301.349	2913
301.405	2381
301.461	3013
301.516	5227
301.572	5387
301.628	8345
301.684	6964
301.740	11951
301.796	18666
301.851	12776
301.907	22247
301.963	21638
302.019	32940
302.074	80108
302.130	75888
302.186	34989
302.242	14729
302.297	10385
302.353	10828
302.409	19160
302.464	16268
302.520	14059
302.576	31500
302.631	34189
302.687	18979
302.743	8921
302.798	5138
302.854	4157
302.910	5441
302.965	5715
303.021	11535
303.076	10755
303.132	12862
303.187	15061
303.243	7442
303.299	4276
303.354	3930
303.410	3680
303.465	3289
303.521	3174
303.576	3511
303.632	4314
303.687	10387
303.743	25952
303.798	20872
303.853	7926
303.909	4798
303.964	4432
304.020	8813
304.075	11393
304.130	11502
304.186	18348
304.241	18534
304.297	15063
304.352	7919
304.358	7607
304.407	5074
304.449	4709
304.463	4590
304.518	4252
304.539	4189
304.573	4084
304.629	4608
304.630	4684
304.684	8381
304.720	15984
304.739	19813
304.794	28816
304.811	24506
304.850	13948
304.902	7010
304.905	6584
304.960	4942
304.992	5644
305.015	6147
305.071	5038
305.083	4853
305.126	4139
305.173	3262
305.181	3133
305.236	2335
305.264	2556
305.292	2789
305.347	4545
305.354	4577
305.402	4886
305.445	5448
305.457	5587
305.512	7200
305.535	7178
305.567	7100
305.622	8187
305.626	8441
305.678	14698
305.716	28551
305.733	33502
305.788	34605
305.807	30071
305.843	22077
305.897	27393
305.898	27447
305.953	26070
305.988	18413
306.008	14098
306.063	8899
306.078	7934
306.118	5911
306.168	4549
306.173	4457
306.228	3640
306.259	3075
306.283	2615
306.338	3082
306.349	3153
306.393	3710
306.440	5185
306.448	5387
306.503	5148
306.530	5420
306.558	6899
306.613	14426
306.620	15397
306.668	22321
306.711	30838
306.723	31725
306.778	24281
306.801	18595
306.833	11859
306.888	6160
306.892	5864
306.943	3918
306.982	4018
306.997	4171
307.052	3995
307.072	4092
307.107	4598
307.162	5945
307.163	5965
307.217	8636
307.253	10241
307.272	10493
307.327	10619
307.343	9979
307.381	8701
307.434	8605
307.436	8855
307.491	17132
307.524	24731
307.546	27097
307.600	27760
307.614	25314
307.655	15734
307.704	8437
307.710	8252
307.765	9848
307.795	11958
307.819	14424
307.874	22379
307.885	22670
307.929	19240
307.975	16648
307.984	17330
308.038	25980
308.065	33051
308.093	52505
308.148	103806
308.156	114518
308.202	172639
308.246	205513
308.257	199853
308.312	121287
308.336	89745
308.366	68213
308.421	42142
308.426	39917
308.475	26862
308.517	19430
308.530	18198
308.585	14875
308.607	13950
308.639	13805
308.694	13791
308.697	13898
308.748	21509
308.787	29701
308.803	29790
308.857	24403
308.877	21733
308.912	19544
308.967	19852
308.967	19868
309.021	27738
309.058	34803
309.076	43318
309.130	75885
309.148	88585
309.185	140777
309.238	227061
309.239	227905
309.293	250130
309.328	243351
309.348	216232
309.402	123295
309.418	99268
309.457	71519
309.508	44109
309.511	43398
309.566	36511
309.598	33927
309.620	36419
309.674	44400
309.688	46822
309.729	45896
309.778	40487
309.783	39642
309.837	29404
309.868	24452
309.892	27261
309.946	36415
309.959	39471
310.001	51625
310.049	61994
310.055	59944
310.109	36422
310.139	23291
310.163	18546
310.218	10937
310.229	9624
310.272	8227
310.319	7117
310.326	6985
310.381	6287
310.409	5913
310.435	5726
310.489	5328
310.499	5316
310.543	5253
310.589	5084
310.598	5105
310.652	5268
310.679	5400
310.706	4962
310.760	3798
310.769	3605
310.814	3335
310.859	3441
310.868	3508
310.923	3546
310.948	3645
310.977	4272
311.031	5480
311.038	5650
311.085	5319
311.128	4814
311.139	4717
311.193	4217
311.218	4051
311.247	3830
311.301	3161
311.308	3100
311.356	3553
311.398	3906
311.410	3850
311.464	3568
311.488	3368
311.518	3426
311.572	3733
311.578	3758
311.626	5293
311.668	6704
311.680	6637
311.734	6078
311.758	5850
311.788	5668
311.842	5387
311.847	5346
311.896	7223
311.937	8896
311.950	8843
312.004	8504
312.027	8331
312.058	7212
312.112	5204
312.117	4996
312.165	4293
312.207	3684
312.297	6447
312.386	4836
312.476	5228
312.566	10942
312.656	5428
312.745	2568
312.835	4098
312.925	4459
313.015	5152
313.104	5052
313.194	3230
313.284	3925
313.374	5940
313.463	4302
313.553	4799
313.643	2836
313.732	3657
313.822	3263
313.912	3731
314.001	4540
314.091	5726
314.180	6006
314.270	6839
314.360	6517
314.449	6807
314.539	3091
314.628	3705
314.718	4072
314.808	5347
314.897	3931
314.987	4227
315.076	4516
315.166	7094
315.255	5737
315.345	6693
315.434	5162
315.524	5355
315.613	5738
315.703	8874
315.792	10986
315.881	27122
315.971	13031
316.060	12260
316.150	14673
316.239	16054
316.328	6967
316.418	4326
316.507	4200
316.597	6491
316.686	5183
316.775	7331
316.865	16280
316.954	5564
317.043	3429
317.133	4354
317.222	3530
317.311	3654
317.400	3196
317.490	6241
317.579	7177
317.668	5413
317.757	7651
317.847	16715
317.936	50013
318.025	26903
318.114	13305
318.203	10034
318.293	11463
318.382	24208
318.471	18186
318.560	24029
318.649	44159
318.738	11710
318.828	7083
318.917	8924
319.006	8968
319.095	20371
319.184	54120
319.273	34120
319.362	18420
319.451	7196
319.540	6339
319.629	13740
319.718	24476
319.807	11347
319.896	18252
319.985	68537
320.074	29076
320.163	8320
320.252	11022
320.341	8620
320.430	8832
320.519	12139
320.608	7623
320.697	6519
320.786	5156
320.875	7852
320.964	10384
321.053	16635
321.142	22864
321.230	26171
321.319	17625
321.408	39251
321.497	18015
321.586	16483
321.675	16814
321.764	18665
321.852	11930
321.941	23756
322.030	17069
322.119	16799
322.207	43009
322.296	26721
322.385	14014
322.474	17632
322.562	50289
322.651	27320
322.740	17365
322.829	24374
322.917	22861
323.006	15900
323.095	12964
323.183	10236
323.272	15796
323.361	24678
323.449	67136
323.538	25127
323.626	44073
323.715	30687
323.804	11895
323.892	40281
323.981	27542
324.069	9106
324.158	19955
324.246	23181
324.335	9317
324.424	15830
324.512	6234
324.601	8235
324.689	15125
324.778	29446
324.866	17903
324.954	6522
325.043	5738
325.131	10012
325.220	16376
325.308	20197
325.397	14424
325.485	10446
325.574	3801
325.662	3754
325.750	5630
325.839	4261
325.927	3709
326.015	5094
326.104	7254
326.192	11320
326.280	3385
326.369	4998
326.457	6299
326.545	13027
326.634	6143
326.722	3065
326.810	3606
326.898	4292
326.987	4588
327.075	10834
327.163	11372
327.251	6108
327.340	9066
327.428	14937
327.516	5238
327.604	4235
327.692	4238
327.781	4697
327.869	7785
327.957	6497
328.045	5727
328.133	4282
328.221	4765
328.309	5055
328.397	3581
328.485	5317
328.574	8283
328.662	26797
328.750	16449
328.838	6604
328.926	4009
329.014	4413
329.102	6036
329.190	13833
329.278	11106
329.366	4874
329.454	2882
329.542	4522
329.630	3387
329.718	4910
329.806	6292
329.893	7356
329.981	8732
330.069	18660
330.157	60060
330.245	149353
330.333	90199
330.421	20481
330.509	12886
330.597	34079
330.684	24280
330.772	8830
330.860	9176
330.948	11819
331.036	6662
331.123	3493
331.211	3631
331.299	4519
331.387	8673
331.475	17997
331.562	5723
331.650	3795
331.738	4300
331.825	5114
331.913	3016
332.001	3289
332.089	4260
332.176	9126
332.264	19781
332.352	17654
332.439	6043
332.527	4353
332.614	3497
332.702	6011
332.790	4091
332.877	10434
332.965	20298
333.052	7686
333.140	6956
333.228	18078
333.315	6408
333.403	4709
333.490	11760
333.578	13345
333.665	19871
333.753	12526
333.840	4369
333.928	6184
334.015	13134
334.103	21875
334.190	66452
334.278	20033
334.365	7831
334.452	5639
334.540	4573
334.627	6751
334.715	8834
334.802	16734
334.889	73369
334.977	81514
335.064	11382
335.151	6593
335.239	6180
335.326	8574
335.413	31126
335.501	48348
335.588	8426
335.675	6177
335.762	6422
335.850	11296
335.937	9134
336.024	20629
336.111	79320
336.199	35860
336.286	8574
336.373	5128
336.460	3446
336.547	3959
336.635	5399
336.722	4932
336.809	4782
336.896	7723
336.983	19538
337.070	49075
337.157	72230
337.245	50695
337.332	39203
337.419	6135
337.506	3050
337.593	5212
337.680	15062
337.767	46815
337.854	14211
337.941	15314
338.028	18158
338.115	7589
338.202	7649
338.289	13739
338.376	49770
338.463	18462
338.550	25193
338.637	31677
338.724	10057
338.811	15465
338.898	5034
338.984	3600
339.071	4365
339.158	5724
339.245	15408
339.332	9772
339.419	9833
339.506	10422
339.593	1763
339.679	4028
339.766	3247
339.853	4999
339.940	11807
340.027	4533
340.113	4583
340.200	6332
340.287	4417
340.374	5982
340.460	11006
340.547	3874
340.634	8225
340.720	30901
340.807	20185
340.894	3842
340.980	4288
341.067	3845
341.154	4174
341.240	6214
341.327	15739
341.414	5841
341.500	5385
341.587	4430
341.674	3719
341.760	10099
341.847	12473
341.933	5073
342.020	1990
342.106	1800
342.193	3982
342.279	8532
342.366	5630
342.452	10670
342.539	6901
342.625	13246
342.712	34841
342.798	16420
342.885	6295
342.971	2111
343.058	2342
343.144	2633
343.230	3074
343.317	3416
343.403	3131
343.490	2678
343.576	2670
343.662	2891
343.749	3821
343.835	5821
343.921	9929
344.008	49036
344.094	117485
344.180	29795
344.267	10934
344.353	32395
344.439	36535
344.525	18689
344.612	10655
344.698	12092
344.784	7517
344.870	4019
344.957	2882
345.043	7509
345.129	4407
345.215	10149
345.301	5242
345.387	4193
345.474	2452
345.560	2695
345.646	3483
345.732	3022
345.818	4258
345.904	4202
345.990	4152
346.076	4579
346.162	7680
346.249	3715
346.335	3096
346.421	4722
346.507	12626
346.593	46736
346.679	12622
346.765	3993
346.851	3546
346.937	4195
347.023	3758
347.108	5150
347.194	4345
347.280	4185
347.366	3909
347.452	13374
347.538	56086
347.624	42495
347.710	36111
347.796	6458
347.882	3478
347.967	2902
348.053	3670
348.139	3432
348.225	2521
348.311	3083
348.397	3645
348.482	3919
348.568	5304
348.654	2496
348.740	3510
348.825	4284
348.911	7191
348.997	24611
349.083	52404
349.168	10090
349.254	3343
349.340	3680
349.425	2359
349.511	5191
349.597	5469
349.682	10697
349.768	33757
349.854	17398
349.939	4240
350.025	2943
350.110	3683
350.196	1508
350.282	2073
350.367	2633
350.453	4655
350.538	5606
350.624	4075
350.709	5351
350.795	3113
350.880	3186
350.966	3518
351.051	5118
351.137	4392
351.222	3617
351.308	10759
351.393	32507
351.479	8777
351.564	3929
351.649	3576
351.735	3048
351.820	2025
351.906	3653
351.991	5229
352.076	19075
352.162	31424
352.247	7655
352.332	4243
352.418	9002
352.503	10064
352.588	43759
352.673	39573
352.759	9592
352.844	4271
352.929	4558
353.014	7138
353.100	4804
353.185	6447
353.270	11632
353.355	11546
353.441	4877
353.526	4185
353.611	11044
353.696	13134
353.781	8096
353.866	4017
353.952	5083
354.037	10549
354.122	25159
354.207	22966
354.292	9533
354.377	4151
354.462	3275
354.547	5023
354.632	4675
354.717	5230
354.802	7262
354.887	3738
354.972	2802
355.057	1861
355.142	2147
355.227	4106
355.312	7717
355.397	16823
355.482	39797
355.567	21051
355.652	14070
355.737	14813
355.822	40682
355.907	36811
355.991	6383
356.076	3767
356.161	3283
356.246	3358
356.331	4898
356.416	9622
356.501	59677
356.585	70383
356.670	12016
356.755	7119
356.840	9559
356.924	42315
357.009	149926
357.094	66108
357.179	15989
357.263	9926
357.348	8468
357.433	9514
357.517	8492
357.602	6526
357.687	5542
357.771	8869
357.856	30853
357.941	20887
358.025	33855
358.110	142129
358.195	76824
358.279	13743
358.364	9924
358.448	29443
358.533	79637
358.617	60588
358.702	57025
358.787	24003
358.871	12626
358.956	10315
359.040	4993
359.125	3740
359.209	4293
359.294	14257
359.378	26769
359.462	11756
359.547	6229
359.631	3283
359.716	3170
359.800	3897
359.885	6255
359.969	4186
360.053	4030
360.138	3994
360.222	6382
360.306	12009
360.391	10213
360.475	16350
360.559	40791
360.644	32936
360.728	25639
360.812	32212
360.896	95385
360.981	43658
361.065	23791
361.149	7132
361.233	6922
361.318	4635
361.402	5977
361.486	5870
361.570	4139
361.654	6172
361.739	15007
361.823	59674
361.907	96366
361.991	20449
362.075	11187
362.159	24967
362.243	18956
362.327	14260
362.411	15145
362.495	9461
362.580	5574
362.664	5133
362.748	4878
362.832	6151
362.916	10502
363.000	26285
363.084	70575
363.168	113782
363.252	30794
363.336	11630
363.420	13679
363.503	43811
363.587	57916
363.671	11863
363.755	8103
363.839	12306
363.923	7008
364.007	13589
364.091	16444
364.175	18919
364.258	76057
364.342	56957
364.426	45965
364.510	26356
364.594	17910
364.677	19771
364.761	79566
364.845	63005
364.929	21851
365.013	18346
365.096	14512
365.180	18459
365.264	18830
365.347	74105
365.431	35927
365.515	10130
365.598	4957
365.682	4306
365.766	7376
365.849	9434
365.933	5783
366.017	7093
366.100	5727
366.184	2709
366.267	3191
366.351	3107
366.435	3132
366.518	2780
366.602	3763
366.685	2943
366.769	4353
366.852	7072
366.936	13636
367.019	8192
367.103	5351
367.186	10161
367.270	4395
367.353	1934
367.436	3481
367.520	2663
367.603	4077
367.687	7149
367.770	14270
367.853	8563
367.937	23180
368.020	41098
368.104	10511
368.187	11154
368.270	14372
368.353	13059
368.437	16477
368.520	32665
368.603	23530
368.687	29055
368.770	59212
368.853	16055
368.936	13028
369.020	12259
369.103	5600
369.186	3797
369.269	3585
369.352	8214
369.436	13424
369.519	8392
369.602	4054
369.685	5222
369.768	5854
369.851	4344
369.934	3703
370.018	5120
370.101	12557
370.184	9446
370.267	6492
370.350	10753
370.433	17052
370.516	41146
370.599	54052
370.682	17001
370.765	30736
370.848	37323
370.931	68380
371.014	27789
371.097	5953
371.180	4466
371.263	2906
371.346	1601
371.429	2793
371.511	3404
371.594	7739
371.677	11096
371.760	11592
371.843	11438
371.926	48474
372.009	116669
372.091	41939
372.174	24634
372.257	59399
372.340	24816
372.423	17984
372.505	20009
372.588	9559
372.671	19765
372.754	66702
372.836	36345
372.919	21483
373.002	43162
373.085	16568
373.167	10998
373.250	28396
373.332	60726
373.415	78169
373.498	160727
373.580	66895
373.663	71995
373.746	106375
373.828	27887
373.911	11712
373.993	11584
374.076	40757
374.159	42281
374.241	18839
374.324	56518
374.406	42470
374.489	43357
374.571	129782
374.654	58028
374.736	25901
374.819	75478
374.901	111794
374.983	120739
375.066	24757
375.148	9490
375.231	31852
375.313	66535
375.395	25878
375.478	6130
375.560	4949
375.643	6556
375.725	22854
375.807	98549
375.890	81285
375.972	33107
376.054	17450
376.136	27185
376.219	12926
376.301	26800
376.383	88461
376.465	37644
376.548	23801
376.630	25944
376.712	76723
376.794	38782
376.877	5994
376.959	3504
377.041	4460
377.123	8414
377.205	10555
377.287	3022
377.369	3209
377.452	3436
377.534	3205
377.616	3362
377.698	3292
377.780	2143
377.862	3884
377.944	3642
378.026	1490
378.108	2366
378.190	2853
378.272	2556
378.354	2412
378.436	2141
378.518	5006
378.600	17977
378.682	18061
378.764	37965
378.846	32797
378.928	9450
379.010	12016
379.091	7240
379.173	4252
379.255	2905
379.337	5874
379.419	18181
379.501	58821
379.583	25296
379.664	6417
379.746	14192
379.828	38370
379.910	53324
379.991	49054
380.073	9128
380.155	5793
380.237	3748
380.318	3143
380.400	3921
380.482	8841
380.564	15005
380.645	12763
380.727	12961
380.809	7728
380.890	5461
380.972	4257
381.053	4317
381.135	5095
381.217	12801
381.298	42173
381.380	22580
381.461	16255
381.543	73497
381.624	101563
381.706	21293
381.787	10345
381.869	10856
381.951	29478
382.032	118638
382.113	84398
382.195	20914
382.276	12930
382.358	21966
382.439	65981
382.521	74100
382.602	117530
382.684	57774
382.765	102463
382.846	121191
382.928	164153
383.009	98726
383.090	74601
383.172	233841
383.253	351465
383.334	132464
383.416	114570
383.497	66068
383.578	35779
383.659	67319
383.741	214180
383.822	504141
383.903	280425
383.984	96606
384.066	140075
384.147	93604
384.228	22498
384.309	15762
384.390	12405
384.471	8661
384.553	8500
384.634	11507
384.715	13934
384.796	7333
384.877	9203
384.958	34422
385.039	46886
385.120	17087
385.201	9310
385.282	9503
385.363	9644
385.444	8435
385.525	14979
385.606	51286
385.687	47409
385.768	11630
385.849	12861
385.930	53285
386.011	98789
386.092	29947
386.173	9318
386.254	5861
386.335	6175
386.416	6900
386.496	22664
386.577	42023
386.658	15343
386.739	9138
386.820	8166
386.901	5650
386.981	7111
387.062	4567
387.143	9024
387.224	36319
387.304	38693
387.385	13116
387.466	7459
387.547	9767
387.627	7382
387.708	13294
387.789	63326
387.869	82710
387.950	24690
388.031	5270
388.111	3719
388.192	11074
388.273	16876
388.353	11174
388.434	6364
388.514	11960
388.595	55526
388.676	79963
388.756	41214
388.837	37357
388.917	25519
388.998	5526
389.078	6379
389.159	4814
389.239	4207
389.320	7930
389.400	6875
389.480	13117
389.561	39540
389.641	21598
389.722	7609
389.802	11908
389.883	16664
389.963	44976
390.043	31029
390.124	9883
390.204	13463
390.284	47100
390.365	32843
390.445	34017
390.525	108835
390.605	107039
390.686	30137
390.766	9456
390.846	5585
390.927	3695
391.007	4266
391.087	5647
391.167	4968
391.247	4260
391.328	7431
391.408	10889
391.488	8289
391.568	2994
391.648	6579
391.728	9211
391.808	8758
391.888	9665
391.969	19888
392.049	36981
392.129	16147
392.209	16078
392.289	44312
392.369	25644
392.449	19691
392.529	13009
392.609	11755
392.689	13570
392.769	42171
392.849	40178
392.929	25450
393.009	60676
393.089	51637
393.169	40505
393.248	121422
393.328	454623
393.408	524293
393.488	155670
393.568	43519
393.648	22380
393.728	14912
393.807	11045
393.887	10727
393.967	9798
394.047	11744
394.127	14805
394.206	25952
394.286	80303
394.366	308470
394.446	363161
394.525	113921
394.605	30737
394.685	19291
394.764	28533
394.844	46662
394.924	36045
395.003	14345
395.083	9690
395.163	9879
395.242	8088
395.322	8957
395.402	5497
395.481	10293
395.561	19252
395.640	54796
395.720	44704
395.799	59428
395.879	53824
395.958	41079
396.038	122305
396.117	396432
396.197	463921
396.276	182827
396.356	60437
396.435	36923
396.515	25066
396.594	24798
396.673	40972
396.753	131297
396.832	430844
396.912	353915
396.991	92485
397.070	26508
397.150	13390
397.229	10518
397.308	11173
397.388	17926
397.467	11607
397.546	5907
397.625	4706
397.705	8470
397.784	7883
397.863	4609
397.942	3090
398.022	4303
398.101	13599
398.180	45517
398.259	24985
398.338	6784
398.417	5565
398.497	4306
398.576	4330
398.655	1890
398.734	3030
398.813	3783
398.892	13031
398.971	50692
399.050	26931
399.129	4131
399.208	2659
399.287	4053
399.366	1702
399.445	2656
399.524	2786
399.603	2480
399.682	5642
399.761	16701
399.840	53202
399.919	43678
399.998	7012
400.077	2284
400.156	1226
400.235	4538
400.313	2480
400.392	3496
400.471	19326
400.550	36488
400.629	10291
400.708	4441
400.786	3402
400.865	8677
400.944	10555
401.023	7593
401.102	2385
401.180	1698
401.259	2431
401.338	2507
401.416	4608
401.495	3686
401.574	2968
401.652	2443
401.731	3547
401.810	3251
401.888	1502
401.967	1189
402.046	1800
402.124	4009
402.203	5314
402.281	3983
402.360	3329
402.438	12438
402.517	9576
402.596	4109
402.674	3460
402.753	2422
402.831	1878
402.910	2312
402.988	8572
403.066	30205
403.145	19530
403.223	9890
403.302	23911
403.380	18726
403.459	16289
403.537	7672
403.615	3233
403.694	1519
403.772	2343
403.850	1770
403.929	1257
404.007	2692
404.085	4854
404.164	5105
404.242	4327
404.320	13303
404.398	45680
404.477	55909
404.555	101573
404.633	95875
404.711	40764
404.789	26312
404.868	6706
404.946	2885
405.024	1934
405.102	2359
405.180	1433
405.258	1210
405.336	2569
405.415	1889
405.493	4913
405.571	4866
405.649	1634
405.727	1846
405.805	3264
405.883	3343
405.961	3993
406.039	3622
406.117	1359
406.195	5971
406.273	20196
406.351	84390
406.429	54109
406.507	9138
406.585	2873
406.663	3830
406.740	3876
406.818	4434
406.896	2934
406.974	2747
407.052	6360
407.130	45857
407.208	72739
407.285	16060
407.363	2853
407.441	3536
407.519	2390
407.596	4184
407.674	11819
407.752	44931
407.830	42922
407.907	11679
407.985	3154
408.063	2268
408.141	1036
408.218	3453
408.296	2695
408.373	2538
408.451	2914
408.529	3928
408.606	1868
408.684	2028
408.762	1468
408.839	858
408.917	1560
408.994	1637
409.072	1000
409.149	748
409.227	3064
409.304	3708
409.382	2459
409.459	2472
409.537	4274
409.614	4013
409.692	2947
409.769	2509
409.846	3475
409.924	6332
410.001	3907
410.079	3767
410.156	3609
410.233	3414
410.311	2920
410.388	2043
410.465	2580
410.543	2605
410.620	2572
410.697	1826
410.775	3968
410.852	1667
410.929	3495
411.006	4843
411.083	2023
411.161	5697
411.238	6702
411.315	4037
411.392	1095
411.469	3998
411.547	4054
411.624	1096
411.701	1314
411.778	2755
411.855	6851
411.932	4488
412.009	1875
412.086	2113
412.163	2310
412.240	2424
412.317	3493
412.394	3347
412.471	2171
412.548	1088
412.625	643
412.702	2802
412.779	5104
412.856	4015
412.933	397
413.010	2601
413.087	3522
413.164	18331
413.241	29265
413.318	8344
413.395	4430
413.471	6772
413.548	3457
413.625	1845
413.702	2406
413.779	2315
413.855	602
413.932	786
414.009	826
414.086	976
414.162	1805
414.239	3162
414.316	17600
414.393	45060
414.469	16294
414.546	2027
414.623	917
414.699	1612
414.776	1701
414.853	1545
414.929	1848
415.006	1683
415.082	1831
415.159	2436
415.236	1929
415.312	2742
415.389	4586
415.465	6607
415.542	3689
415.618	1735
415.695	4445
415.771	3079
415.848	2443
415.924	2139
416.000	914
416.077	1688
416.153	22
416.230	512
416.306	247
416.383	1067
416.459	754
416.535	283
416.612	214
416.688	521
416.764	558
416.841	479
416.917	360
416.993	718
417.069	1836
417.146	2839
417.222	5659
417.298	4324
417.374	602
417.451	1643
417.527	2280
417.603	3833
417.679	2355
417.755	2366
417.831	485
417.908	1531
417.984	529
418.060	840
418.136	4608
418.212	7953
418.288	2909
418.364	1706
418.440	839
418.516	3580
418.592	3757
418.668	8415
418.744	13601
418.820	10576
418.896	2143
418.972	633
419.048	1343
419.124	5455
419.200	4708
419.276	1966
419.352	-132
419.428	1709
419.504	1332
419.579	1911
419.655	1807
419.731	2278
419.807	7601
419.883	15571
419.959	13311
420.034	3953
420.110	5346
420.186	26052
420.262	22923
420.337	4189
420.413	2789
420.489	1844
420.565	2494
420.640	1443
420.716	2081
420.792	415
420.867	1801
420.943	1450
421.019	4337
421.094	3258
421.170	1762
421.245	1956
421.321	1414
421.397	2349
421.472	6650
421.548	23479
421.623	16601
421.699	5303
421.774	3805
421.850	3406
421.925	6554
422.001	6560
422.076	4311
422.152	5200
422.227	8795
422.302	10809
422.378	14249
422.453	27830
422.529	62056
422.604	178552
422.679	298728
422.755	219610
422.830	85482
422.905	33164
422.981	16816
423.056	10662
423.131	7900
423.207	5750
423.282	4454
423.357	9956
423.432	7502
423.508	6306
423.583	13013
423.658	12414
423.733	4233
423.808	3561
423.883	5211
423.959	4763
424.034	2217
424.109	2870
424.184	1441
424.259	1234
424.334	1352
424.409	1429
424.484	1046
424.559	2355
424.634	1270
424.709	2619
424.784	4160
424.859	2305
424.934	2916
425.009	16963
425.084	31300
425.159	12829
425.234	2643
425.309	943
425.384	6633
425.459	14195
425.534	4291
425.609	967
425.683	570
425.758	840
425.833	1150
425.908	2402
425.983	9340
426.058	33201
426.132	15396
426.207	4002
426.282	4251
426.357	3328
426.431	1057
426.506	1298
426.581	1231
426.655	1442
426.730	1661
426.805	1396
426.879	1264
426.954	2012
427.029	3794
427.103	26017
427.178	71742
427.253	36089
427.327	4657
427.402	3976
427.476	14255
427.551	7459
427.625	2064
427.700	2372
427.774	76
427.849	1261
427.923	624
427.998	567
428.072	1685
428.147	5318
428.221	18355
428.296	62918
428.370	37691
428.444	5664
428.519	4358
428.593	8406
428.667	8798
428.742	9246
428.816	9158
428.890	36038
428.965	67644
429.039	23669
429.113	11984
429.188	4493
429.262	1160
429.336	3816
429.410	12935
429.485	9332
429.559	7374
429.633	7218
429.707	1470
429.781	5981
429.855	38014
429.930	67670
430.004	33027
430.078	44438
430.152	43304
430.226	83214
430.300	95184
430.374	18043
430.448	5918
430.522	14267
430.596	45442
430.670	31514
430.744	64716
430.818	110830
430.892	25703
430.966	4107
431.040	1892
431.114	765
431.188	370
431.262	1294
431.336	750
431.410	4218
431.484	11752
431.557	9911
431.631	1590
431.705	1653
431.779	9316
431.853	51764
431.927	42420
432.000	5966
432.074	1102
432.148	2554
432.222	1439
432.295	1065
432.369	523
432.443	2985
432.516	23477
432.590	71706
432.664	28888
432.737	3389
432.811	555
432.885	373
432.958	895
433.032	135
433.106	-526
433.179	694
433.253	-30
433.326	130
433.400	-391
433.473	115
433.547	-357
433.620	775
433.694	1994
433.767	3567
433.841	1169
433.914	978
433.988	245
434.061	165
434.134	104
434.208	266
434.281	97
434.355	873
434.428	-229
434.501	728
434.575	2
434.648	377
434.721	355
434.795	-88
434.868	-201
434.941	303
435.014	-183
435.088	940
435.161	943
435.234	2523
435.307	3663
435.381	1665
435.454	84
435.527	2397
435.600	1472
435.673	1213
435.746	1186
435.819	864
435.892	1286
435.966	904
436.039	925
436.112	954
436.185	53
436.258	67
436.331	-1121
436.404	-93
436.477	210
436.550	-11
436.623	347
436.696	-74
436.769	860
436.842	445
436.915	355
436.987	1921
437.060	607
437.133	-241
437.206	-127
437.279	1692
437.352	173
437.425	739
437.498	777
437.570	3267
437.643	2647
437.716	607
437.789	-51
437.861	2663
437.934	8167
438.007	5117
438.080	883
438.152	1039
438.225	4058
438.298	29535
438.370	95999
438.443	44615
438.516	10261
438.588	2718
438.661	1196
438.734	1751
438.806	932
438.879	1728
438.951	1730
439.024	3985
439.096	1963
439.169	729
439.241	48
439.314	681
439.386	1230
439.459	2787
439.531	4544
439.604	1827
439.676	614
439.749	559
439.821	239
439.893	265
439.966	528
440.038	880
440.110	1692
440.183	1318
440.255	-59
440.327	2713
440.400	11524
440.472	58113
440.544	43141
440.617	5610
440.689	3601
440.761	3794
440.833	7213
440.905	5211
440.978	1419
441.050	146
441.122	669
441.194	26
441.266	381
441.338	822
441.411	1500
441.483	16438
441.555	29673
441.627	6710
441.699	2321
441.771	1511
441.843	759
441.915	1184
441.987	786
442.059	327
442.131	650
442.203	2401
442.275	2664
442.347	3176
442.419	4123
442.491	20151
442.563	54825
442.635	27970
442.706	13276
442.778	10312
442.850	2363
442.922	1258
442.994	1470
443.066	3390
443.137	2871
443.209	2121
443.281	3147
443.353	7835
443.425	27533
443.496	103432
443.568	105999
443.640	41675
443.711	8450
443.783	2970
443.855	2463
443.926	1729
443.998	858
444.070	2222
444.141	1731
444.213	3370
444.285	4525
444.356	3520
444.428	2583
444.499	1057
444.571	-54
444.642	1216
444.714	1055
444.785	3508
444.857	2717
444.928	8151
445.000	4884
445.071	4772
445.143	6718
445.214	5405
445.285	8314
445.357	22326
445.428	70186
445.500	172798
445.571	112450
445.642	54156
445.714	21594
445.785	16687
445.856	5303
445.928	5396
445.999	3893
446.070	4107
446.141	2548
446.213	3728
446.284	1518
446.355	2189
446.426	873
446.497	559
446.569	1620
446.640	5286
446.711	3495
446.782	1370
446.853	1474
446.924	2049
446.995	811
447.066	2133
447.138	2500
447.209	2229
447.280	-62
447.351	932
447.422	99
447.493	1091
447.564	1628
447.635	3283
447.706	1658
447.777	-292
447.847	193
447.918	-472
447.989	1407
448.060	2058
448.131	4363
448.202	4926
448.273	3990
448.344	1947
448.414	526
448.485	1051
448.556	417
448.627	754
448.698	675
448.768	217
448.839	41
448.910	2611
448.981	2150
449.051	1650
449.122	346
449.193	773
449.263	621
449.334	317
449.405	1946
449.475	4445
449.546	3065
449.616	3434
449.687	3385
449.758	1648
449.828	724
449.899	111
449.969	244
450.040	1228
450.110	994
450.181	857
450.251	776
450.322	887
450.392	693
450.463	1053
450.533	773
450.604	914
450.674	-283
450.744	924
450.815	967
450.885	780
450.955	469
451.026	683
451.096	8
451.166	1041
451.237	1354
451.307	8044
451.377	3410
451.447	451
451.518	-60
451.588	325
451.658	759
451.728	2044
451.799	7958
451.869	10474
451.939	1750
452.009	520
452.079	572
452.149	1822
452.219	1286
452.289	9848
452.360	7559
452.430	1978
452.500	1253
452.570	2329
452.640	3120
452.710	6873
452.780	11679
452.850	9515
452.920	8171
452.990	3690
453.060	1564
453.129	2274
453.199	3266
453.269	9973
453.339	25877
453.409	41826
453.479	36192
453.549	53629
453.619	57634
453.688	24055
453.758	4100
453.828	1185
453.898	735
453.968	1285
454.037	205
454.087	426
454.107	507
454.168	977
454.177	1038
454.247	773
454.249	780
454.316	767
454.330	796
454.386	887
454.411	2250
454.456	4366
454.492	5761
454.525	6970
454.574	3986
454.595	2687
454.655	904
454.665	637
454.734	952
454.736	1032
454.804	3477
454.817	4500
454.873	8283
454.898	9074
454.943	10281
454.979	6875
455.013	3898
455.060	2401
455.082	1838
455.141	2168
455.152	2219
455.221	6482
455.222	6633
455.291	16067
455.303	16193
455.360	15668
455.384	23563
455.430	36150
455.465	27687
455.499	19737
455.546	12813
455.569	9726
455.627	6766
455.638	6219
455.707	2056
455.708	2056
455.777	769
455.789	813
455.846	1078
455.869	1138
455.916	1177
455.950	852
455.985	515
456.031	1187
456.054	1505
456.112	1354
456.124	1309
456.193	1015
456.193	1005
456.262	431
456.274	659
456.332	1791
456.355	1933
456.401	2000
456.436	1447
456.470	867
456.516	745
456.540	737
456.597	693
456.609	652
456.678	776
456.678	770
456.747	517
456.759	509
456.817	227
456.840	253
456.886	428
456.920	532
456.955	619
457.001	928
457.024	1113
457.082	1117
457.093	1084
457.162	1467
457.163	1480
457.232	2590
457.243	2627
457.301	2142
457.324	1717
457.370	1263
457.405	1224
457.439	1169
457.485	1079
457.508	1049
457.566	1204
457.577	1236
457.646	2134
457.647	2146
457.715	3037
457.727	3181
457.784	4211
457.808	5335
457.853	7098
457.889	8545
457.922	8859
457.969	7581
457.991	7734
458.050	7531
458.060	7579
458.129	11114
458.130	11239
458.198	13175
458.211	12629
458.267	8625
458.292	6322
458.336	4152
458.372	3791
458.405	4210
458.453	5054
458.474	6038
458.533	10492
458.543	11030
458.611	18852
458.614	19055
458.680	15838
458.694	13694
458.749	7609
458.775	5474
458.818	3362
458.855	2852
458.887	2388
458.936	2020
458.955	2024
459.016	2252
459.024	2236
459.093	1811
459.097	1806
459.162	2027
459.177	2157
459.230	2505
459.257	2750
459.299	2941
459.338	3016
459.368	3242
459.418	3502
459.437	3288
459.499	2747
459.505	2770
459.574	2061
459.579	2112
459.643	2472
459.659	2398
459.711	2311
459.740	2362
459.780	2588
459.820	2760
459.849	2780
459.900	2867
459.917	2945
459.981	3474
459.986	3481
460.054	3769
460.061	3767
460.123	3975
460.141	4072
460.191	4438
460.222	4547
460.260	4843
460.302	5840
460.328	5833
460.382	5073
460.397	4953
460.462	4233
460.465	4313
460.534	6684
460.543	7024
460.602	18776
460.623	23359
460.671	36460
460.703	50289
460.739	51976
460.783	51149
460.808	45472
460.864	13290
460.876	10348
460.944	4444
460.945	4372
461.013	3100
461.024	2913
461.081	2672
461.104	2920
461.150	3091
461.184	2870
461.218	2755
461.264	2554
461.286	2626
461.345	2699
461.355	2565
461.423	2783
461.425	2750
461.491	2199
461.505	2348
461.559	4278
461.585	4957
461.628	7717
461.665	10874
461.696	12855
461.745	17050
461.764	15359
461.825	6253
461.832	6058
461.901	3374
461.905	3373
461.969	3230
461.985	3076
462.037	3145
462.065	3330
462.105	3216
462.145	2978
462.173	4099
462.225	6284
462.241	6854
462.305	9804
462.310	9610
462.378	6711
462.385	6096
462.446	3422
462.465	3080
462.514	3334
462.545	3393
462.582	3219
462.625	2944
462.650	2883
462.705	2945
462.718	2914
462.785	2453
462.786	2473
462.854	3875
462.865	4197
462.922	5350
462.945	5597
462.990	4603
463.025	3703
463.058	3237
463.104	2616
463.126	2511
463.184	2656
463.194	2798
463.262	2990
463.264	3020
463.330	2960
463.344	2894
463.398	3519
463.424	3826
463.466	3583
463.504	3443
463.533	3513
463.583	3500
463.601	3654
463.663	4067
463.669	4100
463.737	4643
463.743	4683
463.805	6338
463.823	6858
463.873	10699
463.903	13108
463.940	14846
463.982	17327
464.008	14532
464.062	6962
464.076	6313
464.142	3178
464.144	3164
464.211	3143
464.221	3171
464.279	3229
464.301	3215
464.347	3391
464.381	3719
464.414	3893
464.461	3869
464.482	4395
464.540	6244
464.550	6154
464.617	4774
464.620	4734
464.685	4850
464.699	4831
464.753	5376
464.779	5730
464.820	6979
464.859	8139
464.888	7652
464.938	6773
464.956	6828
465.018	6805
465.023	6727
465.091	5670
465.098	5548
465.158	5823
465.177	5971
465.226	5971
465.257	5863
465.293	5969
465.336	6122
465.361	6567
465.416	7510
465.428	7786
465.495	9421
465.496	9464
465.563	14234
465.575	15066
465.631	18854
465.654	20650
465.698	14662
465.734	9001
465.765	7547
465.813	5463
465.833	5623
465.893	6437
465.900	6370
465.968	5652
465.972	5601
466.035	5640
466.052	5652
466.102	6117
466.131	6341
466.170	6466
466.210	6575
466.237	6534
466.290	6458
466.304	6544
466.369	6833
466.372	6881
466.439	8098
466.449	8254
466.506	8775
466.528	8993
466.573	10784
466.607	12056
466.641	15846
466.687	21142
466.708	24001
466.766	31901
466.775	29968
466.842	15007
466.845	14271
466.909	11082
466.925	10339
466.977	9529
467.004	9135
467.044	9319
467.083	9454
467.111	10150
467.163	11441
467.178	11594
467.242	12166
467.245	12177
467.312	12079
467.321	12053
467.379	11055
467.400	10665
467.446	10867
467.480	10986
467.559	9891
467.638	9068
467.717	8314
467.796	10628
467.875	10749
467.955	10040
468.034	12224
468.113	24434
468.192	35951
468.271	14604
468.350	8387
468.429	8573
468.508	8117
468.588	8169
468.667	7786
468.746	8051
468.825	8367
468.904	7088
468.983	7521
469.062	10870
469.141	13106
469.220	7251
469.299	6593
469.378	7950
469.456	8993
469.535	9188
469.614	8170
469.693	8163
469.772	9625
469.851	12558
469.930	10494
470.009	8257
470.088	7478
470.166	8227
470.245	11768
470.324	13919
470.403	11322
470.482	8591
470.560	8161
470.639	8271
470.718	8605
470.797	7304
470.875	7537
470.954	10467
471.033	11824
471.111	6459
471.190	5737
471.269	4584
471.347	5755
471.426	6017
471.505	7126
471.583	7969
471.662	7386
471.740	6295
471.819	6793
471.898	6174
471.976	6392
472.055	5454
472.133	7340
472.212	8298
472.290	8809
472.369	6568
472.447	5831
472.526	6038
472.604	6111
472.683	6141
472.761	6815
472.839	7035
472.918	6233
472.996	6145
473.075	6535
473.153	6287
473.231	5487
473.310	6559
473.388	6556
473.466	6188
473.545	6913
473.623	9217
473.701	9412
473.780	6858
473.858	5171
473.936	6723
474.014	5842
474.093	6905
474.171	8850
474.249	12652
474.327	9752
474.405	5297
474.484	5528
474.562	5709
474.640	5603
474.718	5857
474.796	6087
474.874	5873
474.952	4655
475.030	5745
475.108	6392
475.187	7090
475.265	7437
475.343	8906
475.421	8901
475.499	5918
475.577	5877
475.655	8448
475.733	13553
475.811	22655
475.889	21000
475.966	17211
476.044	6106
476.122	5558
476.200	7491
476.278	6488
476.356	4619
476.434	6320
476.512	6221
476.590	7065
476.667	6863
476.745	4615
476.823	5832
476.901	5376
476.979	5135
477.056	5007
477.134	4970
477.212	5638
477.290	5086
477.367	4308
477.445	4464
477.523	4035
477.601	4807
477.678	5501
477.756	5032
477.834	7085
477.911	4971
477.989	4675
478.066	4780
478.144	5322
478.222	5384
478.299	6219
478.377	7514
478.454	5661
478.532	4486
478.609	4392
478.687	5455
478.764	4966
478.842	4541
478.919	5154
478.997	5736
479.074	4703
479.152	4423
479.229	5920
479.307	5174
479.384	3662
479.461	3860
479.539	4651
479.616	5261
479.694	4770
479.771	4688
479.848	5204
479.926	5810
480.003	8504
480.080	4889
480.157	4464
480.235	3948
480.312	4409
480.389	5247
480.467	7559
480.544	9674
480.621	5694
480.698	4499
480.775	5545
480.853	5434
480.930	4659
481.007	5084
481.084	6522
481.161	7869
481.238	6926
481.315	4360
481.392	3715
481.470	3900
481.547	3956
481.624	3915
481.701	3283
481.778	4586
481.855	4451
481.932	6371
482.009	11467
482.086	10352
482.163	4624
482.240	5350
482.317	7206
482.393	7803
482.470	4850
482.547	5337
482.624	3849
482.701	4906
482.778	4209
482.855	4693
482.932	4335
483.009	4925
483.085	4167
483.162	6151
483.239	6513
483.316	3785
483.393	3676
483.469	5447
483.546	4295
483.623	5065
483.699	4638
483.776	4110
483.853	5082
483.930	6736
484.006	17481
484.083	33388
484.160	21825
484.236	26804
484.313	22789
484.389	16609
484.466	14631
484.543	12689
484.619	13952
484.696	13765
484.772	14561
484.849	14493
484.925	13463
485.002	12605
485.078	12310
485.155	13523
485.231	11539
485.308	11952
485.384	12478
485.461	13956
485.537	21670
485.614	27777
485.690	14110
485.766	11149
485.843	12810
485.919	16530
485.995	18496
486.072	11301
486.148	10680
486.224	9841
486.301	11526
486.377	12687
486.453	13533
486.530	11690
486.606	16175
486.682	18957
486.758	20602
486.835	24419
486.911	18975
486.987	27279
487.063	32974
487.139	40146
487.215	32375
487.292	18886
487.368	12559
487.444	13328
487.520	16428
487.596	17837
487.672	21342
487.748	39176
487.824	66879
487.900	38418
487.976	16856
488.052	14390
488.128	15899
488.204	14301
488.280	12283
488.356	12643
488.432	22653
488.508	38727
488.584	17685
488.660	10706
488.736	10730
488.812	11516
488.888	14357
488.964	16911
489.039	32906
489.115	57362
489.191	44643
489.267	13525
489.343	11101
489.418	9149
489.494	9949
489.570	8395
489.646	9909
489.722	9360
489.797	9362
489.873	12604
489.949	27224
490.024	29459
490.100	10021
490.176	9157
490.251	10625
490.327	14710
490.403	10616
490.478	8750
490.554	7512
490.629	7594
490.705	7213
490.781	8550
490.856	7627
490.932	8768
491.007	9654
491.083	9235
491.158	8157
491.234	10377
491.309	19309
491.385	24306
491.460	8942
491.536	9262
491.611	8523
491.686	8862
491.762	12734
491.837	21174
491.913	39759
491.988	51948
492.063	76528
492.139	27782
492.214	13339
492.289	8039
492.365	7092
492.440	9299
492.515	7952
492.590	7878
492.666	6585
492.741	8337
492.816	12136
492.891	9248
492.967	8673
493.042	6934
493.117	7234
493.192	9080
493.267	15064
493.342	54323
493.418	96543
493.493	22898
493.568	7178
493.643	5951
493.718	7805
493.793	10584
493.868	13726
493.943	9616
494.018	6497
494.093	6509
494.168	6284
494.243	5273
494.318	5253
494.393	5604
494.468	5079
494.543	6176
494.618	6565
494.693	5985
494.768	4885
494.842	6084
494.917	5519
494.992	6368
495.067	5110
495.142	4867
495.217	5876
495.292	6559
495.366	7916
495.441	8539
495.516	10346
495.591	13362
495.665	40650
495.740	114884
495.815	74995
495.890	12799
495.964	6809
496.039	8937
496.114	7455
496.188	9820
496.263	10490
496.338	7035
496.412	8360
496.487	10170
496.561	11335
496.636	12112
496.710	10087
496.785	9691
496.860	11339
496.934	9826
497.009	10080
497.083	9962
497.158	10930
497.232	13051
497.307	15016
497.381	12423
497.455	14496
497.530	18936
497.604	16654
497.679	16167
497.753	21877
497.827	30328
497.902	30622
497.976	32173
498.050	51911
498.125	180725
498.199	254967
498.273	55681
498.348	34788
498.422	30495
498.496	27668
498.570	25886
498.645	21896
498.719	19056
498.793	20703
498.867	24902
498.941	30545
499.016	66330
499.090	208414
499.164	120903
499.238	14714
499.312	11774
499.386	12896
499.460	12709
499.534	10188
499.609	11993
499.683	16678
499.757	17862
499.831	27955
499.905	117551
499.979	162690
500.053	27015
500.127	20862
500.201	15497
500.275	11170
500.349	9405
500.422	10692
500.496	13909
500.570	27550
500.644	67274
500.718	143363
500.792	54007
500.866	9329
500.940	9921
501.013	10394
501.087	9072
501.161	14619
501.235	20148
501.309	35446
501.382	104711
501.456	130557
501.530	27288
501.603	35335
501.677	20697
501.751	6332
501.825	8584
501.898	12868
501.972	40344
502.046	37696
502.119	8676
502.193	17660
502.266	48495
502.340	32969
502.413	18196
502.487	42738
502.561	27753
502.634	10608
502.708	6910
502.781	6231
502.855	5785
502.928	4803
503.002	5153
503.075	4266
503.149	4675
503.222	5793
503.295	5737
503.369	7145
503.442	8382
503.516	26608
503.589	79931
503.662	69911
503.736	20155
503.809	34949
503.882	37796
503.956	40258
504.029	52333
504.102	27256
504.175	36087
504.249	18933
504.322	9565
504.395	8065
504.468	5570
504.542	5094
504.615	4679
504.688	4684
504.761	3017
504.834	5697
504.907	6882
504.980	11479
505.053	6448
505.127	5308
505.200	10075
505.273	6972
505.346	5192
505.419	3719
505.492	3490
505.565	2326
505.638	2921
505.711	3579
505.784	2246
505.857	2671
505.930	3728
506.003	2359
506.076	4590
506.149	4994
506.221	6203
506.294	6803
506.367	13842
506.440	55333
506.513	46931
506.586	8753
506.659	5142
506.731	4477
506.804	3277
506.877	6457
506.950	5927
507.022	3995
507.095	3599
507.168	7365
507.241	4793
507.313	2518
507.386	3041
507.459	7103
507.531	4146
507.604	2730
507.677	3622
507.749	2929
507.822	4419
507.894	9296
507.967	13685
508.040	7199
508.112	5989
508.185	5602
508.257	5470
508.330	8365
508.402	6253
508.475	5468
508.547	6297
508.620	5115
508.692	8465
508.765	7609
508.837	4509
508.909	4380
508.982	4071
509.054	5489
509.127	4293
509.199	3484
509.271	4030
509.344	4132
509.416	3742
509.488	3875
509.560	4117
509.633	4935
509.705	5746
509.777	5834
509.849	8174
509.922	6441
509.994	5312
510.066	5165
510.138	4603
510.210	11037
510.283	10632
510.355	8623
510.427	7089
510.499	6464
510.571	6359
510.643	6423
510.715	9584
510.787	9034
510.859	6222
510.931	7522
511.003	8711
511.076	9646
511.148	5972
511.219	5814
511.291	9228
511.363	12100
511.435	6280
511.507	4974
511.579	6713
511.651	6052
511.723	5947
511.795	4612
511.867	5142
511.939	6479
512.010	10757
512.082	12393
512.154	5169
512.226	6457
512.298	8267
512.369	13364
512.441	11146
512.513	10211
512.585	8230
512.656	8065
512.728	8075
512.800	6988
512.871	5905
512.943	6271
513.015	4807
513.086	6743
513.158	6474
513.230	6241
513.301	9094
513.373	11544
513.444	8039
513.516	5901
513.588	5946
513.659	7002
513.731	8217
513.802	7073
513.874	13213
513.945	25386
514.016	12974
514.088	6459
514.159	5645
514.231	8458
514.302	12249
514.374	9389
514.445	8047
514.516	14523
514.588	13968
514.659	7365
514.730	13112
514.802	13587
514.873	9380
514.944	13361
515.016	10891
515.087	9498
515.158	10123
515.229	16828
515.301	11933
515.372	16570
515.443	13756
515.514	10682
515.585	6544
515.656	7025
515.728	7268
515.799	5793
515.870	7121
515.941	6779
516.012	6384
516.083	9477
516.154	8816
516.225	12667
516.296	12652
516.367	10992
516.438	11848
516.509	15156
516.580	19679
516.651	50093
516.722	206055
516.793	160834
516.864	26138
516.935	21598
517.006	23797
517.077	29826
517.148	59045
517.219	201878
517.289	472145
517.360	158354
517.431	49197
517.502	12758
517.573	10660
517.643	9901
517.714	10852
517.785	12154
517.856	11432
517.926	16191
517.997	18690
518.068	24179
518.138	32700
518.209	43286
518.280	131108
518.350	584822
518.421	409060
518.492	49444
518.562	19574
518.633	15991
518.703	13102
518.774	20530
518.845	38062
518.915	45542
518.986	21394
519.056	14636
519.127	20205
519.197	32211
519.268	67171
519.338	61699
519.408	13330
519.479	13974
519.549	12199
519.620	8408
519.690	6576
519.760	5613
519.831	6292
519.901	6813
519.971	5023
520.042	5529
520.112	6527
520.182	7926
520.253	9483
520.323	6395
520.393	8116
520.463	16895
520.534	9033
520.604	22865
520.674	13050
520.744	9342
520.814	21608
520.885	26991
520.955	19250
521.025	73358
521.095	49323
521.165	8037
521.235	6065
521.305	4761
521.375	5177
521.445	6112
521.515	7015
521.585	8972
521.655	8431
521.725	8082
521.795	7263
521.865	3011
521.935	7249
522.005	8123
522.075	5401
522.145	5832
522.215	5508
522.285	8468
522.355	10178
522.424	19764
522.494	21489
522.564	12199
522.634	15077
522.704	52058
522.774	34352
522.843	7677
522.913	5681
522.983	6898
523.053	6535
523.122	5534
523.192	7400
523.262	23992
523.331	39082
523.401	9947
523.471	4782
523.540	5079
523.610	3027
523.680	4252
523.749	3424
523.819	6324
523.888	6067
523.958	3439
524.027	3768
524.097	4360
524.166	3794
524.236	4140
524.305	5984
524.375	3703
524.444	3954
524.514	5061
524.583	3707
524.653	4622
524.722	6043
524.791	4272
524.861	4345
524.930	3498
524.999	3203
525.069	6726
525.138	5017
525.207	5861
525.277	5824
525.346	4458
525.415	4730
525.484	4704
525.554	4391
525.623	5638
525.692	5898
525.761	4861
525.830	6185
525.900	7458
525.969	10431
526.038	16090
526.107	23515
526.176	77103
526.245	86781
526.314	32610
526.383	41002
526.452	66066
526.522	87396
526.591	134442
526.660	48148
526.729	25497
526.797	21387
526.867	34202
526.935	144282
527.004	269893
527.073	203726
527.142	26859
527.211	9407
527.280	8137
527.349	8516
527.418	3957
527.487	5241
527.555	3556
527.624	3022
527.693	2665
527.762	3946
527.831	2878
527.899	4276
527.968	3666
528.037	2617
528.106	4893
528.174	9609
528.243	8696
528.312	8510
528.380	16155
528.449	5904
528.518	3885
528.586	2259
528.655	3690
528.723	2699
528.792	1832
528.861	3250
528.929	2459
528.998	3817
529.066	3379
529.135	2980
529.203	3071
529.272	2037
529.340	4923
529.409	5488
529.477	3303
529.545	4270
529.614	7594
529.682	5288
529.751	8744
529.819	9112
529.887	6997
529.956	5349
530.024	7038
530.092	4399
530.161	6247
530.229	8247
530.297	6970
530.365	5539
530.434	4923
530.502	4762
530.570	5458
530.638	3538
530.707	5251
530.775	7079
530.843	4336
530.911	4482
530.979	4641
531.047	5086
531.115	5373
531.183	4840
531.252	4937
531.320	4129
531.388	3410
531.456	5668
531.524	3383
531.592	4689
531.660	6305
531.728	5512
531.796	5330
531.864	4481
531.932	4611
532.000	5039
532.067	4880
532.135	6550
532.203	8262
532.271	7328
532.339	10885
532.407	25100
532.475	23293
532.542	10507
532.610	9526
532.678	9874
532.746	31966
532.814	114293
532.881	47463
532.949	9862
533.017	7053
533.084	5338
533.152	4922
533.220	5690
533.287	5446
533.355	6487
533.423	5314
533.490	4742
533.558	5632
533.625	5300
533.693	5948
533.761	6501
533.828	7032
533.896	5273
533.963	10520
534.031	15197
534.098	18179
534.166	11728
534.233	6416
534.300	7154
534.368	8036
534.435	6361
534.503	6899
534.570	7522
534.637	7329
534.705	7096
534.772	7585
534.840	9870
534.907	32043
534.974	63557
535.041	14794
535.109	7717
535.176	5039
535.243	5278
535.310	5163
535.378	4516
535.445	4482
535.512	4396
535.579	5251
535.646	3895
535.714	4706
535.781	5970
535.848	7377
535.915	6510
535.982	6060
536.049	6811
536.116	7715
536.183	6036
536.250	5626
536.317	5292
536.384	6196
536.451	8623
536.518	11117
536.585	6627
536.652	8647
536.719	11411
536.786	9805
536.853	7050
536.920	10087
536.987	15696
537.053	13880
537.120	44566
537.187	63941
537.254	8834
537.321	4827
537.388	5923
537.454	4037
537.521	3053
537.588	3786
537.654	4747
537.721	5994
537.788	6454
537.855	5167
537.921	4870
537.988	4664
538.055	4814
538.121	3641
538.188	5065
538.254	8287
538.321	15672
538.388	13041
538.454	5532
538.521	4555
538.587	4442
538.654	4594
538.720	3691
538.787	3948
538.853	5449
538.920	5412
538.986	6703
539.053	5646
539.119	4609
539.185	4688
539.252	5089
539.318	8951
539.385	9219
539.451	5607
539.517	6658
539.583	7638
539.650	11302
539.716	39864
539.782	19338
539.849	5449
539.915	5444
539.981	4860
540.047	6702
540.114	6167
540.180	7123
540.246	5191
540.312	7600
540.378	14436
540.444	18300
540.510	14568
540.576	43492
540.643	23856
540.709	4718
540.775	4445
540.841	5406
540.907	6161
540.973	10746
541.039	10370
541.105	11332
541.171	7301
541.237	4669
541.303	6168
541.369	7067
541.435	7857
541.500	13188
541.566	10154
541.632	4594
541.698	4196
541.764	5494
541.830	4458
541.896	3692
541.961	4691
542.027	4225
542.093	5597
542.159	4943
542.224	5170
542.290	8465
542.356	12324
542.421	18138
542.487	9615
542.553	5796
542.618	5746
542.684	5132
542.750	5125
542.815	6089
542.881	9325
542.947	32293
543.012	40918
543.078	6432
543.143	4873
543.209	6565
543.274	5525
543.340	6277
543.405	11618
543.471	26934
543.536	9650
543.602	5217
543.667	3238
543.732	4783
543.798	4170
543.863	5483
543.928	3171
543.994	3729
544.059	5021
544.124	4676
544.190	3970
544.255	4738
544.320	3934
544.386	4241
544.451	7370
544.516	8990
544.581	8187
544.646	18812
544.712	45430
544.777	14045
544.842	5404
544.907	5914
544.972	4734
545.037	4520
545.102	6211
545.168	5336
545.233	6878
545.298	6640
545.363	7541
545.428	8898
545.493	13365
545.558	30612
545.623	19316
545.688	6012
545.753	5497
545.818	4668
545.883	6607
545.947	5387
546.012	5679
546.077	6777
546.142	6459
546.207	5369
546.272	7423
546.337	8211
546.401	7846
546.466	6501
546.531	5482
546.596	7055
546.661	6985
546.725	7474
546.790	6228
546.855	7151
546.919	6228
546.984	6898
547.049	6989
547.113	8614
547.178	8224
547.243	9043
547.307	11020
547.372	11981
547.436	12818
547.501	10441
547.565	11233
547.630	12379
547.695	12703
547.759	12201
547.823	11492
547.888	10353
547.952	9978
548.017	11404
548.081	12657
548.146	15039
548.210	14694
548.274	11725
548.339	11325
548.403	11141
548.468	9695
548.532	9889
548.596	10667
548.660	10495
548.725	11367
548.789	12160
548.853	15106
548.917	11814
548.982	13595
549.046	14352
549.110	10251
549.174	9667
549.238	9168
549.303	10193
549.367	12332
549.431	10875
549.495	10251
549.559	9986
549.623	10955
549.687	13363
549.751	16483
549.815	15014
549.879	15729
549.943	12547
550.007	14399
550.071	14115
550.135	16261
550.199	13970
550.263	12960
550.327	13288
550.391	16568
550.455	14277
550.519	14352
550.582	15767
550.646	17707
550.710	20575
550.774	17744
550.838	16868
550.901	16781
550.965	18917
551.029	20375
551.093	21985
551.156	24152
551.220	35450
551.284	45335
551.347	27567
551.411	32594
551.475	42797
551.538	21903
551.602	16836
551.666	15042
551.729	14110
551.793	15773
551.856	14898
551.920	14283
551.983	15272
552.047	14201
552.110	14630
552.174	14290
552.237	14142
552.301	14243
552.364	13472
552.428	12294
552.491	13357
552.554	15380
552.618	14394
552.681	15593
552.745	15092
552.808	19865
552.871	28913
552.934	22857
552.998	16865
553.061	16036
553.124	15476
553.187	15444
553.251	16601
553.314	16980
553.377	17230
553.440	21600
553.503	50358
553.567	114603
553.630	36434
553.693	16690
553.756	15085
553.819	13391
553.882	14259
553.945	13237
554.008	13957
554.071	12891
554.134	13607
554.197	13244
554.260	13543
554.323	14430
554.386	13249
554.449	13668
554.512	14400
554.575	12374
554.638	12678
554.701	12333
554.764	12169
554.827	12506
554.889	11777
554.952	11236
555.015	10459
555.078	10925
555.141	12341
555.203	11070
555.266	11298
555.329	12103
555.391	11961
555.454	11943
555.517	11777
555.580	10474
555.642	9881
555.705	10614
555.768	10778
555.830	11326
555.893	10131
555.955	9904
556.018	9435
556.080	10358
556.143	9508
556.206	9665
556.268	10217
556.330	10694
556.393	10384
556.455	10115
556.518	11510
556.580	14350
556.643	9520
556.705	9045
556.767	7984
556.830	9554
556.892	9619
556.955	13238
557.017	12643
557.079	9306
557.142	8767
557.204	8748
557.266	16042
557.328	18967
557.391	9064
557.453	8074
557.515	8311
557.577	9339
557.639	10934
557.701	8541
557.764	8324
557.826	8075
557.888	9227
557.950	8993
558.012	9874
558.074	12430
558.136	21991
558.198	65227
558.260	40247
558.322	12365
558.384	12688
558.446	14864
558.508	17078
558.570	19978
558.632	27829
558.694	46235
558.756	46509
558.818	105615
558.880	358485
558.942	183366
559.003	75561
559.065	54087
559.127	19428
559.189	17980
559.251	18763
559.312	24330
559.374	50196
559.436	192898
559.498	164315
559.559	27036
559.621	18900
559.683	18843
559.744	26538
559.806	74168
559.868	166854
559.929	49961
559.991	19288
560.052	22210
560.114	56760
560.176	57611
560.237	32491
560.299	67974
560.360	26267
560.422	9405
560.483	9053
560.545	6780
560.606	6913
560.667	6629
560.729	6607
560.790	5936
560.852	6234
560.913	5921
560.974	5629
561.036	5643
561.097	6401
561.158	6511
561.220	7400
561.281	6302
561.342	7855
561.403	8339
561.465	8092
561.526	17798
561.587	35028
561.648	12705
561.709	6453
561.771	6909
561.832	6164
561.893	5676
561.954	5985
562.015	5941
562.076	5798
562.137	6468
562.198	6544
562.259	6641
562.320	5662
562.381	6690
562.442	10313
562.503	9529
562.564	7112
562.625	6558
562.686	6211
562.747	6698
562.808	7529
562.869	5870
562.930	6890
562.991	6428
563.051	6888
563.112	6366
563.173	6576
563.234	6092
563.294	5911
563.355	5924
563.416	7211
563.477	6776
563.537	6408
563.598	7466
563.659	6673
563.720	6471
563.780	7643
563.841	7662
563.901	6491
563.962	7218
564.023	6429
564.083	7167
564.144	7044
564.204	6514
564.265	7275
564.325	7674
564.386	12349
564.446	15029
564.507	8195
564.567	6871
564.628	7086
564.688	6975
564.749	6384
564.809	8046
564.869	9249
564.930	8110
564.990	7622
565.050	7464
565.111	7318
565.171	7572
565.231	6559
565.292	8172
565.352	6172
565.412	7495
565.472	7765
565.532	8844
565.593	8187
565.653	8225
565.713	8672
565.773	8901
565.833	9304
565.893	12531
565.953	9788
566.013	9205
566.074	10280
566.134	11003
566.194	13593
566.254	16775
566.314	13907
566.374	10994
566.434	11609
566.494	11989
566.554	10796
566.614	12471
566.673	12313
566.733	13875
566.793	15244
566.853	14425
566.913	15509
566.973	15479
567.033	16151
567.092	16853
567.152	16142
567.212	15710
567.272	15916
567.331	18568
567.391	16976
567.451	19288
567.511	21287
567.570	21950
567.630	18673
567.690	16882
567.749	17705
567.809	18595
567.868	21405
567.928	24189
567.988	27109
568.047	31790
568.107	37548
568.166	49005
568.226	68505
568.285	93222
568.345	95669
568.404	86429
568.464	77104
568.523	70550
568.582	71464
568.642	74675
568.701	85625
568.761	109973
568.820	154054
568.879	173703
568.939	151082
568.998	123756
569.057	98132
569.116	81089
569.176	67098
569.235	57201
569.294	48667
569.353	42362
569.413	37272
569.472	33895
569.531	28662
569.590	26189
569.649	24655
569.708	22591
569.767	20825
569.827	21022
569.886	20266
569.945	16764
570.004	16198
570.063	14946
570.122	14366
570.181	14665
570.240	14786
570.299	15561
570.358	14350
570.417	13162
570.475	11311
570.534	11628
570.593	12277
570.652	11963
570.711	11416
570.770	11143
570.829	11681
570.887	11272
570.946	10955
571.005	10312
571.064	9661
571.122	9878
571.181	10194
571.240	9834
571.299	8683
571.357	8913
571.416	9277
571.475	10058
571.533	10615
571.592	8654
571.650	10444
571.709	8183
571.768	9051
571.826	8331
571.885	8294
571.943	8437
572.002	7777
572.060	9033
572.119	8359
572.177	8089
572.236	7849
572.294	7692
572.352	7810
572.411	7272
572.469	7315
572.528	7100
572.586	7526
572.644	8388
572.703	10636
572.761	8434
572.819	7223
572.877	7964
572.936	7481
572.994	7187
573.052	7138
573.110	7698
573.169	7990
573.227	7079
573.285	7763
573.343	6832
573.401	7873
573.459	7481
573.517	6831
573.576	7202
573.634	7344
573.692	8110
573.750	7804
573.808	7321
573.866	7677
573.924	8778
573.982	9053
574.040	8333
574.098	7026
574.155	7227
574.213	6186
574.271	6495
574.329	7579
574.387	7040
574.445	6688
574.503	6416
574.560	7432
574.618	6181
574.676	5719
574.734	6529
574.792	7166
574.849	6250
574.907	7326
574.965	6368
575.022	5909
575.080	6350
575.138	6760
575.195	6201
575.253	6397
575.311	7857
575.368	7387
575.426	6995
575.483	6570
575.541	6150
575.598	6319
575.656	6281
575.713	6906
575.771	6698
575.828	6913
575.886	6788
575.943	7038
576.001	6356
576.058	6688
576.115	8032
576.173	7924
576.230	8383
576.287	8566
576.345	9593
576.402	7959
576.459	7341
576.517	7582
576.574	7884
576.631	7917
576.688	8277
576.746	7718
576.803	6964
576.860	7029
576.917	7346
576.974	7367
577.031	8066
577.089	6821
577.146	8061
577.203	7339
577.260	8248
577.317	7893
577.374	8601
577.431	8847
577.488	8426
577.545	7365
577.602	8240
577.659	8163
577.716	8806
577.773	9336
577.830	9082
577.886	8157
577.943	7654
578.000	8533
578.057	8922
578.114	9881
578.171	11075
578.227	13624
578.284	14282
578.341	13158
578.398	11215
578.454	9918
578.511	10584
578.568	11121
578.625	9761
578.681	9302
578.738	8452
578.794	8097
578.851	9184
578.908	8866
578.964	9000
579.021	9877
579.077	9462
579.134	9776
579.190	9129
579.247	8390
579.303	8302
579.360	8500
579.416	8451
579.473	8557
579.529	8964
579.586	8688
579.642	9890
579.698	8965
579.755	10251
579.811	11435
579.867	10846
579.924	11027
579.980	10412
580.036	12461
580.093	14109
580.149	19769
580.205	23110
580.261	19166
580.317	17145
580.374	15365
580.430	14081
580.486	13055
580.542	12461
580.598	12376
580.619	11932
580.654	11168
580.692	10856
580.710	10710
580.765	10964
580.767	10977
580.823	12015
580.838	11644
580.879	10684
580.911	10938
580.935	11132
580.984	11602
580.991	11673
581.047	11251
581.057	11211
581.103	11059
581.130	11485
581.159	11951
581.203	13492
581.215	13879
581.270	13311
581.276	13222
581.326	12508
581.349	12547
581.382	12611
581.422	12443
581.438	12372
581.494	12108
581.494	12106
581.550	12092
581.567	12198
581.606	12450
581.640	12044
581.661	11811
581.713	12503
581.717	12552
581.773	11917
581.786	11992
581.829	12395
581.859	12788
581.885	13035
581.932	12811
581.940	12799
581.996	12813
582.004	12795
582.052	12508
582.077	12600
582.107	12806
582.150	13050
582.163	13104
582.219	13853
582.223	13813
582.274	13366
582.296	13703
582.330	14287
582.368	14291
582.386	14272
582.441	13362
582.441	13359
582.497	14549
582.514	14653
582.552	15069
582.587	15139
582.608	15122
582.659	16328
582.663	16419
582.719	15270
582.732	15406
582.774	15862
582.805	15835
582.830	15835
582.877	16251
582.885	16329
582.941	17054
582.950	17265
582.996	18555
583.023	19244
583.052	20008
583.095	20991
583.107	21250
583.162	21716
583.168	22030
583.218	24529
583.240	23956
583.273	22862
583.313	22351
583.328	22191
583.384	20099
583.385	20090
583.439	19789
583.458	19512
583.494	19327
583.531	19128
583.549	18913
583.603	19247
583.605	19265
583.660	19703
583.676	19346
583.715	18507
583.748	19265
583.770	19779
583.820	19618
583.825	19579
583.881	20149
583.893	19907
583.936	19476
583.965	19793
583.991	19860
584.038	20045
584.046	20117
584.101	20835
584.110	20893
584.156	21380
584.183	21493
584.211	21473
584.255	21528
584.266	21542
584.321	22253
584.328	22237
584.376	22410
584.400	22884
584.431	23453
584.472	23204
584.486	23173
584.541	24403
584.545	24420
584.596	24401
584.617	24526
584.651	25155
584.689	25809
584.706	26061
584.761	26013
584.762	26009
584.816	26591
584.834	26908
584.871	27777
584.906	27696
584.926	27591
584.978	27829
584.980	27863
585.035	28542
585.051	28859
585.090	30068
585.123	31004
585.145	31406
585.195	32029
585.200	32159
585.254	33539
585.267	33997
585.309	35878
585.340	37698
585.364	38996
585.412	39663
585.419	39657
585.473	40400
585.484	40594
585.528	43259
585.556	45795
585.583	50254
585.628	61221
585.637	65998
585.692	102806
585.700	111140
585.747	156163
585.772	157491
585.801	129107
585.845	76183
585.856	67629
585.910	50009
585.917	48246
585.965	45804
585.989	45154
586.019	44947
586.061	44813
586.074	45005
586.128	46090
586.133	46133
586.183	46937
586.205	47460
586.237	48242
586.277	48696
586.292	48994
586.346	49447
586.349	49453
586.401	50625
586.421	50747
586.455	51237
586.493	53058
586.509	54469
586.564	58382
586.565	58448
586.618	65646
586.637	67267
586.672	66662
586.709	63813
586.727	63014
586.781	63899
586.781	63984
586.835	66053
586.853	66614
586.889	67345
586.925	67962
586.944	68979
586.996	72101
586.998	72274
587.052	75490
587.068	76227
587.106	78867
587.140	80800
587.161	82136
587.212	86107
587.215	86473
587.269	91520
587.284	92704
587.323	95338
587.356	97453
587.377	99611
587.427	104553
587.431	105145
587.485	111722
587.499	113390
587.539	118708
587.571	122380
587.593	125628
587.643	132695
587.648	133692
587.702	143506
587.715	145778
587.755	154738
587.786	161443
587.810	166948
587.858	177627
587.864	179493
587.917	196755
587.930	200412
587.971	215388
588.001	226011
588.025	235936
588.073	255568
588.079	258966
588.133	287612
588.145	293642
588.187	321110
588.217	339964
588.241	359009
588.288	397328
588.295	404073
588.348	456854
588.360	467668
588.402	522338
588.431	560890
588.456	601288
588.503	678191
588.510	693784
588.564	812997
588.575	837589
588.617	965507
588.646	1052466
588.671	1149626
588.718	1334379
588.725	1366762
588.778	1603241
588.789	1647297
588.832	1737796
588.861	1780589
588.886	1692342
588.932	1465082
588.939	1436667
588.993	1172022
589.004	1143861
589.047	1486360
589.075	1707245
589.100	1799287
589.147	1897326
589.154	1880973
589.207	1700668
589.218	1662052
589.261	1551156
589.290	1477610
589.314	1482438
589.361	1495848
589.368	1514713
589.421	1654798
589.433	1681911
589.475	1733256
589.504	1750652
589.528	1642966
589.576	1367634
589.582	1380852
589.635	1553212
589.647	1587567
589.689	1707427
589.718	1750172
589.742	1619580
589.790	1342055
589.795	1316855
589.849	1058034
589.861	996906
589.902	866239
589.932	767711
589.955	717669
590.004	609932
590.009	603646
590.062	523173
590.075	502518
590.115	458626
590.146	422975
590.168	405004
590.218	363198
590.222	361503
590.275	328759
590.289	319726
590.328	300369
590.360	283365
590.381	275165
590.431	253960
590.435	253526
590.488	235563
590.503	230296
590.541	220367
590.574	210565
590.594	206238
590.645	193587
590.647	193653
590.700	182726
590.716	179053
590.753	172598
590.787	165547
590.806	163202
590.859	155827
590.859	156108
590.912	148190
590.930	145317
590.965	142288
591.001	138474
591.018	137284
591.071	132808
591.072	132407
591.124	127575
591.143	125398
591.177	122783
591.214	119242
591.230	118584
591.283	115495
591.285	115054
591.336	111759
591.356	110088
591.389	108516
591.427	105886
591.442	105083
591.495	101021
591.498	100448
591.547	98257
591.569	96896
591.600	95856
591.640	93793
591.653	93486
591.706	91253
591.711	90737
591.759	88438
591.782	86987
591.811	87278
591.853	87007
591.864	86700
591.917	83934
591.924	83286
591.969	81871
591.995	80783
592.022	80831
592.066	80153
592.075	80227
592.127	79307
592.137	78910
592.180	78887
592.208	78505
592.233	77670
592.279	75369
592.285	75397
592.338	73815
592.350	73250
592.390	72213
592.421	71047
592.443	70751
592.491	69478
592.495	69605
592.548	68611
592.562	68146
592.600	68118
592.633	67724
592.653	67292
592.704	65301
592.705	65660
592.775	64756
592.846	64169
592.916	63606
592.987	63169
593.058	61563
593.128	59669
593.199	59198
593.270	58358
593.341	56902
593.411	55985
593.482	55999
593.553	55177
593.623	54874
593.694	54547
593.764	54114
593.835	53437
593.906	51386
593.976	51503
594.047	52976
594.117	52333
594.188	53613
594.258	50763
594.329	48255
594.399	48847
594.470	49206
594.540	49096
594.611	48840
594.681	47262
594.751	47755
594.822	49190
594.892	49787
594.963	49408
595.033	48329
595.103	48592
595.174	48873
595.244	53279
595.314	58145
595.384	49482
595.455	47517
595.525	48458
595.595	48469
595.665	48438
595.736	48312
595.806	47548
595.876	48678
595.946	47197
596.016	48135
596.087	47950
596.157	48125
596.227	48021
596.297	49401
596.367	49593
596.437	52275
596.507	54492
596.577	57489
596.647	54110
596.717	52431
596.787	53031
596.857	52501
596.927	53282
596.997	51508
597.067	53100
597.137	55457
597.207	57064
597.277	54018
597.347	53302
597.417	53060
597.487	52904
597.557	53509
597.626	53831
597.696	53534
597.766	55991
597.836	59253
597.906	54417
597.975	50928
598.045	50254
598.115	51842
598.185	53244
598.254	56671
598.324	59179
598.394	59579
598.464	60622
598.533	59289
598.603	57450
598.672	58149
598.742	57355
598.812	56210
598.881	58282
598.951	58766
599.020	58145
599.090	59445
599.159	60230
599.229	59472
599.299	58763
599.368	59162
599.437	60566
599.507	59135
599.576	59310
599.646	60943
599.715	61605
599.785	59825
599.854	59146
599.924	60107
599.993	60846
600.062	60752
600.132	61242
600.201	62991
600.270	68181
600.340	71030
600.409	69976
600.478	70489
600.547	71516
600.617	70813
600.686	66773
600.755	65193
600.824	64695
600.894	64110
600.963	64507
601.032	66264
601.101	65819
601.170	64925
601.239	67577
601.308	68367
601.378	69984
601.447	69770
601.516	71306
601.585	72260
601.654	75620
601.723	75893
601.792	77714
601.861	80010
601.930	87108
601.999	89274
602.068	85019
602.137	87221
602.206	86697
602.275	89081
602.343	89933
602.412	91555
602.481	89909
602.550	89035
602.619	90970
602.688	91994
602.756	93818
602.825	92298
602.894	93882
602.963	92193
603.032	93864
603.100	94510
603.169	92039
603.238	94849
603.307	93275
603.375	91556
603.444	97154
603.513	90284
603.581	92104
603.650	97359
603.719	84230
603.787	77254
603.856	77905
603.924	80018
603.993	80975
604.061	82818
604.130	86272
604.198	87347
604.267	87462
604.335	90412
604.404	90437
604.472	92593
604.541	94027
604.609	95210
604.678	99973
604.746	98797
604.815	104844
604.883	102463
604.951	97320
605.020	99859
605.088	97321
605.156	87833
605.225	88015
605.293	86498
605.361	87865
605.429	85846
605.498	87994
605.566	88673
605.634	90521
605.702	91896
605.771	89975
605.839	95552
605.907	87619
605.975	90805
606.043	90660
606.111	83007
606.180	93911
606.248	91710
606.316	86755
606.384	91540
606.452	81440
606.520	63505
606.588	61231
606.656	58783
606.724	58781
606.792	55213
606.860	51789
606.928	48689
606.996	46497
607.064	46844
607.132	46272
607.200	48952
607.267	50181
607.335	50309
607.403	52474
607.471	50820
607.539	49777
607.607	51782
607.674	46357
607.742	46532
607.810	45919
607.878	45767
607.946	46579
608.013	46386
608.081	48022
608.149	48191
608.216	47525
608.284	50518
608.352	49019
608.419	49416
608.487	50589
608.555	48531
608.622	48334
608.690	48617
608.757	52530
608.825	53417
608.893	52999
608.960	53087
609.028	53039
609.095	52864
609.163	50744
609.230	48123
609.298	43032
609.365	43486
609.432	47068
609.500	49123
609.567	54914
609.635	62314
609.702	64784
609.769	64986
609.837	57261
609.904	50607
609.971	51388
610.039	61052
610.106	78847
610.173	139666
610.241	314750
610.308	411337
610.375	264959
610.442	98879
610.509	61129
610.577	55183
610.644	51424
610.711	50762
610.778	52505
610.845	50326
610.912	54302
610.980	57539
611.047	63623
611.114	60538
611.181	52070
611.248	51420
611.315	54112
611.382	54047
611.449	56659
611.516	58253
611.583	55653
611.650	56186
611.717	57159
611.784	59056
611.851	61068
611.918	65849
611.984	77401
612.051	104432
612.118	198052
612.185	483551
612.252	493335
612.319	124436
612.386	79271
612.452	69576
612.519	66760
612.586	66578
612.653	66172
612.719	64691
612.786	63347
612.853	59661
612.919	57568
612.986	58785
613.053	55095
613.120	54481
613.186	51201
613.253	52483
613.319	51201
613.386	51222
613.453	53554
613.519	55222
613.586	56072
613.652	63164
613.719	59226
613.785	59204
613.852	52971
613.918	53951
613.985	55369
614.051	62863
614.118	83061
614.184	96137
614.250	57730
614.317	54493
614.383	52876
614.449	53158
614.516	53005
614.582	54713
614.648	54289
614.715	53094
614.781	53469
614.847	51833
614.914	53474
614.980	52587
615.046	51889
615.112	53364
615.179	55961
615.245	60362
615.311	68404
615.377	95731
615.443	124010
615.509	89264
615.575	69817
615.642	62168
615.708	63374
615.774	66206
615.840	74514
615.906	87208
615.972	121929
616.038	214173
616.104	373116
616.170	653823
616.236	808473
616.302	216650
616.368	110703
616.434	84808
616.500	73233
616.565	73388
616.631	84733
616.697	81011
616.763	74763
616.829	92460
616.895	150917
616.961	179642
617.026	104551
617.092	66796
617.158	59845
617.224	57935
617.289	54503
617.355	51958
617.421	51460
617.487	51291
617.552	49273
617.618	47452
617.684	47311
617.749	49652
617.815	47679
617.880	45987
617.946	45450
618.012	46599
618.077	49222
618.143	47574
618.208	46232
618.274	48867
618.339	50823
618.405	45907
618.470	44296
618.536	44733
618.601	45238
618.667	43788
618.732	42252
618.798	40601
618.863	40380
618.928	40096
618.994	41612
619.059	42372
619.124	47877
619.190	45103
619.255	40402
619.320	40634
619.386	40801
619.451	39624
619.516	40258
619.581	40242
619.647	41230
619.712	40901
619.777	39728
619.842	40173
619.907	41136
619.972	41726
620.038	42550
620.103	40768
620.168	39348
620.233	40923
620.298	41473
620.363	41038
620.428	41490
620.493	42630
620.558	42564
620.623	42857
620.688	43809
620.753	42083
620.818	42999
620.883	42442
620.948	43761
621.013	43151
621.078	43295
621.143	42119
621.207	45719
621.272	43977
621.337	43402
621.402	44184
621.467	46236
621.532	47748
621.596	45733
621.661	43647
621.726	43040
621.791	42410
621.855	44816
621.920	44045
621.985	44277
622.049	47119
622.114	46264
622.179	46487
622.243	46381
622.308	46745
622.373	48177
622.437	48464
622.502	45804
622.566	46440
622.631	45619
622.695	46592
622.760	46648
622.824	45845
622.889	46594
622.953	47242
623.018	53988
623.082	58089
623.147	47749
623.211	47719
623.276	47838
623.340	45095
623.404	44866
623.469	45075
623.533	44092
623.597	45354
623.662	44051
623.726	41427
623.790	40439
623.854	40745
623.919	40846
623.983	40819
624.047	41936
624.111	40284
624.176	42405
624.240	42702
624.304	45107
624.368	41694
624.432	42594
624.496	41441
624.560	44538
624.625	45417
624.689	42722
624.753	44026
624.817	43784
624.881	41175
624.945	39614
625.009	37904
625.073	38407
625.137	39679
625.201	43776
625.265	45770
625.329	40216
625.393	39870
625.456	40712
625.520	39992
625.584	41471
625.648	44166
625.712	49330
625.776	66729
625.839	78463
625.903	52246
625.967	35687
626.031	40767
626.095	55140
626.158	41540
626.222	32612
626.286	30217
626.349	29891
626.413	28558
626.477	30289
626.540	29573
626.604	28857
626.668	29163
626.731	27528
626.795	27534
626.858	27879
626.922	26574
626.986	26254
627.049	25842
627.113	27227
627.176	27634
627.240	26148
627.303	25200
627.366	25365
627.430	26144
627.493	26109
627.557	25737
627.620	26716
627.684	26387
627.747	25638
627.810	24334
627.874	24029
627.937	21614
628.000	24662
628.064	23154
628.127	20766
628.190	21373
628.253	21471
628.317	19690
628.380	20837
628.443	19995
628.506	20134
628.569	20110
628.632	18567
628.696	18315
628.759	18700
628.822	18324
628.885	17178
628.948	17174
629.011	18011
629.074	17260
629.137	17964
629.200	16592
629.263	17443
629.326	16554
629.389	16705
629.452	16997
629.515	16891
629.578	16361
629.641	16980
629.704	17182
629.767	17129
629.830	16456
629.892	16345
629.955	15145
630.018	17033
630.081	16443
630.144	20367
630.207	16919
630.269	18058
630.332	16582
630.395	16682
630.458	14980
630.520	14629
630.583	14645
630.646	14858
630.708	13952
630.771	15002
630.834	14820
630.896	14712
630.959	14398
631.021	14668
631.084	14073
631.146	15375
631.209	16098
631.272	14394
631.334	15618
631.397	14792
631.459	13432
631.522	15745
631.584	14714
631.646	16070
631.709	15901
631.771	17954
631.834	17300
631.896	15858
631.958	14309
632.021	15201
632.083	13745
632.145	14446
632.208	13494
632.270	15663
632.332	13584
632.395	13479
632.457	14261
632.519	13966
632.581	14278
632.643	13610
632.706	13901
632.768	12877
632.830	14482
632.892	13624
632.954	13398
633.016	14091
633.078	13386
633.141	13179
633.203	13396
633.265	13418
633.327	13431
633.389	13308
633.451	14303
633.513	16028
633.575	14905
633.637	15209
633.698	14622
633.760	14150
633.822	14740
633.884	13897
633.946	13105
634.008	14236
634.070	14395
634.132	17108
634.193	16866
634.255	16068
634.317	15767
634.379	16014
634.441	14614
634.502	14142
634.564	13509
634.626	13695
634.687	13856
634.749	13331
634.811	12611
634.873	12834
634.934	13137
634.996	12329
635.057	12164
635.119	12248
635.181	12973
635.242	12814
635.304	11727
635.365	13985
635.427	12948
635.488	12358
635.550	12128
635.611	12164
635.673	11661
635.734	14201
635.796	13164
635.857	15026
635.918	14173
635.980	15224
636.041	14924
636.102	15663
636.164	15542
636.225	16251
636.286	13856
636.348	15301
636.409	13236
636.470	12048
636.531	12588
636.593	11981
636.654	13113
636.715	11949
636.776	11310
636.838	10828
636.899	11631
636.960	10855
637.021	11557
637.082	11302
637.143	12370
637.204	10662
637.265	9870
637.326	11051
637.387	11376
637.448	9903
637.509	10844
637.570	11416
637.631	10917
637.692	10088
637.753	9879
637.814	10167
637.875	10903
637.936	11108
637.997	9329
638.058	11368
638.119	10907
638.179	10104
638.240	10918
638.301	11016
638.362	9435
638.423	10164
638.483	10845
638.544	9080
638.605	10468
638.666	10384
638.726	10016
638.787	10868
638.848	9963
638.908	9805
638.969	9916
639.030	9499
639.090	9321
639.151	9215
639.211	10397
639.272	11100
639.332	15522
639.393	13968
639.453	9811
639.514	9872
639.574	9448
639.635	9136
639.695	10351
639.756	8435
639.816	10325
639.877	10238
639.937	13642
639.997	18246
640.058	11136
640.118	9099
640.178	9429
640.239	9556
640.299	7920
640.359	9319
640.420	9566
640.480	10002
640.540	10428
640.600	10314
640.661	10113
640.721	9934
640.781	13385
640.841	13397
640.901	10990
640.961	9746
641.021	9947
641.082	9874
641.142	12613
641.202	12166
641.262	8029
641.322	10058
641.382	8058
641.442	9720
641.502	8813
641.562	8273
641.622	9089
641.682	9295
641.742	8858
641.802	9407
641.861	9705
641.921	9225
641.981	9421
642.041	10341
642.101	10647
642.161	9381
642.221	8752
642.280	8302
642.340	8146
642.400	7543
642.460	9077
642.519	8410
642.579	8459
642.639	8628
642.698	6762
642.758	10540
642.818	9003
642.877	8434
642.937	8853
642.997	9567
643.056	11357
643.116	9395
643.175	10514
643.235	8822
643.294	9582
643.354	9719
643.414	9540
643.473	10935
643.532	13183
643.592	17700
643.651	24459
643.711	41794
643.770	75173
643.830	167997
643.889	454264
643.948	197840
644.008	27880
644.067	15422
644.126	11509
644.186	11313
644.245	10455
644.304	8173
644.363	9545
644.423	8433
644.482	8163
644.541	8916
644.600	7535
644.659	11108
644.719	10308
644.778	14380
644.837	19844
644.896	36275
644.955	90638
645.014	55556
645.073	15107
645.132	9809
645.191	9564
645.250	8520
645.309	10267
645.368	8951
645.427	10303
645.486	12334
645.545	22127
645.604	12381
645.663	8538
645.722	7985
645.781	8666
645.840	9376
645.898	10730
645.957	14824
646.016	20696
646.075	37294
646.134	69498
646.192	160314
646.251	349922
646.310	89945
646.369	17848
646.427	12864
646.486	10684
646.545	9434
646.603	9144
646.662	8114
646.721	7941
646.779	7296
646.838	6770
646.896	9803
646.955	10702
647.014	14683
647.072	20297
647.131	52801
647.189	45755
647.248	9943
647.306	7728
647.365	7449
647.423	5220
647.481	7571
647.540	4960
647.598	6712
647.657	6238
647.715	7173
647.773	6167
647.832	7009
647.890	4902
647.948	5609
648.007	7013
648.065	5683
648.123	6170
648.181	7515
648.240	6944
648.298	8058
648.356	5640
648.414	6298
648.472	5912
648.531	6803
648.589	6135
648.647	5719
648.705	5377
648.763	6116
648.821	6293
648.879	5679
648.937	6411
648.995	7870
649.053	7761
649.111	11854
649.169	16935
649.227	28397
649.285	50650
649.343	150354
649.401	131261
649.459	26531
649.516	19667
649.574	11931
649.632	19383
649.690	29499
649.748	14834
649.806	14906
649.863	26947
649.921	38746
649.979	39782
650.037	9594
650.094	5142
650.152	5581
650.210	5645
650.268	6678
650.325	6126
650.383	7446
650.440	5479
650.498	5757
650.556	5684
650.613	4932
650.671	5758
650.728	4978
650.786	5117
650.843	5519
650.901	3972
650.958	4293
651.016	5527
651.073	5114
651.131	3260
651.188	4645
651.246	4962
651.303	4126
651.360	4358
651.418	3254
651.475	4475
651.532	3545
651.590	5453
651.647	3926
651.704	4143
651.762	5066
651.819	4210
651.876	3928
651.933	4171
651.990	4999
652.048	3185
652.105	4090
652.162	4220
652.219	4201
652.276	3638
652.333	3987
652.390	2821
652.448	4601
652.505	3706
652.562	5019
652.619	4345
652.676	7173
652.733	10505
652.790	4214
652.847	3383
652.904	4216
652.961	3002
653.017	3330
653.074	4900
653.131	3714
653.188	3249
653.245	3594
653.302	4301
653.359	3812
653.415	4363
653.472	3713
653.529	4320
653.586	3268
653.642	3834
653.699	4260
653.756	3077
653.813	3551
653.869	4488
653.926	2798
653.983	3466
654.039	3664
654.096	3076
654.152	4136
654.209	2526
654.266	3862
654.322	3174
654.379	4347
654.435	3949
654.492	3913
654.548	4891
654.605	7360
654.661	6215
654.717	4957
654.774	4370
654.830	4222
654.887	4099
654.943	4347
655.000	4463
655.056	4444
655.112	4444
655.168	3198
655.225	3137
655.281	3895
655.337	3908
655.394	5061
655.450	5776
655.506	4915
655.562	4486
655.618	7272
655.675	3469
655.731	4020
655.787	3130
655.843	3898
655.899	3544
655.955	4645
656.011	3750
656.067	3036
656.123	5204
656.179	4480
656.235	4909
656.291	3500
656.347	4691
656.403	3628
656.459	4091
656.515	3890
656.571	3436
656.627	4143
656.683	3243
656.739	4082
656.795	3447
656.850	3695
656.906	4114
656.962	4491
657.018	3486
657.074	4140
657.129	4224
657.185	4666
657.241	6246
657.297	5829
657.352	4229
657.408	2579
657.464	4097
657.519	3841
657.575	2575
657.630	3282
657.686	2873
657.742	1558
657.797	2808
657.853	3243
657.908	5149
657.964	2645
658.019	4112
658.075	3361
658.130	3088
658.186	2101
658.241	3617
658.297	2943
658.352	2811
658.407	3389
658.463	3134
658.518	3386
658.573	3721
658.629	2926
658.684	2910
658.739	3261
658.795	2852
658.850	3286
658.905	2234
658.960	3958
659.016	2090
659.071	2625
659.126	3403
659.181	3412
659.236	5341
659.291	6509
659.346	4105
659.401	4604
659.457	5304
659.512	6880
659.567	5640
659.622	2883
659.677	3523
659.732	2068
659.787	3242
659.842	3349
659.897	3988
659.952	4139
660.007	2636
660.061	3051
660.116	1585
660.171	3251
660.226	3314
660.281	3668
660.336	1695
660.391	4065
660.445	2202
660.500	3415
660.555	3255
660.610	2892
660.664	4233
660.719	2202
660.774	2980
660.828	3754
660.883	3353
660.938	3061
660.992	2457
661.047	3313
661.101	2890
661.156	3144
661.211	3127
661.265	2948
661.320	2384
661.374	2724
661.429	2835
661.483	3056
661.538	2666
661.592	2924
661.647	2580
661.701	4559
661.755	3570
661.810	3163
661.864	2392
661.919	2276
661.973	2890
662.027	3228
662.081	2995
662.136	2432
662.190	3595
662.244	3883
662.299	2755
662.353	3406
662.407	2714
662.461	2449
662.515	3980
662.569	2522
662.624	3705
662.678	2269
662.732	2118
662.786	2954
662.840	2712
662.894	3316
662.948	2718
663.002	3050
663.056	3105
663.110	2695
663.164	2915
663.218	3505
663.272	3105
663.326	3129
663.380	3087
663.434	3349
663.488	2649
663.542	2608
663.595	2939
663.649	1747
663.703	3492
663.757	1893
663.811	2482
663.864	2796
663.918	3196
663.972	2804
664.026	3031
664.079	2499
664.133	2616
664.187	2619
664.240	2441
664.294	2838
664.348	2411
664.401	2751
664.455	2184
664.508	2181
664.562	2776
664.615	3271
664.669	1990
664.722	2856
664.776	2312
664.829	2769
664.883	3068
664.936	2123
664.990	2479
665.043	3367
665.097	1305
665.150	3611
665.203	2925
665.257	3462
665.310	3260
665.363	2351
665.417	2654
665.470	3059
665.523	1842
665.576	3095
665.630	2724
665.683	2905
665.736	3127
665.789	2536
665.842	2445
665.895	3809
665.949	2071
666.002	3128
666.055	2722
666.108	2886
666.161	2394
666.214	2884
666.267	2694
666.320	3505
666.373	3392
666.426	2824
666.479	2507
666.532	3115
666.585	2128
666.638	4110
666.691	2645
666.744	2662
666.796	2723
666.849	2390
666.902	3240
666.955	2383
667.008	2816
667.060	2515
667.113	2301
667.166	2552
667.219	2219
667.271	2712
667.324	2718
667.377	2765
667.430	2760
667.482	3132
667.535	3982
667.587	2831
667.640	3286
667.693	3696
667.745	4508
667.798	6114
667.850	3738
667.903	3059
667.955	2663
668.008	2706
668.060	3938
668.113	2481
668.165	3530
668.218	3326
668.270	2814
668.322	3253
668.375	2950
668.427	3616
668.479	2416
668.532	2733
668.584	2750
668.636	3251
668.689	3289
668.741	2474
668.793	3354
668.845	3287
668.898	2931
668.950	2069
669.002	3216
669.054	3248
669.106	2733
669.158	3079
669.211	3717
669.263	2963
669.315	3834
669.367	5315
669.419	3743
669.471	4028
669.523	5296
669.575	5593
669.627	4403
669.679	4226
669.731	2386
669.783	4462
669.835	4766
669.886	4759
669.938	4029
669.990	3871
670.042	4369
670.094	5140
670.146	5907
670.197	7262
670.249	8798
670.301	12286
670.353	16233
670.404	21437
670.456	29907
670.508	48375
670.560	79116
670.611	131039
670.663	224043
670.715	439279
670.766	682961
670.818	426783
670.869	117413
670.921	48102
670.972	29634
671.024	20476
671.075	15015
671.127	12450
671.178	9996
671.230	8278
671.281	6958
671.333	7440
671.384	5626
671.436	6202
671.487	6847
671.538	6784
671.590	7931
671.641	9401
671.692	13025
671.744	21389
671.795	22712
671.846	11916
671.897	6504
671.949	5153
672.000	4046
672.051	3648
672.102	4501
672.153	3640
672.204	2893
672.256	3353
672.307	3084
672.358	2664
672.409	3080
672.460	2865
672.511	2392
672.562	2679
672.613	2399
672.664	3349
672.715	3421
672.766	3217
672.817	2591
672.868	2451
672.919	2429
672.970	2310
673.021	1797
673.071	2404
673.122	2446
673.173	2643
673.224	1578
673.275	2123
673.326	2665
673.376	2073
673.427	1854
673.478	2176
673.528	2265
673.579	2448
673.630	2160
673.680	2324
673.731	1248
673.782	1930
673.832	2018
673.883	1945
673.934	1096
673.984	2629
674.035	1842
674.085	1842
674.136	2500
674.186	2358
674.237	2454
674.287	3555
674.338	2880
674.388	1570
674.438	2006
674.489	2524
674.539	2433
674.589	1926
674.640	2372
674.690	1961
674.740	1462
674.791	2088
674.841	2754
674.891	2883
674.942	2112
674.992	1348
675.042	1348
675.092	1196
675.142	1915
675.193	1967
675.243	1231
675.293	2361
675.343	1380
675.393	2084
675.443	2428
675.493	1909
675.543	1331
675.593	1891
675.643	2191
675.693	1917
675.743	2486
675.793	1843
675.843	2114
675.893	2233
675.943	1577
675.993	1698
676.043	1366
676.093	1109
676.142	1395
676.192	2339
676.242	1829
676.292	1268
676.341	1223
676.391	2077
676.441	1759
676.491	630
676.540	901
676.590	1628
676.640	1759
676.689	1846
676.739	720
676.789	1485
676.838	1459
676.888	2395
676.937	1399
676.987	976
677.037	1272
677.086	991
677.136	555
677.185	1147
677.235	1131
677.284	1186
677.333	1102
677.383	1242
677.432	1484
677.482	1457
677.531	1299
677.580	766
677.630	1238
677.679	1286
677.728	1701
677.778	1512
677.827	1774
677.876	709
677.925	937
677.975	1378
678.024	1136
678.073	1228
678.122	1565
678.171	1093
678.220	1181
678.269	1978
678.319	1082
678.368	1288
678.417	1147
678.466	1354
678.515	1662
678.564	1078
678.613	887
678.662	799
678.711	1867
678.760	1296
678.809	1067
678.857	1065
678.906	1052
678.955	1625
679.004	1581
679.053	1973
679.102	1087
679.151	1420
679.199	975
679.248	1014
679.297	1117
679.346	1114
679.394	1963
679.443	1566
679.492	1475
679.540	449
679.589	1134
679.638	918
679.686	857
679.735	1014
679.784	865
679.832	1044
679.881	856
679.929	1649
679.978	668
680.026	49
680.075	848
680.123	622
680.172	982
680.220	906
680.268	1472
680.317	1544
680.365	1023
680.414	1462
680.462	1013
680.510	1190
680.559	1021
680.607	947
680.655	1232
680.703	1146
680.752	818
680.800	535
680.848	641
680.896	1080
680.945	698
680.993	817
681.041	1402
681.089	480
681.137	1409
681.185	1937
681.233	337
681.258	881
681.281	1349
681.329	699
681.377	766
681.380	856
681.425	1587
681.473	1554
681.502	1697
681.521	1714
681.569	1329
681.617	1482
681.624	1628
681.665	2193
681.713	2528
681.745	2404
681.761	2275
681.809	782
681.857	2099
681.867	2122
681.904	1997
681.952	3099
681.989	2611
682.000	2410
682.048	2233
682.096	2469
682.111	2603
682.143	2726
682.191	2083
682.233	2902
682.239	2983
682.286	2946
682.334	3350
682.354	3063
682.382	2560
682.430	3522
682.476	2940
682.477	2886
682.525	3927
682.572	3395
682.598	3472
682.620	3468
682.667	3808
682.715	3401
682.720	3475
682.763	3754
682.810	3847
682.841	3877
682.857	3834
682.905	3930
682.952	4404
682.963	4566
683.000	4972
683.047	4648
683.085	5385
683.095	5532
683.142	4580
683.190	4820
683.206	5148
683.237	5631
683.284	5213
683.328	5153
683.332	5115
683.379	4949
683.426	5045
683.449	5200
683.473	5318
683.521	4861
683.568	5229
683.571	5300
683.615	5691
683.662	6629
683.693	6386
683.709	6177
683.757	5755
683.804	6581
683.814	6516
683.851	6225
683.898	6502
683.936	6789
683.945	6815
683.992	6800
684.039	6390
684.057	6470
684.086	6553
684.133	7591
684.179	7284
684.180	7239
684.227	7285
684.274	7382
684.300	7345
684.321	7322
684.368	7344
684.415	7818
684.422	7845
684.462	7812
684.509	7897
684.543	7742
684.556	7650
684.603	8155
684.649	8081
684.665	8086
684.696	7982
684.743	8499
684.786	8384
684.790	8363
684.837	8265
684.883	8750
684.908	9077
684.930	9290
684.977	9868
685.023	9177
685.029	9207
685.070	9231
685.117	9256
685.150	9127
685.164	9060
685.210	9470
685.257	10018
685.272	10042
685.303	10049
685.350	10209
685.393	10058
685.396	10022
685.443	10353
685.490	10207
685.514	10331
685.536	10416
685.583	10034
685.629	10922
685.636	10752
685.675	9690
685.722	11243
685.757	10793
685.768	10592
685.815	10611
685.861	10297
685.878	10407
685.908	10674
685.954	11027
686.000	10911
686.000	10898
686.047	10965
686.093	11807
686.121	11756
686.139	11623
686.185	11408
686.232	11374
686.242	11377
686.278	11408
686.324	11829
686.363	11807
686.370	11781
686.416	11553
686.463	12285
686.484	11818
686.509	11399
686.555	12159
686.601	12241
686.606	12289
686.647	12530
686.693	12128
686.727	12295
686.739	12364
686.785	12419
686.831	12614
686.848	12700
686.877	12727
686.923	12549
686.969	12662
686.969	12662
687.015	12650
687.061	12650
687.090	12848
687.107	12928
687.153	13189
687.199	13285
687.211	13086
687.245	12572
687.291	13101
687.332	12991
687.336	13000
687.382	13790
687.428	13378
687.453	13812
687.474	13966
687.520	13620
687.565	13526
687.574	13502
687.611	13908
687.657	14118
687.695	14575
687.702	14701
687.748	15589
687.794	16620
687.816	16816
687.839	16500
687.885	16394
687.931	15569
687.937	15471
687.976	14990
688.022	14861
688.058	14834
688.067	14907
688.113	14521
688.158	14747
688.179	14740
688.204	14852
688.249	15041
688.295	15397
688.300	15451
688.340	15791
688.386	15972
688.421	15606
688.431	15482
688.477	15265
688.522	15539
688.542	15523
688.567	15740
688.613	15664
688.658	16124
688.663	16180
688.703	16533
688.749	16337
688.784	16221
688.794	16193
688.839	16416
688.884	16438
688.905	16346
688.930	16189
688.975	16461
689.020	15782
689.026	15763
689.065	16153
689.110	16713
689.146	16247
689.155	16106
689.201	16826
689.246	16910
689.267	16779
689.291	16806
689.336	17186
689.381	17473
689.388	17506
689.426	17387
689.471	17258
689.509	17207
689.516	17270
689.561	17694
689.606	17747
689.630	17767
689.651	17744
689.696	17774
689.741	17491
689.750	17461
689.785	17597
689.830	17961
689.871	18177
689.875	18204
689.920	18327
689.965	18254
689.992	18106
690.010	18098
690.054	18101
690.099	17766
690.112	17954
690.144	18735
690.189	18889
690.233	18887
690.233	18911
690.278	19398
690.323	19336
690.354	19013
690.367	19121
690.412	20031
690.457	20627
690.474	20828
690.501	21239
690.546	21955
690.590	22774
690.595	22824
690.635	23743
690.680	24813
690.716	25379
690.724	25959
690.769	29130
690.813	32567
690.836	34021
690.857	37793
690.902	46484
690.946	55480
690.957	57434
690.991	78601
691.035	107491
691.077	136255
691.080	137097
691.124	144082
691.168	151158
691.198	156128
691.213	144864
691.257	110995
691.301	76937
691.318	63692
691.346	57531
691.390	47351
691.434	36689
691.439	35529
691.478	33187
691.522	30544
691.559	27655
691.567	27489
691.611	26950
691.655	25862
691.680	25163
691.699	24911
691.743	24688
691.787	24096
691.800	23892
691.831	23947
691.875	23993
691.919	24601
691.921	24544
691.964	23613
692.008	23038
692.041	22780
692.052	22918
692.096	23249
692.139	23422
692.162	23553
692.183	23463
692.227	22977
692.271	22590
692.282	22469
692.315	22708
692.359	22898
692.402	22923
692.403	22967
692.447	22966
692.490	23528
692.523	23382
692.534	23374
692.578	23381
692.622	23209
692.643	23320
692.666	23618
692.709	23670
692.753	23862
692.763	23864
692.797	24015
692.840	24206
692.884	24280
692.884	24332
692.928	24899
692.971	25112
693.004	25181
693.015	25258
693.059	25756
693.102	25891
693.124	26102
693.146	26485
693.189	26630
693.233	27411
693.245	27495
693.276	28811
693.320	30572
693.363	32085
693.365	32087
693.407	35635
693.450	39204
693.485	41951
693.493	43344
693.537	50311
693.580	56893
693.605	60865
693.624	69499
693.667	89801
693.710	110422
693.725	117449
693.753	158559
693.797	223066
693.840	289452
693.845	296619
693.883	311479
693.926	325860
693.966	339291
693.970	332608
694.013	256734
694.056	180457
694.086	127710
694.099	120412
694.142	96501
694.185	72716
694.206	61039
694.229	57543
694.272	50982
694.315	44421
694.326	42629
694.358	40870
694.401	38210
694.444	35700
694.446	35491
694.487	33999
694.530	32565
694.566	31080
694.573	30983
694.616	29773
694.659	28810
694.686	28172
694.702	28144
694.745	27818
694.787	27371
694.806	27224
694.830	27452
694.873	27478
694.916	27644
694.926	27574
694.959	27406
695.002	27306
695.044	27031
695.046	26967
695.087	26911
695.130	26592
695.166	26315
695.172	26419
695.215	26672
695.258	26913
695.286	26869
695.301	26806
695.343	26841
695.386	26632
695.406	26463
695.428	26421
695.471	26149
695.514	26037
695.526	25881
695.556	26243
695.599	27033
695.641	27533
695.646	27543
695.684	27166
695.726	26439
695.766	25928
695.769	26015
695.811	26186
695.854	26328
695.886	26487
695.896	26545
695.938	26444
695.981	26259
696.005	26176
696.023	26421
696.065	26777
696.108	27215
696.125	27239
696.150	27375
696.192	27580
696.235	27906
696.245	27907
696.277	28206
696.319	28462
696.361	28755
696.365	28700
696.404	29790
696.446	31085
696.485	32117
696.488	32159
696.530	31599
696.572	31054
696.604	30674
696.614	30601
696.656	29655
696.698	29046
696.724	28456
696.740	28436
696.783	28212
696.825	28218
696.844	28031
696.867	28101
696.909	28191
696.951	28187
696.964	28158
696.992	28059
697.034	27674
697.076	27452
697.083	27323
697.118	27624
697.160	27930
697.202	28227
697.203	28158
697.244	27858
697.286	27800
697.323	27458
697.327	27537
697.369	27701
697.411	27778
697.442	27799
697.453	27863
697.494	27680
697.536	27706
697.562	27604
697.578	27641
697.620	27554
697.661	27377
697.682	27281
697.703	27676
697.744	28218
697.786	28931
697.801	29031
697.828	29170
697.869	29385
697.911	29598
697.921	29554
697.952	29383
697.994	29131
698.035	28879
698.040	28765
698.077	28463
698.118	28056
698.160	27680
698.160	27604
698.201	28197
698.243	28699
698.279	29100
698.284	29198
698.325	29365
698.367	29572
698.399	29590
698.408	29620
698.449	29401
698.491	29249
698.518	29038
698.532	29147
698.573	29219
698.614	29349
698.638	29332
698.656	29333
698.697	29144
698.738	28934
698.757	28776
698.779	29155
698.820	29698
698.862	30259
698.877	30386
698.903	30316
698.944	30071
698.985	29822
698.996	29675
699.026	29826
699.067	29923
699.116	29959
699.235	29125
699.354	28912
699.474	29264
699.593	29653
699.713	30097
699.832	28752
699.951	29077
700.070	29226
700.190	28191
700.309	28019
700.428	28064
700.547	28276
700.667	27071
700.786	28236
700.905	28069
701.024	28001
701.143	26775
701.262	27191
701.381	27408
701.500	28028
701.619	27715
701.738	26469
701.857	27550
701.976	26527
702.095	26858
702.214	27567
702.333	28276
702.452	26785
702.571	26583
702.690	27204
702.809	26990
702.928	25839
703.047	25743
703.165	25478
703.284	25577
703.403	25339
703.522	26172
703.640	25679
703.759	25822
703.878	27669
703.997	25450
704.115	25130
704.234	24985
704.353	25408
704.471	25575
704.590	24223
704.708	24234
704.827	24794
704.946	24228
705.064	24596
705.183	24757
705.301	26037
705.420	30258
705.538	29093
705.656	28190
705.775	27213
705.893	34603
706.012	45841
706.130	28673
706.249	27889
706.367	25964
706.485	27300
706.604	27288
706.722	26651
706.840	28417
706.958	33515
707.077	31460
707.195	25495
707.313	24971
707.431	25238
707.549	25044
707.668	25453
707.786	25210
707.904	24906
708.022	24933
708.140	25519
708.258	24722
708.376	24576
708.494	24303
708.612	25082
708.730	29493
708.848	29875
708.966	27556
709.084	26530
709.202	26578
709.320	26898
709.438	26264
709.556	27004
709.674	26498
709.791	26411
709.909	25633
710.027	26199
710.145	25762
710.263	26453
710.380	25705
710.498	25361
710.616	25361
710.733	24906
710.851	24659
710.969	25502
711.086	25297
711.204	25105
711.322	24070
711.439	24253
711.557	24711
711.674	24546
711.792	24698
711.909	24685
712.027	25705
712.144	23345
712.262	24535
712.379	24928
712.497	27372
712.614	31314
712.732	27370
712.849	26829
712.966	25517
713.084	28038
713.201	26497
713.318	26848
713.436	26373
713.553	25994
713.670	26794
713.787	26559
713.905	26031
714.022	26111
714.139	26333
714.256	27237
714.373	29304
714.490	34527
714.608	52582
714.725	160548
714.842	271027
714.959	41898
715.076	27250
715.193	25528
715.310	25725
715.427	24642
715.544	23818
715.661	23335
715.778	23837
715.895	24502
716.011	24352
716.128	24084
716.245	23667
716.362	23951
716.479	24758
716.596	23316
716.713	23567
716.829	21451
716.946	21828
717.063	22511
717.180	22260
717.296	22497
717.413	21775
717.530	22189
717.646	22167
717.763	21530
717.880	20652
717.996	21119
718.113	21233
718.229	21665
718.346	21182
718.462	21109
718.579	21654
718.695	22940
718.812	23660
718.928	21566
719.045	21223
719.161	20360
719.277	20265
719.394	20186
719.510	21979
719.626	21241
719.743	22872
719.859	23208
719.975	28035
720.092	52846
720.208	134251
720.324	41508
720.440	21180
720.557	21391
720.673	22332
720.789	24226
720.905	29090
721.021	23397
721.137	19932
721.253	19427
721.369	19906
721.486	20203
721.602	20770
721.718	19613
721.834	19902
721.950	18950
722.066	18352
722.181	18331
722.297	18809
722.413	18974
722.529	18175
722.645	19475
722.761	17540
722.877	17576
722.993	18757
723.108	18531
723.224	18419
723.340	18567
723.456	18088
723.571	18236
723.687	17317
723.803	17374
723.918	17336
724.034	18440
724.150	17790
724.265	17508
724.381	19494
724.497	21647
724.612	16832
724.728	16696
724.843	17054
724.959	17091
725.074	18603
725.190	19721
725.305	16853
725.421	16798
725.536	16419
725.651	16790
725.767	16400
725.882	16475
725.997	16344
726.113	16514
726.228	16331
726.343	16681
726.459	15751
726.574	15746
726.689	16101
726.804	16001
726.920	15129
727.035	16080
727.150	16349
727.265	15877
727.380	15986
727.495	16022
727.610	14906
727.725	15538
727.841	16983
727.956	21812
728.071	22387
728.186	15882
728.301	14747
728.416	15545
728.531	15819
728.645	14753
728.760	15523
728.875	15658
728.990	14814
729.105	16076
729.220	15683
729.335	14423
729.449	14984
729.564	13906
729.679	14537
729.794	14551
729.908	14831
730.023	15156
730.138	14112
730.253	14957
730.367	14746
730.482	15365
730.596	13868
730.711	14738
730.826	15380
730.940	16487
731.055	14852
731.169	14943
731.284	14317
731.398	14608
731.513	13924
731.627	15022
731.742	15188
731.856	15784
731.970	14553
732.085	15164
732.199	17243
732.313	19622
732.428	28508
732.542	57520
732.656	52162
732.771	20537
732.885	17843
732.999	15572
733.113	15290
733.227	15979
733.342	15824
733.456	15370
733.570	15947
733.684	14804
733.798	14455
733.912	14761
734.026	14920
734.140	14502
734.254	15607
734.368	15327
734.482	16844
734.596	14033
734.710	14388
734.824	14704
734.938	14707
735.052	14698
735.166	15249
735.280	14668
735.393	13368
735.507	14685
735.621	14452
735.735	16319
735.849	14591
735.962	14783
736.076	15109
736.190	14455
736.303	14062
736.417	15489
736.531	14041
736.644	14578
736.758	13085
736.872	14352
736.985	13375
737.099	13443
737.212	13368
737.326	13981
737.439	13993
737.553	14127
737.666	13318
737.780	13600
737.893	13607
738.007	13585
738.120	13585
738.233	12950
738.347	13023
738.460	13516
738.573	13057
738.687	14315
738.800	13882
738.913	13367
739.026	13981
739.140	13953
739.253	13305
739.366	13012
739.479	13564
739.592	13741
739.705	12497
739.818	13569
739.932	13319
740.045	13536
740.158	14120
740.271	12632
740.384	14045
740.497	13476
740.610	13564
740.723	13324
740.836	14143
740.949	13370
741.062	13648
741.174	13643
741.287	12941
741.400	12811
741.513	12657
741.626	13374
741.739	13809
741.851	13504
741.964	12330
742.077	12487
742.189	12668
742.302	12784
742.415	13693
742.527	13202
742.640	13102
742.753	12254
742.865	13054
742.978	12985
743.090	12969
743.203	13190
743.316	13504
743.428	12397
743.541	13617
743.653	13025
743.766	12356
743.878	13348
743.990	12691
744.103	13792
744.215	12743
744.327	12354
744.440	14047
744.552	14573
744.664	12687
744.777	12349
744.889	12471
745.001	13669
745.113	13519
745.226	13216
745.338	11877
745.450	12314
745.562	13370
745.674	12251
745.786	12332
745.898	12781
746.010	12710
746.122	12820
746.234	13516
746.347	13202
746.459	12745
746.570	12323
746.682	12546
746.794	13306
746.906	12042
747.018	12517
747.130	13760
747.242	12919
747.354	13315
747.466	12593
747.577	12603
747.689	13270
747.801	12401
747.913	12624
748.024	12583
748.136	11923
748.248	12735
748.359	13196
748.471	12288
748.583	13445
748.694	13006
748.806	13779
748.918	13718
749.029	12644
749.141	12871
749.252	13380
749.364	12358
749.475	14110
749.587	13161
749.698	12718
749.809	12575
749.921	12910
750.032	12809
750.144	12644
750.255	13091
750.366	12490
750.478	12968
750.589	13247
750.700	12600
750.811	13604
750.923	13450
751.034	14195
751.145	15937
751.256	12822
751.367	12804
751.479	12955
751.590	12947
751.701	12961
751.812	12851
751.923	14262
752.034	13634
752.145	13595
752.256	13824
752.367	13180
752.478	13666
752.589	13888
752.700	13300
752.811	13408
752.922	13663
753.032	13153
753.143	13903
753.254	13371
753.365	14424
753.476	13562
753.586	13392
753.697	13971
753.808	14690
753.919	14113
754.029	13960
754.140	13572
754.251	13777
754.361	15308
754.472	14282
754.582	14183
754.693	13723
754.804	14975
754.914	14762
755.025	14281
755.135	15077
755.246	15357
755.356	13816
755.466	15094
755.577	15152
755.687	15095
755.798	15218
755.908	15234
756.018	14954
756.129	15480
756.239	15465
756.349	15924
756.460	15980
756.570	16037
756.680	16035
756.790	16181
756.900	16535
757.011	16455
757.121	16118
757.231	17986
757.341	16934
757.451	16845
757.561	16909
757.671	17398
757.781	17418
757.891	18718
758.001	18242
758.111	18388
758.221	18639
758.331	18403
758.441	19870
758.551	19749
758.661	19602
758.771	19391
758.880	19175
758.990	20527
759.100	20584
759.210	20464
759.320	20853
759.429	21111
759.539	22192
759.649	22842
759.758	21974
759.868	23050
759.978	23450
760.087	24403
760.197	24342
760.307	25052
760.416	24657
760.526	24987
760.635	25988
760.745	26920
760.854	27177
760.964	28433
761.073	28498
761.182	29288
761.292	29257
761.401	31340
761.511	30690
761.620	32544
761.729	32847
761.839	33328
761.948	35079
762.057	35252
762.166	36172
762.276	36919
762.385	39201
762.494	38562
762.603	41721
762.712	43615
762.822	44649
762.931	45906
763.040	48861
763.149	50456
763.258	52257
763.367	55572
763.476	57447
763.585	59404
763.694	64123
763.803	67085
763.912	70919
764.021	75146
764.130	79824
764.238	84295
764.347	91066
764.456	97470
764.565	106333
764.674	116687
764.783	127254
764.891	137289
765.000	155501
765.109	173447
765.217	195218
765.326	222270
765.435	257571
765.543	303968
765.652	360406
765.761	434868
765.869	529544
765.978	653838
766.086	798060
766.195	941175
766.303	1016210
766.412	842304
766.520	698198
766.629	957469
766.737	964253
766.846	844559
766.954	700415
767.062	569708
767.171	463639
767.279	375809
767.387	309205
767.496	264984
767.604	228534
767.712	200346
767.820	178525
767.928	161639
768.037	151241
768.145	144742
768.253	136621
768.361	131677
768.469	131137
768.577	133284
768.685	138559
768.793	146381
768.901	157764
769.009	178896
769.117	209664
769.225	256616
769.333	325723
769.441	435728
769.549	598079
769.657	806473
769.765	941742
769.873	750806
769.981	829184
770.088	861112
770.196	695358
770.304	528448
770.412	407280
770.519	323368
770.627	261765
770.735	216657
770.842	184660
770.950	160178
771.058	140623
771.165	125959
771.273	112805
771.380	101958
771.488	93920
771.595	86389
771.703	78522
771.810	74145
771.918	68960
772.025	66641
772.133	60757
772.240	59424
772.348	55896
772.455	52763
772.562	50735
772.670	47697
772.777	46537
772.884	44081
772.991	43060
773.099	41374
773.206	39775
773.313	38766
773.420	36885
773.528	34914
773.635	33734
773.742	34280
773.849	33474
773.956	31457
774.063	29929
774.170	30342
774.277	29616
774.384	28666
774.491	27507
774.598	26903
774.705	27094
774.812	26355
774.919	25828
775.026	25188
775.133	24597
775.239	24119
775.346	23048
775.453	23110
775.560	22167
775.667	23119
775.773	23132
775.880	22416
775.987	21455
776.093	21090
776.200	19711
776.307	20126
776.413	19496
776.520	19547
776.627	19554
776.733	18992
776.840	17876
776.946	18508
777.053	17903
777.159	17517
777.266	16246
777.372	18289
777.478	17275
777.585	17376
777.691	16461
777.798	16658
777.904	16761
778.010	17368
778.117	16865
778.223	15596
778.329	15079
778.435	15293
778.542	14596
778.648	14458
778.754	13831
778.860	15047
778.966	14135
779.072	14435
779.178	15218
779.284	14665
779.391	14530
779.497	17186
779.603	20663
779.708	27587
779.815	50717
779.920	140165
780.026	350035
780.132	133222
780.238	32950
780.344	20132
780.450	17756
780.556	14912
780.661	14082
780.767	14691
780.873	12759
780.979	12560
781.085	12277
781.190	11880
781.296	10744
781.402	11391
781.507	10784
781.613	11223
781.719	10876
781.824	10801
781.930	11849
782.035	10316
782.141	11292
782.246	10839
782.352	11273
782.457	10376
782.563	10720
782.668	10672
782.773	9477
782.879	9367
782.984	9647
783.090	10766
783.195	10188
783.300	10753
783.405	9565
783.511	9696
783.616	8881
783.721	9867
783.826	9425
783.932	8878
784.037	10052
784.142	9626
784.247	9183
784.352	9321
784.457	8716
784.562	9009
784.667	9062
784.772	8813
784.877	8230
784.982	8810
785.087	8740
785.192	8630
785.297	8380
785.402	7740
785.507	8314
785.611	8375
785.716	8214
785.821	8423
785.926	8177
786.031	8587
786.135	7930
786.240	7580
786.345	7742
786.450	8318
786.554	8280
786.659	8746
786.763	7895
786.868	8465
786.973	8446
787.077	7450
787.182	7602
787.286	7963
787.391	7740
787.495	6945
787.600	7765
787.704	7743
787.809	6957
787.913	6788
788.017	7383
788.122	8038
788.226	7265
788.330	6980
788.435	6760
788.539	7078
788.643	6170
788.747	6973
788.852	6461
788.956	6537
789.060	6852
789.164	7112
789.268	6435
789.372	6870
789.476	6438
789.580	6110
789.684	5993
789.788	7746
789.892	6515
789.996	6582
790.100	6021
790.204	6866
790.308	6957
790.412	6432
790.516	6902
790.620	6726
790.724	7225
790.828	6980
790.931	5779
791.035	7952
791.139	6336
791.242	5858
791.346	6932
791.450	6678
791.554	6089
791.657	5919
791.761	6851
791.864	6442
791.968	6984
792.072	7191
792.175	6240
792.279	6588
792.382	6298
792.486	5922
792.589	6984
792.693	5718
792.796	5203
792.899	6834
793.003	6480
793.106	5793
793.209	6556
793.313	6728
793.416	5219
793.519	8252
793.623	6621
793.726	7279
793.829	6704
793.932	6530
794.035	5954
794.138	6990
794.242	8578
794.345	9983
794.448	13947
794.551	26659
794.654	78580
794.757	223623
794.860	88013
794.963	16049
795.066	9086
795.169	8975
795.272	7253
795.375	6953
795.477	5893
795.580	5975
795.683	4957
795.786	6383
795.889	5108
795.991	6219
796.094	6357
796.197	4738
796.300	5688
796.402	5297
796.505	4717
796.608	5272
796.710	5916
796.813	5836
796.915	5562
797.018	5357
797.120	5413
797.223	4522
797.326	5444
797.428	5069
797.530	4499
797.633	4338
797.735	5069
797.838	5503
797.940	5431
798.042	4511
798.145	4554
798.247	4921
798.349	4413
798.452	4847
798.554	4568
798.656	4683
798.758	5828
798.860	4863
798.962	4916
799.065	4762
799.167	5033
799.269	5652
799.371	4522
799.473	5543
799.575	5004
799.677	5311
799.779	6156
799.881	4483
799.983	5309
800.085	5101
800.187	4558
800.289	3537
800.390	4506
800.492	5399
800.594	4823
800.696	4868
800.798	4136
800.899	4107
801.001	4672
801.103	4706
801.205	5236
801.306	4701
801.408	3669
801.509	3923
801.611	4351
801.713	4243
801.814	3759
801.916	4922
802.017	4754
802.119	3788
802.220	4885
802.322	3224
802.423	4862
802.525	4225
802.626	4804
802.727	4374
802.829	4437
802.930	3445
803.031	5572
803.133	4175
803.234	4387
803.335	3879
803.436	3554
803.538	3994
803.639	3914
803.740	3690
803.841	4105
803.942	4145
804.043	3821
804.144	4098
804.245	3860
804.346	4174
804.447	3908
804.548	4587
804.649	4723
804.750	4057
804.851	3821
804.952	4223
805.053	3923
805.154	3668
805.255	4617
805.355	4025
805.456	3667
805.557	3012
805.658	3760
805.758	4742
805.859	3784
805.960	4009
806.061	3508
806.161	3976
806.262	3394
806.362	4118
806.463	3770
806.564	4558
806.664	3819
806.765	3996
806.865	4412
806.966	3826
807.066	3567
807.166	4867
807.267	4289
807.367	3668
807.468	4125
807.568	3021
807.668	4722
807.769	4768
807.869	4330
807.969	3510
808.069	3555
808.170	3534
808.270	3415
808.370	3917
808.470	3868
808.570	3113
808.670	3471
808.770	3693
808.870	3370
808.970	4139
809.070	3663
809.170	3620
809.271	3544
809.370	3844
809.470	4308
809.570	3540
809.670	2675
809.770	3075
809.870	4049
809.970	3920
810.070	4790
810.169	3813
810.269	3020
810.369	4595
810.469	3644
810.568	3443
810.668	3155
810.768	3597
810.867	3673
810.967	3086
811.066	3878
811.166	3917
811.265	3397
811.365	3861
811.464	3142
811.564	3784
811.663	3539
811.763	2917
811.862	4236
811.962	3964
812.061	3350
812.160	3068
812.260	3766
812.359	4819
812.458	6179
812.557	12238
812.657	22136
812.756	12834
812.855	5217
812.954	3674
813.053	4047
813.153	4006
813.252	3486
813.351	3905
813.450	3476
813.549	4290
813.648	4410
813.747	3552
813.846	3663
813.945	3920
814.044	4501
814.143	4908
814.242	4596
814.341	3925
814.439	4433
814.538	4546
814.637	3754
814.736	4663
814.835	4020
814.933	4476
815.032	4972
815.131	4783
815.229	5668
815.328	5410
815.427	4733
815.525	6151
815.624	5947
815.722	4591
815.821	5994
815.919	6041
816.018	6076
816.116	6713
816.215	6166
816.313	7462
816.412	7353
816.510	8231
816.609	8340
816.707	7639
816.805	8704
816.904	8281
817.002	10075
817.100	10293
817.198	11674
817.296	13054
817.395	14209
817.493	15399
817.591	18527
817.689	23038
817.787	30598
817.885	43835
817.983	68756
818.081	119461
818.179	231474
818.277	439290
818.375	475284
818.473	271329
818.571	137677
818.669	85660
818.767	67135
818.865	64029
818.963	68164
819.061	87884
819.158	125891
819.256	209298
819.354	366068
819.452	564666
819.549	504631
819.647	327230
819.745	188044
819.842	114842
819.940	77586
820.038	54767
820.135	42867
820.233	35172
820.330	28052
820.428	21999
820.525	20736
820.623	18100
820.720	16160
820.818	14321
820.915	12699
821.012	12377
821.110	9843
821.207	10850
821.304	9201
821.402	8237
821.499	9807
821.596	8884
821.693	8998
821.791	7721
821.888	7041
821.985	8264
822.082	6687
822.179	6490
822.276	5848
822.373	7219
822.470	5814
822.567	5645
822.664	5531
822.761	7161
822.858	6030
822.955	5172
823.052	4914
823.149	4754
823.246	5795
823.343	5120
823.440	4803
823.536	4239
823.633	5084
823.730	4948
823.827	4568
823.923	4153
824.020	4920
824.117	4207
824.213	3893
824.310	5078
824.407	3713
824.503	4975
824.600	4499
824.696	3970
824.793	4167
824.889	3526
824.986	3528
825.082	5024
825.179	4040
825.275	3811
825.371	4164
825.468	3301
825.564	3216
825.660	3557
825.757	4247
825.853	4144
825.949	3530
826.045	3740
826.142	2479
826.238	3920
826.334	3647
826.430	3633
826.526	3229
826.622	2773
826.718	3092
826.814	3316
826.910	4285
827.006	3386
827.102	2343
827.198	4132
827.294	2495
827.390	3742
827.486	3551
827.582	2394
827.678	2004
827.774	3378
827.869	2831
827.965	4317
828.061	2116
828.157	3472
828.252	2552
828.348	2699
828.444	3628
828.539	2125
828.635	2620
828.731	3733
828.826	2650
828.922	2878
829.017	2893
829.113	3553
829.208	2460
829.304	2788
829.399	3256
829.495	2008
829.590	2442
829.685	2640
829.781	2437
829.876	2748
829.971	2104
830.066	2330
830.162	2453
830.257	2536
830.352	3252
830.447	3556
830.543	2347
830.638	1100
830.733	3296
830.828	2472
830.923	3066
831.018	2497
831.113	3359
831.208	1570
831.303	2841
831.398	2580
831.493	2224
831.588	3293
831.683	2039
831.778	2875
831.873	2186
831.967	2937
832.062	2585
832.157	1690
832.252	3030
832.346	2481
832.441	2115
832.536	2394
832.631	4724
832.725	3885
832.820	2295
832.914	1598
833.009	2091
833.104	2510
833.198	2880
833.293	2077
833.387	2749
833.482	2474
833.576	1807
833.670	2301
833.765	2612
833.859	1686
833.954	3214
834.048	2167
834.142	1989
834.237	1939
834.331	1834
834.425	2283
834.519	1994
834.613	2921
834.708	2232
834.802	1895
834.896	2152
834.990	1733
835.084	2349
835.178	2070
835.272	2189
835.366	1877
835.460	2752
835.554	2363
835.648	1997
835.742	2303
835.836	2577
835.930	1526
836.024	2010
836.117	2316
836.211	1600
836.305	2714
836.399	2580
836.493	1995
836.586	2398
836.680	1660
836.774	2126
836.867	2282
836.961	1660
837.055	1444
837.148	2413
837.242	2115
837.335	1773
837.429	2167
837.522	2105
837.616	1729
837.709	1785
837.803	1390
837.896	3057
837.989	1836
838.083	2506
838.176	2704
838.269	2795
838.363	2475
838.456	1869
838.549	2916
838.642	2671
838.735	4125
838.829	4078
838.922	1723
839.015	1213
839.108	1655
839.201	2100
839.294	2546
839.387	2158
839.480	1871
839.573	2485
839.666	2181
839.759	2075
839.852	1970
839.945	2215
840.038	2042
840.131	1147
840.223	1902
840.316	2758
840.409	2000
840.502	1742
840.594	2278
840.687	1739
840.780	1809
840.873	1077
840.965	1089
841.058	2505
841.150	1802
841.243	1304
841.336	1882
841.428	1466
841.521	1880
841.613	1018
841.706	1912
841.798	1557
841.890	2138
841.983	1513
842.075	2932
842.167	1280
842.260	2626
842.352	2781
842.444	2480
842.537	2451
842.629	3137
842.721	1948
842.813	1966
842.905	848
842.997	1969
843.090	1757
843.182	1280
843.274	2252
843.366	3310
843.458	5779
843.550	4911
843.642	2227
843.734	1373
843.826	1428
843.918	2533
844.009	1984
844.101	1360
844.193	945
844.285	1738
844.377	1120
844.469	1783
844.560	1080
844.652	1725
844.744	2199
844.835	1078
844.927	1474
845.019	1616
845.110	1200
845.202	2253
845.293	1658
845.385	628
845.476	1958
845.568	2144
845.659	1818
845.751	2115
845.842	1332
845.934	973
846.025	1730
846.116	2093
846.208	1543
846.299	1103
846.390	1655
846.482	1237
846.573	1693
846.664	2122
846.755	1271
846.846	2611
846.937	778
847.029	2064
847.120	1641
847.211	1264
847.302	1389
847.393	1225
847.484	1684
847.575	1365
847.666	1085
847.757	1296
847.847	1883
847.938	2656
848.029	2108
848.120	1654
848.211	627
848.302	1552
848.392	273
848.483	1415
848.574	877
848.664	1332
848.755	1393
848.846	835
848.936	1021
849.027	2188
849.118	2337
849.208	1499
849.299	1366
849.389	1707
849.480	2767
849.570	2787
849.661	4731
849.751	6999
849.841	5351
849.932	2490
850.022	869
850.112	1824
850.203	1304
850.293	1419
850.383	1170
850.474	731
850.564	1562
850.654	1614
850.744	1389
850.834	1609
850.924	1282
851.014	1708
851.104	995
851.194	897
851.284	1767
851.374	2381
851.464	1429
851.554	1984
851.644	2437
851.734	3391
851.824	5453
851.914	9224
852.004	15861
852.094	26116
852.183	8899
852.273	2497
852.363	1005
852.452	1310
852.542	1750
852.632	1225
852.721	1155
852.811	300
852.901	1227
852.990	1556
853.080	1471
853.169	1040
853.259	2056
853.348	1667
853.438	827
853.527	2106
853.617	997
853.706	3315
853.795	3604
853.885	8640
853.974	14279
854.063	25006
854.152	42818
854.242	23687
854.331	5144
854.420	3086
854.509	2302
854.598	1935
854.687	2096
854.777	2047
854.866	1451
854.955	1534
855.044	1226
855.133	1018
855.222	973
855.311	939
855.400	1520
855.488	1143
855.577	757
855.666	1743
855.755	1333
855.844	1362
855.933	1979
856.021	1799
856.110	2069
856.199	985
856.288	1157
856.376	837
856.465	154
856.554	1566
856.642	1121
856.731	1504
856.819	1743
856.908	1345
856.996	986
857.085	454
857.173	1132
857.262	1154
857.350	1567
857.438	1223
857.527	1821
857.615	852
857.703	1255
857.792	1518
857.880	943
857.968	1057
858.056	1680
858.145	1189
858.233	1639
858.321	757
858.409	1128
858.497	1436
858.585	705
858.673	1027
858.761	748
858.849	1187
858.937	1569
859.025	1324
859.113	1806
859.201	1479
859.289	1538
859.377	1014
859.465	988
859.552	1942
859.640	395
859.728	1804
859.816	482
859.903	1733
859.991	453
860.079	933
860.166	1049
860.254	1556
860.342	1014
860.429	1272
860.517	735
860.604	1146
860.692	859
860.779	957
860.867	583
860.954	1483
861.042	1536
861.129	1941
861.216	1141
861.304	469
861.391	1260
861.478	1331
861.565	1844
861.653	1825
861.740	561
861.827	865
861.914	1168
862.001	678
862.089	517
862.176	822
862.263	878
862.350	780
862.437	778
862.524	497
862.611	660
862.698	1471
862.785	1644
862.871	1973
862.958	384
863.045	1313
863.132	463
863.219	960
863.306	756
863.392	2221
863.479	974
863.566	1668
863.652	1429
863.739	1154
863.826	1172
863.912	1060
863.999	-119
864.086	1159
864.172	961
864.259	1116
864.345	905
864.432	1710
864.518	1191
864.604	326
864.691	814
864.777	1704
864.863	1518
864.950	1290
865.036	1951
865.122	2453
865.209	2296
865.295	1973
865.381	2425
865.467	1899
865.553	1691
865.639	2013
865.726	3301
865.812	5460
865.898	8310
865.984	11660
866.070	18180
866.156	25562
866.242	10421
866.328	3148
866.414	2236
866.499	2226
866.585	2049
866.671	2094
866.757	3157
866.843	2299
866.928	2062
867.014	1804
867.100	2659
867.186	2055
867.271	1421
867.357	1562
867.442	2129
867.528	1265
867.614	1383
867.699	1920
867.785	2816
867.870	1682
867.956	1865
868.041	2223
868.127	2168
868.212	2365
868.297	1913
868.383	2354
868.468	1996
868.553	2807
868.639	3098
868.724	3875
868.809	4173
868.894	2500
868.979	1763
869.065	1608
869.150	1202
869.235	1800
869.320	1205
869.405	1485
869.490	1166
869.575	932
869.660	1488
869.745	1704
869.830	1738
869.915	924
870.000	1239
870.085	1207
870.169	1115
870.254	2091
870.339	934
870.424	1105
870.509	2075
870.593	1606
870.678	1609
870.763	645
870.847	1151
870.932	1560
871.016	1747
871.101	896
871.186	688
871.270	1474
871.355	1469
871.439	1708
871.523	1504
871.608	1661
871.692	1421
871.777	1835
871.861	996
871.945	1154
872.030	1774
872.114	1079
872.198	1280
872.282	1479
872.367	411
872.451	1361
872.535	1631
872.619	905
872.703	908
872.787	1078
872.871	1311
872.955	972
873.039	801
873.123	1544
873.207	2292
873.291	1061
873.375	873
873.459	1097
873.543	704
873.627	1150
873.711	872
873.794	1812
873.878	920
873.962	514
874.045	731
874.129	856
874.137	879
874.213	1109
874.245	947
874.296	690
874.352	1298
874.380	1593
874.460	699
874.464	663
874.547	342
874.568	660
874.631	1600
874.676	1085
874.714	647
874.784	1658
874.798	1866
874.881	1296
874.892	1203
874.965	534
874.999	642
875.048	825
875.107	1139
875.131	1252
875.215	1188
875.215	1187
875.298	377
875.323	301
875.381	246
875.430	749
875.465	1052
875.538	931
875.548	925
875.631	996
875.646	978
875.714	878
875.753	516
875.798	83
875.861	624
875.881	800
875.964	1122
875.968	1126
876.047	1148
876.076	1045
876.130	936
876.183	961
876.213	953
876.291	1229
876.296	1244
876.379	545
876.398	790
876.462	1630
876.506	1026
876.545	473
876.613	961
876.628	1073
876.711	1239
876.721	1208
876.794	1032
876.828	1007
876.877	923
876.935	498
876.960	299
877.043	397
877.043	399
877.125	982
877.150	947
877.208	875
877.258	984
877.291	1041
877.365	920
877.374	899
877.456	842
877.472	840
877.539	877
877.579	901
877.622	952
877.687	988
877.704	984
877.787	1198
877.794	1162
877.869	772
877.901	809
877.952	810
878.008	715
878.034	721
878.115	874
878.117	876
878.199	701
878.222	652
878.282	587
878.329	1265
878.364	1668
878.437	927
878.447	868
878.529	890
878.544	914
878.611	719
878.651	593
878.694	554
878.758	954
878.776	1004
878.858	742
878.865	747
878.941	1165
878.972	1047
879.023	703
879.078	775
879.105	855
879.185	732
879.187	727
879.269	531
879.292	606
879.351	1034
879.399	664
879.433	208
879.506	568
879.516	656
879.598	1004
879.613	1001
879.680	735
879.720	515
879.762	447
879.827	138
879.844	17
879.926	-8
879.933	28
880.007	454
880.040	576
880.089	582
880.147	377
880.171	560
880.253	1793
880.254	1796
880.335	1533
880.360	1541
880.417	2161
880.467	2774
880.499	3346
880.574	5176
880.580	5175
880.662	2762
880.680	2401
880.744	1170
880.787	701
880.825	600
880.893	24
880.907	-80
880.989	66
881.000	4
881.070	39
881.106	372
881.152	505
881.213	519
881.233	591
881.315	383
881.319	386
881.396	273
881.426	47
881.478	-161
881.532	569
881.559	870
881.639	439
881.641	430
881.722	144
881.745	329
881.803	442
881.852	-39
881.885	-106
881.958	217
881.966	253
882.047	692
882.064	670
882.129	672
882.171	951
882.210	1049
882.277	1480
882.291	1631
882.372	1446
882.383	1472
882.454	638
882.489	245
882.535	293
882.596	638
882.616	778
882.697	963
882.702	963
882.778	839
882.808	806
882.859	320
882.914	-237
882.940	-180
883.020	510
883.021	513
883.102	663
883.127	570
883.183	690
883.233	947
883.264	803
883.339	477
883.345	492
883.426	48
883.445	201
883.507	709
883.551	664
883.587	567
883.657	825
883.668	817
883.749	534
883.763	430
883.830	486
883.869	669
883.910	627
883.975	499
883.991	443
884.072	197
884.081	202
884.152	219
884.187	195
884.233	483
884.292	378
884.314	322
884.394	284
884.398	292
884.475	179
884.504	229
884.555	308
884.610	157
884.636	244
884.716	785
884.716	787
884.797	689
884.821	714
884.877	432
884.927	-29
884.958	-70
885.033	-243
885.038	-236
885.118	386
885.139	523
885.199	565
885.244	506
885.279	651
885.350	907
885.359	845
885.439	377
885.456	197
885.520	328
885.561	681
885.600	493
885.667	51
885.680	83
885.760	299
885.773	304
885.840	64
885.878	-19
885.920	243
885.984	768
886.000	733
886.080	487
886.089	439
886.160	325
886.195	310
886.240	307
886.300	380
886.320	330
886.400	258
886.406	213
886.480	64
886.511	323
886.560	714
886.616	761
886.640	670
886.720	700
886.722	695
886.800	465
886.827	444
886.879	154
886.932	-293
886.959	25
887.038	1371
887.039	1359
887.119	38
887.143	-322
887.198	410
887.248	1163
887.278	1022
887.354	399
887.358	414
887.437	857
887.459	1018
887.517	838
887.564	541
887.596	570
887.669	731
887.676	687
887.755	128
887.774	-3
887.835	48
887.880	156
887.914	463
887.985	952
887.994	927
888.073	801
888.090	755
888.153	366
888.195	101
888.232	111
888.300	232
888.311	227
888.391	100
888.405	83
888.470	401
888.510	629
888.549	686
888.615	763
888.628	755
888.708	722
888.720	715
888.787	403
888.825	214
888.866	316
888.930	473
888.945	371
889.024	-103
889.035	-167
889.103	36
889.140	162
889.182	347
889.245	582
889.261	571
889.340	580
889.349	581
889.419	914
889.454	1083
889.498	932
889.559	728
889.577	690
889.656	541
889.664	531
889.735	919
889.768	1104
889.814	898
889.873	627
889.978	921
890.083	117
890.187	1033
890.292	593
890.397	-237
890.501	237
890.606	78
890.710	-213
890.815	673
890.919	952
891.024	410
891.128	276
891.233	192
891.337	476
891.442	1038
891.546	716
891.650	174
891.755	726
891.859	1051
891.963	978
892.068	674
892.172	177
892.276	364
892.380	197
892.484	480
892.589	455
892.693	1352
892.797	139
892.901	507
893.005	693
893.109	706
893.213	649
893.317	1193
893.421	-118
893.525	-306
893.629	323
893.733	-454
893.837	-37
893.941	-230
894.045	955
894.148	1089
894.252	1867
894.356	2148
894.460	201
894.564	624
894.667	152
894.771	847
894.875	546
894.978	309
895.082	-558
895.186	660
895.289	748
895.393	519
895.496	-409
895.600	-10
895.703	355
895.807	943
895.910	-253
896.014	802
896.117	-518
896.221	81
896.324	42
896.427	728
896.531	370
896.634	409
896.737	-181
896.840	-35
896.944	-637
897.047	324
897.150	273
897.253	-359
897.356	56
897.460	98
897.563	-44
897.666	645
897.769	-676
897.872	544
897.975	-119
898.078	312
898.181	122
898.284	171
898.387	-390
898.490	222
898.593	-33
898.695	1278
898.798	-654
898.901	817
899.004	456
899.107	-105
899.209	209
899.312	181
899.415	301
899.518	372
899.620	-7
899.723	93
899.826	862
899.928	655
900.031	565
900.133	256
900.236	475
900.338	598
900.441	273
900.543	410
900.646	283
900.748	616
900.851	137
900.953	170
901.055	-257
901.158	-8
901.260	-155
901.362	-541
901.465	7
901.567	237
901.669	-529
901.771	-495
901.873	171
901.976	352
902.078	423
902.180	166
902.282	-1007
902.384	-160
902.486	567
902.588	-159
902.690	-186
902.792	175
902.894	24
902.996	-383
903.098	-132
903.200	345
903.302	208
903.404	109
903.505	498
903.607	736
903.709	-200
903.811	184
903.913	-607
904.014	44
904.116	-105
904.218	-213
904.319	57
904.421	119
904.523	-48
904.624	103
904.726	672
904.827	324
904.929	505
905.030	636
905.132	828
905.233	-95
905.335	-534
905.436	539
905.537	46
905.639	341
905.740	-268
905.841	144
905.943	-462
906.044	-382
906.145	-778
906.247	-202
906.348	-622
906.449	66
906.550	-276
906.651	314
906.752	-122
906.854	-14
906.955	346
907.056	892
907.157	-67
907.258	36
907.359	-847
907.460	-180
907.561	481
907.662	145
907.762	368
907.863	-347
907.964	-364
908.065	218
908.166	-166
908.267	114
908.367	7
908.468	120
908.569	-21
908.670	764
908.770	437
908.871	568
908.971	85
909.072	328
909.173	-279
909.273	-294
909.374	290
909.474	804
909.575	-72
909.675	417
909.776	428
909.876	502
909.977	-331
910.077	528
910.177	128
910.278	188
910.378	-410
910.478	24
910.579	-248
910.679	316
910.779	-636
910.879	499
910.980	60
911.080	-705
911.180	-264
911.280	-315
911.380	-392
911.480	587
911.580	-1169
911.680	349
911.780	-111
911.880	-35
911.980	-445
912.080	154
912.180	907
912.280	-8
912.380	-493
912.480	-229
912.580	251
912.679	-692
912.779	-77
912.879	648
912.979	405
913.078	-331
913.178	65
913.278	279
913.377	148
913.477	409
913.577	-454
913.676	499
913.776	-87
913.875	31
913.975	-231
914.074	766
914.174	-427
914.273	505
914.373	-359
914.472	137
914.572	70
914.671	560
914.770	-182
914.870	531
914.969	-377
915.068	75
915.167	-194
915.267	368
915.366	134
915.465	446
915.564	452
915.663	766
915.763	110
915.862	-133
915.961	335
916.060	427
916.159	-307
916.258	-45
916.357	321
916.456	292
916.555	-528
916.654	-158
916.752	-120
916.851	-67
916.950	12
917.049	-433
917.148	286
917.247	71
917.345	358
917.444	-177
917.543	-324
917.642	48
917.740	-399
917.839	58
917.937	383
918.036	249
918.135	-70
918.233	-617
918.332	-211
918.430	214
918.529	-217
918.627	1
918.726	-1672
918.824	287
918.923	-467
919.021	717
919.119	-123
919.218	-207
919.316	842
919.414	-275
919.512	4
919.611	187
919.709	-180
919.807	782
919.905	-463
920.003	-346
920.102	162
920.200	-220
920.298	-375
920.396	-160
920.494	-11
920.592	434
920.690	405
920.788	-196
920.886	169
920.984	406
921.082	-557
921.180	719
921.277	29
921.375	414
921.473	-206
921.571	154
921.669	-36
921.766	615
921.864	864
921.962	-8
922.060	-435
922.157	-490
922.255	-821
922.352	665
922.450	596
922.548	200
922.645	-286
922.743	-65
922.840	64
922.938	249
923.035	288
923.133	749
923.230	-14
923.327	832
923.425	192
923.522	361
923.619	-2
923.717	493
923.814	269
923.911	299
924.008	1197
924.106	678
924.203	-295
924.300	2
924.397	478
924.494	1414
924.591	-87
924.688	401
924.786	-144
924.883	-29
924.979	937
925.077	463
925.173	136
925.270	193
925.367	-264
925.464	1360
925.561	484
925.658	727
925.755	619
925.852	369
925.948	-147
926.045	71
926.142	197
926.239	427
926.335	105
926.432	1399
926.529	199
926.625	295
926.722	-174
926.818	711
926.915	-69
927.011	670
927.108	-207
927.204	-287
927.301	530
927.397	186
927.494	72
927.590	738
927.687	0
927.783	819
927.879	-590
927.976	-131
928.072	-243
928.168	586
928.264	169
928.361	120
928.457	-115
928.553	392
928.649	33
928.745	400
928.841	620
928.937	534
929.033	377
929.129	216
929.225	55
929.321	204
929.417	-215
929.513	137
929.609	-512
929.705	456
929.801	-169
929.897	-545
929.993	-301
930.089	603
930.184	-273
930.280	-190
930.376	723
930.471	371
930.567	454
930.663	389
930.758	-206
930.854	423
930.950	29
931.045	1
931.141	290
931.236	392
931.332	-28
931.427	-47
931.523	66
931.618	906
931.714	-161
931.809	385
931.905	-1001
932.000	-413
932.095	-326
932.191	602
932.286	-1507
932.381	553
932.476	-567
932.572	360
932.667	-381
932.762	616
932.857	968
932.952	347
933.047	-123
933.142	179
933.237	-498
933.332	13
933.427	134
933.522	253
933.617	167
933.712	1130
933.807	283
933.902	139
933.997	198
934.092	30
934.187	-144
934.282	115
934.376	611
934.471	-223
934.566	-254
934.661	177
934.755	-199
934.850	-53
934.945	187
935.039	-28
935.134	136
935.228	845
935.323	436
935.417	86
935.512	-188
935.606	-247
935.701	-13
935.795	130
935.890	-987
935.984	306
936.079	-615
936.173	451
936.267	270
936.362	-127
936.456	336
936.550	411
936.644	-160
936.738	66
936.833	-55
936.927	519
937.021	-183
937.115	-123
937.209	-678
937.303	550
937.397	-177
937.491	-374
937.585	-854
937.679	317
937.773	-680
937.867	-678
937.961	-689
938.055	599
938.149	360
938.243	-708
938.337	-761
938.430	-90
938.524	-480
938.618	217
938.712	-788
938.805	228
938.899	-629
938.993	17
939.086	-736
939.180	-40
939.274	-324
939.367	-365
939.461	457
939.554	-264
939.648	85
939.741	-34
939.835	-571
939.928	310
940.022	-313
940.115	-333
940.208	-117
940.302	609
940.395	327
940.488	98
940.582	729
940.675	-378
940.768	-53
940.861	102
940.954	117
941.048	71
941.141	-747
941.234	-117
941.327	68
941.420	687
941.513	-96
941.606	-342
941.699	-157
941.792	-527
941.885	-202
941.978	587
942.071	-648
942.164	-234
942.257	200
942.349	-670
942.442	-501
942.535	533
942.628	-359
942.721	401
942.813	-534
942.906	527
942.999	-498
943.091	84
943.184	-494
943.277	-1124
943.369	-56
943.462	-222
943.554	-142
943.647	-1184
943.739	-605
943.832	463
943.924	-473
944.017	-16
944.109	-860
944.201	-178
944.294	-72
944.386	-696
944.478	-806
944.571	-85
944.663	-882
944.755	-34
944.847	28
944.940	-610
945.032	-1118
945.124	-452
945.216	310
945.308	-1498
945.400	79
945.492	-650
945.584	-573
945.676	-462
945.768	210
945.860	-123
945.952	-276
946.044	727
946.136	-46
946.228	-285
946.320	239
946.412	-262
946.503	-719
946.595	-433
946.687	-591
946.779	-702
946.870	-1340
946.962	70
947.054	1
947.145	112
947.237	-649
947.329	-572
947.420	-486
947.512	-398
947.603	-134
947.695	-251
947.786	-787
947.878	-274
947.969	203
948.061	-519
948.152	-236
948.243	-351
948.335	-473
948.426	-244
948.517	-159
948.609	-348
948.700	-756
948.791	225
948.882	-758
948.973	-513
949.065	-452
949.156	206
949.247	-1314
949.338	301
949.429	-1045
949.520	-441
949.611	-529
949.702	-107
949.793	-128
949.884	-818
949.975	-135
950.066	-552
950.157	-539
950.247	30
950.338	-331
950.429	-1062
950.520	-785
950.611	-479
950.701	-967
950.792	-592
950.883	-347
950.973	-955
951.064	-1260
951.155	-140
951.245	-78
951.336	-355
951.427	-752
951.517	-209
951.608	-501
951.698	-64
951.788	-884
951.879	-7
951.969	-781
952.060	-494
952.150	-144
952.240	131
952.331	-1822
952.421	-89
952.511	-954
952.602	190
952.692	-248
952.782	-151
952.872	-483
952.962	-8
953.052	-375
953.143	-583
953.233	-824
953.323	209
953.413	-693
953.503	-355
953.593	-317
953.683	-608
953.773	-1148
953.863	-106
953.953	-798
954.042	-216
954.132	-470
954.222	-590
954.312	-407
954.402	-719
954.492	-512
954.581	752
954.671	-582
954.761	-737
954.850	400
954.940	-238
955.030	-489
955.119	-502
955.209	-361
955.298	-894
955.388	-833
955.477	-117
955.567	-1127
955.656	533
955.746	-662
955.835	139
955.925	-87
956.014	-276
956.103	-249
956.193	-646
956.282	-350
956.371	229
956.461	-665
956.550	-197
956.639	-1274
956.728	-211
956.817	-575
956.906	-716
956.995	-721
957.085	-940
957.174	-462
957.263	-205
957.352	-1124
957.441	164
957.530	-678
957.619	-46
957.708	-790
957.796	-204
957.885	-1169
957.974	64
958.063	-649
958.152	-595
958.241	-505
958.329	58
958.418	-386
958.507	-223
958.596	-48
958.684	-748
958.773	-91
958.861	-1066
958.950	-681
959.039	-45
959.127	-809
959.216	218
959.304	-453
959.393	184
959.481	-284
959.570	-220
959.658	-827
959.746	624
959.835	276
959.923	178
960.011	12
960.100	1102
960.188	-162
960.276	-707
960.365	-872
960.453	394
960.541	-69
960.629	-522
960.717	-579
960.805	-404
960.893	-768
960.981	-982
961.069	-388
961.158	239
961.245	-199
961.333	-373
961.421	-647
961.509	-337
961.597	-1058
961.685	136
961.773	-719
961.861	-795
961.949	-741
962.036	146
962.124	-517
962.212	-871
962.299	-1425
962.387	-916
962.475	-867
962.562	-380
962.650	60
962.738	61
962.825	-963
962.913	-331
963.000	-867
963.088	-287
963.175	-1126
963.263	21
963.350	-1019
963.438	-446
963.525	-360
963.612	645
963.700	215
963.787	3423
963.874	1194
963.962	433
964.049	-1151
964.136	-196
964.223	-1386
964.310	-1201
964.398	-753
964.485	-1071
964.572	-803
964.659	484
964.746	-6
964.833	-679
964.920	-1281
965.007	-378
965.094	-600
965.181	-664
965.268	-979
965.355	-1276
965.441	-796
965.528	-858
965.615	-448
965.702	-1077
965.789	-1000
965.875	-288
965.962	-885
966.049	-996
966.136	-1102
966.222	-1424
966.309	146
966.395	-977
966.482	-1055
966.569	-453
966.655	-1440
966.742	-640
966.828	-1212
966.915	-370
967.001	-594
967.087	-705
967.174	-742
967.260	-604
967.347	-1431
967.433	231
967.519	1033
967.605	609
967.692	-827
967.778	-1002
967.864	-923
967.950	-662
968.036	-1803
968.123	-495
968.209	-1301
968.295	-1331
968.381	322
968.467	-699
968.553	-1918
968.639	3
968.725	-1026
968.811	-586
968.897	-101
968.983	-635
969.069	-1953
969.154	-272
969.240	-639
969.326	-1165
969.412	-686
969.497	-452
969.583	-1043
969.669	-437
969.755	-1279
969.840	-131
969.926	32
970.012	-1512
970.097	-68
970.183	-640
970.268	-612
970.354	-240
970.439	-536
970.525	1355
970.610	-262
970.696	-792
970.781	-1075
970.866	-1425
970.952	-418
971.037	-739
971.122	-957
971.208	-1444
971.293	-527
971.378	-841
971.463	-827
971.549	-391
971.634	-862
971.719	184
971.804	-958
971.889	-673
971.974	-1608
972.059	-1258
972.144	-1421
972.229	-1178
972.314	-461
972.399	99
972.484	-885
972.569	-736
972.654	-951
972.739	229
972.824	-891
972.908	-406
972.993	-777
973.078	-444
973.163	-809
973.247	-1482
973.332	-2018
973.417	132
973.501	-1652
973.586	-85
973.671	-776
973.755	-533
973.840	-379
973.924	-554
974.009	-1181
974.093	-1232
974.178	106
974.262	-584
974.346	-436
974.431	-505
974.515	-1577
974.600	-1032
974.684	-1650
974.768	-1029
974.852	-455
974.937	-845
975.021	-860
975.105	-511
975.189	-1401
975.273	-207
975.358	-1939
975.442	-1759
975.526	-1021
975.610	-481
975.694	-1435
975.778	-330
975.862	-1119
975.946	-1821
976.030	-545
976.114	-1605
976.198	-1287
976.281	-351
976.365	-590
976.449	-1102
976.533	-1420
976.617	-638
976.700	-800
976.784	-289
976.868	-654
976.951	-712
977.035	-525
977.119	-763
977.202	-695
977.286	-768
977.369	-1261
977.453	-860
977.536	-1191
977.620	-1081
977.703	-513
977.787	-1560
977.870	-376
977.953	114
978.037	-1441
978.120	434
978.203	-424
978.287	1
978.370	-1006
978.453	-1698
978.536	-1333
978.620	53
978.703	-877
978.786	-626
978.869	-1623
978.952	-1835
979.035	-874
979.118	-415
979.201	-2143
979.284	-1231
979.367	-1606
979.450	-80
979.533	-1912
979.616	-973
979.699	-1616
979.782	-561
979.865	-1540
979.948	-1042
980.030	-1161
980.113	-680
980.196	-1721
980.279	-908
980.361	-1023
980.444	-1145
980.526	-402
980.609	-1125
980.692	-835
980.774	-468
980.857	-1273
980.939	-236
981.022	-1403
981.104	-813
981.187	-1142
981.269	-961
981.352	-1266
981.434	-1217
981.516	-2143
981.599	-75
981.681	-1196
981.763	-678
981.846	-1295
981.928	-780
982.010	-1018
982.092	-1509
982.174	-318
982.256	-934
982.339	-1707
982.421	-1098
982.503	-1677
982.585	-234
982.667	-1581
982.749	-1031
982.831	-936
982.913	-1500
982.995	-1293
983.077	-818
983.158	-54
983.240	-1147
983.322	-1337
983.404	-1437
983.486	-2168
983.568	-385
983.649	-965
983.731	-738
983.813	-751
983.894	-1394
983.976	-1577
984.058	-1892
984.139	-317
984.221	-1728
984.302	-1034
984.384	-1133
984.465	-1382
984.547	-628
984.628	-1263
984.710	-727
984.791	-1801
984.872	-1268
984.954	-1693
985.035	-1218
985.116	-1202
985.198	-609
985.279	-518
985.360	-1412
985.441	-1781
985.522	-260
985.604	-1521
985.685	-2225
985.766	-480
985.847	-521
985.928	-2076
986.009	-915
986.090	-1639
986.171	-690
986.252	-1959
986.333	-1618
986.414	-1889
986.495	-769
986.576	-1462
986.656	-583
986.737	-721
986.818	-995
986.899	-1261
986.980	-1262
987.060	-865
987.141	-996
987.222	-1463
987.302	-760
987.383	-716
987.464	-1456
987.544	-1263
987.625	-2254
987.705	-1068
987.786	-1207
987.866	-1491
987.947	-558
988.027	-655
988.108	-745
988.188	-726
988.268	-1360
988.349	-683
988.429	-1292
988.509	-1277
988.589	-981
988.670	-1519
988.750	-363
988.830	-573
988.910	-655
988.990	-1396
989.070	-1481
989.151	-1087
989.231	-1183
989.311	-518
989.391	-1576
989.471	-2297
989.551	-1468
989.631	-1732
989.711	-398
989.791	-2371
989.870	-970
989.950	-1393
990.030	-1451
990.110	-1741
990.190	-1688
990.269	-1220
990.349	-1002
990.429	-830
990.509	-1006
990.588	-1581
990.668	-540
990.747	-1238
990.827	-736
990.907	-1315
990.986	-851
991.066	-1516
991.145	-1677
991.225	-1373
991.304	-1434
991.383	-1293
991.463	-945
991.542	-1334
991.622	-1104
991.701	-1768
991.780	-1124
991.859	-1736
991.939	-1231
992.018	-1578
992.097	-1097
992.176	-2251
992.256	-750
992.335	-2044
992.414	-818
992.493	-1315
992.572	-1095
992.651	-1222
992.730	-1195
992.809	-529
992.888	-1884
992.967	-1951
993.046	-1036
993.125	-2237
993.203	-1136
993.282	-1079
993.361	-1283
993.440	-1562
993.519	-1468
993.597	-881
993.676	-1465
993.755	-1441
993.834	-893
993.912	-1759
993.991	-440
994.069	-1682
994.148	-985
994.226	-1806
994.305	-1039
994.384	-1263
994.462	-550
994.540	-1249
994.619	-1076
994.697	-1023
994.776	-1309
994.854	-1446
994.932	-1631
995.011	-1280
995.089	-1140
995.167	-1875
995.245	-953
995.324	-1685
995.402	-1047
995.480	-2364
995.558	44
995.636	-2051
995.714	-1891
995.792	-700
995.870	-942
995.948	-2199
996.026	-1463
996.104	-1247
996.182	-1616
996.260	-1855
996.338	-1607
996.416	-2192
996.494	-1190
996.572	-905
996.649	-1352
996.727	-2464
996.805	-488
996.883	-1183
996.960	-1287
997.038	-786
997.116	-456
997.193	-1912
997.271	-1561
997.348	-1487
997.426	-1627
997.504	-1965
997.581	-857
997.658	-769
997.736	-1409
997.813	-1568
997.891	-267
997.968	-1439
998.046	-1206
998.123	-1569
998.200	-2247
998.277	-2321
998.355	-1030
998.432	-2179
998.509	-1123
998.586	-1766
998.663	-1285
998.741	-1469
998.818	-1135
998.895	-1626
998.972	-333
999.049	-1804
999.126	-1663
999.203	-985
999.280	-1664
999.357	-1807
999.434	-1480
999.511	-1058
999.587	-414
999.664	-1653
999.741	-1534
999.818	-1745
999.895	-1282
999.971	-1848
1000.048	-1713
1000.125	-663
1000.202	-1760
1000.278	-1319
1000.355	-760
1000.431	-1821
1000.508	-1465
1000.584	-1100
1000.661	-940
1000.738	-2050
1000.814	-985
1000.890	-1853
1000.967	-1260
1001.043	-1819
1001.120	-1887
1001.196	-1347
1001.272	-1635
1001.349	-1852
1001.425	-796
1001.501	-1512
1001.577	-769
1001.654	-1025
1001.730	-1606
1001.806	-2306
1001.882	-1620
1001.958	-1577
1002.034	-1611
1002.110	-2076
1002.186	-936
1002.262	-1305
1002.338	-1117
1002.414	-1540
1002.490	-821
1002.566	-1570
1002.642	-2014
1002.718	-2287
1002.794	-1864
1002.870	-2336
1002.945	-2062
1003.021	-1716
1003.097	-1439
1003.173	-1668
1003.248	-1689
1003.324	-1522
1003.400	-1086
1003.475	-2082
1003.551	-1137
1003.626	-1506
1003.702	-1613
1003.777	-1457
1003.853	-1401
1003.928	-2171
1004.004	-979
1004.079	-1533
1004.155	-1770
1004.230	-2080
1004.305	-978
1004.381	-2125
1004.456	-2296
1004.531	-1823
1004.607	-1811
1004.682	-1473
1004.757	-1475
1004.832	-1947
1004.907	-1589
1004.982	-1124
1005.057	-1150
1005.133	-1814
1005.208	-1243
1005.283	-2135
1005.358	-231
1005.433	-1777
1005.508	-965
1005.583	-2077
1005.657	-1400
1005.732	-1767
1005.807	-1811
1005.882	-2266
1005.957	-1333
1006.032	-1350
1006.106	-1194
1006.181	-2404
1006.256	-1630
1006.331	-2572
1006.405	-1104
1006.480	-1963
1006.554	-962
1006.629	-984
1006.704	-1567
1006.778	-1628
1006.853	-827
1006.927	-1934
1007.002	-1597
1007.076	-1903
1007.150	-1912
1007.225	-2189
1007.299	-1427
1007.373	-2395
1007.448	-1620
1007.522	-1235
1007.596	-1756
1007.671	-2260
1007.745	-1148
1007.819	-2220
1007.893	-1728
1007.967	-1385
1008.041	-2038
1008.115	-1444
1008.190	-1508
1008.264	-1715
1008.338	-2244
1008.412	-1215
1008.486	-1885
1008.560	-1984
1008.633	-2405
1008.707	-2153
1008.781	-926
1008.855	-2077
1008.929	-1506
1009.003	-2322
1009.076	-1529
1009.150	-1523
1009.224	-1111
1009.298	-2133
1009.371	-1985
1009.445	-1513
1009.519	-1270
1009.592	-2092
1009.666	-1650
1009.739	-2629
1009.813	-2229
1009.886	-1732
1009.960	-2070
1010.033	-1388
1010.107	-1070
1010.180	-2519
1010.253	-1720
1010.327	-2193
1010.400	-1806
1010.473	-1513
1010.547	-693
1010.620	-1981
1010.693	-2500
1010.766	-1930
1010.840	-1611
1010.913	-1881
1010.986	-438
1011.059	-1609
1011.132	-1481
1011.205	-1000
1011.278	-2133
1011.351	-1944
1011.424	-1567
1011.497	-2327
1011.570	-1629
1011.643	-1450
1011.716	-2466
1011.789	-2270
1011.862	-2206
1011.934	-2380
1012.007	-2345
1012.080	-1672
1012.153	-1346
1012.225	-1428
1012.298	-2089
1012.371	-2620
1012.443	-784
1012.516	-1844
1012.588	-1290
1012.661	-2149
1012.733	-2652
1012.806	-647
1012.879	-2280
1012.951	-2108
1013.023	-2591
1013.096	-1683
1013.168	-2283
1013.241	-1938
1013.313	-1443
1013.385	-1516
1013.458	-1538
1013.530	-1321
1013.602	-1919
1013.674	-1637
1013.746	-1758
1013.819	-2342
1013.891	-931
1013.963	-2847
1014.035	-1658
1014.107	-1958
1014.179	-1256
1014.251	-2448
1014.323	-1952
1014.395	-1534
1014.467	-2155
1014.539	-1409
1014.611	-1986
1014.683	-1628
1014.754	-1731
1014.826	-1684
1014.898	-2052
1014.970	-2184
1015.042	-904
1015.113	-1597
1015.185	-1661
1015.257	-1970
1015.328	-1127
1015.400	-2082
1015.471	-1836
1015.543	-1302
1015.615	-1922
1015.686	-1920
1015.757	-1741
1015.829	-1029
1015.901	-1826
1015.972	-1939
1016.043	-2337
1016.115	-1878
1016.186	-1612
1016.257	-1838
1016.328	-1416
1016.400	-2235
1016.471	-1744
1016.542	-2078
1016.613	-1504
1016.685	-1754
1016.756	-1929
1016.827	-2325
1016.898	-2678
1016.969	-1702
1017.040	-1454
1017.111	-2766
1017.182	-1746
1017.253	-2155
1017.324	-1561
1017.395	-2100
1017.466	-1806
1017.537	-2719
1017.608	-1754
1017.678	-2401
1017.749	-1325
1017.820	-1776
1017.891	-1776
1017.961	-2792
1018.032	-2160
1018.103	-1645
1018.173	-1923
1018.244	-2483
1018.315	-2145
1018.385	-1478
1018.456	-1556
1018.526	-2230
1018.597	-1831
1018.667	-1433
1018.738	-1488
1018.808	-1676
1018.878	-1751
1018.949	-1977
1019.019	-1847
1019.089	-1733
1019.160	-1748
1019.230	-2488
1019.300	-2176
1019.371	-3215
1019.441	-1221
1019.511	-1976
1019.581	-1486
1019.651	-2218
1019.721	-1825
1019.791	-2176
1019.861	-2466
1019.931	-1562
1020.001	-1445
1020.071	-1962
1020.141	-1919
1020.211	-1968
1020.281	-1962
1020.351	-2578
1020.421	-1566
1020.491	-2572
1020.560	-2457
1020.630	-1923
1020.700	-1993
1020.770	-1658
1020.839	-1995
1020.909	-2604
1020.979	-1561
1021.048	-2089
1021.118	-2129
1021.187	-1842
1021.257	-1561
1021.326	-2293
1021.396	-2086
1021.465	-1520
1021.535	-1959
1021.604	-2317
1021.674	-2149
1021.743	-2000
1021.812	-1912
1021.882	-1776
1021.951	-2258
1022.020	-1757
1022.089	-1795
1022.159	-2232
1022.228	-2191
1022.297	-2744
1022.366	-2206
1022.435	-1718
1022.504	-1753
1022.573	-2267
1022.642	-1569
1022.711	-2780
1022.781	-1348
1022.849	-1581
1022.918	-2674
1022.987	-1766
1023.056	-1974
1023.125	-2326
1023.194	-1939
1023.263	-2044
1023.331	-2341
1023.400	-1352
1023.469	-2554
1023.538	-2150
1023.606	-2107
1023.675	-2111
1023.744	-2450
1023.812	-2208
1023.881	-1664
1023.949	-1900
1024.018	-1987
1024.086	-2598
1024.155	-2719
1024.223	-2856
1024.292	-1915
1024.360	-1767
1024.429	-1866
1024.497	-2263
1024.565	-1679
1024.634	-2609
1024.702	-1987
1024.770	-2473
1024.838	-1355
1024.907	-1800
1024.975	-2168
1025.043	-2764
1025.111	-2115
1025.179	-2034
1025.247	-2194
1025.315	-1846
1025.383	-1897
1025.451	-2173
1025.519	-2109
1025.587	-2471
1025.655	-2273
1025.723	-2436
1025.791	-1925
1025.859	-2225
1025.927	-1408
1025.995	-2483
1026.062	-1382
1026.130	-1738
1026.198	-1648
1026.266	-2933
1026.333	-2076
1026.401	-1962
1026.469	-2035
1026.536	-2514
1026.604	-2203
1026.671	-2191
1026.739	-1388
1026.806	-2430
1026.874	-1981
1026.941	-2202
1027.009	-2407
1027.076	-2653
1027.144	-1264
1027.211	-2094
1027.278	-2198
1027.345	-2191
1027.413	-2014
1027.480	-3121
1027.547	-2441
1027.614	-2497
1027.682	-1755
1027.749	-1998
1027.816	-1586
1027.883	-1885
1027.950	-2226
1028.017	-3189
1028.084	-1503
1028.151	-2193
1028.218	-2340
1028.285	-1906
1028.352	-2146
1028.419	-3399
1028.486	-2689
1028.553	-2095
1028.619	-2504
1028.686	-2194
1028.753	-1693
1028.820	-2800
1028.886	-1346
1028.953	-2622
1029.020	-2638
1029.086	-2198
1029.153	-2306
1029.220	-2228
1029.286	-2455
1029.353	-2221
1029.419	-1914
1029.486	-2614
1029.552	-1440
1029.619	-2066
1029.685	-2721
1029.751	-2286
1029.818	-2025
1029.884	-2742
1029.951	-1099
1030.017	-3072
1030.083	-2431
1030.149	-3214
1030.216	-2132
1030.282	-1977
1030.348	-1980
1030.414	-2020
1030.480	-2434
1030.546	-2793
1030.612	-2420
1030.678	-2293
1030.744	-2097
1030.810	-1992
1030.876	-2478
1030.942	-2376
1031.008	-1837
1031.074	-1835
1031.140	-2245
1031.206	-2251
1031.272	-2711
1031.337	-2448
1031.403	-1873
1031.469	-2018
1031.534	-1839
1031.600	-2026
1031.666	-2458
1031.731	-2653
1031.797	-1428
1031.863	-2461
1031.928	-2557
1031.994	-2552
1032.059	-2120
1032.125	-2026
1032.190	-2282
1032.256	-2865
1032.321	-1745
1032.386	-2420
1032.452	-1905
1032.517	-2274
1032.582	-2133
1032.647	-1777
1032.713	-2158
1032.778	-2068
1032.843	-2788
1032.908	-2064
1032.974	-2459
1033.039	-2444
1033.104	-2328
1033.169	-2019
1033.234	-2134
1033.299	-2280
1033.364	-1034
1033.429	-2155
1033.494	-1435
1033.559	-3032
1033.624	-2218
1033.688	-2530
1033.753	-2869
1033.818	-2741
1033.883	-1528
1033.948	-2140
1034.013	-2441
1034.077	-2451
1034.142	-1622
1034.207	-2424
1034.271	-2059
1034.336	-1929
1034.400	-1891
1034.465	-2103
1034.530	-1356
1034.594	-2597
1034.658	-2156
1034.723	-3009
1034.787	-1911
1034.852	-2598
1034.916	-2225
1034.981	-2291
1035.045	-1587
1035.109	-2496
1035.173	-1515
1035.238	-2900
1035.302	-1662
1035.366	-2096
1035.430	-2238
1035.495	-2110
1035.559	-1622
1035.623	-2568
1035.687	-1648
1035.751	-2698
1035.815	-2579
1035.879	-1601
1035.943	-2413
1036.007	-2829
1036.071	-1707
1036.135	-2644
1036.198	-2376
1036.262	-2845
1036.326	-1726
1036.390	-2061
1036.454	-1953
1036.517	-2278
1036.581	-1568
1036.645	-2348
1036.709	-1730
1036.772	-2112
1036.836	-1572
1036.900	-1721
1036.963	-2298
1037.026	-2027
1037.090	-2414
1037.154	-2347
1037.217	-1239
1037.280	-2590
1037.344	-1851
1037.407	-2577
1037.471	-2114
1037.534	-2590
1037.597	-1459
1037.661	-2319
1037.724	-2808
1037.787	-2404
1037.850	-2372
1037.913	-2267
1037.977	-1443
1038.040	-2374
1038.103	-2608
1038.166	-2187
1038.229	-2508
1038.292	-2372
1038.355	-2098
1038.418	-2990
1038.481	-1947
1038.544	-2460
1038.607	-2328
1038.670	-2337
1038.732	-1840
1038.795	-2181
1038.858	-1852
1038.921	-3164
1038.984	-1040
1039.046	-2484
1039.109	-2796
1039.172	-2852
1039.234	-1495
1039.297	-2750
1039.360	-2791
1039.422	-2215
1039.485	-2487
1039.547	-2301
1039.610	-1720
1039.672	-2367
1039.734	-2477
1039.797	-2629
1039.859	-1899
1039.922	-3031
1039.984	-2254
1040.046	-1777
1040.109	-2456
1040.171	-2342
1040.233	-1955
1040.295	-2367
1040.358	-2175
1040.420	-2567
1040.482	-2096
1040.544	-1695
1040.606	-1975
1040.668	-2275
1040.730	-2569
1040.792	-2233
1040.854	-2561
1040.916	-2375
1040.978	-2729
1041.040	-2657
1041.102	-2894
1041.164	-2000
1041.225	-2060
1041.287	-3013
1041.349	-1905
1041.411	-2725
1041.472	-2425
1041.534	-2591
1041.596	-2716
1041.657	-2608
1041.719	-1543
1041.781	-2559
1041.842	-2377
1041.904	-2149
1041.965	-2224
1042.027	-1958
1042.088	-2656
1042.150	-2227
1042.211	-1982
1042.272	-2561
1042.334	-2678
1042.395	-1759
1042.456	-2305
1042.518	-1840
1042.579	-2107
1042.640	-1996
1042.701	-2359
1042.763	-1904
1042.824	-1974
1042.885	-2353
1042.946	-1733
1043.007	-1438
1043.068	-2156
1043.129	-2310
1043.190	-3097
1043.251	-1475
1043.312	-2365
1043.373	-1848
1043.434	-2757
1043.495	-1764
1043.556	-1962
1043.616	-2446
1043.677	-2075
1043.738	-2980
1043.799	-2190
1043.859	-2639
1043.920	-1752
1043.981	-3088
1044.041	-1855
1044.102	-2234
1044.162	-2414
1044.223	-2873
1044.284	-2059
1044.344	-2519
1044.405	-2605
1044.465	-2016
1044.525	-2561
1044.586	-3320
1044.646	-1527
1044.707	-2808
1044.767	-1974
1044.827	-2454
1044.887	-2564
1044.948	-2634
1045.008	-1755
1045.068	-2357
1045.128	-1800
1045.188	-2959
1045.249	-2364
1045.309	-2485
1045.369	-2032
1045.429	-2827
1045.489	-1440
1045.549	-1785
1045.609	-1535
1045.669	-2396
1045.729	-1940
1045.789	-2136
1045.848	-1598
1045.908	-916
1045.968	-1915
1046.028	-2354
1046.088	-2256
1046.147	-1880
1046.207	-2030
1046.267	-3023
1046.326	-1765
1046.386	-1556
1046.446	-1626
1046.505	-1141
1046.565	-1211
1046.624	-1688
1046.684	-1683
1046.743	-1376
1046.803	-1209
1046.862	-660
1046.922	0
