'Start Wavelength	183.907
'End Wavelength	1046.922
'Gate Delay	5.000
'Gate Width (ms)	1.050
'Laser Output Level	0.000
'X Position	0.000
'Y Position	0.000
'Z Position	0.000
'Grid Point Number	1.000
'Shot Number	100.000
183.907	103.000
183.977	16.000
184.047	-190
184.116	1102
184.186	264
184.256	241
184.325	486
184.395	-98
184.465	-592
184.534	685
184.604	-183
184.674	176
184.743	-354
184.813	1007
184.883	-342
184.952	191
185.022	514
185.092	181
185.161	-182
185.231	273
185.301	30
185.370	627
185.440	26
185.509	213
185.579	559
185.649	647
185.718	-379
185.788	1149
185.857	109
185.927	486
185.996	98
186.066	265
186.136	436
186.205	116
186.275	750
186.344	162
186.414	27
186.483	-75
186.553	542
186.622	1625
186.692	-178
186.761	279
186.831	-284
186.900	105
186.970	114
187.039	377
187.109	1281
187.178	647
187.248	425
187.317	624
187.387	-271
187.456	335
187.526	-332
187.595	488
187.664	-197
187.734	692
187.803	-394
187.873	716
187.942	302
188.012	267
188.081	347
188.150	296
188.220	140
188.289	599
188.358	670
188.428	355
188.497	372
188.567	393
188.636	743
188.705	385
188.775	-337
188.844	325
188.913	-45
188.983	1014
189.052	-323
189.121	959
189.191	-577
189.260	802
189.329	-41
189.399	323
189.468	-195
189.537	235
189.606	664
189.676	526
189.745	1086
189.814	1336
189.883	-149
189.953	895
190.022	172
190.091	2169
190.161	1855
190.230	1579
190.299	605
190.368	846
190.437	-155
190.507	315
190.576	533
190.645	706
190.714	24
190.783	287
190.853	645
190.922	856
190.991	-90
191.060	48
191.129	10
191.198	739
191.268	322
191.337	838
191.406	588
191.475	607
191.544	-585
191.613	498
191.682	-153
191.752	645
191.821	-69
191.890	985
191.959	225
192.028	10
192.097	826
192.166	633
192.235	-134
192.304	718
192.373	882
192.442	522
192.511	-192
192.580	425
192.650	843
192.719	545
192.788	215
192.857	844
192.926	260
192.995	471
193.064	1828
193.133	1526
193.202	1615
193.271	1154
193.340	1048
193.409	804
193.478	895
193.547	1889
193.615	2118
193.684	2128
193.753	855
193.822	1438
193.891	620
193.960	1214
194.029	1093
194.098	333
194.167	654
194.236	1015
194.305	-131
194.374	317
194.443	72
194.512	976
194.580	-293
194.649	1658
194.718	457
194.787	1402
194.856	-45
194.925	731
194.994	-364
195.062	989
195.131	15
195.200	871
195.269	999
195.338	872
195.407	91
195.475	1051
195.544	696
195.613	781
195.682	315
195.751	902
195.819	589
195.888	1089
195.957	1148
196.026	957
196.094	1123
196.163	2024
196.232	552
196.301	995
196.369	1110
196.438	1196
196.507	1083
196.576	806
196.644	579
196.713	721
196.782	467
196.850	395
196.919	733
196.988	1066
197.056	407
197.125	458
197.194	655
197.262	1154
197.331	-175
197.400	1310
197.468	817
197.537	638
197.606	583
197.674	1906
197.743	3160
197.812	1738
197.880	2719
197.949	1906
198.017	2787
198.086	1898
198.155	988
198.223	1928
198.292	3492
198.360	2742
198.429	851
198.497	1381
198.566	2779
198.635	3897
198.703	1760
198.772	1529
198.840	4406
198.909	4885
198.977	782
199.046	1293
199.114	1330
199.183	1179
199.251	447
199.320	639
199.388	586
199.457	662
199.525	538
199.594	1037
199.662	365
199.731	1035
199.799	573
199.867	1266
199.936	546
200.004	1357
200.073	618
200.141	1128
200.210	6
200.278	1182
200.346	1048
200.415	741
200.483	1172
200.552	821
200.620	606
200.688	1051
200.757	1165
200.825	471
200.893	-42
200.962	1531
201.030	762
201.098	643
201.167	1068
201.235	1191
201.303	1055
201.372	1257
201.440	1382
201.508	1466
201.577	977
201.645	1092
201.713	1074
201.781	1388
201.850	1631
201.918	1135
201.986	485
202.055	1431
202.123	234
202.191	1369
202.259	1445
202.327	543
202.396	386
202.464	818
202.532	936
202.600	4841
202.669	1560
202.737	1579
202.805	965
202.873	597
202.941	1026
203.009	1279
203.078	509
203.146	752
203.214	683
203.282	871
203.350	770
203.418	911
203.487	1138
203.555	498
203.623	376
203.691	546
203.759	287
203.827	1307
203.895	966
203.963	899
204.031	22
204.099	1639
204.168	1013
204.236	1493
204.304	983
204.372	1349
204.440	1004
204.508	934
204.576	17
204.644	1244
204.712	299
204.780	1168
204.848	1057
204.916	1188
204.984	1128
205.052	1012
205.120	518
205.188	1012
205.256	808
205.324	1775
205.392	225
205.460	2076
205.528	2112
205.596	277
205.664	585
205.732	2165
205.799	4207
205.867	7176
205.935	1146
206.003	2313
206.071	821
206.139	1328
206.207	688
206.275	781
206.343	398
206.411	1083
206.478	661
206.546	1445
206.614	1039
206.682	1976
206.750	1119
206.818	1751
206.885	1638
206.953	238
207.021	1686
207.089	690
207.157	24
207.225	1365
207.292	735
207.360	1783
207.428	1492
207.496	1592
207.563	540
207.631	1236
207.699	1030
207.767	1356
207.834	621
207.902	1053
207.970	1185
208.038	729
208.105	1007
208.173	2257
208.241	1755
208.309	2334
208.376	903
208.444	3107
208.512	1686
208.579	1370
208.647	1339
208.715	2043
208.782	814
208.850	2091
208.918	1978
208.985	1949
209.053	1430
209.120	1262
209.188	1383
209.256	1190
209.323	1752
209.391	1565
209.459	1824
209.526	2066
209.594	931
209.661	1132
209.729	1289
209.796	1601
209.864	1307
209.932	1020
209.999	1231
210.067	1877
210.134	1431
210.202	1793
210.269	2271
210.337	3244
210.404	1678
210.472	1801
210.539	1648
210.607	1854
210.674	2171
210.742	2102
210.809	997
210.877	2350
210.944	1781
211.012	2080
211.079	1895
211.146	1526
211.214	1670
211.281	2996
211.349	1916
211.416	2115
211.484	1581
211.551	2182
211.618	1746
211.686	2186
211.753	861
211.821	2157
211.888	1266
211.955	2446
212.023	2353
212.090	1570
212.157	2007
212.225	2470
212.292	4370
212.359	10441
212.427	25238
212.494	10583
212.561	4298
212.629	3789
212.696	2009
212.763	3059
212.831	1555
212.898	2389
212.965	2302
213.032	2164
213.100	1876
213.167	2131
213.234	2360
213.301	2277
213.369	2175
213.436	1969
213.503	1549
213.570	2606
213.638	1578
213.705	2095
213.772	1741
213.839	2072
213.906	2101
213.973	2667
214.041	1746
214.108	2855
214.175	2357
214.242	1971
214.309	1283
214.376	2068
214.444	1638
214.511	2457
214.578	1938
214.645	2565
214.712	2123
214.779	2037
214.846	1425
214.913	3133
214.980	2817
215.048	2861
215.115	2348
215.182	2622
215.249	2192
215.316	2474
215.383	2455
215.450	2248
215.517	1677
215.584	1988
215.651	1165
215.718	1821
215.785	2665
215.852	2681
215.919	1968
215.986	2212
216.053	2107
216.120	1871
216.187	2451
216.254	2785
216.321	2405
216.388	2060
216.455	1961
216.522	2318
216.589	2452
216.656	5501
216.722	4072
216.789	3814
216.856	3764
216.923	3076
216.990	3376
217.057	3505
217.124	3336
217.191	3744
217.258	3580
217.324	4110
217.391	4024
217.458	3617
217.525	3023
217.592	2437
217.659	2444
217.725	2994
217.792	3933
217.859	3723
217.926	1929
217.993	2631
218.059	1659
218.126	1890
218.193	1941
218.260	1902
218.327	1582
218.393	1776
218.460	1655
218.527	2431
218.594	1767
218.660	3354
218.727	4404
218.794	2556
218.860	2289
218.927	1817
218.994	2106
219.061	2235
219.127	2338
219.194	3371
219.261	2035
219.327	1445
219.394	1634
219.461	1534
219.527	649
219.594	2945
219.661	1923
219.727	879
219.794	1563
219.860	2173
219.927	1792
219.994	3027
220.060	4358
220.127	3483
220.193	2628
220.260	3431
220.326	3778
220.393	6199
220.460	6821
220.526	5192
220.593	3588
220.659	4503
220.726	5157
220.792	12681
220.859	9152
220.925	10199
220.992	11755
221.058	14741
221.125	15602
221.191	11908
221.258	4547
221.324	4186
221.391	3218
221.457	2646
221.524	2780
221.590	4455
221.657	15380
221.723	9841
221.789	9094
221.856	7313
221.922	3379
221.989	3142
222.055	1534
222.121	2470
222.188	4184
222.254	2201
222.321	1002
222.387	2128
222.453	1363
222.520	1481
222.586	1456
222.652	2189
222.719	1217
222.785	1622
222.851	1781
222.918	1559
222.984	1421
223.050	1721
223.116	1189
223.183	1063
223.249	510
223.315	1689
223.382	1839
223.448	978
223.514	408
223.580	1333
223.647	1183
223.713	2185
223.779	1223
223.845	1108
223.911	2051
223.978	725
224.044	1353
224.110	994
224.176	1613
224.242	1670
224.309	1585
224.375	1874
224.441	768
224.507	1438
224.573	1125
224.639	1326
224.705	802
224.772	1136
224.838	1353
224.904	2154
224.970	1394
225.036	1262
225.102	1132
225.168	1659
225.234	1869
225.300	1993
225.366	1021
225.432	2086
225.499	1126
225.565	1711
225.631	1191
225.697	1943
225.763	1926
225.829	3055
225.895	2873
225.961	4341
226.027	3094
226.093	4092
226.159	4571
226.225	8219
226.291	14364
226.357	18392
226.423	9963
226.489	6673
226.554	5419
226.620	4795
226.686	6326
226.752	8563
226.818	13819
226.884	25013
226.950	19776
227.016	8790
227.082	6910
227.148	5071
227.214	3764
227.279	4288
227.345	2403
227.411	3437
227.477	2822
227.543	6851
227.609	6145
227.674	4137
227.740	3203
227.806	2917
227.872	2867
227.938	2927
228.003	3300
228.069	2252
228.135	2162
228.201	2030
228.267	2029
228.332	2465
228.398	3300
228.464	2671
228.530	676
228.595	1399
228.661	1107
228.727	2688
228.792	2409
228.858	1675
228.924	1187
228.990	4000
229.055	2053
229.121	2915
229.187	1309
229.252	3036
229.318	1015
229.384	2102
229.449	1102
229.515	767
229.581	-72
229.646	3120
229.712	1910
229.777	5601
229.843	5253
229.909	3524
229.974	3356
230.040	3355
230.105	2321
230.171	3430
230.236	3951
230.302	5836
230.368	3966
230.433	2945
230.499	2671
230.564	2826
230.630	1622
230.695	1999
230.761	2555
230.826	1457
230.892	2787
230.957	1618
231.023	1015
231.088	2308
231.154	2036
231.219	2755
231.284	2572
231.350	4112
231.415	1696
231.481	1980
231.546	1630
231.612	2298
231.677	981
231.742	1163
231.808	2203
231.873	1964
231.939	630
232.004	4096
232.069	3242
232.135	2796
232.200	1892
232.265	2413
232.331	1421
232.396	1227
232.461	845
232.527	729
232.592	975
232.657	1764
232.723	5085
232.788	3706
232.853	1536
232.918	1612
232.984	1171
233.049	1920
233.114	3842
233.179	4313
233.245	7370
233.310	7867
233.375	2040
233.440	2075
233.506	1671
233.571	1836
233.636	2073
233.701	2371
233.766	4232
233.832	5163
233.897	2647
233.962	1706
234.027	3073
234.092	2997
234.157	2197
234.222	3921
234.288	6199
234.353	18011
234.418	12594
234.483	7452
234.548	4433
234.613	3908
234.678	4035
234.743	5119
234.808	16520
234.873	8595
234.938	4437
235.004	3802
235.069	2821
235.134	3064
235.199	2343
235.264	3268
235.329	1709
235.394	3016
235.459	4215
235.524	4520
235.589	2482
235.654	2930
235.719	1837
235.784	3288
235.849	3354
235.913	8487
235.978	9695
236.043	9924
236.108	4184
236.173	4668
236.238	4373
236.303	2810
236.368	3111
236.433	7358
236.498	9335
236.563	6855
236.627	13624
236.692	38113
236.757	28308
236.822	13623
236.887	10642
236.952	8411
237.017	6773
237.081	8049
237.146	9604
237.211	19692
237.276	39623
237.341	56104
237.405	28770
237.470	13102
237.535	10034
237.600	6497
237.664	5894
237.729	4488
237.794	6050
237.859	11109
237.923	8154
237.988	5466
238.053	7917
238.118	8914
238.182	26012
238.247	19875
238.312	8310
238.376	6251
238.441	4349
238.506	5747
238.570	2200
238.635	3443
238.700	3445
238.764	3262
238.829	10687
238.893	11083
238.958	5077
239.023	4281
239.087	3649
239.152	3654
239.216	2366
239.281	2395
239.346	1935
239.410	3590
239.475	4395
239.539	24190
239.604	15973
239.668	5876
239.733	4019
239.797	6895
239.862	14815
239.926	19933
239.991	6784
240.055	4594
240.120	3413
240.184	3564
240.249	2827
240.313	2888
240.378	3370
240.442	13944
240.507	20367
240.571	6653
240.635	10760
240.700	10646
240.764	3750
240.829	3388
240.893	1821
240.957	3625
241.022	12858
241.086	20365
241.151	7804
241.215	2832
241.279	5494
241.344	10496
241.408	3652
241.472	3257
241.537	3933
241.601	3930
241.665	2630
241.730	3285
241.794	4013
241.858	2973
241.922	3146
241.987	3237
242.051	1717
242.115	2561
242.179	2272
242.244	2748
242.308	3644
242.372	4479
242.436	4763
242.501	4018
242.565	2926
242.629	2100
242.693	3834
242.757	2368
242.822	2747
242.886	3465
242.950	4266
243.014	4740
243.078	3700
243.142	4602
243.206	3134
243.271	4279
243.335	4454
243.399	8844
243.463	33393
243.527	65801
243.591	17606
243.655	7933
243.719	4900
243.783	6803
243.847	8596
243.911	11958
243.975	11852
244.040	6383
244.104	3923
244.168	3892
244.232	4958
244.296	8075
244.360	8611
244.424	5203
244.488	4796
244.552	4208
244.615	1683
244.679	3771
244.743	3933
244.807	3186
244.871	3465
244.935	3251
244.999	1601
245.063	3276
245.127	4082
245.191	6805
245.255	6336
245.319	5166
245.383	3738
245.446	4631
245.510	2514
245.574	3654
245.638	2726
245.702	2980
245.766	8186
245.829	5401
245.893	4426
245.957	3587
246.021	4597
246.085	4413
246.149	5830
246.212	13745
246.276	18163
246.340	7214
246.404	4928
246.467	6967
246.531	7834
246.595	6542
246.659	5911
246.722	4752
246.786	5740
246.850	6885
246.913	7089
246.977	3776
247.041	3660
247.104	3982
247.168	5519
247.232	13089
247.295	24975
247.359	10175
247.423	5453
247.486	10417
247.550	5576
247.614	4860
247.677	6083
247.741	3728
247.804	3830
247.868	6808
247.932	12463
247.995	23282
248.059	7951
248.122	4666
248.186	7127
248.249	13626
248.313	43132
248.376	37170
248.440	23440
248.503	8869
248.567	8682
248.630	11399
248.694	14848
248.757	20408
248.821	43949
248.884	22870
248.948	24368
249.011	33621
249.075	51021
249.138	37878
249.202	15265
249.265	11267
249.328	17762
249.392	10256
249.455	7190
249.519	6579
249.582	7756
249.645	14455
249.709	12361
249.772	14437
249.835	9377
249.899	9599
249.962	7455
250.025	6547
250.089	18358
250.152	18612
250.215	9643
250.279	8874
250.342	8911
250.405	8326
250.468	7616
250.532	11014
250.595	19635
250.658	77814
250.721	102033
250.785	33477
250.848	17638
250.911	12645
250.974	10289
251.038	15249
251.101	26565
251.164	15023
251.227	14333
251.290	14670
251.354	26351
251.417	103172
251.480	84782
251.543	70587
251.606	177509
251.669	114712
251.732	45394
251.795	44339
251.859	48113
251.922	110895
251.985	52270
252.048	22254
252.111	16104
252.174	15894
252.237	28695
252.300	54146
252.363	69489
252.426	128503
252.489	47115
252.552	26044
252.615	19059
252.678	21687
252.741	45361
252.804	68427
252.867	135669
252.930	67652
252.993	33312
253.056	21224
253.119	15530
253.182	13292
253.245	22362
253.308	15907
253.371	15448
253.434	13857
253.497	13096
253.559	24042
253.622	15588
253.685	21184
253.748	16928
253.811	10138
253.874	15774
253.937	12139
254.000	9777
254.062	18778
254.125	23704
254.188	21554
254.251	15031
254.314	9849
254.376	16846
254.439	16681
254.502	12841
254.565	17808
254.628	26129
254.690	14951
254.753	8075
254.816	7491
254.878	9648
254.941	19796
255.004	16382
255.067	9472
255.129	6979
255.192	5170
255.255	4591
255.317	6249
255.380	3808
255.443	3648
255.505	3022
255.568	3311
255.631	3802
255.693	4461
255.756	2967
255.819	3652
255.881	2937
255.944	2720
256.006	2881
256.069	3586
256.132	3332
256.194	6542
256.257	18504
256.319	12047
256.382	11104
256.444	6878
256.507	4796
256.569	4656
256.632	5838
256.694	10818
256.757	25691
256.819	58431
256.882	22452
256.944	10607
257.007	8245
257.069	9233
257.132	5631
257.194	5668
257.257	4659
257.319	5471
257.381	7060
257.444	21119
257.506	73423
257.569	69221
257.631	35067
257.693	18363
257.756	11099
257.818	10478
257.880	5370
257.943	5546
258.005	4253
258.067	5074
258.130	3978
258.192	5603
258.254	11585
258.317	7016
258.379	5047
258.441	13285
258.503	12471
258.566	24983
258.628	25189
258.690	6418
258.753	6631
258.815	10198
258.877	6479
258.939	4723
259.001	4103
259.064	4734
259.126	6313
259.188	8127
259.250	6580
259.312	8245
259.375	16828
259.437	9226
259.499	4653
259.561	4534
259.623	5030
259.685	4230
259.747	6277
259.809	24424
259.872	36430
259.934	62886
259.996	39407
260.058	10933
260.120	5183
260.182	5551
260.244	4270
260.306	3744
260.368	3826
260.430	4195
260.492	7929
260.554	15638
260.616	11569
260.678	28550
260.740	31506
260.802	8070
260.864	6795
260.926	5596
260.988	5599
261.050	5927
261.112	13182
261.174	39668
261.236	26471
261.298	9305
261.359	18356
261.421	20991
261.483	6688
261.545	5960
261.607	2780
261.669	5187
261.731	12138
261.793	21013
261.854	7716
261.916	5958
261.978	4351
262.040	5609
262.102	5257
262.164	10153
262.225	6554
262.287	4360
262.349	9572
262.411	7724
262.472	4809
262.534	13275
262.596	20447
262.658	6943
262.719	3979
262.781	8710
262.843	21014
262.904	9000
262.966	7494
263.028	11297
263.090	54771
263.151	99423
263.213	27108
263.275	13424
263.336	7179
263.398	6479
263.459	3918
263.521	4996
263.583	9696
263.644	6171
263.706	2232
263.767	2300
263.829	2568
263.891	2721
263.952	1726
264.014	2544
264.075	4829
264.137	9935
264.198	5410
264.260	1817
264.321	2671
264.383	8707
264.444	13880
264.506	4727
264.567	3432
264.629	8031
264.690	12039
264.752	5509
264.813	3611
264.875	3499
264.936	3206
264.998	2805
265.059	2835
265.120	3730
265.182	7354
265.243	33211
265.305	25759
265.366	7894
265.427	4787
265.489	4685
265.550	3037
265.611	4520
265.673	2801
265.734	3299
265.795	3042
265.857	2802
265.918	3554
265.979	11695
266.040	53015
266.102	35543
266.163	10675
266.224	8554
266.286	4934
266.347	3754
266.408	3641
266.469	5504
266.530	3364
266.592	3064
266.653	7656
266.714	10410
266.775	2901
266.836	2034
266.898	2358
266.959	4213
267.020	3413
267.081	3928
267.142	2235
267.203	3403
267.264	2096
267.326	4073
267.387	2672
267.448	1795
267.509	3283
267.570	3103
267.631	2730
267.692	2277
267.753	3818
267.814	3354
267.875	7649
267.936	11867
267.997	6635
268.058	6266
268.119	3344
268.180	3238
268.241	2091
268.302	3196
268.363	2280
268.424	2874
268.485	3243
268.546	2378
268.607	1669
268.668	2322
268.729	1336
268.790	2817
268.851	2755
268.912	8577
268.972	8198
269.033	4384
269.094	2044
269.155	3080
269.216	2287
269.277	4051
269.338	2684
269.398	2971
269.459	2188
269.520	4923
269.581	5832
269.642	5908
269.702	4157
269.763	4399
269.824	4020
269.885	5448
269.945	5182
270.006	3109
270.067	2175
270.128	2394
270.188	2580
270.249	2055
270.310	1424
270.370	3361
270.431	2586
270.492	1968
270.553	2920
270.613	6891
270.674	12899
270.734	5230
270.795	3814
270.856	5337
270.916	3892
270.977	3282
271.038	3487
271.098	4003
271.159	6043
271.219	5873
271.280	3032
271.340	2941
271.401	4464
271.462	11358
271.522	5826
271.583	3924
271.643	3899
271.704	3529
271.764	3646
271.825	11360
271.885	37668
271.946	42161
272.006	13604
272.066	24914
272.127	33652
272.187	10878
272.248	7353
272.308	8888
272.369	24471
272.429	11759
272.489	9850
272.550	9452
272.610	10234
272.671	7122
272.731	10648
272.791	14022
272.852	7120
272.912	5978
272.972	3258
273.033	4911
273.093	6621
273.153	6109
273.214	4528
273.274	5631
273.334	19623
273.394	30870
273.455	11268
273.515	13620
273.575	25252
273.635	10816
273.696	20014
273.756	30896
273.816	11073
273.876	9413
273.936	27014
273.997	33752
274.057	8431
274.117	7706
274.177	12707
274.237	41786
274.297	32903
274.358	26411
274.418	25474
274.478	16851
274.538	8364
274.598	9716
274.658	35093
274.718	36886
274.778	12068
274.838	8405
274.898	22919
274.958	53878
275.018	38193
275.078	19896
275.138	8728
275.198	5957
275.258	5513
275.318	8113
275.378	11051
275.438	10578
275.498	9032
275.558	31103
275.618	43834
275.678	20530
275.738	14429
275.798	9046
275.858	5544
275.918	3554
275.978	5487
276.038	4854
276.098	4411
276.157	9458
276.217	20288
276.277	9316
276.337	6513
276.397	3971
276.457	5103
276.517	3722
276.576	2952
276.636	3841
276.696	6181
276.756	15649
276.815	9988
276.875	5636
276.935	6079
276.995	4828
277.055	3651
277.114	4730
277.174	5935
277.234	15403
277.293	6134
277.353	4482
277.413	3412
277.472	4135
277.532	4615
277.592	5861
277.651	20566
277.711	27665
277.771	11294
277.830	37107
277.890	24764
277.950	27516
278.009	61534
278.069	21047
278.128	24892
278.188	28379
278.248	15059
278.307	36558
278.367	18854
278.426	8305
278.486	5222
278.545	5170
278.605	4169
278.664	4493
278.724	5556
278.783	16931
278.843	30726
278.902	9795
278.962	6282
279.021	9212
279.081	17780
279.140	14659
279.199	8182
279.259	8638
279.318	9394
279.378	14011
279.437	27883
279.496	87293
279.556	246255
279.615	158980
279.675	45144
279.734	30496
279.793	47577
279.853	56134
279.912	21757
279.971	14061
280.031	12123
280.090	21588
280.149	31776
280.208	41465
280.268	172980
280.327	139704
280.386	35080
280.445	24843
280.505	18929
280.564	12688
280.623	9312
280.682	13041
280.742	14928
280.801	6225
280.860	5283
280.919	5019
280.978	4588
281.037	4887
281.097	3948
281.156	4292
281.215	3754
281.274	6920
281.333	21136
281.392	12497
281.451	4918
281.510	4064
281.569	3367
281.628	4328
281.688	3312
281.747	4619
281.806	3854
281.865	3164
281.924	2742
281.983	3288
282.042	2287
282.101	3015
282.160	2673
282.219	3261
282.278	3530
282.337	11562
282.396	5940
282.454	3888
282.513	5020
282.572	16236
282.631	7727
282.690	3823
282.749	2395
282.808	4476
282.867	4771
282.926	3708
282.985	2997
283.043	3036
283.102	2883
283.161	5380
283.220	10348
283.279	16998
283.338	6582
283.396	4423
283.455	4210
283.514	4954
283.573	6644
283.631	5393
283.690	3478
283.749	3530
283.808	7247
283.866	7892
283.925	3054
283.984	3553
284.043	4960
284.101	5961
284.160	3129
284.219	6015
284.277	4814
284.336	8793
284.395	23632
284.453	16471
284.512	7197
284.570	10397
284.629	8573
284.688	7995
284.746	8349
284.805	10550
284.863	12502
284.922	15925
284.981	20257
285.039	31746
285.098	55539
285.156	121632
285.215	222319
285.273	189966
285.332	102731
285.390	60651
285.449	39441
285.507	28987
285.566	21812
285.624	16782
285.683	13110
285.741	10587
285.799	8419
285.858	9287
285.916	6835
285.975	6274
286.033	5177
286.091	5043
286.150	3828
286.208	4670
286.267	4936
286.325	6078
286.383	7177
286.442	6069
286.500	4022
286.558	3819
286.616	3456
286.675	6096
286.733	4480
286.791	3790
286.850	4912
286.908	6599
286.966	8518
287.024	4403
287.083	3174
287.141	3569
287.199	3489
287.257	6037
287.315	4635
287.374	6068
287.432	10999
287.490	7185
287.548	4652
287.606	3712
287.664	4184
287.723	6335
287.781	6979
287.839	5186
287.897	6424
287.955	9482
288.013	16694
288.071	41596
288.129	143985
288.187	291519
288.245	128769
288.303	46185
288.361	26902
288.419	19533
288.477	13981
288.535	10955
288.593	7897
288.651	6505
288.709	4355
288.767	4950
288.825	3775
288.883	3635
288.941	3988
288.999	3805
289.057	2274
289.115	2794
289.173	3340
289.231	3775
289.289	2161
289.346	3100
289.404	4522
289.462	6353
289.520	6018
289.578	3632
289.636	2050
289.694	2424
289.751	2073
289.809	1975
289.867	2053
289.925	3812
289.983	3401
290.040	2391
290.098	2049
290.156	3172
290.214	2953
290.271	2138
290.329	2140
290.387	1728
290.444	1072
290.502	1827
290.560	1962
290.617	2528
290.675	2156
290.733	2208
290.790	2633
290.848	1778
290.906	2430
290.963	2580
291.021	2218
291.078	2357
291.136	2886
291.194	9383
291.251	15397
291.309	4940
291.366	2288
291.424	2141
291.481	2403
291.539	2893
291.596	2215
291.654	1695
291.711	2315
291.769	3155
291.826	5267
291.884	3558
291.941	1334
291.999	2042
292.056	2286
292.114	3120
292.171	2173
292.228	2815
292.286	2495
292.343	5947
292.401	6293
292.458	4315
292.515	2847
292.573	3948
292.630	3608
292.687	3652
292.745	2880
292.802	4707
292.859	11787
292.917	18250
292.974	9133
293.031	3954
293.089	2979
293.146	2971
293.203	2624
293.260	2175
293.318	3041
293.375	4876
293.432	2490
293.489	2743
293.546	2876
293.604	5496
293.661	17719
293.718	33836
293.775	14633
293.832	7775
293.889	6338
293.947	7311
294.004	4865
294.061	5015
294.118	9338
294.175	17466
294.232	18235
294.289	8451
294.346	5652
294.403	6442
294.460	4863
294.517	3752
294.574	3045
294.631	2712
294.688	4318
294.745	13212
294.802	36971
294.859	32984
294.916	14071
294.973	8896
295.030	7038
295.087	5792
295.144	3855
295.201	4162
295.258	2899
295.315	5373
295.372	16450
295.429	25393
295.486	10769
295.542	7321
295.599	15049
295.656	22395
295.713	18235
295.770	21926
295.827	8412
295.883	5543
295.940	4729
295.997	8129
296.054	6874
296.111	3914
296.167	3416
296.224	2843
296.281	3005
296.338	2393
296.394	2804
296.451	4674
296.508	12112
296.564	18054
296.621	14087
296.678	33998
296.734	40909
296.791	14393
296.848	8035
296.904	9690
296.961	18469
297.018	27717
297.074	18784
297.131	9414
297.187	7202
297.244	11151
297.301	32562
297.357	47845
297.414	16180
297.470	7701
297.527	5028
297.583	4817
297.640	4414
297.696	4363
297.753	2710
297.809	3032
297.866	2192
297.922	2688
297.979	2030
298.035	3532
298.092	6186
298.148	16243
298.204	14025
298.261	8622
298.317	15709
298.374	36837
298.430	20406
298.486	11597
298.543	8165
298.599	8143
298.656	9564
298.712	16007
298.768	34748
298.824	23723
298.881	9194
298.937	5515
298.993	4470
299.050	5726
299.106	4504
299.162	3914
299.218	4497
299.275	3928
299.331	5469
299.387	11689
299.443	34588
299.500	34206
299.556	14523
299.612	7578
299.668	7543
299.724	10734
299.780	10529
299.837	7317
299.893	10292
299.949	28516
300.005	30518
300.061	30145
300.117	44648
300.173	21033
300.229	10604
300.285	11856
300.341	11458
300.397	6402
300.453	4848
300.510	5272
300.566	5042
300.622	7930
300.678	22051
300.734	32399
300.790	27601
300.845	30512
300.901	21988
300.957	29227
301.013	18934
301.069	8788
301.125	6377
301.181	6475
301.237	4432
301.293	3727
301.349	2839
301.405	3361
301.461	4068
301.516	6260
301.572	4866
301.628	8152
301.684	7035
301.740	11192
301.796	16541
301.851	12452
301.907	20440
301.963	22535
302.019	39378
302.074	91267
302.130	84524
302.186	38440
302.242	16245
302.297	11084
302.353	10683
302.409	18149
302.464	15843
302.520	15230
302.576	32545
302.631	34299
302.687	18484
302.743	9481
302.798	5062
302.854	5314
302.910	5140
302.965	7228
303.021	10678
303.076	11225
303.132	12863
303.187	14304
303.243	6943
303.299	5191
303.354	3662
303.410	4166
303.465	3201
303.521	2860
303.576	4182
303.632	5746
303.687	10952
303.743	29365
303.798	22573
303.853	10178
303.909	5179
303.964	5432
304.020	7720
304.075	11560
304.130	10014
304.186	17220
304.241	17263
304.297	14443
304.352	6972
304.358	6701
304.407	4504
304.449	4900
304.463	5040
304.518	5294
304.539	5074
304.573	4727
304.629	5895
304.630	5965
304.684	9513
304.720	19003
304.739	23724
304.794	31704
304.811	27309
304.850	16546
304.902	7419
304.905	6854
304.960	5976
304.992	5888
305.015	5772
305.071	6069
305.083	5607
305.126	3984
305.173	3304
305.181	3210
305.236	2632
305.264	3288
305.292	3934
305.347	4087
305.354	4330
305.402	5967
305.445	6228
305.457	6261
305.512	7327
305.535	7180
305.567	7064
305.622	7791
305.626	8078
305.678	14950
305.716	27880
305.733	32343
305.788	33893
305.807	29904
305.843	23390
305.897	30670
305.898	30736
305.953	28530
305.988	19151
306.008	14086
306.063	9331
306.078	8268
306.118	6065
306.168	4441
306.173	4291
306.228	3755
306.259	3534
306.283	3588
306.338	3515
306.349	3716
306.393	4456
306.440	5028
306.448	5123
306.503	5493
306.530	5765
306.558	7204
306.613	14918
306.620	15813
306.668	21522
306.711	28578
306.723	29252
306.778	21260
306.801	16730
306.833	11521
306.888	5522
306.892	5341
306.943	4777
306.982	3985
306.997	3800
307.052	3950
307.072	4115
307.107	4615
307.162	6129
307.163	6149
307.217	8650
307.253	9979
307.272	10162
307.327	10178
307.343	9846
307.381	9036
307.434	8429
307.436	8669
307.491	17012
307.524	23764
307.546	25173
307.600	24782
307.614	22375
307.655	14303
307.704	8788
307.710	8712
307.765	10506
307.795	12433
307.819	14617
307.874	21825
307.885	22175
307.929	18745
307.975	15590
307.984	16290
308.038	25071
308.065	32306
308.093	54609
308.148	110270
308.156	121922
308.202	184012
308.246	219288
308.257	211095
308.312	118582
308.336	81934
308.366	61565
308.421	36243
308.426	34203
308.475	22800
308.517	16004
308.530	14926
308.585	13350
308.607	12645
308.639	12594
308.694	13589
308.697	13742
308.748	21934
308.787	29425
308.803	29055
308.857	22943
308.877	20516
308.912	18717
308.967	18058
308.967	18071
309.021	25767
309.058	32282
309.076	40876
309.130	73066
309.148	85923
309.185	155989
309.238	271925
309.239	272832
309.293	291646
309.328	273634
309.348	235726
309.402	117581
309.418	87145
309.457	61594
309.508	36491
309.511	35842
309.566	31370
309.598	29526
309.620	31281
309.674	37924
309.688	39643
309.729	37998
309.778	33426
309.783	32804
309.837	25073
309.868	21620
309.892	24407
309.946	32329
309.959	35086
310.001	43685
310.049	50314
310.055	48678
310.109	29751
310.139	19200
310.163	15330
310.218	9592
310.229	8592
310.272	7672
310.319	6937
310.326	6771
310.381	5756
310.409	5279
310.435	5199
310.489	5043
310.499	5022
310.543	5125
310.589	5533
310.598	5529
310.652	5366
310.679	5108
310.706	4426
310.760	3469
310.769	3279
310.814	2907
310.859	2679
310.868	2728
310.923	2964
310.948	3171
310.977	3717
311.031	4746
311.038	4897
311.085	4276
311.128	3442
311.139	3425
311.193	3400
311.218	3417
311.247	3334
311.301	3276
311.308	3269
311.356	3130
311.398	2910
311.410	2933
311.464	3100
311.488	3186
311.518	3241
311.572	3309
311.578	3332
311.626	4049
311.668	4609
311.680	4736
311.734	5221
311.758	5446
311.788	5004
311.842	4240
311.847	4156
311.896	5469
311.937	6679
311.950	6636
312.004	6382
312.027	6264
312.058	5185
312.112	3258
312.117	3070
312.165	3257
312.207	3428
312.297	3630
312.386	3362
312.476	4334
312.566	8269
312.656	4636
312.745	2932
312.835	3232
312.925	3734
313.015	4159
313.104	4052
313.194	3479
313.284	2988
313.374	4003
313.463	4130
313.553	2713
313.643	2301
313.732	2028
313.822	1922
313.912	3011
314.001	3649
314.091	3355
314.180	5246
314.270	4876
314.360	5552
314.449	5216
314.539	3374
314.628	2856
314.718	2903
314.808	5017
314.897	3501
314.987	3277
315.076	4629
315.166	5559
315.255	5766
315.345	5997
315.434	5570
315.524	6087
315.613	6591
315.703	10548
315.792	22962
315.881	80738
315.971	33890
316.060	13235
316.150	16130
316.239	15637
316.328	6426
316.418	4180
316.507	4237
316.597	5438
316.686	4004
316.775	8503
316.865	16784
316.954	3810
317.043	2561
317.133	3944
317.222	2446
317.311	3424
317.400	3976
317.490	5729
317.579	7155
317.668	7892
317.757	13882
317.847	40989
317.936	144997
318.025	55831
318.114	27439
318.203	15435
318.293	9704
318.382	17014
318.471	12967
318.560	17258
318.649	29801
318.738	8682
318.828	6039
318.917	7174
319.006	8497
319.095	20902
319.184	40313
319.273	25483
319.362	13745
319.451	5395
319.540	5468
319.629	11494
319.718	18858
319.807	9254
319.896	15864
319.985	51513
320.074	21577
320.163	6808
320.252	10332
320.341	6751
320.430	6631
320.519	8936
320.608	5416
320.697	4847
320.786	4826
320.875	6171
320.964	9644
321.053	14089
321.142	20084
321.230	21246
321.319	16488
321.408	31848
321.497	14412
321.586	13629
321.675	16802
321.764	14704
321.852	10783
321.941	18911
322.030	13820
322.119	15322
322.207	34354
322.296	24074
322.385	12768
322.474	16476
322.562	42040
322.651	22196
322.740	16339
322.829	22553
322.917	23304
323.006	14155
323.095	10720
323.183	9794
323.272	14412
323.361	25860
323.449	72319
323.538	27205
323.626	46975
323.715	32132
323.804	13055
323.892	42361
323.981	25183
324.069	8109
324.158	22236
324.246	21850
324.335	8139
324.424	12252
324.512	4835
324.601	6358
324.689	11740
324.778	21521
324.866	17197
324.954	5234
325.043	4890
325.131	9130
325.220	16678
325.308	19032
325.397	14094
325.485	8893
325.574	3310
325.662	3263
325.750	3401
325.839	3608
325.927	3250
326.015	4596
326.104	8192
326.192	11679
326.280	3419
326.369	3158
326.457	4824
326.545	9405
326.634	4077
326.722	1840
326.810	2624
326.898	3024
326.987	3382
327.075	9157
327.163	10015
327.251	4676
327.340	6719
327.428	9651
327.516	3375
327.604	3179
327.692	3659
327.781	5322
327.869	6512
327.957	5553
328.045	4947
328.133	2729
328.221	4456
328.309	4064
328.397	3550
328.485	3904
328.574	6162
328.662	21118
328.750	14376
328.838	5681
328.926	2607
329.014	2487
329.102	4290
329.190	10572
329.278	7367
329.366	2220
329.454	2080
329.542	2528
329.630	2993
329.718	3075
329.806	4558
329.893	4680
329.981	6694
330.069	12843
330.157	47238
330.245	112143
330.333	59098
330.421	11728
330.509	9667
330.597	28334
330.684	18271
330.772	6103
330.860	7016
330.948	7529
331.036	4772
331.123	2257
331.211	3019
331.299	3108
331.387	6961
331.475	12135
331.562	5144
331.650	2429
331.738	3353
331.825	4527
331.913	2264
332.001	2357
332.089	3453
332.176	8669
332.264	19824
332.352	16052
332.439	4385
332.527	3594
332.614	2746
332.702	4478
332.790	3405
332.877	10006
332.965	19802
333.052	6647
333.140	6963
333.228	14666
333.315	5997
333.403	4484
333.490	11733
333.578	11522
333.665	15645
333.753	9953
333.840	3420
333.928	5460
334.015	12031
334.103	22687
334.190	59600
334.278	16539
334.365	7127
334.452	5868
334.540	4511
334.627	5561
334.715	8442
334.802	19130
334.889	86523
334.977	87282
335.064	11702
335.151	5174
335.239	5131
335.326	7599
335.413	25946
335.501	34631
335.588	6496
335.675	4652
335.762	5857
335.850	8453
335.937	9267
336.024	23593
336.111	82119
336.199	34850
336.286	7271
336.373	4164
336.460	2897
336.547	3140
336.635	3745
336.722	3895
336.809	3615
336.896	6192
336.983	16573
337.070	38323
337.157	56328
337.245	53283
337.332	37575
337.419	5486
337.506	3368
337.593	3360
337.680	11841
337.767	30245
337.854	9812
337.941	11020
338.028	16175
338.115	6581
338.202	6723
338.289	14687
338.376	49954
338.463	16663
338.550	18108
338.637	19226
338.724	9230
338.811	14663
338.898	3447
338.984	2958
339.071	2617
339.158	4918
339.245	11951
339.332	8636
339.419	9750
339.506	9651
339.593	1802
339.679	2523
339.766	2431
339.853	3717
339.940	8683
340.027	3791
340.113	3332
340.200	5470
340.287	3932
340.374	4570
340.460	7614
340.547	3888
340.634	6618
340.720	26603
340.807	15440
340.894	2634
340.980	2591
341.067	2873
341.154	3068
341.240	6413
341.327	12065
341.414	4630
341.500	4371
341.587	3021
341.674	3191
341.760	8811
341.847	9697
341.933	3552
342.020	812
342.106	1603
342.193	2954
342.279	6246
342.366	4289
342.452	8688
342.539	4831
342.625	12359
342.712	28275
342.798	11146
342.885	4899
342.971	1967
343.058	1483
343.144	1826
343.230	2127
343.317	2378
343.403	1891
343.490	1938
343.576	1926
343.662	2750
343.749	3279
343.835	5019
343.921	10528
344.008	65194
344.094	131561
344.180	29040
344.267	10727
344.353	31578
344.439	31174
344.525	14408
344.612	7540
344.698	6047
344.784	4717
344.870	2732
344.957	3004
345.043	5967
345.129	3513
345.215	7075
345.301	4300
345.387	3199
345.474	2321
345.560	2833
345.646	2996
345.732	2967
345.818	3255
345.904	3407
345.990	4013
346.076	3386
346.162	6072
346.249	3339
346.335	2755
346.421	4213
346.507	14547
346.593	44881
346.679	10104
346.765	3522
346.851	2636
346.937	2648
347.023	2260
347.108	3719
347.194	2456
347.280	3162
347.366	4731
347.452	16323
347.538	57060
347.624	40050
347.710	29273
347.796	5365
347.882	2371
347.967	2345
348.053	2970
348.139	3360
348.225	2264
348.311	2319
348.397	2371
348.482	3668
348.568	4342
348.654	2375
348.740	3570
348.825	4658
348.911	7259
348.997	29147
349.083	50687
349.168	8828
349.254	2273
349.340	2869
349.425	2027
349.511	3567
349.597	4295
349.682	10215
349.768	28796
349.854	13248
349.939	2530
350.025	2255
350.110	1570
350.196	1875
350.282	1032
350.367	2196
350.453	5978
350.538	6028
350.624	3301
350.709	3826
350.795	1353
350.880	2373
350.966	2644
351.051	4873
351.137	3511
351.222	2772
351.308	10638
351.393	24502
351.479	6467
351.564	2308
351.649	1916
351.735	1973
351.820	2134
351.906	2501
351.991	4105
352.076	16631
352.162	23730
352.247	5654
352.332	3458
352.418	7256
352.503	8762
352.588	35992
352.673	28994
352.759	7442
352.844	3455
352.929	4454
353.014	5009
353.100	4290
353.185	5912
353.270	10183
353.355	10262
353.441	3306
353.526	4341
353.611	9344
353.696	10091
353.781	6567
353.866	2405
353.952	3425
354.037	9038
354.122	20393
354.207	18014
354.292	6714
354.377	2861
354.462	2920
354.547	4003
354.632	3446
354.717	5064
354.802	6080
354.887	3082
354.972	2633
355.057	2029
355.142	1780
355.227	3553
355.312	6334
355.397	14827
355.482	33468
355.567	16052
355.652	11118
355.737	13170
355.822	38118
355.907	28250
355.991	5484
356.076	1912
356.161	2250
356.246	1947
356.331	3860
356.416	11448
356.501	68823
356.585	68329
356.670	9747
356.755	6949
356.840	10759
356.924	51100
357.009	165748
357.094	62303
357.179	12949
357.263	8368
357.348	8133
357.433	8375
357.517	6471
357.602	5381
357.687	5026
357.771	9337
357.856	25046
357.941	17399
358.025	42126
358.110	169346
358.195	77272
358.279	11731
358.364	7928
358.448	27510
358.533	69079
358.617	49523
358.702	46906
358.787	17262
358.871	10217
358.956	8313
359.040	3679
359.125	2383
359.209	3128
359.294	11597
359.378	18793
359.462	9381
359.547	4781
359.631	2953
359.716	2345
359.800	1936
359.885	3691
359.969	2781
360.053	3497
360.138	2304
360.222	4498
360.306	10087
360.391	8400
360.475	15560
360.559	31402
360.644	28532
360.728	21592
360.812	39986
360.896	100573
360.981	39387
361.065	18273
361.149	5283
361.233	4826
361.318	3870
361.402	4696
361.486	4337
361.570	3892
361.654	5952
361.739	15340
361.823	69491
361.907	102343
361.991	18382
362.075	11011
362.159	21025
362.243	15906
362.327	14065
362.411	15519
362.495	8443
362.580	5272
362.664	3479
362.748	4163
362.832	5928
362.916	10857
363.000	31379
363.084	82279
363.168	121172
363.252	29233
363.336	9702
363.420	12326
363.503	37841
363.587	42093
363.671	9364
363.755	7269
363.839	9455
363.923	4858
364.007	11671
364.091	14250
364.175	18131
364.258	64440
364.342	50446
364.426	49913
364.510	26887
364.594	16074
364.677	21703
364.761	89806
364.845	61555
364.929	18599
365.013	14542
365.096	12446
365.180	13616
365.264	17630
365.347	58495
365.431	23865
365.515	6321
365.598	3846
365.682	3895
365.766	4308
365.849	5923
365.933	4845
366.017	5224
366.100	3405
366.184	1747
366.267	3418
366.351	2482
366.435	2308
366.518	1535
366.602	1933
366.685	2986
366.769	2418
366.852	5395
366.936	10337
367.019	6116
367.103	4202
367.186	6342
367.270	2351
367.353	878
367.436	3319
367.520	2031
367.603	4361
367.687	5336
367.770	12180
367.853	7285
367.937	23064
368.020	35113
368.104	9026
368.187	8822
368.270	12435
368.353	9528
368.437	15073
368.520	33155
368.603	21419
368.687	27801
368.770	48025
368.853	12613
368.936	10209
369.020	8468
369.103	4621
369.186	2805
369.269	3207
369.352	7351
369.436	10479
369.519	7046
369.602	2727
369.685	3743
369.768	4200
369.851	3108
369.934	2553
370.018	3967
370.101	8886
370.184	8021
370.267	4899
370.350	9137
370.433	14853
370.516	45109
370.599	64138
370.682	24945
370.765	26124
370.848	33804
370.931	61818
371.014	22365
371.097	4491
371.180	3401
371.263	2634
371.346	1128
371.429	1826
371.511	2545
371.594	6412
371.677	7894
371.760	8860
371.843	9706
371.926	57528
372.009	130701
372.091	40216
372.174	25452
372.257	57516
372.340	20779
372.423	13231
372.505	13499
372.588	7199
372.671	20747
372.754	61145
372.836	29534
372.919	17627
373.002	30740
373.085	10561
373.167	10098
373.250	26627
373.332	58098
373.415	89512
373.498	184721
373.580	68711
373.663	105667
373.746	136570
373.828	28956
373.911	10718
373.993	10757
374.076	30917
374.159	28790
374.241	17441
374.324	52050
374.406	35050
374.489	51609
374.571	136904
374.654	52654
374.736	27756
374.819	86250
374.901	126931
374.983	130858
375.066	22007
375.148	8556
375.231	25556
375.313	48117
375.395	17751
375.478	5466
375.560	4023
375.643	6676
375.725	28197
375.807	114188
375.890	84423
375.972	33163
376.054	18102
376.136	27288
376.219	13748
376.301	32609
376.383	93732
376.465	34655
376.548	21979
376.630	27689
376.712	75867
376.794	34265
376.877	4571
376.959	2208
377.041	4270
377.123	5329
377.205	6859
377.287	1755
377.369	2440
377.452	2346
377.534	2119
377.616	2504
377.698	2411
377.780	1617
377.862	3534
377.944	3096
378.026	1503
378.108	1926
378.190	1410
378.272	2378
378.354	1350
378.436	946
378.518	4076
378.600	13959
378.682	14156
378.764	33982
378.846	25835
378.928	7521
379.010	9315
379.091	5274
379.173	3607
379.255	2388
379.337	5114
379.419	18177
379.501	49583
379.583	19111
379.664	5890
379.746	13030
379.828	34166
379.910	46001
379.991	38106
380.073	6516
380.155	4832
380.237	2761
380.318	2498
380.400	3270
380.482	8514
380.564	13297
380.645	12164
380.727	11488
380.809	5569
380.890	4718
380.972	3464
381.053	2186
381.135	4754
381.217	12193
381.298	34199
381.380	17014
381.461	18705
381.543	82306
381.624	97895
381.706	18682
381.787	8704
381.869	9811
381.951	38803
382.032	138330
382.113	83236
382.195	16545
382.276	11543
382.358	25044
382.439	66378
382.521	81263
382.602	127630
382.684	59621
382.765	100876
382.846	110288
382.928	138576
383.009	80524
383.090	70137
383.172	223011
383.253	297296
383.334	113320
383.416	115337
383.497	60472
383.578	32764
383.659	62981
383.741	215205
383.822	464085
383.903	235943
383.984	89477
384.066	131115
384.147	79557
384.228	19141
384.309	13059
384.390	10846
384.471	7712
384.553	7829
384.634	10423
384.715	10871
384.796	5637
384.877	9101
384.958	32368
385.039	37648
385.120	12958
385.201	6800
385.282	7481
385.363	8298
385.444	8221
385.525	15657
385.606	51730
385.687	43632
385.768	10431
385.849	13308
385.930	62575
386.011	105088
386.092	28649
386.173	7071
386.254	5224
386.335	5532
386.416	6000
386.496	20039
386.577	32921
386.658	11378
386.739	7464
386.820	6241
386.901	4950
386.981	5170
387.062	4142
387.143	10130
387.224	32814
387.304	29598
387.385	11109
387.466	6065
387.547	7195
387.627	5370
387.708	14572
387.789	59415
387.869	71846
387.950	19954
388.031	4619
388.111	3587
388.192	9134
388.273	13075
388.353	8500
388.434	6068
388.514	13842
388.595	63160
388.676	74677
388.756	32402
388.837	31804
388.917	18952
388.998	3235
389.078	4684
389.159	4500
389.239	3677
389.320	7620
389.400	4851
389.480	12972
389.561	32440
389.641	17073
389.722	5880
389.802	9765
389.883	15307
389.963	42099
390.043	25594
390.124	7884
390.204	13650
390.284	39972
390.365	25248
390.445	34044
390.525	114012
390.605	105127
390.686	24433
390.766	8176
390.846	5376
390.927	2651
391.007	3222
391.087	4237
391.167	3687
391.247	3590
391.328	7082
391.408	8241
391.488	5676
391.568	2742
391.648	4902
391.728	6980
391.808	7629
391.888	8944
391.969	19557
392.049	29491
392.129	13742
392.209	16359
392.289	40696
392.369	22088
392.449	15159
392.529	11821
392.609	12513
392.689	16305
392.769	43870
392.849	37712
392.929	30218
393.009	63565
393.089	58993
393.169	75307
393.248	243268
393.328	759363
393.408	780945
393.488	245451
393.568	70753
393.648	34497
393.728	21693
393.807	15383
393.887	14648
393.967	12481
394.047	13129
394.127	15015
394.206	24902
394.286	87336
394.366	347187
394.446	372665
394.525	93041
394.605	24696
394.685	17103
394.764	22780
394.844	35085
394.924	25224
395.003	11523
395.083	8979
395.163	8274
395.242	7102
395.322	8258
395.402	6333
395.481	8118
395.561	17257
395.640	42733
395.720	38315
395.799	47970
395.879	39226
395.958	35797
396.038	126662
396.117	456844
396.197	495518
396.276	149771
396.356	48082
396.435	30652
396.515	25974
396.594	32199
396.673	64844
396.753	249439
396.832	700673
396.912	509072
396.991	118942
397.070	35961
397.150	17888
397.229	13752
397.308	14426
397.388	21406
397.467	13086
397.546	7007
397.625	4822
397.705	7430
397.784	6689
397.863	4354
397.942	3350
398.022	3509
398.101	12577
398.180	33384
398.259	16228
398.338	5631
398.417	4265
398.497	2931
398.576	3849
398.655	1860
398.734	1780
398.813	2834
398.892	11885
398.971	37220
399.050	17650
399.129	3018
399.208	2253
399.287	2385
399.366	1121
399.445	1524
399.524	2145
399.603	1252
399.682	5181
399.761	14964
399.840	41982
399.919	29840
399.998	4304
400.077	1650
400.156	1284
400.235	3049
400.313	1691
400.392	2265
400.471	16932
400.550	27645
400.629	7144
400.708	3610
400.786	1861
400.865	6577
400.944	6366
401.023	4723
401.102	1546
401.180	1231
401.259	1401
401.338	1281
401.416	3074
401.495	2843
401.574	1525
401.652	1167
401.731	2583
401.810	1976
401.888	1553
401.967	699
402.046	1036
402.124	2293
402.203	3182
402.281	2462
402.360	2368
402.438	8514
402.517	5211
402.596	1939
402.674	1843
402.753	804
402.831	786
402.910	2499
402.988	10135
403.066	31033
403.145	17812
403.223	10366
403.302	24245
403.380	17747
403.459	16355
403.537	6853
403.615	2551
403.694	1104
403.772	1257
403.850	1970
403.929	308
404.007	1056
404.085	4650
404.164	4264
404.242	2464
404.320	8557
404.398	26640
404.477	37077
404.555	105686
404.633	88830
404.711	24858
404.789	11235
404.868	4056
404.946	1843
405.024	551
405.102	739
405.180	234
405.258	32
405.336	745
405.415	721
405.493	3797
405.571	3937
405.649	103
405.727	737
405.805	2743
405.883	2652
405.961	2927
406.039	2359
406.117	695
406.195	5043
406.273	21592
406.351	81896
406.429	45132
406.507	6881
406.585	1701
406.663	2757
406.740	2691
406.818	2911
406.896	928
406.974	2069
407.052	7335
407.130	46467
407.208	64394
407.285	12230
407.363	1873
407.441	1882
407.519	1559
407.596	4297
407.674	17949
407.752	69168
407.830	53898
407.907	10476
407.985	2668
408.063	1927
408.141	706
408.218	3137
408.296	1912
408.373	2087
408.451	2777
408.529	1744
408.606	306
408.684	76
408.762	327
408.839	-143
408.917	-248
408.994	429
409.072	-171
409.149	784
409.227	1590
409.304	2162
409.382	2266
409.459	3007
409.537	4782
409.614	3599
409.692	2737
409.769	1875
409.846	3635
409.924	5411
410.001	3230
410.079	2927
410.156	2773
410.233	1990
410.311	2652
410.388	2207
410.465	2142
410.543	1315
410.620	881
410.697	1568
410.775	2065
410.852	-236
410.929	2514
411.006	3861
411.083	1397
411.161	3817
411.238	3869
411.315	2391
411.392	-275
411.469	2025
411.547	1661
411.624	10
411.701	124
411.778	2532
411.855	5341
411.932	2788
412.009	334
412.086	1052
412.163	1045
412.240	1607
412.317	2495
412.394	1754
412.471	1469
412.548	5
412.625	527
412.702	1156
412.779	3596
412.856	2595
412.933	-175
413.010	1102
413.087	2983
413.164	15342
413.241	21865
413.318	5135
413.395	3390
413.471	4473
413.548	2310
413.625	1560
413.702	841
413.779	1281
413.855	522
413.932	-285
414.009	-854
414.086	549
414.162	433
414.239	2792
414.316	15950
414.393	35367
414.469	11620
414.546	614
414.623	836
414.699	444
414.776	1051
414.853	163
414.929	1288
415.006	676
415.082	1065
415.159	698
415.236	912
415.312	1538
415.389	3429
415.465	4357
415.542	2257
415.618	180
415.695	3290
415.771	1927
415.848	1333
415.924	928
416.000	-120
416.077	824
416.153	-753
416.230	-670
416.306	-86
416.383	752
416.459	396
416.535	529
416.612	247
416.688	493
416.764	559
416.841	-334
416.917	-489
416.993	701
417.069	582
417.146	2531
417.222	3918
417.298	1995
417.374	-94
417.451	1316
417.527	1458
417.603	2708
417.679	1214
417.755	827
417.831	-234
417.908	276
417.984	-469
418.060	-237
418.136	3915
418.212	5237
418.288	1016
418.364	957
418.440	251
418.516	2391
418.592	1787
418.668	6096
418.744	11219
418.820	7282
418.896	1790
418.972	-969
419.048	184
419.124	4964
419.200	2186
419.276	644
419.352	-809
419.428	757
419.504	621
419.579	2302
419.655	657
419.731	1135
419.807	6176
419.883	13174
419.959	9214
420.034	2054
420.110	5233
420.186	20939
420.262	15683
420.337	2525
420.413	1779
420.489	767
420.565	785
420.640	188
420.716	1229
420.792	-438
420.867	1036
420.943	792
421.019	2398
421.094	2649
421.170	1204
421.245	319
421.321	877
421.397	2028
421.472	11763
421.548	36845
421.623	21324
421.699	4360
421.774	3020
421.850	2173
421.925	5568
422.001	5104
422.076	4401
422.152	4330
422.227	7639
422.302	10403
422.378	14813
422.453	28521
422.529	71401
422.604	219429
422.679	387463
422.755	239941
422.830	76747
422.905	29195
422.981	15017
423.056	9996
423.131	6533
423.207	5318
423.282	4487
423.357	8651
423.432	5766
423.508	5439
423.583	11091
423.658	9642
423.733	2953
423.808	2496
423.883	3828
423.959	3462
424.034	2348
424.109	1962
424.184	-335
424.259	522
424.334	-93
424.409	-136
424.484	45
424.559	1572
424.634	383
424.709	1973
424.784	2777
424.859	1045
424.934	2246
425.009	15274
425.084	24839
425.159	8262
425.234	671
425.309	694
425.384	5381
425.459	8735
425.534	3023
425.609	-309
425.683	51
425.758	-176
425.833	150
425.908	1550
425.983	8846
426.058	26059
426.132	11232
426.207	1457
426.282	2100
426.357	1300
426.431	16
426.506	862
426.581	526
426.655	435
426.730	-257
426.805	-404
426.879	872
426.954	745
427.029	4178
427.103	25598
427.178	66650
427.253	28908
427.327	2983
427.402	3585
427.476	9984
427.551	3997
427.625	753
427.700	1375
427.774	5
427.849	931
427.923	214
427.998	824
428.072	532
428.147	4878
428.221	22671
428.296	70383
428.370	35648
428.444	4674
428.519	3866
428.593	5994
428.667	5575
428.742	6100
428.816	8476
428.890	40724
428.965	66634
429.039	19779
429.113	8569
429.188	2834
429.262	1037
429.336	3017
429.410	10353
429.485	6818
429.559	4502
429.633	3373
429.707	1904
429.781	7056
429.855	40998
429.930	63835
430.004	28909
430.078	34341
430.152	38706
430.226	102008
430.300	101538
430.374	16684
430.448	4939
430.522	12185
430.596	33179
430.670	25889
430.744	75874
430.818	107568
430.892	22415
430.966	2408
431.040	1306
431.114	437
431.188	-410
431.262	378
431.336	43
431.410	3068
431.484	8786
431.557	6695
431.631	480
431.705	1733
431.779	13546
431.853	60637
431.927	41832
432.000	4662
432.074	1150
432.148	805
432.222	280
432.295	392
432.369	414
432.443	2493
432.516	26345
432.590	68198
432.664	23205
432.737	2266
432.811	-295
432.885	-322
432.958	63
433.032	-192
433.106	-407
433.179	-584
433.253	-1529
433.326	-1119
433.400	-778
433.473	-341
433.547	-1016
433.620	-338
433.694	874
433.767	1545
433.841	-113
433.914	-292
433.988	42
434.061	-235
434.134	-1314
434.208	-674
434.281	-179
434.355	-829
434.428	70
434.501	-479
434.575	-182
434.648	23
434.721	-1298
434.795	-737
434.868	-730
434.941	-900
435.014	-155
435.088	-294
435.161	368
435.234	1926
435.307	2272
435.381	607
435.454	158
435.527	1910
435.600	1284
435.673	1132
435.746	-5
435.819	722
435.892	47
435.966	-465
436.039	-445
436.112	134
436.185	-960
436.258	-465
436.331	-1178
436.404	71
436.477	-524
436.550	-612
436.623	-853
436.696	-816
436.769	21
436.842	103
436.915	23
436.987	433
437.060	-289
437.133	-398
437.206	-384
437.279	108
437.352	-1144
437.425	-380
437.498	-108
437.570	2498
437.643	1416
437.716	-529
437.789	-414
437.861	506
437.934	4453
438.007	1681
438.080	-190
438.152	276
438.225	3177
438.298	35216
438.370	97174
438.443	38624
438.516	6270
438.588	540
438.661	-1129
438.734	-683
438.806	-502
438.879	869
438.951	855
439.024	1340
439.096	463
439.169	-430
439.241	-693
439.314	-1199
439.386	163
439.459	1218
439.531	2687
439.604	493
439.676	-439
439.749	-375
439.821	-757
439.893	14
439.966	-131
440.038	-549
440.110	779
440.183	16
440.255	-870
440.327	1181
440.400	11381
440.472	54860
440.544	35683
440.617	3782
440.689	2135
440.761	2509
440.833	4156
440.905	2172
440.978	-512
441.050	219
441.122	-479
441.194	-550
441.266	-594
441.338	-150
441.411	1149
441.483	14841
441.555	21989
441.627	3894
441.699	1030
441.771	1437
441.843	-422
441.915	-336
441.987	12
442.059	-742
442.131	-137
442.203	811
442.275	1172
442.347	2544
442.419	4549
442.491	26157
442.563	61008
442.635	27653
442.706	10794
442.778	6622
442.850	1064
442.922	-141
442.994	184
443.066	1867
443.137	1174
443.209	1237
443.281	3688
443.353	8390
443.425	35431
443.496	121148
443.568	116068
443.640	43174
443.711	9006
443.783	2277
443.855	1367
443.926	339
443.998	229
444.070	1239
444.141	221
444.213	1966
444.285	2246
444.356	2140
444.428	1558
444.499	-295
444.571	13
444.642	441
444.714	344
444.785	1729
444.857	1836
444.928	4528
445.000	4113
445.071	3876
445.143	5355
445.214	3925
445.285	7617
445.357	22977
445.428	84984
445.500	190779
445.571	118201
445.642	56758
445.714	20261
445.785	13003
445.856	3298
445.928	3345
445.999	2191
446.070	2055
446.141	752
446.213	2911
446.284	-176
446.355	90
446.426	-408
446.497	298
446.569	1051
446.640	2100
446.711	1806
446.782	484
446.853	800
446.924	1164
446.995	446
447.066	274
447.138	969
447.209	366
447.280	-1381
447.351	-518
447.422	-1033
447.493	412
447.564	-69
447.635	1399
447.706	-108
447.777	-748
447.847	-930
447.918	-1112
447.989	-372
448.060	416
448.131	2894
448.202	2518
448.273	1679
448.344	183
448.414	-107
448.485	-362
448.556	-479
448.627	-148
448.698	62
448.768	-768
448.839	-626
448.910	563
448.981	1018
449.051	-407
449.122	-638
449.193	-958
449.263	-885
449.334	-327
449.405	-204
449.475	2780
449.546	475
449.616	1370
449.687	855
449.758	48
449.828	-1062
449.899	-513
449.969	-58
450.040	-123
450.110	803
450.181	-93
450.251	-531
450.322	-231
450.392	-219
450.463	-743
450.533	-1013
450.604	-55
450.674	-290
450.744	-188
450.815	-781
450.885	679
450.955	-387
451.026	-25
451.096	-843
451.166	-700
451.237	518
451.307	4473
451.377	1191
451.447	-774
451.518	-1291
451.588	-249
451.658	-351
451.728	-95
451.799	4727
451.869	6466
451.939	673
452.009	-194
452.079	-799
452.149	-302
452.219	-466
452.289	5911
452.360	4373
452.430	-285
452.500	456
452.570	188
452.640	1877
452.710	5617
452.780	8442
452.850	8506
452.920	6390
452.990	2442
453.060	1425
453.129	1054
453.199	2028
453.269	7842
453.339	18760
453.409	29717
453.479	26305
453.549	37743
453.619	39732
453.688	15917
453.758	1759
453.828	450
453.898	-210
453.968	-201
454.037	130
454.087	-455
454.107	-719
454.168	-913
454.177	-973
454.247	-969
454.249	-946
454.316	-932
454.330	-634
454.386	392
454.411	1260
454.456	2348
454.492	3665
454.525	4756
454.574	2257
454.595	1151
454.655	297
454.665	176
454.734	418
454.736	529
454.804	3042
454.817	3785
454.873	5763
454.898	6700
454.943	7837
454.979	5419
455.013	3410
455.060	1259
455.082	530
455.141	1880
455.152	2112
455.221	6627
455.222	6819
455.291	13826
455.303	15329
455.360	20241
455.384	28231
455.430	38511
455.465	29289
455.499	20881
455.546	12340
455.569	8498
455.627	5283
455.638	4786
455.707	655
455.708	679
455.777	-178
455.789	-57
455.846	416
455.869	519
455.916	741
455.950	594
455.985	396
456.031	535
456.054	495
456.112	512
456.124	519
456.193	775
456.193	754
456.262	821
456.274	1089
456.332	1901
456.355	1891
456.401	1589
456.436	1244
456.470	899
456.516	465
456.540	295
456.597	1044
456.609	1161
456.678	453
456.678	429
456.747	704
456.759	617
456.817	383
456.840	558
456.886	670
456.920	742
456.955	973
457.001	1050
457.024	1079
457.082	1456
457.093	1526
457.162	2324
457.163	2361
457.232	3535
457.243	3381
457.301	1963
457.324	1284
457.370	489
457.405	1079
457.439	1741
457.485	1829
457.508	1797
457.566	2026
457.577	2169
457.646	3180
457.647	3218
457.715	5291
457.727	5927
457.784	11263
457.808	14100
457.853	18086
457.889	21765
457.922	20741
457.969	15966
457.991	16414
458.050	18459
458.060	19411
458.129	30222
458.130	30610
458.198	30998
458.211	29885
458.267	18408
458.292	13093
458.336	9754
458.372	8384
458.405	10373
458.453	13932
458.474	18077
458.533	32424
458.543	34095
458.611	51445
458.614	52089
458.680	35512
458.694	30298
458.749	16153
458.775	10818
458.818	7478
458.855	5894
458.887	5140
458.936	4182
458.955	3955
459.016	3807
459.024	3799
459.093	3810
459.097	3806
459.162	3602
459.177	3644
459.230	4095
459.257	4476
459.299	4854
459.338	5341
459.368	5677
459.418	5700
459.437	5290
459.499	4328
459.505	4312
459.574	4205
459.579	4204
459.643	4046
459.659	4041
459.711	4163
459.740	4519
459.780	5118
459.820	5226
459.849	5317
459.900	5802
459.917	5867
459.981	5974
459.986	5917
460.054	5827
460.061	5800
460.123	6168
460.141	6280
460.191	7352
460.222	7946
460.260	8634
460.302	9854
460.328	9716
460.382	9348
460.397	9409
460.462	8969
460.465	9135
460.534	13866
460.543	14510
460.602	42722
460.623	53085
460.671	86554
460.703	113984
460.739	106155
460.783	92328
460.808	73406
460.864	15662
460.876	12982
460.944	6450
460.945	6389
461.013	5820
461.024	5776
461.081	6029
461.104	6238
461.150	5892
461.184	5322
461.218	5005
461.264	4869
461.286	5087
461.345	5507
461.355	5466
461.423	5263
461.425	5261
461.491	5184
461.505	5242
461.559	8216
461.585	9660
461.628	15330
461.665	20328
461.696	22554
461.745	27128
461.764	23467
461.825	8981
461.832	8735
461.901	6584
461.905	6520
461.969	6163
461.985	6050
462.037	5610
462.065	5416
462.105	5663
462.145	5893
462.173	7835
462.225	11268
462.241	12478
462.305	18425
462.310	18057
462.378	11658
462.385	10806
462.446	7497
462.465	6608
462.514	6690
462.545	6942
462.582	6961
462.625	7002
462.650	6693
462.705	5602
462.718	5671
462.785	6342
462.786	6381
462.854	8347
462.865	8681
462.922	10691
462.945	11591
462.990	9196
463.025	7086
463.058	6925
463.104	6660
463.126	6416
463.184	5800
463.194	5839
463.262	5877
463.264	5892
463.330	6822
463.344	6944
463.398	7386
463.424	7603
463.466	7202
463.504	6885
463.533	6893
463.583	6964
463.601	7255
463.663	7935
463.669	8144
463.737	10711
463.743	10930
463.805	14160
463.823	15079
463.873	20661
463.903	24205
463.940	26612
463.982	29400
464.008	24225
464.062	12348
464.076	11559
464.142	7436
464.144	7430
464.211	7534
464.221	7554
464.279	7825
464.301	7873
464.347	8475
464.381	9043
464.414	9649
464.461	10218
464.482	10769
464.540	12504
464.550	12316
464.617	10576
464.620	10505
464.685	11252
464.699	11382
464.753	12351
464.779	12867
464.820	13392
464.859	13771
464.888	13523
464.938	13035
464.956	13151
465.018	13485
465.023	13468
465.091	12752
465.098	12678
465.158	12456
465.177	12400
465.226	12751
465.257	12839
465.293	13079
465.336	13319
465.361	13808
465.416	14877
465.428	15645
465.495	19734
465.496	19814
465.563	26572
465.575	27751
465.631	34476
465.654	37334
465.698	26270
465.734	16786
465.765	15075
465.813	12281
465.833	12390
465.893	12924
465.900	12971
465.968	13266
465.972	13251
466.035	13344
466.052	13363
466.102	14525
466.131	15107
466.170	14870
466.210	14576
466.237	14806
466.290	15191
466.304	15441
466.369	16295
466.372	16396
466.439	18464
466.449	18723
466.506	19567
466.528	19838
466.573	22723
466.607	24800
466.641	31869
466.687	41609
466.708	46376
466.766	59368
466.775	56043
466.842	30103
466.845	28808
466.909	23018
466.925	21595
466.977	21186
467.004	20949
467.044	21270
467.083	21496
467.111	22047
467.163	22936
467.178	23593
467.242	26093
467.245	26061
467.312	24232
467.321	23939
467.379	23142
467.400	22776
467.446	23503
467.480	23941
467.559	22519
467.638	19902
467.717	20608
467.796	21457
467.875	23534
467.955	21765
468.034	25144
468.113	44517
468.192	65856
468.271	27904
468.350	20869
468.429	21121
468.508	21144
468.588	18733
468.667	18172
468.746	17845
468.825	17150
468.904	14885
468.983	17067
469.062	22848
469.141	27143
469.220	16781
469.299	13237
469.378	14907
469.456	17467
469.535	16365
469.614	16224
469.693	15682
469.772	19121
469.851	23802
469.930	19941
470.009	16125
470.088	15604
470.166	16978
470.245	21754
470.324	26887
470.403	23235
470.482	18854
470.560	16907
470.639	16806
470.718	18204
470.797	16393
470.875	16954
470.954	20119
471.033	22467
471.111	13469
471.190	11090
471.269	11583
471.347	12531
471.426	12718
471.505	14520
471.583	14531
471.662	15007
471.740	12057
471.819	13060
471.898	12206
471.976	13073
472.055	12238
472.133	15359
472.212	19049
472.290	18832
472.369	13108
472.447	11360
472.526	12267
472.604	12952
472.683	13216
472.761	14690
472.839	12458
472.918	13101
472.996	13013
473.075	14084
473.153	13687
473.231	12443
473.310	13649
473.388	13927
473.466	12940
473.545	15293
473.623	19882
473.701	19402
473.780	12967
473.858	13121
473.936	13659
474.014	12672
474.093	15280
474.171	20305
474.249	24168
474.327	19780
474.405	12277
474.484	11855
474.562	12851
474.640	12221
474.718	13258
474.796	14242
474.874	14475
474.952	13700
475.030	13734
475.108	15438
475.187	16066
475.265	19280
475.343	21846
475.421	25528
475.499	15029
475.577	15471
475.655	15188
475.733	26109
475.811	42982
475.889	39570
475.966	30919
476.044	13424
476.122	14757
476.200	18343
476.278	16310
476.356	11644
476.434	12102
476.512	14809
476.590	17567
476.667	17800
476.745	11365
476.823	11757
476.901	11619
476.979	10976
477.056	11303
477.134	12564
477.212	12578
477.290	12201
477.367	11427
477.445	10714
477.523	9414
477.601	11110
477.678	10771
477.756	12314
477.834	13506
477.911	10986
477.989	11585
478.066	10679
478.144	10998
478.222	13809
478.299	20386
478.377	22220
478.454	12837
478.532	10056
478.609	10966
478.687	12929
478.764	10799
478.842	11575
478.919	12931
478.997	12794
479.074	9650
479.152	12094
479.229	13926
479.307	11129
479.384	9424
479.461	9158
479.539	9911
479.616	11815
479.694	11056
479.771	10399
479.848	12331
479.926	14060
480.003	17284
480.080	11622
480.157	9321
480.235	9816
480.312	10129
480.389	10638
480.467	15812
480.544	19071
480.621	12625
480.698	11367
480.775	12654
480.853	12837
480.930	11455
481.007	11943
481.084	16125
481.161	21614
481.238	17839
481.315	10297
481.392	9537
481.470	10824
481.547	9627
481.624	10210
481.701	10688
481.778	11421
481.855	11754
481.932	15556
482.009	23304
482.086	21241
482.163	12231
482.240	15868
482.317	25212
482.393	24067
482.470	11186
482.547	12184
482.624	11137
482.701	11935
482.778	12055
482.855	9989
482.932	10863
483.009	11102
483.085	13188
483.162	19105
483.239	18041
483.316	12181
483.393	10593
483.469	11970
483.546	11499
483.623	12468
483.699	10028
483.776	11467
483.853	11970
483.930	15994
484.006	32682
484.083	57910
484.160	34261
484.236	41660
484.313	35445
484.389	27591
484.466	24990
484.543	23690
484.619	25163
484.696	25311
484.772	24968
484.849	27042
484.925	23292
485.002	21749
485.078	23799
485.155	24401
485.231	20805
485.308	20527
485.384	21947
485.461	24476
485.537	37627
485.614	48970
485.690	23200
485.766	20810
485.843	21682
485.919	30408
485.995	35480
486.072	20512
486.148	20447
486.224	18643
486.301	19571
486.377	23321
486.453	24029
486.530	22167
486.606	26508
486.682	30691
486.758	34982
486.835	43249
486.911	33901
486.987	49600
487.063	60009
487.139	81701
487.215	65873
487.292	36459
487.368	25551
487.444	28775
487.520	36863
487.596	43748
487.672	55611
487.748	119226
487.824	212452
487.900	124695
487.976	48266
488.052	34176
488.128	35577
488.204	29978
488.280	23148
488.356	25214
488.432	41984
488.508	67481
488.584	32593
488.660	21444
488.736	21159
488.812	21536
488.888	26878
488.964	33940
489.039	67307
489.115	116934
489.191	85531
489.267	25965
489.343	20861
489.418	19101
489.494	17801
489.570	15952
489.646	18017
489.722	18036
489.797	17235
489.873	23568
489.949	46947
490.024	48595
490.100	18303
490.176	17183
490.251	21406
490.327	28050
490.403	20101
490.478	17067
490.554	14623
490.629	15413
490.705	14906
490.781	16898
490.856	16428
490.932	19610
491.007	19576
491.083	19674
491.158	17055
491.234	20089
491.309	35467
491.385	43583
491.460	17906
491.536	17895
491.611	17724
491.686	19582
491.762	24348
491.837	45530
491.913	79846
491.988	103581
492.063	153989
492.139	50735
492.214	25638
492.289	15932
492.365	15086
492.440	18181
492.515	15932
492.590	16196
492.666	14111
492.741	18364
492.816	24368
492.891	18699
492.967	16194
493.042	15474
493.117	16738
493.192	19598
493.267	30614
493.342	96358
493.418	161922
493.493	39184
493.568	14139
493.643	14117
493.718	16512
493.793	22329
493.868	27124
493.943	19835
494.018	15530
494.093	13621
494.168	13401
494.243	13508
494.318	11929
494.393	12988
494.468	12069
494.543	13092
494.618	14789
494.693	13972
494.768	12796
494.842	13450
494.917	11457
494.992	13774
495.067	12801
495.142	12506
495.217	14760
495.292	15263
495.366	16363
495.441	20732
495.516	24116
495.591	30465
495.665	86002
495.740	237199
495.815	144287
495.890	25778
495.964	17291
496.039	20477
496.114	19744
496.188	26669
496.263	25010
496.338	17939
496.412	19339
496.487	22657
496.561	24316
496.636	27542
496.710	22976
496.785	23723
496.860	26029
496.934	23532
497.009	23318
497.083	24798
497.158	26262
497.232	31344
497.307	32575
497.381	31705
497.455	33337
497.530	42004
497.604	37779
497.679	39494
497.753	49141
497.827	63138
497.902	63950
497.976	69391
498.050	101659
498.125	302991
498.199	396056
498.273	100257
498.348	75430
498.422	69707
498.496	64662
498.570	61382
498.645	50902
498.719	47913
498.793	48191
498.867	54924
498.941	63322
499.016	120943
499.090	334420
499.164	176433
499.238	34809
499.312	27821
499.386	30484
499.460	28999
499.534	25239
499.609	27782
499.683	35034
499.757	34685
499.831	51110
499.905	193136
499.979	240180
500.053	44047
500.127	40934
500.201	36440
500.275	24022
500.349	20905
500.422	23200
500.496	30078
500.570	55574
500.644	115436
500.718	229041
500.792	75999
500.866	20719
500.940	22229
501.013	20958
501.087	19090
501.161	28793
501.235	39112
501.309	58894
501.382	169284
501.456	192313
501.530	45120
501.603	60910
501.677	33331
501.751	14751
501.825	18380
501.898	25006
501.972	69215
502.046	59835
502.119	18098
502.193	32032
502.266	78840
502.340	50202
502.413	32419
502.487	68520
502.561	46352
502.634	20226
502.708	15829
502.781	14623
502.855	12858
502.928	10253
503.002	10609
503.075	10276
503.149	11376
503.222	12509
503.295	12782
503.369	15244
503.442	19252
503.516	45038
503.589	132032
503.662	108186
503.736	34746
503.809	62642
503.882	64089
503.956	73681
504.029	90963
504.102	72747
504.175	102996
504.249	58974
504.322	32507
504.395	23212
504.468	16128
504.542	13355
504.615	11548
504.688	11333
504.761	10967
504.834	12989
504.907	15560
504.980	25599
505.053	14419
505.127	14723
505.200	18090
505.273	15669
505.346	11488
505.419	10111
505.492	9653
505.565	8032
505.638	9185
505.711	8337
505.784	8043
505.857	7488
505.930	8784
506.003	7455
506.076	10430
506.149	10871
506.221	14052
506.294	13334
506.367	24594
506.440	88554
506.513	68173
506.586	16539
506.659	11346
506.731	10254
506.804	10833
506.877	17021
506.950	13763
507.022	9650
507.095	10188
507.168	14165
507.241	10002
507.313	8717
507.386	9713
507.459	13678
507.531	11709
507.604	7789
507.677	9308
507.749	7358
507.822	12139
507.894	18057
507.967	23713
508.040	13781
508.112	12083
508.185	11104
508.257	11738
508.330	16470
508.402	11748
508.475	11102
508.547	11259
508.620	11406
508.692	16853
508.765	13535
508.837	9740
508.909	8594
508.982	10186
509.054	10875
509.127	10490
509.199	8933
509.271	8630
509.344	9322
509.416	9998
509.488	8892
509.560	10347
509.633	10079
509.705	12612
509.777	11640
509.849	17179
509.922	13998
509.994	11836
510.066	10915
510.138	9735
510.210	18677
510.283	17015
510.355	14125
510.427	13068
510.499	12464
510.571	12641
510.643	12616
510.715	18794
510.787	17634
510.859	14103
510.931	13907
511.003	17201
511.076	18249
511.148	10981
511.219	12366
511.291	17190
511.363	19560
511.435	12478
511.507	10331
511.579	10932
511.651	11249
511.723	9849
511.795	10608
511.867	10558
511.939	11963
512.010	21253
512.082	21022
512.154	12320
512.226	10935
512.298	15348
512.369	21816
512.441	18033
512.513	17708
512.585	15099
512.656	14747
512.728	15936
512.800	13026
512.871	12721
512.943	12304
513.015	11340
513.086	11742
513.158	14194
513.230	13930
513.301	18916
513.373	22387
513.444	14333
513.516	12499
513.588	12285
513.659	12559
513.731	16035
513.802	13675
513.874	24788
513.945	51551
514.016	24894
514.088	12439
514.159	13099
514.231	16731
514.302	20516
514.374	15762
514.445	14066
514.516	23969
514.588	22428
514.659	15204
514.730	23208
514.802	22981
514.873	21752
514.944	25802
515.016	22401
515.087	20836
515.158	22658
515.229	30123
515.301	25050
515.372	35289
515.443	31485
515.514	23657
515.585	18649
515.656	17184
515.728	15352
515.799	13100
515.870	13861
515.941	14092
516.012	14609
516.083	16384
516.154	18254
516.225	23699
516.296	23997
516.367	21158
516.438	24338
516.509	30279
516.580	39282
516.651	91593
516.722	372158
516.793	260765
516.864	48562
516.935	39746
517.006	44172
517.077	56814
517.148	111230
517.219	360658
517.289	797235
517.360	245850
517.431	73717
517.502	24709
517.573	20849
517.643	17958
517.714	20420
517.785	21513
517.856	23217
517.926	27885
517.997	34165
518.068	45113
518.138	59544
518.209	81752
518.280	241825
518.350	1000536
518.421	660841
518.492	90851
518.562	43729
518.633	38083
518.703	39702
518.774	60837
518.845	114505
518.915	126429
518.986	60457
519.056	36863
519.127	44463
519.197	61346
519.268	112001
519.338	88475
519.408	25053
519.479	28912
519.549	24712
519.620	17551
519.690	13305
519.760	12092
519.831	13076
519.901	13331
519.971	12291
520.042	12013
520.112	13365
520.182	15779
520.253	19563
520.323	14135
520.393	19262
520.463	34966
520.534	21270
520.604	48189
520.674	23844
520.744	19326
520.814	46762
520.885	49969
520.955	31423
521.025	110478
521.095	64259
521.165	14755
521.235	12363
521.305	11051
521.375	10811
521.445	10919
521.515	15581
521.585	17832
521.655	17626
521.725	14851
521.795	13658
521.865	9605
521.935	14575
522.005	14144
522.075	10005
522.145	10878
522.215	12626
522.285	15927
522.355	18765
522.424	35218
522.494	35737
522.564	22337
522.634	30236
522.704	101071
522.774	56499
522.843	14513
522.913	12942
522.983	16249
523.053	15518
523.122	12538
523.192	15541
523.262	48833
523.331	71616
523.401	17350
523.471	10280
523.540	10639
523.610	8118
523.680	9450
523.749	9804
523.819	11059
523.888	13393
523.958	8585
524.027	9788
524.097	9339
524.166	9114
524.236	10205
524.305	11650
524.375	8654
524.444	8421
524.514	11013
524.583	9531
524.653	10539
524.722	13174
524.791	10180
524.861	10034
524.930	8990
524.999	9189
525.069	13192
525.138	11240
525.207	10989
525.277	11287
525.346	10594
525.415	11549
525.484	11382
525.554	12607
525.623	14331
525.692	17151
525.761	15984
525.830	18465
525.900	22153
525.969	30742
526.038	49226
526.107	84683
526.176	260355
526.245	272163
526.314	96400
526.383	132693
526.452	215351
526.522	285405
526.591	387343
526.660	116250
526.729	61163
526.797	55611
526.867	86505
526.935	310572
527.004	664474
527.073	527727
527.142	75177
527.211	28371
527.280	20518
527.349	20352
527.418	12313
527.487	12332
527.555	9694
527.624	9778
527.693	7980
527.762	10063
527.831	8978
527.899	9336
527.968	8713
528.037	7949
528.106	10693
528.174	18625
528.243	15809
528.312	18088
528.380	30408
528.449	13801
528.518	9170
528.586	6732
528.655	8106
528.723	7505
528.792	6308
528.861	8171
528.929	6827
528.998	8308
529.066	8681
529.135	11931
529.203	10613
529.272	11509
529.340	15561
529.409	14798
529.477	13397
529.545	13975
529.614	16578
529.682	17676
529.751	22207
529.819	23019
529.887	22486
529.956	18844
530.024	18035
530.092	16316
530.161	17490
530.229	22655
530.297	20629
530.365	18875
530.434	17465
530.502	18054
530.570	16189
530.638	14090
530.707	15274
530.775	16016
530.843	14517
530.911	16691
530.979	15827
531.047	17022
531.115	16695
531.183	14741
531.252	14573
531.320	14769
531.388	14397
531.456	16747
531.524	15535
531.592	16788
531.660	20269
531.728	17340
531.796	16200
531.864	16761
531.932	17099
532.000	17601
532.067	18541
532.135	20557
532.203	22821
532.271	23027
532.339	28616
532.407	56143
532.475	49894
532.542	27177
532.610	26489
532.678	30298
532.746	68308
532.814	207426
532.881	79655
532.949	26342
533.017	20883
533.084	19787
533.152	18353
533.220	17969
533.287	19139
533.355	18958
533.423	18504
533.490	18661
533.558	17209
533.625	18474
533.693	19103
533.761	18168
533.828	18048
533.896	19162
533.963	27626
534.031	35271
534.098	40103
534.166	28158
534.233	19646
534.300	20513
534.368	20610
534.435	18734
534.503	19092
534.570	22736
534.637	22120
534.705	22658
534.772	25165
534.840	33843
534.907	110268
534.974	196580
535.041	41110
535.109	21318
535.176	16225
535.243	16625
535.310	14451
535.378	15267
535.445	13757
535.512	13519
535.579	13516
535.646	12490
535.714	12942
535.781	15496
535.848	15719
535.915	16668
535.982	16880
536.049	16896
536.116	16959
536.183	16192
536.250	15718
536.317	14255
536.384	17101
536.451	20777
536.518	22610
536.585	18046
536.652	20684
536.719	24847
536.786	22484
536.853	18490
536.920	21433
536.987	32458
537.053	29768
537.120	84905
537.187	103090
537.254	18640
537.321	12236
537.388	13702
537.454	10965
537.521	10821
537.588	10874
537.654	12002
537.721	11837
537.788	13248
537.855	10448
537.921	11219
537.988	12580
538.055	12259
538.121	11292
538.188	12659
538.254	18213
538.321	31902
538.388	23401
538.454	12966
538.521	11349
538.587	10496
538.654	10205
538.720	10286
538.787	10114
538.853	10450
538.920	12152
538.986	14023
539.053	10979
539.119	10929
539.185	11431
539.252	13500
539.318	18335
539.385	17552
539.451	12939
539.517	14393
539.583	14416
539.650	23267
539.716	70889
539.782	29898
539.849	12229
539.915	10747
539.981	11526
540.047	14457
540.114	13826
540.180	13911
540.246	12925
540.312	17083
540.378	29135
540.444	32913
540.510	26682
540.576	77541
540.643	36445
540.709	11247
540.775	11103
540.841	10743
540.907	13458
540.973	21686
541.039	19567
541.105	20292
541.171	13085
541.237	10512
541.303	10831
541.369	14120
541.435	16455
541.500	26562
541.566	19352
541.632	11295
541.698	9637
541.764	10307
541.830	9305
541.896	8440
541.961	9860
542.027	10068
542.093	11339
542.159	11195
542.224	12141
542.290	17546
542.356	25322
542.421	31169
542.487	18115
542.553	12224
542.618	12178
542.684	11263
542.750	10966
542.815	12649
542.881	16830
542.947	58855
543.012	61193
543.078	12868
543.143	9760
543.209	10449
543.274	10133
543.340	12021
543.405	22032
543.471	44101
543.536	14894
543.602	9921
543.667	7400
543.732	9953
543.798	7960
543.863	10026
543.928	7962
543.994	8236
544.059	8336
544.124	8446
544.190	8557
544.255	10217
544.320	9700
544.386	10233
544.451	14413
544.516	17206
544.581	15834
544.646	35016
544.712	72818
544.777	18797
544.842	11358
544.907	11576
544.972	10226
545.037	9239
545.102	12012
545.168	12225
545.233	12164
545.298	12950
545.363	15202
545.428	16058
545.493	23793
545.558	54782
545.623	30846
545.688	12063
545.753	10767
545.818	12124
545.883	11931
545.947	10406
546.012	12138
546.077	11901
546.142	12091
546.207	12549
546.272	16657
546.337	17212
546.401	14484
546.466	13651
546.531	12161
546.596	13775
546.661	13674
546.725	14400
546.790	11638
546.855	13174
546.919	12936
546.984	14150
547.049	14887
547.113	18640
547.178	18158
547.243	18528
547.307	22359
547.372	24713
547.436	26487
547.501	23394
547.565	24886
547.630	26321
547.695	27015
547.759	26179
547.823	25156
547.888	23042
547.952	22796
548.017	25227
548.081	31352
548.146	31925
548.210	29260
548.274	25048
548.339	25341
548.403	23736
548.468	22518
548.532	22228
548.596	22613
548.660	22903
548.725	25112
548.789	27661
548.853	29252
548.917	25111
548.982	26930
549.046	28296
549.110	21134
549.174	21343
549.238	22004
549.303	23221
549.367	26274
549.431	24243
549.495	24175
549.559	22567
549.623	25826
549.687	29388
549.751	34173
549.815	33400
549.879	33367
549.943	30543
550.007	31442
550.071	32419
550.135	34143
550.199	31324
550.263	29124
550.327	29615
550.391	34050
550.455	35444
550.519	31720
550.582	34573
550.646	40833
550.710	44253
550.774	39190
550.838	39241
550.901	38891
550.965	44547
551.029	46392
551.093	51637
551.156	60125
551.220	78980
551.284	90650
551.347	61594
551.411	64751
551.475	72726
551.538	44411
551.602	39452
551.666	37130
551.729	33932
551.793	33589
551.856	33910
551.920	33144
551.983	33409
552.047	31352
552.110	32817
552.174	33818
552.237	33108
552.301	29961
552.364	29567
552.428	29452
552.491	29162
552.554	31689
552.618	31440
552.681	33236
552.745	33683
552.808	40308
552.871	54644
552.934	46482
552.998	36241
553.061	34755
553.124	32729
553.187	32068
553.251	34026
553.314	35405
553.377	34506
553.440	42671
553.503	81361
553.567	153384
553.630	54484
553.693	32731
553.756	32661
553.819	31401
553.882	30029
553.945	30847
554.008	30526
554.071	29271
554.134	29736
554.197	28503
554.260	29134
554.323	31260
554.386	30521
554.449	29576
554.512	32271
554.575	28832
554.638	29591
554.701	27985
554.764	29242
554.827	27404
554.889	26680
554.952	26113
555.015	24517
555.078	24991
555.141	25563
555.203	25386
555.266	25596
555.329	24417
555.391	24753
555.454	24979
555.517	25747
555.580	23410
555.642	22529
555.705	21383
555.768	22018
555.830	21907
555.893	20807
555.955	19830
556.018	20469
556.080	21097
556.143	21228
556.206	20192
556.268	20619
556.330	20824
556.393	21571
556.455	20734
556.518	22878
556.580	25652
556.643	19799
556.705	18895
556.767	18271
556.830	19006
556.892	19200
556.955	26246
557.017	24478
557.079	18659
557.142	18218
557.204	19193
557.266	31430
557.328	33009
557.391	17632
557.453	16015
557.515	15940
557.577	18440
557.639	20362
557.701	17713
557.764	16657
557.826	17796
557.888	19856
557.950	20466
558.012	22457
558.074	29442
558.136	59153
558.198	180342
558.260	95667
558.322	28228
558.384	27738
558.446	32256
558.508	38210
558.570	46362
558.632	65305
558.694	93574
558.756	112059
558.818	278064
558.880	838181
558.942	405623
559.003	205583
559.065	136730
559.127	48479
559.189	44829
559.251	47333
559.312	62800
559.374	134455
559.436	495185
559.498	379009
559.559	65752
559.621	45479
559.683	46056
559.744	68660
559.806	200832
559.868	418482
559.929	116455
559.991	46441
560.052	57557
560.114	160671
560.176	142474
560.237	87959
560.299	177833
560.360	59811
560.422	19266
560.483	15094
560.545	13117
560.606	11803
560.667	10392
560.729	10582
560.790	10317
560.852	11949
560.913	11298
560.974	11606
561.036	9988
561.097	10306
561.158	11400
561.220	11890
561.281	11296
561.342	11705
561.403	12976
561.465	14708
561.526	32074
561.587	54370
561.648	20913
561.709	11749
561.771	10630
561.832	11017
561.893	9635
561.954	10273
562.015	9173
562.076	10461
562.137	9355
562.198	9995
562.259	10247
562.320	9801
562.381	10732
562.442	15194
562.503	14803
562.564	10578
562.625	9565
562.686	10189
562.747	10819
562.808	10194
562.869	9704
562.930	11320
562.991	10184
563.051	11127
563.112	9585
563.173	9482
563.234	9405
563.294	8985
563.355	9469
563.416	10700
563.477	9437
563.537	9634
563.598	10799
563.659	10698
563.720	9578
563.780	11069
563.841	11181
563.901	10396
563.962	9440
564.023	10268
564.083	10764
564.144	10527
564.204	10156
564.265	10643
564.325	11579
564.386	18355
564.446	19146
564.507	10276
564.567	10197
564.628	11346
564.688	10614
564.749	10629
564.809	10499
564.869	13433
564.930	10844
564.990	11507
565.050	10413
565.111	10942
565.171	10576
565.231	11192
565.292	11402
565.352	11223
565.412	10777
565.472	12577
565.532	12803
565.593	12773
565.653	13237
565.713	12443
565.773	13772
565.833	15299
565.893	20047
565.953	16266
566.013	14093
566.074	15040
566.134	16506
566.194	21699
566.254	25406
566.314	21642
566.374	17283
566.434	17634
566.494	18516
566.554	19415
566.614	19843
566.673	21129
566.733	22280
566.793	22997
566.853	24999
566.913	25544
566.973	25669
567.033	25834
567.092	25614
567.152	25346
567.212	26121
567.272	27570
567.331	27825
567.391	29535
567.451	29841
567.511	31338
567.570	33765
567.630	28172
567.690	26833
567.749	27688
567.809	29015
567.868	32704
567.928	36466
567.988	42729
568.047	49276
568.107	58172
568.166	74781
568.226	101864
568.285	136585
568.345	143403
568.404	133721
568.464	123391
568.523	116180
568.582	114872
568.642	119074
568.701	136206
568.761	168032
568.820	226183
568.879	255801
568.939	229043
568.998	193956
569.057	161367
569.116	134948
569.176	113157
569.235	94603
569.294	82564
569.353	70909
569.413	62740
569.472	54757
569.531	49420
569.590	44760
569.649	40738
569.708	36168
569.767	34526
569.827	32322
569.886	30587
569.945	26444
570.004	25872
570.063	23811
570.122	23771
570.181	23254
570.240	21823
570.299	22334
570.358	21474
570.417	19184
570.475	18013
570.534	17773
570.593	17654
570.652	17125
570.711	17197
570.770	15570
570.829	16789
570.887	17017
570.946	17463
571.005	14417
571.064	13426
571.122	14131
571.181	14557
571.240	13179
571.299	11414
571.357	12345
571.416	12585
571.475	13151
571.533	14000
571.592	11918
571.650	11946
571.709	11532
571.768	11835
571.826	11826
571.885	11122
571.943	10111
572.002	9704
572.060	10783
572.119	9988
572.177	10049
572.236	9351
572.294	9437
572.352	9947
572.411	10073
572.469	10116
572.528	9834
572.586	9347
572.644	10321
572.703	12844
572.761	10704
572.819	8969
572.877	8810
572.936	8089
572.994	8045
573.052	8897
573.110	8467
573.169	9224
573.227	8889
573.285	8500
573.343	8100
573.401	7955
573.459	8620
573.517	8108
573.576	8878
573.634	8952
573.692	8889
573.750	8517
573.808	8834
573.866	8598
573.924	9628
573.982	10274
574.040	9168
574.098	9166
574.155	8137
574.213	8915
574.271	8949
574.329	9081
574.387	8327
574.445	7587
574.503	7231
574.560	7079
574.618	7109
574.676	8378
574.734	6811
574.792	8234
574.849	7096
574.907	7022
574.965	6140
575.022	6861
575.080	6529
575.138	7785
575.195	6934
575.253	7594
575.311	8585
575.368	8208
575.426	6512
575.483	7673
575.541	7386
575.598	6886
575.656	7771
575.713	7828
575.771	7075
575.828	7700
575.886	6293
575.943	7873
576.001	7905
576.058	7879
576.115	7419
576.173	8317
576.230	9251
576.287	11545
576.345	10442
576.402	7851
576.459	8170
576.517	8715
576.574	7961
576.631	9038
576.688	8563
576.746	7182
576.803	7421
576.860	7646
576.917	7593
576.974	8614
577.031	6938
577.089	7043
577.146	7932
577.203	8166
577.260	8542
577.317	8368
577.374	8587
577.431	9424
577.488	8051
577.545	7424
577.602	8436
577.659	7940
577.716	8808
577.773	10363
577.830	8779
577.886	7946
577.943	8971
578.000	9281
578.057	8746
578.114	10553
578.171	10382
578.227	13077
578.284	13175
578.341	12700
578.398	11445
578.454	11168
578.511	10382
578.568	11138
578.625	9194
578.681	8974
578.738	8380
578.794	9117
578.851	8175
578.908	9095
578.964	9291
579.021	9399
579.077	8880
579.134	8478
579.190	8803
579.247	8662
579.303	8119
579.360	8750
579.416	8088
579.473	8477
579.529	7981
579.586	8204
579.642	8589
579.698	9227
579.755	9487
579.811	9555
579.867	10763
579.924	10378
579.980	10475
580.036	12493
580.093	14288
580.149	16871
580.205	19655
580.261	18194
580.317	15416
580.374	14163
580.430	13377
580.486	12930
580.542	11984
580.598	11675
580.619	11460
580.654	11104
580.692	10895
580.710	10815
580.765	10674
580.767	10685
580.823	11190
580.838	10813
580.879	9852
580.911	10289
580.935	10626
580.984	10046
580.991	9985
581.047	10860
581.057	10758
581.103	10372
581.130	10837
581.159	11342
581.203	11135
581.215	11099
581.270	12278
581.276	12206
581.326	11670
581.349	11473
581.382	11197
581.422	10980
581.438	10899
581.494	11089
581.494	11072
581.550	10589
581.567	10535
581.606	10473
581.640	10773
581.661	10910
581.713	10848
581.717	10866
581.773	10724
581.786	10679
581.829	10513
581.859	10936
581.885	11274
581.932	10729
581.940	10664
581.996	11085
582.004	11011
582.052	10510
582.077	10508
582.107	10605
582.150	10559
582.163	10539
582.219	10550
582.223	10565
582.274	10867
582.296	10806
582.330	10679
582.368	11221
582.386	11516
582.441	11176
582.441	11181
582.497	11319
582.514	11099
582.552	10798
582.587	11654
582.608	12141
582.659	12313
582.663	12331
582.719	12400
582.732	12074
582.774	11074
582.805	12068
582.830	12873
582.877	12599
582.885	12570
582.941	13382
582.950	13471
582.996	13874
583.023	14288
583.052	14786
583.095	15374
583.107	15550
583.162	16477
583.168	16661
583.218	18224
583.240	17534
583.273	16507
583.313	15264
583.328	14799
583.384	14680
583.385	14671
583.439	14165
583.458	13682
583.494	12975
583.531	12420
583.549	12133
583.603	12755
583.605	12769
583.660	12803
583.676	12823
583.715	12929
583.748	12799
583.770	12768
583.820	13305
583.825	13345
583.881	13117
583.893	12947
583.936	12313
583.965	12423
583.991	12421
584.038	12564
584.046	12663
584.101	13020
584.110	13130
584.156	13299
584.183	13161
584.211	12973
584.255	13153
584.266	13239
584.321	13340
584.328	13402
584.376	13731
584.400	13615
584.431	13441
584.472	14147
584.486	14404
584.541	13729
584.545	13781
584.596	14313
584.617	14211
584.651	14102
584.689	14521
584.706	14663
584.761	14973
584.762	14984
584.816	15091
584.834	15283
584.871	15637
584.906	15618
584.926	15484
584.978	16219
584.980	16245
585.035	16769
585.051	16951
585.090	17351
585.123	18099
585.145	18538
585.195	18756
585.200	18793
585.254	20258
585.267	20978
585.309	23506
585.340	25384
585.364	26388
585.412	26893
585.419	26948
585.473	28670
585.484	29198
585.528	31747
585.556	35834
585.583	41016
585.628	55568
585.637	60005
585.692	109081
585.700	121816
585.747	189338
585.772	174975
585.801	139352
585.845	69652
585.856	55196
585.910	32980
585.917	31602
585.965	26800
585.989	25571
586.019	24371
586.061	22574
586.074	22099
586.128	22587
586.133	22646
586.183	22724
586.205	22827
586.237	22953
586.277	23080
586.292	23069
586.346	23340
586.349	23392
586.401	23436
586.421	23693
586.455	24067
586.493	23963
586.509	24203
586.564	26415
586.565	26568
586.618	31489
586.637	32251
586.672	32241
586.709	29558
586.727	28191
586.781	28499
586.781	28447
586.835	28236
586.853	28189
586.889	28364
586.925	28726
586.944	28780
586.996	29484
586.998	29445
587.052	30938
587.068	31226
587.106	31498
587.140	32127
587.161	32529
587.212	33783
587.215	33779
587.269	35106
587.284	35689
587.323	36731
587.356	37992
587.377	38654
587.427	40577
587.431	40655
587.485	42550
587.499	43394
587.539	44997
587.571	46516
587.593	47825
587.643	51234
587.648	51356
587.702	53853
587.715	54862
587.755	58017
587.786	60787
587.810	62326
587.858	66446
587.864	66866
587.917	73562
587.930	75291
587.971	80320
588.001	85114
588.025	88516
588.073	96121
588.079	96914
588.133	107737
588.145	110698
588.187	121034
588.217	129873
588.241	136952
588.288	152612
588.295	154351
588.348	175040
588.360	180473
588.402	200546
588.431	217265
588.456	231221
588.503	262663
588.510	267005
588.564	313300
588.575	324582
588.617	369700
588.646	407249
588.671	444482
588.718	522778
588.725	537540
588.778	668664
588.789	696416
588.832	858413
588.861	953510
588.886	1048071
588.932	1196011
588.939	1195986
588.993	1184144
589.004	1195651
589.047	1159980
589.075	1129251
589.100	1031650
589.147	796939
589.154	777011
589.207	619341
589.218	591335
589.261	538010
589.290	512875
589.314	511444
589.361	529179
589.368	538206
589.421	643311
589.433	668318
589.475	849680
589.504	964966
589.528	1045806
589.576	1173254
589.582	1160596
589.635	1087062
589.647	1066698
589.689	833526
589.718	638644
589.742	551415
589.790	386862
589.795	374721
589.849	285494
589.861	268079
589.902	226585
589.932	201022
589.955	183848
590.004	154651
590.009	151577
590.062	128863
590.075	124481
590.115	111378
590.146	102812
590.168	97351
590.218	88669
590.222	87480
590.275	78228
590.289	76524
590.328	70704
590.360	66676
590.381	64236
590.431	59729
590.435	59080
590.488	54061
590.503	53071
590.541	50124
590.574	48112
590.594	46612
590.645	43926
590.647	43565
590.700	40352
590.716	39655
590.753	38045
590.787	37134
590.806	36282
590.859	34754
590.859	34528
590.912	32177
590.930	31657
590.965	30426
591.001	29492
591.018	28750
591.071	27303
591.072	27448
591.124	26126
591.143	25929
591.177	25862
591.214	26069
591.230	25533
591.283	24313
591.285	24391
591.336	23607
591.356	23645
591.389	23050
591.427	22285
591.442	21867
591.495	20942
591.498	20992
591.547	19784
591.569	19490
591.600	19404
591.640	19415
591.653	19082
591.706	18238
591.711	18256
591.759	17266
591.782	16964
591.811	17167
591.853	17741
591.864	17506
591.917	16779
591.924	16780
591.969	16029
591.995	15720
592.022	15180
592.066	14717
592.075	14761
592.127	15538
592.137	15806
592.180	15832
592.208	15925
592.233	15219
592.279	14153
592.285	14011
592.338	13666
592.350	13677
592.390	12994
592.421	12630
592.443	12765
592.491	13396
592.495	13272
592.548	12745
592.562	12699
592.600	12290
592.633	12078
592.653	11899
592.704	11619
592.705	11709
592.775	13031
592.846	11273
592.916	11829
592.987	12210
593.058	11947
593.128	10738
593.199	10885
593.270	10862
593.341	10353
593.411	9860
593.482	10725
593.553	11240
593.623	10919
593.694	9385
593.764	10551
593.835	10179
593.906	10143
593.976	9378
594.047	10280
594.117	11153
594.188	11079
594.258	9472
594.329	8843
594.399	9861
594.470	10276
594.540	10643
594.611	9990
594.681	10131
594.751	10393
594.822	10519
594.892	11301
594.963	11079
595.033	10655
595.103	10363
595.174	10657
595.244	12694
595.314	15205
595.384	11034
595.455	10268
595.525	11195
595.595	10685
595.665	10384
595.736	10117
595.806	11120
595.876	10574
595.946	9746
596.016	10972
596.087	10634
596.157	11301
596.227	11159
596.297	11852
596.367	10993
596.437	12272
596.507	14314
596.577	15380
596.647	12906
596.717	12376
596.787	12005
596.857	11622
596.927	12753
596.997	11850
597.067	12604
597.137	13293
597.207	13706
597.277	11894
597.347	12905
597.417	11946
597.487	11653
597.557	12114
597.626	13340
597.696	13151
597.766	13315
597.836	14610
597.906	13230
597.975	11643
598.045	12106
598.115	12059
598.185	12606
598.254	13482
598.324	14939
598.394	14518
598.464	15205
598.533	14397
598.603	13412
598.672	13586
598.742	13114
598.812	13942
598.881	14276
598.951	13114
599.020	13151
599.090	14131
599.159	14214
599.229	14660
599.299	12857
599.368	13760
599.437	13631
599.507	14142
599.576	13250
599.646	14001
599.715	15033
599.785	13518
599.854	13524
599.924	13556
599.993	13887
600.062	12858
600.132	13170
600.201	13065
600.270	16003
600.340	15888
600.409	15008
600.478	15820
600.547	15443
600.617	15713
600.686	13732
600.755	13919
600.824	13478
600.894	13732
600.963	13505
601.032	13421
601.101	12948
601.170	12850
601.239	12753
601.308	14028
601.378	13985
601.447	12633
601.516	13329
601.585	14076
601.654	14020
601.723	14360
601.792	14573
601.861	14838
601.930	16807
601.999	16929
602.068	15589
602.137	16235
602.206	16196
602.275	16470
602.343	16937
602.412	18670
602.481	16918
602.550	16091
602.619	16262
602.688	16401
602.756	16176
602.825	16362
602.894	16927
602.963	16384
603.032	16737
603.100	16347
603.169	16027
603.238	17423
603.307	16779
603.375	16410
603.444	17505
603.513	16288
603.581	16615
603.650	17118
603.719	16261
603.787	14857
603.856	15448
603.924	16556
603.993	16170
604.061	15998
604.130	16802
604.198	17169
604.267	17879
604.335	18494
604.404	17910
604.472	18456
604.541	17735
604.609	18704
604.678	19483
604.746	19374
604.815	19796
604.883	19535
604.951	18940
605.020	19779
605.088	19303
605.156	18359
605.225	18761
605.293	18278
605.361	18344
605.429	18593
605.498	19561
605.566	19720
605.634	20108
605.702	20245
605.771	20151
605.839	20940
605.907	19165
605.975	20249
606.043	19597
606.111	18606
606.180	19997
606.248	18829
606.316	19952
606.384	19808
606.452	18938
606.520	18573
606.588	17546
606.656	15903
606.724	15014
606.792	14545
606.860	13323
606.928	12712
606.996	12953
607.064	12312
607.132	12881
607.200	12382
607.267	13557
607.335	13324
607.403	13868
607.471	13432
607.539	12863
607.607	12749
607.674	11970
607.742	12578
607.810	12400
607.878	12243
607.946	11627
608.013	11737
608.081	12572
608.149	13063
608.216	12051
608.284	12803
608.352	13242
608.419	13434
608.487	13918
608.555	13117
608.622	13465
608.690	13907
608.757	14995
608.825	15597
608.893	14508
608.960	15265
609.028	15941
609.095	16177
609.163	14560
609.230	12641
609.298	11865
609.365	11039
609.432	12805
609.500	13587
609.567	15349
609.635	16716
609.702	18942
609.769	18543
609.837	16437
609.904	14759
609.971	15617
610.039	20491
610.106	27801
610.173	55431
610.241	133656
610.308	153286
610.375	80995
610.442	28726
610.509	17552
610.577	15289
610.644	14319
610.711	13560
610.778	14518
610.845	14175
610.912	16140
610.980	16494
611.047	18444
611.114	17887
611.181	15525
611.248	13142
611.315	16465
611.382	14997
611.449	15930
611.516	17344
611.583	16358
611.650	16590
611.717	17211
611.784	18429
611.851	19706
611.918	23596
611.984	28930
612.051	45028
612.118	94941
612.185	250550
612.252	250495
612.319	50194
612.386	26012
612.452	22468
612.519	20169
612.586	20135
612.653	20309
612.719	18702
612.786	18096
612.853	17118
612.919	16374
612.986	16839
613.053	15647
613.120	13960
613.186	14179
613.253	15929
613.319	14460
613.386	14257
613.453	15807
613.519	16456
613.586	16675
613.652	20058
613.719	18345
613.785	18073
613.852	16428
613.918	15525
613.985	17347
614.051	21245
614.118	34387
614.184	44189
614.250	18269
614.317	15709
614.383	15252
614.449	15437
614.516	15135
614.582	15208
614.648	14970
614.715	15074
614.781	14888
614.847	14824
614.914	15124
614.980	14174
615.046	14688
615.112	15295
615.179	15891
615.245	16940
615.311	19554
615.377	26270
615.443	34196
615.509	24325
615.575	19914
615.642	19240
615.708	19308
615.774	22034
615.840	25195
615.906	31208
615.972	45564
616.038	81734
616.104	155903
616.170	328609
616.236	421346
616.302	97234
616.368	43276
616.434	30056
616.500	24384
616.565	25529
616.631	32153
616.697	29560
616.763	26907
616.829	37119
616.895	71322
616.961	85259
617.026	42706
617.092	21214
617.158	18147
617.224	15760
617.289	14261
617.355	14664
617.421	13532
617.487	13779
617.552	12957
617.618	12299
617.684	11612
617.749	14329
617.815	12121
617.880	11312
617.946	12102
618.012	13163
618.077	11503
618.143	11710
618.208	12012
618.274	12292
618.339	13250
618.405	11078
618.470	11449
618.536	10470
618.601	11696
618.667	9728
618.732	10065
618.798	10405
618.863	9598
618.928	9148
618.994	11021
619.059	11387
619.124	12325
619.190	11630
619.255	8924
619.320	9998
619.386	9565
619.451	9372
619.516	9317
619.581	8970
619.647	9325
619.712	9807
619.777	9162
619.842	9498
619.907	9007
619.972	9782
620.038	9264
620.103	9807
620.168	8711
620.233	9455
620.298	9422
620.363	8619
620.428	9172
620.493	10097
620.558	10191
620.623	9825
620.688	9467
620.753	9813
620.818	10079
620.883	10080
620.948	10465
621.013	9355
621.078	10339
621.143	9140
621.207	11830
621.272	10565
621.337	10980
621.402	11010
621.467	10674
621.532	12034
621.596	11327
621.661	10469
621.726	10055
621.791	10320
621.855	10465
621.920	9875
621.985	10258
622.049	9899
622.114	10938
622.179	10036
622.243	10760
622.308	10221
622.373	11776
622.437	10114
622.502	9883
622.566	10013
622.631	9179
622.695	11004
622.760	10086
622.824	10578
622.889	10575
622.953	10934
623.018	14231
623.082	15039
623.147	10915
623.211	10793
623.276	11170
623.340	9720
623.404	9464
623.469	9860
623.533	9699
623.597	9046
623.662	8569
623.726	9281
623.790	8674
623.854	8294
623.919	9570
623.983	8229
624.047	8513
624.111	8837
624.176	8403
624.240	9031
624.304	10885
624.368	8894
624.432	9797
624.496	10042
624.560	10345
624.625	10362
624.689	9695
624.753	9187
624.817	9445
624.881	8830
624.945	8533
625.009	8172
625.073	8563
625.137	8766
625.201	10544
625.265	11507
625.329	8605
625.393	8527
625.456	9231
625.520	9165
625.584	8758
625.648	10568
625.712	12596
625.776	20641
625.839	24706
625.903	14241
625.967	8145
626.031	10747
626.095	15309
626.158	10404
626.222	7075
626.286	6021
626.349	6036
626.413	5311
626.477	6557
626.540	5871
626.604	5624
626.668	5342
626.731	5617
626.795	5165
626.858	6130
626.922	5598
626.986	6243
627.049	4569
627.113	5877
627.176	5943
627.240	5268
627.303	5493
627.366	5628
627.430	5445
627.493	5138
627.557	4259
627.620	5628
627.684	5196
627.747	5298
627.810	4186
627.874	4032
627.937	4483
628.000	5997
628.064	5179
628.127	3090
628.190	3523
628.253	4106
628.317	3295
628.380	3012
628.443	3555
628.506	3477
628.569	3524
628.632	3523
628.696	3304
628.759	2925
628.822	3353
628.885	2483
628.948	2973
629.011	3189
629.074	2724
629.137	2727
629.200	2344
629.263	3584
629.326	2503
629.389	2073
629.452	2587
629.515	2725
629.578	3220
629.641	3095
629.704	3373
629.767	2457
629.830	3375
629.892	2936
629.955	2040
630.018	3224
630.081	2647
630.144	4275
630.207	2650
630.269	4327
630.332	3394
630.395	2716
630.458	2303
630.520	1598
630.583	2423
630.646	2580
630.708	2878
630.771	1887
630.834	3383
630.896	2394
630.959	2173
631.021	1652
631.084	1840
631.146	2551
631.209	3128
631.272	2685
631.334	2871
631.397	2161
631.459	2225
631.522	3075
631.584	2736
631.646	2632
631.709	4005
631.771	4508
631.834	3964
631.896	3638
631.958	1911
632.021	3221
632.083	1590
632.145	2298
632.208	1223
632.270	3132
632.332	1798
632.395	1675
632.457	3068
632.519	1934
632.581	2654
632.643	1831
632.706	2460
632.768	1791
632.830	1980
632.892	1808
632.954	1831
633.016	2605
633.078	1482
633.141	2250
633.203	1246
633.265	2451
633.327	2061
633.389	1955
633.451	2780
633.513	2503
633.575	2560
633.637	2940
633.698	2512
633.760	3224
633.822	2646
633.884	2796
633.946	2759
634.008	3197
634.070	3174
634.132	4749
634.193	3551
634.255	4906
634.317	3954
634.379	4583
634.441	3682
634.502	3671
634.564	3013
634.626	3561
634.687	4987
634.749	4151
634.811	2023
634.873	1602
634.934	2427
634.996	2536
635.057	1785
635.119	1642
635.181	2064
635.242	2190
635.304	1199
635.365	3497
635.427	1778
635.488	2326
635.550	1830
635.611	1690
635.673	1501
635.734	3118
635.796	1934
635.857	4177
635.918	3572
635.980	4155
636.041	4204
636.102	4554
636.164	5366
636.225	4125
636.286	3170
636.348	4079
636.409	2707
636.470	2005
636.531	1950
636.593	2149
636.654	2293
636.715	1751
636.776	1282
636.838	2001
636.899	2153
636.960	1786
637.021	2237
637.082	1874
637.143	2414
637.204	1218
637.265	1346
637.326	1887
637.387	2047
637.448	758
637.509	1601
637.570	685
637.631	430
637.692	819
637.753	826
637.814	1247
637.875	1055
637.936	1598
637.997	1184
638.058	1349
638.119	1239
638.179	1230
638.240	1096
638.301	1658
638.362	408
638.423	601
638.483	1750
638.544	177
638.605	1126
638.666	901
638.726	1413
638.787	1684
638.848	128
638.908	908
638.969	842
639.030	1178
639.090	747
639.151	475
639.211	1220
639.272	1798
639.332	3643
639.393	3386
639.453	889
639.514	1126
639.574	2029
639.635	583
639.695	1616
639.756	521
639.816	1788
639.877	1799
639.937	3717
639.997	5865
640.058	1418
640.118	922
640.178	1517
640.239	549
640.299	588
640.359	386
640.420	1261
640.480	785
640.540	778
640.600	1611
640.661	1392
640.721	728
640.781	3321
640.841	2001
640.901	2763
640.961	1794
641.021	1080
641.082	1540
641.142	3323
641.202	2473
641.262	386
641.322	1727
641.382	169
641.442	805
641.502	520
641.562	1431
641.622	50
641.682	1277
641.742	1068
641.802	1493
641.861	2312
641.921	1218
641.981	1303
642.041	928
642.101	2018
642.161	671
642.221	855
642.280	581
642.340	445
642.400	397
642.460	1573
642.519	207
642.579	772
642.639	1158
642.698	-1654
642.758	2321
642.818	977
642.877	848
642.937	811
642.997	1665
643.056	2579
643.116	649
643.175	2455
643.235	954
643.294	840
643.354	1040
643.414	2330
643.473	3800
643.532	3999
643.592	6437
643.651	12468
643.711	21820
643.770	41186
643.830	90368
643.889	257551
643.948	120719
644.008	12893
644.067	5433
644.126	2901
644.186	2332
644.245	2012
644.304	998
644.363	1795
644.423	914
644.482	950
644.541	1513
644.600	513
644.659	2939
644.719	2926
644.778	5052
644.837	7941
644.896	17519
644.955	46342
645.014	29351
645.073	5175
645.132	1470
645.191	1739
645.250	579
645.309	2373
645.368	898
645.427	2810
645.486	2803
645.545	9131
645.604	3671
645.663	1855
645.722	2088
645.781	2082
645.840	3180
645.898	3487
645.957	6727
646.016	10173
646.075	19221
646.134	37334
646.192	86257
646.251	198786
646.310	54100
646.369	6732
646.427	3774
646.486	1376
646.545	1704
646.603	2431
646.662	1493
646.721	1567
646.779	1138
646.838	51
646.896	2131
646.955	3282
647.014	4989
647.072	8133
647.131	25997
647.189	24553
647.248	2335
647.306	1173
647.365	1332
647.423	-557
647.481	1214
647.540	-463
647.598	1132
647.657	-135
647.715	1184
647.773	-260
647.832	800
647.890	-623
647.948	259
648.007	431
648.065	-425
648.123	-228
648.181	1538
648.240	1026
648.298	332
648.356	848
648.414	1265
648.472	194
648.531	158
648.589	-98
648.647	-75
648.705	-72
648.763	161
648.821	631
648.879	195
648.937	991
648.995	1837
649.053	1452
649.111	3925
649.169	7743
649.227	13597
649.285	25073
649.343	80972
649.401	78635
649.459	12385
649.516	7617
649.574	3708
649.632	9404
649.690	15139
649.748	6910
649.806	2786
649.863	10207
649.921	17933
649.979	20832
650.037	3207
650.094	-600
650.152	303
650.210	-560
650.268	260
650.325	863
650.383	518
650.440	-388
650.498	659
650.556	-652
650.613	-171
650.671	218
650.728	-392
650.786	627
650.843	-135
650.901	-699
650.958	58
651.016	-506
651.073	-542
651.131	-950
651.188	-1883
651.246	-118
651.303	-932
651.360	221
651.418	-953
651.475	587
651.532	-1294
651.590	-408
651.647	-574
651.704	-590
651.762	-512
651.819	264
651.876	-899
651.933	247
651.990	-276
652.048	-1344
652.105	-461
652.162	-415
652.219	-473
652.276	239
652.333	-621
652.390	-1386
652.448	-949
652.505	-390
652.562	-280
652.619	-1270
652.676	575
652.733	1749
652.790	-839
652.847	-983
652.904	-599
652.961	-978
653.017	-1036
653.074	-40
653.131	-569
653.188	-707
653.245	-654
653.302	-591
653.359	-728
653.415	-645
653.472	-731
653.529	-556
653.586	-1624
653.642	-1055
653.699	-304
653.756	-1789
653.813	-368
653.869	-237
653.926	-2047
653.983	-1199
654.039	-195
654.096	-512
654.152	346
654.209	-1379
654.266	361
654.322	-1231
654.379	-181
654.435	-295
654.492	-412
654.548	62
654.605	-245
654.661	891
654.717	-676
654.774	-760
654.830	-568
654.887	-382
654.943	-512
655.000	-489
655.056	-503
655.112	-755
655.168	-1290
655.225	-397
655.281	-506
655.337	19
655.394	445
655.450	740
655.506	895
655.562	387
655.618	1802
655.675	-672
655.731	-787
655.787	-835
655.843	650
655.899	-511
655.955	1458
656.011	349
656.067	-38
656.123	1642
656.179	1538
656.235	2520
656.291	1211
656.347	2615
656.403	911
656.459	638
656.515	1039
656.571	799
656.627	-244
656.683	-52
656.739	270
656.795	-24
656.850	54
656.906	217
656.962	676
657.018	-1409
657.074	-1216
657.129	-1116
657.185	399
657.241	1097
657.297	743
657.352	-100
657.408	-1217
657.464	48
657.519	-937
657.575	-1483
657.630	-1465
657.686	-869
657.742	-1362
657.797	-634
657.853	-1342
657.908	341
657.964	-1701
658.019	-116
658.075	-114
658.130	-335
658.186	-1522
658.241	-819
658.297	-1375
658.352	-1570
658.407	-42
658.463	-1483
658.518	-863
658.573	-689
658.629	-2146
658.684	-1483
658.739	-797
658.795	-1408
658.850	25
658.905	-1728
658.960	-141
659.016	-1433
659.071	-1527
659.126	-1281
659.181	-1167
659.236	534
659.291	807
659.346	-328
659.401	-972
659.457	-111
659.512	380
659.567	558
659.622	-867
659.677	-1254
659.732	-825
659.787	-211
659.842	-1419
659.897	-766
659.952	-776
660.007	-856
660.061	-616
660.116	-1069
660.171	-1453
660.226	-664
660.281	-691
660.336	-1778
660.391	-40
660.445	-991
660.500	-608
660.555	-471
660.610	-1432
660.664	-238
660.719	-922
660.774	-716
660.828	-1168
660.883	-798
660.938	-879
660.992	-2254
661.047	-221
661.101	-1143
661.156	-487
661.211	-1323
661.265	-688
661.320	-863
661.374	-625
661.429	-1504
661.483	104
661.538	-1235
661.592	-876
661.647	-348
661.701	-370
661.755	-815
661.810	-891
661.864	-2568
661.919	-1227
661.973	-144
662.027	-1146
662.081	-1566
662.136	-1595
662.190	-128
662.244	-605
662.299	-1418
662.353	-699
662.407	-1840
662.461	-1163
662.515	-1140
662.569	-1384
662.624	-368
662.678	-1061
662.732	-1558
662.786	-1548
662.840	-834
662.894	-1091
662.948	-1465
663.002	-625
663.056	-1020
663.110	-1376
663.164	-1033
663.218	-686
663.272	-1011
663.326	-849
663.380	-852
663.434	-635
663.488	-1859
663.542	-1043
663.595	-651
663.649	-761
663.703	-1455
663.757	-634
663.811	-1163
663.864	-1223
663.918	-866
663.972	-748
664.026	-253
664.079	-1669
664.133	-185
664.187	-485
664.240	-257
664.294	-1343
664.348	-418
664.401	-648
664.455	-895
664.508	-1390
664.562	-634
664.615	-1100
664.669	-1500
664.722	-501
664.776	-1114
664.829	-604
664.883	-1038
664.936	-1643
664.990	-1246
665.043	-622
665.097	-1388
665.150	267
665.203	-1880
665.257	-477
665.310	-1243
665.363	-1362
665.417	-722
665.470	-840
665.523	-1357
665.576	-747
665.630	-434
665.683	-898
665.736	-1388
665.789	-737
665.842	-1628
665.895	-991
665.949	-472
666.002	-854
666.055	-755
666.108	-193
666.161	-892
666.214	-860
666.267	-937
666.320	-453
666.373	-252
666.426	-717
666.479	-1042
666.532	-1080
666.585	-1691
666.638	-593
666.691	-903
666.744	-39
666.796	-592
666.849	-843
666.902	-613
666.955	-1199
667.008	-864
667.060	-1115
667.113	-1553
667.166	-962
667.219	-552
667.271	-1111
667.324	-1186
667.377	261
667.430	-516
667.482	-987
667.535	-538
667.587	-292
667.640	-643
667.693	-994
667.745	108
667.798	709
667.850	-299
667.903	-864
667.955	-541
668.008	-100
668.060	-670
668.113	-945
668.165	-341
668.218	-422
668.270	-800
668.322	-1028
668.375	-1377
668.427	-1086
668.479	-1594
668.532	-1011
668.584	-1641
668.636	-1683
668.689	-483
668.741	-1176
668.793	-1020
668.845	-616
668.898	-1016
668.950	-498
669.002	-869
669.054	-786
669.106	-732
669.158	-273
669.211	-640
669.263	-1308
669.315	-401
669.367	-56
669.419	351
669.471	243
669.523	-531
669.575	1158
669.627	-48
669.679	-422
669.731	-243
669.783	-11
669.835	-388
669.886	-379
669.938	-365
669.990	449
670.042	-880
670.094	-124
670.146	993
670.197	780
670.249	2038
670.301	2628
670.353	4364
670.404	8164
670.456	12244
670.508	19956
670.560	31969
670.611	52628
670.663	89335
670.715	182461
670.766	374287
670.818	241943
670.869	51651
670.921	16419
670.972	9058
671.024	5736
671.075	3696
671.127	3059
671.178	1309
671.230	1651
671.281	1174
671.333	1410
671.384	452
671.436	-95
671.487	1398
671.538	1770
671.590	2572
671.641	2886
671.692	5849
671.744	12530
671.795	15697
671.846	7360
671.897	2505
671.949	1358
672.000	696
672.051	-496
672.102	471
672.153	-329
672.204	-479
672.256	5
672.307	-73
672.358	-155
672.409	-805
672.460	-459
672.511	-421
672.562	-1867
672.613	-742
672.664	168
672.715	-689
672.766	-580
672.817	-1505
672.868	-460
672.919	-813
672.970	-81
673.021	-599
673.071	-1151
673.122	-374
673.173	-79
673.224	-949
673.275	-859
673.326	-1409
673.376	-922
673.427	-1128
673.478	-790
673.528	76
673.579	-200
673.630	-830
673.680	-294
673.731	-493
673.782	-1557
673.832	-984
673.883	-1016
673.934	-1377
673.984	-1051
674.035	-645
674.085	-528
674.136	-327
674.186	-1094
674.237	-495
674.287	-544
674.338	-382
674.388	-1451
674.438	-1010
674.489	-409
674.539	-905
674.589	-797
674.640	-982
674.690	-154
674.740	-1262
674.791	-1094
674.841	-1057
674.891	-627
674.942	-740
674.992	-885
675.042	-1836
675.092	-1143
675.142	-909
675.193	-1313
675.243	-1142
675.293	-453
675.343	-1287
675.393	-903
675.443	-668
675.493	-480
675.543	-1718
675.593	-905
675.643	-976
675.693	-1339
675.743	-1259
675.793	-735
675.843	-1433
675.893	-1072
675.943	-509
675.993	-1513
676.043	-1302
676.093	-214
676.142	-1235
676.192	-699
676.242	-1696
676.292	-1493
676.341	-1583
676.391	-1426
676.441	-1124
676.491	-1657
676.540	-1289
676.590	-1211
676.640	-835
676.689	-841
676.739	-1206
676.789	-1233
676.838	-1512
676.888	-1005
676.937	-1254
676.987	-1323
677.037	-1384
677.086	-1698
677.136	-1844
677.185	-1499
677.235	-1376
677.284	-937
677.333	-1332
677.383	-1180
677.432	-1930
677.482	-1074
677.531	-1195
677.580	-1486
677.630	-1845
677.679	-949
677.728	-1176
677.778	-506
677.827	-1285
677.876	-1254
677.925	-1599
677.975	-1429
678.024	-1085
678.073	-1197
678.122	-1127
678.171	-1314
678.220	-593
678.269	-1049
678.319	-922
678.368	-1347
678.417	-1203
678.466	-1540
678.515	-641
678.564	-1480
678.613	-1139
678.662	-334
678.711	-929
678.760	-1604
678.809	-1402
678.857	-1773
678.906	-1302
678.955	-1772
679.004	-1083
679.053	-1712
679.102	-1041
679.151	-1372
679.199	-1352
679.248	-1435
679.297	-1152
679.346	-2172
679.394	-1086
679.443	-1382
679.492	-1924
679.540	-1158
679.589	-1524
679.638	-1359
679.686	-1787
679.735	-1113
679.784	-1217
679.832	-685
679.881	-1154
679.929	-1882
679.978	-1778
680.026	-1304
680.075	-1168
680.123	-1516
680.172	-1437
680.220	-1671
680.268	-1784
680.317	-766
680.365	-1338
680.414	-1274
680.462	-1739
680.510	-570
680.559	-1580
680.607	-1446
680.655	-1454
680.703	-2349
680.752	-1085
680.800	-1623
680.848	-1390
680.896	-1054
680.945	-1141
680.993	-1525
681.041	-1127
681.089	-1518
681.137	-1128
681.185	-1668
681.233	-1993
681.258	-2034
681.281	-2084
681.329	-1375
681.377	-2086
681.380	-2037
681.425	-1344
681.473	-972
681.502	-1237
681.521	-1443
681.569	-593
681.617	-1782
681.624	-1737
681.665	-1524
681.713	-978
681.745	-1173
681.761	-1280
681.809	-1391
681.857	-1257
681.867	-1108
681.904	-638
681.952	-1051
681.989	-897
682.000	-862
682.048	-1701
682.096	-999
682.111	-879
682.143	-646
682.191	-1047
682.233	-608
682.239	-551
682.286	-1215
682.334	-1020
682.354	-1042
682.382	-1101
682.430	-1119
682.476	-1281
682.477	-1294
682.525	-532
682.572	-1160
682.598	-936
682.620	-737
682.667	-1129
682.715	-363
682.720	-358
682.763	-433
682.810	-1248
682.841	-584
682.857	-234
682.905	-1180
682.952	-82
682.963	-110
683.000	-285
683.047	-526
683.085	414
683.095	656
683.142	-902
683.190	-427
683.206	-451
683.237	-477
683.284	-603
683.328	114
683.332	165
683.379	-555
683.426	-451
683.449	-428
683.473	-409
683.521	-1105
683.568	-684
683.571	-646
683.615	-248
683.662	73
683.693	-325
683.709	-575
683.757	-465
683.804	59
683.814	-69
683.851	-532
683.898	275
683.936	-190
683.945	-305
683.992	-1132
684.039	-24
684.057	143
684.086	404
684.133	94
684.179	-333
684.180	-353
684.227	-253
684.274	298
684.300	316
684.321	268
684.368	14
684.415	482
684.422	405
684.462	-87
684.509	-112
684.543	-277
684.556	-313
684.603	-387
684.649	-454
684.665	-296
684.696	46
684.743	-135
684.786	296
684.790	320
684.837	79
684.883	623
684.908	360
684.930	84
684.977	137
685.023	200
685.029	150
685.070	-268
685.117	-1
685.150	-107
685.164	-94
685.210	-25
685.257	435
685.272	613
685.303	879
685.350	94
685.393	541
685.396	574
685.443	1063
685.490	1215
685.514	979
685.536	730
685.583	786
685.629	244
685.636	307
685.675	681
685.722	617
685.757	547
685.768	518
685.815	875
685.861	1161
685.878	1024
685.908	808
685.954	445
686.000	821
686.000	826
686.047	440
686.093	1134
686.121	1262
686.139	1243
686.185	951
686.232	538
686.242	526
686.278	559
686.324	1135
686.363	957
686.370	948
686.416	954
686.463	1192
686.484	1203
686.509	1083
686.555	996
686.601	449
686.606	528
686.647	1346
686.693	1009
686.727	505
686.739	285
686.785	513
686.831	702
686.848	647
686.877	640
686.923	1024
686.969	772
686.969	771
687.015	944
687.061	1481
687.090	1484
687.107	1406
687.153	1150
687.199	976
687.211	878
687.245	759
687.291	1683
687.332	1709
687.336	1698
687.382	1303
687.428	1261
687.453	1246
687.474	1265
687.520	1327
687.565	820
687.574	855
687.611	1126
687.657	1748
687.695	1542
687.702	1502
687.748	2382
687.794	2468
687.816	2515
687.839	2370
687.885	1919
687.931	1648
687.937	1642
687.976	1771
688.022	1021
688.058	1469
688.067	1599
688.113	903
688.158	1368
688.179	1221
688.204	1073
688.249	1650
688.295	1678
688.300	1681
688.340	1559
688.386	1871
688.421	1492
688.431	1427
688.477	1423
688.522	1845
688.542	2022
688.567	2256
688.613	1453
688.658	1678
688.663	1689
688.703	1753
688.749	1815
688.784	2004
688.794	2032
688.839	1834
688.884	1335
688.905	1442
688.930	1690
688.975	1779
689.020	1728
689.026	1752
689.065	1859
689.110	1623
689.146	2000
689.155	2082
689.201	1737
689.246	1435
689.267	1456
689.291	1537
689.336	1633
689.381	1489
689.388	1540
689.426	1884
689.471	1861
689.509	1762
689.516	1750
689.561	2317
689.606	2164
689.630	2429
689.651	2544
689.696	1671
689.741	1461
689.750	1504
689.785	1810
689.830	1816
689.871	1850
689.875	1855
689.920	1658
689.965	1324
689.992	1297
690.010	1378
690.054	1752
690.099	2476
690.112	2499
690.144	2381
690.189	2144
690.233	1921
690.233	1926
690.278	1869
690.323	2463
690.354	2020
690.367	1866
690.412	2434
690.457	2367
690.474	2421
690.501	2357
690.546	2049
690.590	2060
690.595	2070
690.635	2655
690.680	2632
690.716	3306
690.724	3433
690.769	3666
690.813	3944
690.836	4037
690.857	4585
690.902	5722
690.946	7128
690.957	7358
690.991	9905
691.035	13885
691.077	18537
691.080	18694
691.124	19541
691.168	19473
691.198	19958
691.213	18479
691.257	13816
691.301	9314
691.318	7574
691.346	6858
691.390	5916
691.434	4726
691.439	4605
691.478	4354
691.522	4007
691.559	3721
691.567	3704
691.611	3220
691.655	3053
691.680	2914
691.699	2850
691.743	2749
691.787	2735
691.800	2670
691.831	2714
691.875	2753
691.919	3102
691.921	3092
691.964	2888
692.008	2583
692.041	2653
692.052	2749
692.096	2544
692.139	3589
692.162	3361
692.183	2895
692.227	2998
692.271	2581
692.282	2508
692.315	2667
692.359	3050
692.402	2815
692.403	2822
692.447	2973
692.490	2971
692.523	3233
692.534	3314
692.578	3006
692.622	3612
692.643	3262
692.666	2850
692.709	3078
692.753	2968
692.763	2924
692.797	2959
692.840	2959
692.884	2995
692.884	3005
692.928	3041
692.971	3111
693.004	2869
693.015	2847
693.059	3478
693.102	3720
693.124	3685
693.146	3604
693.189	3685
693.233	3680
693.245	3756
693.276	4146
693.320	4358
693.363	4590
693.365	4579
693.407	4681
693.450	5007
693.485	5432
693.493	5723
693.537	6715
693.580	7896
693.605	8657
693.624	9723
693.667	12344
693.710	14404
693.725	15281
693.753	20875
693.797	29889
693.840	39382
693.845	40436
693.883	42372
693.926	42801
693.966	43468
693.970	42585
694.013	32641
694.056	22882
694.086	16296
694.099	15447
694.142	12373
694.185	9522
694.206	8151
694.229	7763
694.272	7090
694.315	6148
694.326	5891
694.358	5553
694.401	5351
694.444	4951
694.446	4920
694.487	4891
694.530	4755
694.566	4721
694.573	4697
694.616	4242
694.659	4172
694.686	3873
694.702	3890
694.745	4124
694.787	4240
694.806	4252
694.830	4132
694.873	4145
694.916	3924
694.926	3864
694.959	3743
695.002	3582
695.044	3534
695.046	3520
695.087	3783
695.130	3907
695.166	3939
695.172	3931
695.215	3968
695.258	3821
695.286	3833
695.301	3956
695.343	4212
695.386	4480
695.406	4551
695.428	4324
695.471	4042
695.514	3654
695.526	3516
695.556	3549
695.599	3673
695.641	3709
695.646	3695
695.684	3614
695.726	3706
695.766	3561
695.769	3574
695.811	3717
695.854	3764
695.886	3812
695.896	3794
695.938	3674
695.981	3531
696.005	3466
696.023	3487
696.065	3619
696.108	3621
696.125	3562
696.150	3624
696.192	3944
696.235	4045
696.245	4099
696.277	4110
696.319	3884
696.361	3768
696.365	3756
696.404	4050
696.446	4127
696.485	4283
696.488	4298
696.530	4409
696.572	4281
696.604	4248
696.614	4267
696.656	4247
696.698	4232
696.724	4289
696.740	4261
696.783	3946
696.825	3731
696.844	3662
696.867	3818
696.909	3985
696.951	4121
696.964	4158
696.992	4290
697.034	4478
697.076	4610
697.083	4625
697.118	4805
697.160	4954
697.202	5237
697.203	5221
697.244	4823
697.286	4587
697.323	4226
697.327	4237
697.369	4244
697.411	4263
697.442	4230
697.453	4258
697.494	4386
697.536	4498
697.562	4531
697.578	4505
697.620	4403
697.661	4222
697.682	4185
697.703	4431
697.744	4752
697.786	5231
697.801	5337
697.828	5235
697.869	5095
697.911	4928
697.921	4879
697.952	4832
697.994	4739
698.035	4670
698.040	4638
698.077	4665
698.118	4727
698.160	4776
698.160	4760
698.201	4692
698.243	4583
698.279	4500
698.284	4548
698.325	4795
698.367	5110
698.399	5295
698.408	5253
698.449	5011
698.491	4715
698.518	4564
698.532	4681
698.573	4927
698.614	5181
698.638	5311
698.656	5311
698.697	5267
698.738	5218
698.757	5191
698.779	5103
698.820	4881
698.862	4654
698.877	4557
698.903	4755
698.944	5042
698.985	5338
698.996	5404
699.026	5297
699.067	5125
699.116	4905
699.235	4845
699.354	4532
699.474	4395
699.593	4569
699.713	5026
699.832	5057
699.951	5062
700.070	4686
700.190	4495
700.309	5039
700.428	4666
700.547	5615
700.667	4837
700.786	5071
700.905	4800
701.024	3893
701.143	5071
701.262	4501
701.381	4795
701.500	4038
701.619	5952
701.738	4242
701.857	4298
701.976	4309
702.095	3946
702.214	4882
702.333	4708
702.452	5222
702.571	4969
702.690	4256
702.809	4574
702.928	4367
703.047	4394
703.165	4452
703.284	3610
703.403	4177
703.522	4129
703.640	4626
703.759	4974
703.878	6159
703.997	5214
704.115	4257
704.234	4109
704.353	4237
704.471	4176
704.590	3907
704.708	4496
704.827	4554
704.946	3979
705.064	3404
705.183	4063
705.301	5228
705.420	5014
705.538	5232
705.656	4376
705.775	4578
705.893	7387
706.012	13583
706.130	5577
706.249	4506
706.367	4831
706.485	5318
706.604	4798
706.722	4115
706.840	6134
706.958	7441
707.077	6069
707.195	4344
707.313	4805
707.431	3692
707.549	4298
707.668	4302
707.786	4805
707.904	4843
708.022	4874
708.140	4117
708.258	4164
708.376	4252
708.494	3775
708.612	4873
708.730	4765
708.848	5387
708.966	4948
709.084	4889
709.202	4414
709.320	4310
709.438	3894
709.556	4869
709.674	4762
709.791	5034
709.909	4620
710.027	4493
710.145	3948
710.263	4897
710.380	3839
710.498	4745
710.616	4434
710.733	4250
710.851	4343
710.969	4442
711.086	3584
711.204	4591
711.322	4883
711.439	4774
711.557	4461
711.674	4278
711.792	3759
711.909	5222
712.027	5719
712.144	4229
712.262	4540
712.379	3668
712.497	6083
712.614	5595
712.732	4118
712.849	4601
712.966	4506
713.084	5503
713.201	4565
713.318	4645
713.436	4286
713.553	5032
713.670	5558
713.787	5720
713.905	5725
714.022	4076
714.139	5252
714.256	6131
714.373	6601
714.490	11925
714.608	26253
714.725	115376
714.842	194140
714.959	17939
715.076	6334
715.193	5103
715.310	5272
715.427	5070
715.544	3407
715.661	4737
715.778	3904
715.895	4869
716.011	4305
716.128	4311
716.245	4691
716.362	5726
716.479	4699
716.596	4048
716.713	4138
716.829	4150
716.946	4143
717.063	3109
717.180	3986
717.296	3563
717.413	3551
717.530	3602
717.646	3916
717.763	3347
717.880	4079
717.996	3712
718.113	3496
718.229	3631
718.346	3058
718.462	3392
718.579	4296
718.695	6005
718.812	6034
718.928	5051
719.045	4128
719.161	3225
719.277	3640
719.394	3279
719.510	3947
719.626	4207
719.743	4174
719.859	5114
719.975	9598
720.092	28436
720.208	92397
720.324	19842
720.440	4771
720.557	4232
720.673	5481
720.789	7474
720.905	10510
721.021	6140
721.137	3749
721.253	3553
721.369	3824
721.486	4393
721.602	3899
721.718	3295
721.834	2055
721.950	3643
722.066	3458
722.181	3587
722.297	3371
722.413	3635
722.529	3467
722.645	3392
722.761	3125
722.877	2802
722.993	2779
723.108	3087
723.224	4165
723.340	2835
723.456	2534
723.571	3029
723.687	2163
723.803	2551
723.918	2384
724.034	2562
724.150	2456
724.265	3623
724.381	4236
724.497	6240
724.612	2955
724.728	1962
724.843	3580
724.959	3463
725.074	5474
725.190	5871
725.305	3386
725.421	2663
725.536	2789
725.651	2302
725.767	2647
725.882	2454
725.997	2491
726.113	2508
726.228	2274
726.343	2461
726.459	3211
726.574	2123
726.689	1913
726.804	3451
726.920	2238
727.035	2530
727.150	2588
727.265	2336
727.380	2558
727.495	3704
727.610	2812
727.725	2271
727.841	3069
727.956	5779
728.071	6232
728.186	2624
728.301	2684
728.416	1795
728.531	2455
728.645	3287
728.760	1916
728.875	2888
728.990	2945
729.105	3095
729.220	2620
729.335	2772
729.449	2761
729.564	2427
729.679	1869
729.794	2662
729.908	2616
730.023	2430
730.138	2724
730.253	2971
730.367	2001
730.482	2355
730.596	1279
730.711	1969
730.826	2833
730.940	4035
731.055	2905
731.169	2435
731.284	1683
731.398	2595
731.513	2698
731.627	2103
731.742	2968
731.856	2343
731.970	2304
732.085	3525
732.199	3967
732.313	5343
732.428	13043
732.542	38683
732.656	33834
732.771	6487
732.885	2963
732.999	3883
733.113	3598
733.227	3074
733.342	2886
733.456	2404
733.570	2152
733.684	2546
733.798	2102
733.912	2776
734.026	2445
734.140	2894
734.254	2427
734.368	3035
734.482	4231
734.596	1957
734.710	2516
734.824	2875
734.938	2526
735.052	2414
735.166	1295
735.280	2806
735.393	1564
735.507	2721
735.621	2445
735.735	4017
735.849	2609
735.962	2766
736.076	1878
736.190	2862
736.303	2418
736.417	3856
736.531	2377
736.644	1430
736.758	2429
736.872	1546
736.985	2443
737.099	2148
737.212	1437
737.326	2042
737.439	2613
737.553	2064
737.666	2750
737.780	2242
737.893	1914
738.007	1884
738.120	2183
738.233	2175
738.347	2044
738.460	1933
738.573	2991
738.687	2067
738.800	2158
738.913	2472
739.026	2735
739.140	2546
739.253	2965
739.366	1575
739.479	2275
739.592	2001
739.705	2701
739.818	2097
739.932	1431
740.045	1883
740.158	1848
740.271	3007
740.384	2174
740.497	2844
740.610	2835
740.723	2003
740.836	2340
740.949	2370
741.062	3580
741.174	3119
741.287	1835
741.400	2373
741.513	1904
741.626	2558
741.739	2601
741.851	2530
741.964	1171
742.077	2144
742.189	2534
742.302	3046
742.415	3648
742.527	3204
742.640	1741
742.753	1822
742.865	2051
742.978	1492
743.090	1980
743.203	1375
743.316	2228
743.428	2013
743.541	1587
743.653	2135
743.766	1713
743.878	1467
743.990	2295
744.103	2975
744.215	4070
744.327	2606
744.440	2965
744.552	3755
744.664	2544
744.777	1637
744.889	1210
745.001	2192
745.113	1555
745.226	1336
745.338	1441
745.450	1517
745.562	1888
745.674	1950
745.786	1380
745.898	1917
746.010	1716
746.122	991
746.234	1592
746.347	1846
746.459	1676
746.570	1794
746.682	2285
746.794	5331
746.906	3372
747.018	1413
747.130	1940
747.242	2318
747.354	1525
747.466	1718
747.577	1124
747.689	2226
747.801	1421
747.913	1514
748.024	1202
748.136	1585
748.248	1721
748.359	1091
748.471	1612
748.583	969
748.694	1621
748.806	2724
748.918	791
749.029	1796
749.141	1295
749.252	2241
749.364	1600
749.475	3752
749.587	1539
749.698	1564
749.809	1994
749.921	1614
750.032	1672
750.144	1241
750.255	1281
750.366	1122
750.478	1862
750.589	1358
750.700	1753
750.811	1809
750.923	1757
751.034	3414
751.145	4372
751.256	2140
751.367	2218
751.479	1417
751.590	1677
751.701	1110
751.812	1410
751.923	1887
752.034	1610
752.145	1844
752.256	1662
752.367	1265
752.478	1440
752.589	1413
752.700	1103
752.811	1694
752.922	663
753.032	1425
753.143	1567
753.254	757
753.365	1745
753.476	1463
753.586	1431
753.697	1751
753.808	966
753.919	2035
754.029	751
754.140	1304
754.251	1739
754.361	974
754.472	1202
754.582	1334
754.693	1575
754.804	1317
754.914	650
755.025	1401
755.135	1646
755.246	1824
755.356	968
755.466	2438
755.577	1101
755.687	1884
755.798	1352
755.908	1724
756.018	1684
756.129	1676
756.239	2171
756.349	2070
756.460	1986
756.570	1912
756.680	1542
756.790	1431
756.900	2574
757.011	1989
757.121	1679
757.231	1501
757.341	1952
757.451	1434
757.561	2007
757.671	1372
757.781	1569
757.891	1934
758.001	1245
758.111	2392
758.221	1982
758.331	2133
758.441	2024
758.551	2368
758.661	2755
758.771	2194
758.880	2294
758.990	2049
759.100	2422
759.210	1573
759.320	2250
759.429	2909
759.539	2470
759.649	2487
759.758	2593
759.868	2599
759.978	1814
760.087	2874
760.197	2805
760.307	3203
760.416	3031
760.526	2393
760.635	3216
760.745	3042
760.854	3056
760.964	3430
761.073	3010
761.182	3198
761.292	2984
761.401	2740
761.511	2954
761.620	3317
761.729	3413
761.839	3201
761.948	3185
762.057	3745
762.166	3078
762.276	2725
762.385	4331
762.494	3231
762.603	3918
762.712	4293
762.822	4181
762.931	3580
763.040	3875
763.149	4137
763.258	4325
763.367	5462
763.476	5338
763.585	5596
763.694	6142
763.803	5598
763.912	6056
764.021	6225
764.130	6251
764.238	7541
764.347	7512
764.456	8622
764.565	9327
764.674	9506
764.783	11204
764.891	11447
765.000	12859
765.109	15730
765.217	17218
765.326	21032
765.435	23916
765.543	30106
765.652	34733
765.761	45443
765.869	60243
765.978	85245
766.086	126510
766.195	198536
766.303	324312
766.412	476957
766.520	424187
766.629	325999
766.737	211733
766.846	136433
766.954	93626
767.062	67334
767.171	51206
767.279	40036
767.387	31213
767.496	25520
767.604	21969
767.712	20353
767.820	17648
767.928	15374
768.037	14091
768.145	13907
768.253	13087
768.361	11828
768.469	13399
768.577	12111
768.685	12951
768.793	14035
768.901	14433
769.009	17081
769.117	20378
769.225	26780
769.333	34591
769.441	52825
769.549	85087
769.657	153814
769.765	297259
769.873	413582
769.981	304317
770.088	175336
770.196	97774
770.304	62179
770.412	43188
770.519	32277
770.627	23621
770.735	20709
770.842	17080
770.950	13974
771.058	12543
771.165	11802
771.273	10074
771.380	9564
771.488	8529
771.595	8241
771.703	7270
771.810	7289
771.918	5385
772.025	6085
772.133	5846
772.240	5533
772.348	4577
772.455	5013
772.562	4634
772.670	4276
772.777	4802
772.884	4849
772.991	3432
773.099	4067
773.206	3559
773.313	2601
773.420	4156
773.528	3150
773.635	2154
773.742	3271
773.849	3109
773.956	2773
774.063	3054
774.170	2894
774.277	2592
774.384	2525
774.491	2695
774.598	2476
774.705	1672
774.812	2959
774.919	3129
775.026	2867
775.133	1959
775.239	2683
775.346	2196
775.453	1597
775.560	1974
775.667	2605
775.773	1895
775.880	2463
775.987	1547
776.093	2725
776.200	1577
776.307	953
776.413	2349
776.520	1647
776.627	1705
776.733	2107
776.840	1993
776.946	2914
777.053	3007
777.159	8828
777.266	5977
777.372	7503
777.478	6486
777.585	4914
777.691	1719
777.798	2240
777.904	1977
778.010	2919
778.117	3516
778.223	1769
778.329	380
778.435	1316
778.542	1956
778.648	1050
778.754	1442
778.860	1608
778.966	636
779.072	964
779.178	858
779.284	575
779.391	728
779.497	1277
779.603	2857
779.708	2452
779.815	7130
779.920	22969
780.026	64830
780.132	18694
780.238	2387
780.344	2168
780.450	2092
780.556	1848
780.661	1625
780.767	1384
780.873	823
780.979	1422
781.085	632
781.190	796
781.296	1262
781.402	744
781.507	756
781.613	557
781.719	1424
781.824	767
781.930	1186
782.035	464
782.141	989
782.246	266
782.352	-428
782.457	334
782.563	530
782.668	300
782.773	870
782.879	1163
782.984	991
783.090	516
783.195	1273
783.300	623
783.405	518
783.511	761
783.616	1216
783.721	1106
783.826	1072
783.932	863
784.037	42
784.142	497
784.247	979
784.352	356
784.457	616
784.562	744
784.667	952
784.772	725
784.877	714
784.982	972
785.087	870
785.192	741
785.297	-367
785.402	1120
785.507	618
785.611	1040
785.716	546
785.821	692
785.926	699
786.031	1230
786.135	13
786.240	725
786.345	286
786.450	1505
786.554	576
786.659	268
786.763	-661
786.868	171
786.973	650
787.077	-201
787.182	144
787.286	496
787.391	13
787.495	885
787.600	-73
787.704	916
787.809	521
787.913	401
788.017	208
788.122	544
788.226	387
788.330	152
788.435	417
788.539	-64
788.643	146
788.747	366
788.852	619
788.956	276
789.060	528
789.164	-225
789.268	46
789.372	-192
789.476	-37
789.580	490
789.684	380
789.788	87
789.892	9
789.996	407
790.100	910
790.204	140
790.308	216
790.412	-383
790.516	-348
790.620	666
790.724	961
790.828	-15
790.931	-628
791.035	627
791.139	-217
791.242	-258
791.346	842
791.450	342
791.554	-370
791.657	-224
791.761	936
791.864	302
791.968	438
792.072	474
792.175	1087
792.279	333
792.382	529
792.486	-35
792.589	305
792.693	839
792.796	-356
792.899	356
793.003	632
793.106	-561
793.209	-502
793.313	956
793.416	-592
793.519	358
793.623	569
793.726	1121
793.829	856
793.932	374
794.035	-222
794.138	682
794.242	438
794.345	1064
794.448	1657
794.551	3305
794.654	13229
794.757	36376
794.860	11262
794.963	1038
795.066	641
795.169	897
795.272	43
795.375	429
795.477	74
795.580	472
795.683	-473
795.786	592
795.889	-55
795.991	931
796.094	-330
796.197	-63
796.300	753
796.402	30
796.505	-612
796.608	-10
796.710	305
796.813	-535
796.915	417
797.018	203
797.120	-33
797.223	-155
797.326	321
797.428	421
797.530	651
797.633	348
797.735	221
797.838	319
797.940	756
798.042	116
798.145	-721
798.247	610
798.349	-618
798.452	-106
798.554	124
798.656	-418
798.758	447
798.860	213
798.962	-567
799.065	-653
799.167	-677
799.269	788
799.371	564
799.473	980
799.575	-288
799.677	26
799.779	2254
799.881	385
799.983	108
800.085	570
800.187	-856
800.289	-27
800.390	-626
800.492	100
800.594	592
800.696	-447
800.798	408
800.899	-218
801.001	103
801.103	79
801.205	-261
801.306	-314
801.408	-56
801.509	-147
801.611	47
801.713	773
801.814	-776
801.916	-616
802.017	-14
802.119	-461
802.220	-650
802.322	-1262
802.423	1217
802.525	-851
802.626	38
802.727	78
802.829	87
802.930	-1609
803.031	1670
803.133	-180
803.234	-96
803.335	-525
803.436	-793
803.538	-1339
803.639	-1059
803.740	284
803.841	-311
803.942	107
804.043	337
804.144	321
804.245	-237
804.346	123
804.447	-230
804.548	550
804.649	994
804.750	-171
804.851	-616
804.952	-7
805.053	-508
805.154	-1317
805.255	400
805.355	539
805.456	-999
805.557	493
805.658	-881
805.758	-117
805.859	-206
805.960	-655
806.061	126
806.161	-514
806.262	-699
806.362	-700
806.463	104
806.564	-156
806.664	-333
806.765	-327
806.865	-145
806.966	207
807.066	-1124
807.166	371
807.267	-419
807.367	-609
807.468	265
807.568	-773
807.668	460
807.769	-117
807.869	-388
807.969	-536
808.069	375
808.170	-200
808.270	-795
808.370	-900
808.470	28
808.570	-304
808.670	-12
808.770	-103
808.870	-371
808.970	-943
809.070	-783
809.170	-596
809.271	-269
809.370	-218
809.470	-252
809.570	339
809.670	-932
809.770	-376
809.870	221
809.970	228
810.070	-349
810.169	182
810.269	-1304
810.369	1422
810.469	-697
810.568	-309
810.668	-312
810.768	-677
810.867	412
810.967	-277
811.066	-441
811.166	-479
811.265	-522
811.365	-469
811.464	-186
811.564	303
811.663	-884
811.763	-1062
811.862	148
811.962	-624
812.061	-52
812.160	-724
812.260	-25
812.359	209
812.458	850
812.557	2837
812.657	5933
812.756	3125
812.855	-186
812.954	190
813.053	565
813.153	475
813.252	-90
813.351	163
813.450	63
813.549	-376
813.648	-143
813.747	275
813.846	-569
813.945	-896
814.044	-117
814.143	288
814.242	-350
814.341	-312
814.439	-193
814.538	819
814.637	-194
814.736	508
814.835	-398
814.933	171
815.032	1
815.131	-211
815.229	8
815.328	399
815.427	22
815.525	382
815.624	168
815.722	40
815.821	348
815.919	692
816.018	-295
816.116	823
816.215	554
816.313	1369
816.412	1200
816.510	1409
816.609	1483
816.707	1225
816.805	234
816.904	575
817.002	2053
817.100	2529
817.198	1659
817.296	2689
817.395	2419
817.493	4370
817.591	3037
817.689	5650
817.787	7859
817.885	13554
817.983	21036
818.081	42434
818.179	93971
818.277	209245
818.375	242796
818.473	103744
818.571	42681
818.669	24155
818.767	19872
818.865	17833
818.963	20315
819.061	27758
819.158	43260
819.256	81599
819.354	164872
819.452	321432
819.549	293614
819.647	131661
819.745	56494
819.842	32573
819.940	21175
820.038	15159
820.135	11646
820.233	8603
820.330	6327
820.428	5773
820.525	4488
820.623	3857
820.720	2816
820.818	3435
820.915	3116
821.012	3110
821.110	2152
821.207	2916
821.304	1767
821.402	1524
821.499	2534
821.596	3674
821.693	2059
821.791	2157
821.888	1966
821.985	2381
822.082	1752
822.179	2027
822.276	2095
822.373	1632
822.470	460
822.567	883
822.664	243
822.761	1412
822.858	227
822.955	963
823.052	-275
823.149	-238
823.246	153
823.343	54
823.440	483
823.536	558
823.633	-430
823.730	-611
823.827	-449
823.923	-1
824.020	1700
824.117	198
824.213	-133
824.310	1319
824.407	40
824.503	224
824.600	-63
824.696	-256
824.793	665
824.889	-446
824.986	-184
825.082	156
825.179	531
825.275	-135
825.371	-804
825.468	9
825.564	-1269
825.660	75
825.757	-112
825.853	272
825.949	-1017
826.045	-117
826.142	-347
826.238	67
826.334	0
826.430	-429
826.526	450
826.622	-217
826.718	-58
826.814	-614
826.910	219
827.006	-513
827.102	-1198
827.198	149
827.294	-551
827.390	-189
827.486	-194
827.582	-1012
827.678	-318
827.774	-579
827.869	-437
827.965	561
828.061	-1280
828.157	-373
828.252	-699
828.348	-1258
828.444	49
828.539	-772
828.635	-1107
828.731	-781
828.826	-1103
828.922	10
829.017	-822
829.113	-181
829.208	-648
829.304	-688
829.399	-128
829.495	-469
829.590	715
829.685	-435
829.781	-491
829.876	-797
829.971	-99
830.066	-929
830.162	-835
830.257	-948
830.352	-770
830.447	-234
830.543	-840
830.638	-1249
830.733	-407
830.828	174
830.923	3
831.018	151
831.113	-1253
831.208	-710
831.303	-966
831.398	-10
831.493	-675
831.588	519
831.683	-1003
831.778	-143
831.873	-502
831.967	32
832.062	-878
832.157	-898
832.252	492
832.346	-457
832.441	-1007
832.536	167
832.631	386
832.725	475
832.820	-341
832.914	-204
833.009	-1376
833.104	-392
833.198	733
833.293	-791
833.387	-811
833.482	261
833.576	-195
833.670	-377
833.765	-1067
833.859	-854
833.954	-391
834.048	-1109
834.142	-253
834.237	-1056
834.331	-484
834.425	-413
834.519	-1281
834.613	-123
834.708	-841
834.802	-728
834.896	-1156
834.990	-782
835.084	95
835.178	-685
835.272	-655
835.366	-557
835.460	-525
835.554	464
835.648	-1342
835.742	-1186
835.836	-14
835.930	-771
836.024	-88
836.117	130
836.211	-143
836.305	317
836.399	-1099
836.493	-1258
836.586	-331
836.680	-569
836.774	-688
836.867	-235
836.961	-563
837.055	-119
837.148	-751
837.242	-871
837.335	-453
837.429	156
837.522	94
837.616	-721
837.709	-431
837.803	-737
837.896	-286
837.989	-85
838.083	-550
838.176	-14
838.269	-750
838.363	-559
838.456	-739
838.549	-715
838.642	-812
838.735	1302
838.829	692
838.922	-776
839.015	-434
839.108	-1533
839.201	-508
839.294	-428
839.387	-1082
839.480	-835
839.573	-1221
839.666	-638
839.759	-1043
839.852	-1237
839.945	-385
840.038	-438
840.131	-639
840.223	-606
840.316	-407
840.409	-635
840.502	-1521
840.594	-665
840.687	-437
840.780	-343
840.873	-925
840.965	-430
841.058	-680
841.150	-345
841.243	176
841.336	-416
841.428	-729
841.521	-821
841.613	-1025
841.706	-526
841.798	-998
841.890	-998
841.983	-1627
842.075	-431
842.167	-1144
842.260	-757
842.352	-675
842.444	-176
842.537	469
842.629	408
842.721	-1300
842.813	-1030
842.905	-2016
842.997	-889
843.090	-1059
843.182	-126
843.274	-240
843.366	1710
843.458	2614
843.550	1947
843.642	-337
843.734	-765
843.826	-629
843.918	153
844.009	-607
844.101	-633
844.193	-882
844.285	-1032
844.377	538
844.469	110
844.560	594
844.652	-21
844.744	54
844.835	-1305
844.927	-818
845.019	-447
845.110	-769
845.202	-1316
845.293	-957
845.385	-1235
845.476	-764
845.568	-255
845.659	-875
845.751	-523
845.842	-820
845.934	-784
846.025	-752
846.116	-6
846.208	-1039
846.299	-1369
846.390	-141
846.482	-122
846.573	-582
846.664	-563
846.755	-664
846.846	321
846.937	-1443
847.029	-475
847.120	-1134
847.211	-962
847.302	-412
847.393	-510
847.484	-184
847.575	-1108
847.666	-704
847.757	-1149
847.847	-751
847.938	-69
848.029	-859
848.120	-1060
848.211	-169
848.302	-629
848.392	-1061
848.483	-697
848.574	-1239
848.664	-732
848.755	-1444
848.846	-589
848.936	-1280
849.027	-313
849.118	-743
849.208	-525
849.299	161
849.389	-126
849.480	1606
849.570	4456
849.661	7808
849.751	15755
849.841	7651
849.932	725
850.022	-696
850.112	-857
850.203	-704
850.293	-938
850.383	-671
850.474	-1378
850.564	-1158
850.654	-1063
850.744	-563
850.834	-742
850.924	-912
851.014	-567
851.104	-1036
851.194	-897
851.284	-1042
851.374	149
851.464	-807
851.554	-265
851.644	-1418
851.734	67
851.824	-45
851.914	199
852.004	1581
852.094	1816
852.183	-549
852.273	-154
852.363	-1094
852.452	40
852.542	-852
852.632	-730
852.721	231
852.811	-1168
852.901	247
852.990	-1616
853.080	-770
853.169	-765
853.259	-933
853.348	-409
853.438	-4
853.527	603
853.617	993
853.706	3144
853.795	6378
853.885	16331
853.974	31348
854.063	54209
854.152	99470
854.242	50279
854.331	7090
854.420	1519
854.509	1552
854.598	558
854.687	1
854.777	-232
854.866	-979
854.955	-127
855.044	-620
855.133	-680
855.222	-239
855.311	-1065
855.400	-553
855.488	-178
855.577	-488
855.666	-880
855.755	-249
855.844	-444
855.933	-1414
856.021	-1169
856.110	-1241
856.199	-539
856.288	-1019
856.376	-969
856.465	-983
856.554	-456
856.642	-1446
856.731	-542
856.819	-941
856.908	-1664
856.996	-1050
857.085	-1145
857.173	-1526
857.262	-405
857.350	-869
857.438	-1057
857.527	-515
857.615	-1571
857.703	-603
857.792	-246
857.880	-894
857.968	-1264
858.056	-937
858.145	-799
858.233	-690
858.321	-1074
858.409	-24
858.497	-927
858.585	-803
858.673	-775
858.761	-753
858.849	-1316
858.937	-1070
859.025	-732
859.113	-1022
859.201	-1369
859.289	-506
859.377	-1063
859.465	-660
859.552	-380
859.640	-676
859.728	-1299
859.816	-597
859.903	-1001
859.991	-1669
860.079	-319
860.166	-228
860.254	-491
860.342	-57
860.429	-1225
860.517	-1543
860.604	-1241
860.692	-570
860.779	-1445
860.867	-1053
860.954	-885
861.042	-246
861.129	-1013
861.216	-290
861.304	-1665
861.391	-1029
861.478	-578
861.565	-517
861.653	-497
861.740	-749
861.827	-919
861.914	-764
862.001	-802
862.089	-249
862.176	-1004
862.263	-1208
862.350	-831
862.437	-792
862.524	-1424
862.611	-821
862.698	-346
862.785	136
862.871	389
862.958	-291
863.045	-692
863.132	-903
863.219	-1055
863.306	-1194
863.392	-548
863.479	-1314
863.566	-984
863.652	-771
863.739	-1178
863.826	-1067
863.912	-803
863.999	-1402
864.086	-1008
864.172	-576
864.259	-206
864.345	-1068
864.432	-94
864.518	-1912
864.604	-1170
864.691	-928
864.777	-352
864.863	-371
864.950	-712
865.036	-590
865.122	282
865.209	-154
865.295	75
865.381	-231
865.467	334
865.553	855
865.639	1106
865.726	2225
865.812	6846
865.898	14682
865.984	22759
866.070	40609
866.156	56804
866.242	18824
866.328	2648
866.414	90
866.499	146
866.585	170
866.671	-646
866.757	339
866.843	-72
866.928	-270
867.014	-469
867.100	-354
867.186	-277
867.271	63
867.357	-366
867.442	236
867.528	-473
867.614	-467
867.699	-217
867.785	460
867.870	296
867.956	1821
868.041	940
868.127	-65
868.212	741
868.297	1122
868.383	146
868.468	514
868.553	754
868.639	547
868.724	824
868.809	1618
868.894	438
868.979	-528
869.065	223
869.150	-1220
869.235	-900
869.320	-773
869.405	-180
869.490	-1059
869.575	-1093
869.660	-1283
869.745	-919
869.830	-946
869.915	-1546
870.000	-445
870.085	-910
870.169	-438
870.254	-141
870.339	-981
870.424	-1110
870.509	-955
870.593	-472
870.678	-768
870.763	-533
870.847	-300
870.932	-1403
871.016	-20
871.101	-620
871.186	-680
871.270	-400
871.355	-899
871.439	-286
871.523	-315
871.608	-1050
871.692	-355
871.777	443
871.861	-410
871.945	-758
872.030	-600
872.114	-884
872.198	-735
872.282	-1124
872.367	-300
872.451	-955
872.535	-1490
872.619	-1160
872.703	-1180
872.787	-253
872.871	-951
872.955	-850
873.039	-401
873.123	-480
873.207	-883
873.291	-404
873.375	-437
873.459	-939
873.543	-675
873.627	-1484
873.711	-886
873.794	-347
873.878	-853
873.962	-1610
874.045	-997
874.129	-1786
874.137	-1710
874.213	-947
874.245	-738
874.296	-405
874.352	-954
874.380	-1226
874.460	-1083
874.464	-1078
874.547	-1376
874.568	-1276
874.631	-999
874.676	-943
874.714	-889
874.784	-996
874.798	-1020
874.881	238
874.892	114
874.965	-743
874.999	-628
875.048	-483
875.107	-383
875.131	-338
875.215	-526
875.215	-526
875.298	-693
875.323	-780
875.381	-975
875.430	-439
875.465	-48
875.538	-265
875.548	-297
875.631	-311
875.646	-443
875.714	-1144
875.753	-735
875.798	-235
875.861	-553
875.881	-639
875.964	-908
875.968	-888
876.047	-548
876.076	-544
876.130	-585
876.183	-532
876.213	-461
876.291	20
876.296	42
876.379	-1027
876.398	-717
876.462	456
876.506	35
876.545	-374
876.613	-807
876.628	-883
876.711	-728
876.721	-622
876.794	-19
876.828	-187
876.877	-371
876.935	-462
876.960	-462
877.043	-145
877.043	-147
877.125	-500
877.150	-457
877.208	-440
877.258	-365
877.291	-171
877.365	-174
877.374	-186
877.456	-164
877.472	-130
877.539	-77
877.579	220
877.622	455
877.687	85
877.704	46
877.787	-325
877.794	-309
877.869	-276
877.901	-481
877.952	-656
878.008	234
878.034	516
878.115	98
878.117	99
878.199	-1041
878.222	-657
878.282	110
878.329	-112
878.364	-114
878.437	243
878.447	238
878.529	-471
878.544	-386
878.611	229
878.651	273
878.694	375
878.758	397
878.776	346
878.858	-455
878.865	-409
878.941	340
878.972	18
879.023	-513
879.078	-245
879.105	-108
879.185	228
879.187	236
879.269	253
879.292	117
879.351	-232
879.399	-167
879.433	-144
879.506	195
879.516	259
879.598	-45
879.613	13
879.680	231
879.720	40
879.762	-196
879.827	-85
879.844	-36
879.926	-180
879.933	-188
880.007	1
880.040	314
880.089	585
880.147	146
880.171	80
880.253	1179
880.254	1178
880.335	1244
880.360	1470
880.417	2646
880.467	3500
880.499	4271
880.574	6090
880.580	5990
880.662	2511
880.680	2045
880.744	1394
880.787	874
880.825	564
880.893	195
880.907	226
880.989	395
881.000	456
881.070	322
881.106	250
881.152	328
881.213	-2
881.233	-96
881.315	163
881.319	164
881.396	519
881.426	489
881.478	310
881.532	763
881.559	973
881.639	232
881.641	212
881.722	648
881.745	344
881.803	-115
881.852	112
881.885	302
881.958	650
881.966	678
882.047	754
882.064	780
882.129	972
882.171	895
882.210	802
882.277	1230
882.291	1349
882.372	1104
882.383	1109
882.454	493
882.489	367
882.535	702
882.596	771
882.616	718
882.697	624
882.702	613
882.778	793
882.808	833
882.859	711
882.914	633
882.940	631
883.020	587
883.021	592
883.102	261
883.127	151
883.183	68
883.233	384
883.264	538
883.339	536
883.345	545
883.426	41
883.445	154
883.507	975
883.551	1134
883.587	945
883.657	697
883.668	701
883.749	1019
883.763	1072
883.830	1014
883.869	789
883.910	785
883.975	763
883.991	736
884.072	694
884.081	671
884.152	684
884.187	684
884.233	649
884.292	839
884.314	854
884.394	607
884.398	593
884.475	510
884.504	375
884.555	594
884.610	921
884.636	866
884.716	1149
884.716	1158
884.797	1077
884.821	1108
884.877	1008
884.927	717
884.958	831
885.033	1426
885.038	1427
885.118	949
885.139	893
885.199	976
885.244	1088
885.279	1068
885.350	728
885.359	771
885.439	1372
885.456	1455
885.520	1312
885.561	1107
885.600	922
885.667	936
885.680	987
885.760	876
885.773	898
885.840	931
885.878	864
885.920	1117
885.984	1468
886.000	1503
886.080	1669
886.089	1682
886.160	1094
886.195	796
886.240	1193
886.300	1498
886.320	1353
886.400	1111
886.406	1078
886.480	1433
886.511	1577
886.560	1333
886.616	937
886.640	898
886.720	923
886.722	912
886.800	1281
886.827	1503
886.879	2024
886.932	2422
886.959	2275
887.038	1575
887.039	1579
887.119	1252
887.143	1163
887.198	1718
887.248	2051
887.278	1758
887.354	1134
887.358	1157
887.437	1428
887.459	1501
887.517	1678
887.564	1840
887.596	1848
887.669	1663
887.676	1682
887.755	1910
887.774	1938
887.835	1859
887.880	1823
887.914	1695
887.985	1426
887.994	1470
888.073	1795
888.090	1821
888.153	1911
888.195	2027
888.232	1828
888.300	1437
888.311	1558
888.391	2302
888.405	2428
888.470	1923
888.510	1619
888.549	1674
888.615	1713
888.628	1712
888.708	1635
888.720	1620
888.787	1739
888.825	1790
888.866	1908
888.930	2081
888.945	2124
889.024	2272
889.035	2288
889.103	2228
889.140	2158
889.182	2052
889.245	1891
889.261	1876
889.340	1760
889.349	1742
889.419	2473
889.454	2814
889.498	1905
889.559	635
889.577	943
889.656	2300
889.664	2429
889.735	1850
889.768	1572
889.814	1783
889.873	2050
889.978	1656
890.083	2741
890.187	1877
890.292	2751
890.397	2016
890.501	2259
890.606	2735
890.710	2402
890.815	2504
890.919	2361
891.024	1739
891.128	2775
891.233	1234
891.337	2282
891.442	2113
891.546	1993
891.650	2509
891.755	1725
891.859	2830
891.963	2245
892.068	1918
892.172	2040
892.276	1654
892.380	2222
892.484	1408
892.589	2854
892.693	1800
892.797	2201
892.901	1905
893.005	1277
893.109	1556
893.213	2709
893.317	1304
893.421	1898
893.525	1178
893.629	2232
893.733	1985
893.837	2070
893.941	1924
894.045	2603
894.148	3118
894.252	8441
894.356	7530
894.460	3307
894.564	1558
894.667	2139
894.771	1057
894.875	1667
894.978	1421
895.082	1356
895.186	926
895.289	2510
895.393	1850
895.496	2103
895.600	2248
895.703	1085
895.807	1104
895.910	2251
896.014	1442
896.117	2303
896.221	1503
896.324	1721
896.427	1777
896.531	2704
896.634	1776
896.737	2106
896.840	2470
896.944	1644
897.047	1933
897.150	2154
897.253	1511
897.356	1630
897.460	1152
897.563	1684
897.666	1563
897.769	2408
897.872	1465
897.975	2218
898.078	2126
898.181	1764
898.284	1750
898.387	1924
898.490	2245
898.593	1818
898.695	1287
898.798	1400
898.901	2068
899.004	1652
899.107	1771
899.209	1449
899.312	1864
899.415	1851
899.518	1546
899.620	2014
899.723	1901
899.826	2754
899.928	2324
900.031	2905
900.133	1866
900.236	1480
900.338	1301
900.441	2582
900.543	1237
900.646	1523
900.748	2130
900.851	1809
900.953	1558
901.055	1374
901.158	1651
901.260	1184
901.362	1500
901.465	2016
901.567	1677
901.669	2043
901.771	2142
901.873	1331
901.976	1747
902.078	1419
902.180	1473
902.282	1995
902.384	2095
902.486	2687
902.588	1785
902.690	2519
902.792	1256
902.894	2577
902.996	1551
903.098	2465
903.200	2084
903.302	2217
903.404	1287
903.505	1387
903.607	1441
903.709	1970
903.811	1896
903.913	2338
904.014	1125
904.116	1649
904.218	1615
904.319	2680
904.421	1439
904.523	2325
904.624	1487
904.726	1875
904.827	2117
904.929	1853
905.030	1892
905.132	2133
905.233	1845
905.335	1994
905.436	2670
905.537	1151
905.639	2129
905.740	1764
905.841	1271
905.943	2280
906.044	2374
906.145	2206
906.247	2156
906.348	1554
906.449	1544
906.550	1496
906.651	2197
906.752	1187
906.854	1576
906.955	1305
907.056	1619
907.157	1863
907.258	1684
907.359	1247
907.460	1319
907.561	727
907.662	2002
907.762	1949
907.863	1630
907.964	3029
908.065	1895
908.166	1700
908.267	1775
908.367	1558
908.468	1033
908.569	1799
908.670	2883
908.770	1741
908.871	2090
908.971	2346
909.072	2415
909.173	1941
909.273	2031
909.374	2504
909.474	1746
909.575	1261
909.675	1545
909.776	2274
909.876	1912
909.977	1937
910.077	1850
910.177	1496
910.278	2189
910.378	1619
910.478	1461
910.579	2244
910.679	1766
910.779	2881
910.879	1908
910.980	1879
911.080	2004
911.180	2422
911.280	1403
911.380	1588
911.480	2188
911.580	1748
911.680	1854
911.780	2221
911.880	1534
911.980	1551
912.080	1304
912.180	2445
912.280	1513
912.380	1691
912.480	1389
912.580	2026
912.679	1848
912.779	1866
912.879	1976
912.979	2111
913.078	1441
913.178	1176
913.278	1490
913.377	2381
913.477	1785
913.577	2247
913.676	2479
913.776	1424
913.875	1741
913.975	2470
914.074	1377
914.174	2506
914.273	1402
914.373	2202
914.472	2113
914.572	1438
914.671	2193
914.770	2002
914.870	1112
914.969	2166
915.068	1533
915.167	2028
915.267	1424
915.366	1859
915.465	1778
915.564	1537
915.663	2072
915.763	1784
915.862	1261
915.961	1898
916.060	1589
916.159	1830
916.258	1066
916.357	1866
916.456	2579
916.555	1654
916.654	1802
916.752	2371
916.851	1550
916.950	2270
917.049	1047
917.148	2124
917.247	1952
917.345	2109
917.444	1655
917.543	1939
917.642	1045
917.740	1982
917.839	1894
917.937	1973
918.036	2017
918.135	1913
918.233	1138
918.332	1270
918.430	1569
918.529	1366
918.627	1332
918.726	2493
918.824	1691
918.923	1669
919.021	1509
919.119	989
919.218	1871
919.316	2247
919.414	1835
919.512	963
919.611	1608
919.709	2124
919.807	1943
919.905	2694
920.003	2208
920.102	1447
920.200	1774
920.298	1984
920.396	1258
920.494	2018
920.592	1823
920.690	1915
920.788	1815
920.886	1793
920.984	2338
921.082	1936
921.180	3009
921.277	2415
921.375	2145
921.473	1953
921.571	1799
921.669	1443
921.766	1544
921.864	2462
921.962	1949
922.060	1397
922.157	2275
922.255	2251
922.352	823
922.450	2111
922.548	1728
922.645	3137
922.743	1796
922.840	2914
922.938	2706
923.035	3561
923.133	3040
923.230	3708
923.327	3487
923.425	4270
923.522	3638
923.619	3627
923.717	2807
923.814	3385
923.911	2762
924.008	4152
924.106	3203
924.203	3174
924.300	2798
924.397	2515
924.494	4189
924.591	3249
924.688	2224
924.786	3409
924.883	3154
924.979	3423
925.077	3410
925.173	3204
925.270	2081
925.367	3293
925.464	3383
925.561	3357
925.658	2921
925.755	2949
925.852	4134
925.948	3646
926.045	3258
926.142	3984
926.239	3533
926.335	3997
926.432	3919
926.529	3767
926.625	3704
926.722	3574
926.818	2848
926.915	3055
927.011	3210
927.108	3202
927.204	2866
927.301	2925
927.397	2641
927.494	3316
927.590	2944
927.687	2561
927.783	3077
927.879	3021
927.976	2130
928.072	2728
928.168	2330
928.264	2725
928.361	2722
928.457	2738
928.553	2892
928.649	2327
928.745	2306
928.841	2374
928.937	2812
929.033	3092
929.129	1743
929.225	3743
929.321	3282
929.417	2154
929.513	2742
929.609	3627
929.705	1886
929.801	2831
929.897	2144
929.993	2148
930.089	2582
930.184	2242
930.280	2346
930.376	2934
930.471	3155
930.567	2487
930.663	3040
930.758	2526
930.854	1821
930.950	2425
931.045	2346
931.141	2091
931.236	3242
931.332	2684
931.427	2051
931.523	2648
931.618	2642
931.714	2240
931.809	2353
931.905	2442
932.000	2276
932.095	1741
932.191	2444
932.286	2647
932.381	2433
932.476	2547
932.572	2008
932.667	3002
932.762	2747
932.857	2706
932.952	2943
933.047	2884
933.142	1813
933.237	1555
933.332	2694
933.427	2993
933.522	2347
933.617	2507
933.712	1515
933.807	2494
933.902	1896
933.997	2599
934.092	3013
934.187	2841
934.282	2741
934.376	3524
934.471	2611
934.566	1544
934.661	1908
934.755	3002
934.850	2001
934.945	2871
935.039	2328
935.134	2574
935.228	1658
935.323	2719
935.417	1891
935.512	2215
935.606	2143
935.701	2458
935.795	2939
935.890	2924
935.984	2044
936.079	2563
936.173	1726
936.267	1628
936.362	1547
936.456	2306
936.550	2543
936.644	2306
936.738	1341
936.833	1964
936.927	1890
937.021	2176
937.115	1965
937.209	1576
937.303	2742
937.397	2394
937.491	1710
937.585	2660
937.679	1665
937.773	2588
937.867	2309
937.961	2730
938.055	2279
938.149	2975
938.243	2129
938.337	2901
938.430	1817
938.524	2809
938.618	2488
938.712	3090
938.805	2278
938.899	2518
938.993	1939
939.086	2592
939.180	2736
939.274	3879
939.367	2473
939.461	2436
939.554	2157
939.648	2267
939.741	1496
939.835	2285
939.928	2804
940.022	2512
940.115	1796
940.208	1773
940.302	2562
940.395	2863
940.488	1637
940.582	2137
940.675	1092
940.768	1854
940.861	1976
940.954	3051
941.048	2208
941.141	1847
941.234	2389
941.327	2713
941.420	3494
941.513	3563
941.606	1831
941.699	2075
941.792	1995
941.885	2481
941.978	2146
942.071	2111
942.164	1452
942.257	2096
942.349	1791
942.442	2610
942.535	2389
942.628	1804
942.721	1406
942.813	670
942.906	2948
942.999	1886
943.091	2149
943.184	1426
943.277	2339
943.369	2516
943.462	1290
943.554	2829
943.647	1971
943.739	2390
943.832	1973
943.924	1909
944.017	1314
944.109	1035
944.201	2092
944.294	2557
944.386	1283
944.478	2001
944.571	1730
944.663	2060
944.755	2059
944.847	1206
944.940	2313
945.032	2681
945.124	1478
945.216	2113
945.308	1840
945.400	2942
945.492	1505
945.584	1331
945.676	1974
945.768	3187
945.860	2039
945.952	2221
946.044	1285
946.136	2673
946.228	1418
946.320	1682
946.412	1169
946.503	1952
946.595	1934
946.687	1590
946.779	789
946.870	1515
946.962	1218
947.054	1667
947.145	2069
947.237	1389
947.329	1860
947.420	1653
947.512	1893
947.603	1642
947.695	1665
947.786	1269
947.878	977
947.969	1588
948.061	1483
948.152	1571
948.243	1992
948.335	1646
948.426	1027
948.517	1403
948.609	1747
948.700	1974
948.791	878
948.882	1684
948.973	1175
949.065	1837
949.156	1479
949.247	1368
949.338	2180
949.429	2213
949.520	1511
949.611	1543
949.702	2085
949.793	1629
949.884	1644
949.975	1690
950.066	1905
950.157	1429
950.247	1197
950.338	1296
950.429	2075
950.520	1482
950.611	1666
950.701	1246
950.792	1710
950.883	2038
950.973	1774
951.064	2490
951.155	1930
951.245	2120
951.336	1482
951.427	1171
951.517	1920
951.608	1274
951.698	1433
951.788	1789
951.879	1640
951.969	2122
952.060	1631
952.150	2120
952.240	2112
952.331	1398
952.421	2629
952.511	1496
952.602	1583
952.692	1404
952.782	1557
952.872	1769
952.962	1253
953.052	1713
953.143	1593
953.233	1371
953.323	1943
953.413	1142
953.503	1755
953.593	1185
953.683	1479
953.773	1178
953.863	1677
953.953	1888
954.042	1595
954.132	1775
954.222	2969
954.312	1358
954.402	1708
954.492	2099
954.581	2132
954.671	1016
954.761	528
954.850	2365
954.940	674
955.030	1201
955.119	1389
955.209	1743
955.298	1457
955.388	1462
955.477	2223
955.567	901
955.656	2442
955.746	1482
955.835	1863
955.925	1248
956.014	2380
956.103	2251
956.193	1472
956.282	2356
956.371	2412
956.461	2593
956.550	1129
956.639	2605
956.728	968
956.817	1710
956.906	1731
956.995	2028
957.085	1095
957.174	1688
957.263	2831
957.352	1166
957.441	2481
957.530	2349
957.619	1587
957.708	1696
957.796	1391
957.885	1809
957.974	1239
958.063	2105
958.152	1007
958.241	2239
958.329	1598
958.418	1938
958.507	1756
958.596	2700
958.684	2700
958.773	3000
958.861	1529
958.950	1921
959.039	2482
959.127	2380
959.216	2526
959.304	2674
959.393	2794
959.481	2063
959.570	2342
959.658	1800
959.746	2439
959.835	3359
959.923	3360
960.011	1887
960.100	1751
960.188	1981
960.276	1342
960.365	2064
960.453	1724
960.541	1107
960.629	1951
960.717	1449
960.805	1338
960.893	2202
960.981	1461
961.069	2624
961.158	1440
961.245	2503
961.333	2115
961.421	1490
961.509	2023
961.597	2309
961.685	1627
961.773	2384
961.861	1619
961.949	2379
962.036	1523
962.124	1812
962.212	1428
962.299	1110
962.387	1270
962.475	1692
962.562	1390
962.650	1412
962.738	1106
962.825	1636
962.913	875
963.000	1079
963.088	1007
963.175	1241
963.263	1536
963.350	1651
963.438	947
963.525	1419
963.612	2388
963.700	2664
963.787	5071
963.874	3589
963.962	1612
964.049	1462
964.136	1230
964.223	1502
964.310	1125
964.398	1495
964.485	243
964.572	1637
964.659	2091
964.746	1963
964.833	1152
964.920	1118
965.007	1154
965.094	1035
965.181	194
965.268	2131
965.355	1523
965.441	1144
965.528	802
965.615	1862
965.702	797
965.789	928
965.875	1067
965.962	1828
966.049	708
966.136	1145
966.222	1110
966.309	1370
966.395	1266
966.482	2313
966.569	1115
966.655	669
966.742	1778
966.828	1196
966.915	1574
967.001	604
967.087	941
967.174	1170
967.260	1119
967.347	1487
967.433	2642
967.519	3638
967.605	1004
967.692	919
967.778	484
967.864	804
967.950	243
968.036	1217
968.123	679
968.209	1799
968.295	974
968.381	1726
968.467	392
968.553	316
968.639	1546
968.725	686
968.811	1682
968.897	1979
968.983	390
969.069	1159
969.154	756
969.240	669
969.326	1103
969.412	1588
969.497	644
969.583	352
969.669	607
969.755	1393
969.840	509
969.926	2006
970.012	1374
970.097	1639
970.183	1026
970.268	1480
970.354	1658
970.439	1795
970.525	3117
970.610	1455
970.696	1121
970.781	1362
970.866	343
970.952	796
971.037	-236
971.122	1292
971.208	523
971.293	1767
971.378	900
971.463	1068
971.549	1016
971.634	824
971.719	566
971.804	1242
971.889	606
971.974	467
972.059	903
972.144	1143
972.229	1752
972.314	1262
972.399	644
972.484	1034
972.569	1235
972.654	366
972.739	2719
972.824	2064
972.908	1399
972.993	664
973.078	1336
973.163	1156
973.247	489
973.332	-772
973.417	1012
973.501	845
973.586	749
973.671	653
973.755	1049
973.840	1876
973.924	924
974.009	1228
974.093	1064
974.178	2196
974.262	1092
974.346	1473
974.431	1022
974.515	805
974.600	1084
974.684	1146
974.768	248
974.852	1316
974.937	231
975.021	1314
975.105	970
975.189	1015
975.273	1449
975.358	733
975.442	870
975.526	1524
975.610	-33
975.694	712
975.778	846
975.862	1372
975.946	-673
976.030	1781
976.114	557
976.198	1670
976.281	-305
976.365	934
976.449	394
976.533	493
976.617	666
976.700	999
976.784	776
976.868	1009
976.951	1171
977.035	901
977.119	936
977.202	1650
977.286	592
977.369	1196
977.453	975
977.536	1283
977.620	1065
977.703	754
977.787	648
977.870	1646
977.953	1216
978.037	540
978.120	1925
978.203	1072
978.287	1563
978.370	1161
978.453	761
978.536	776
978.620	1324
978.703	1554
978.786	1337
978.869	782
978.952	-496
979.035	1626
979.118	1228
979.201	127
979.284	1120
979.367	264
979.450	474
979.533	864
979.616	-12
979.699	112
979.782	1123
979.865	1305
979.948	226
980.030	897
980.113	850
980.196	691
980.279	1360
980.361	824
980.444	6
980.526	1640
980.609	688
980.692	1219
980.774	1063
980.857	-208
980.939	1317
981.022	998
981.104	699
981.187	679
981.269	1272
981.352	485
981.434	375
981.516	1105
981.599	1530
981.681	1090
981.763	1067
981.846	785
981.928	58
982.010	534
982.092	130
982.174	879
982.256	146
982.339	907
982.421	997
982.503	680
982.585	-400
982.667	747
982.749	1213
982.831	500
982.913	686
982.995	939
983.077	1069
983.158	969
983.240	-421
983.322	666
983.404	1336
983.486	520
983.568	311
983.649	522
983.731	1447
983.813	826
983.894	260
983.976	276
984.058	1199
984.139	760
984.221	411
984.302	1445
984.384	1474
984.465	721
984.547	884
984.628	941
984.710	732
984.791	1481
984.872	1110
984.954	472
985.035	777
985.116	738
985.198	104
985.279	1650
985.360	228
985.441	1465
985.522	82
985.604	834
985.685	85
985.766	1106
985.847	1894
985.928	899
986.009	62
986.090	1189
986.171	1451
986.252	201
986.333	550
986.414	980
986.495	144
986.576	1118
986.656	448
986.737	1055
986.818	843
986.899	583
986.980	335
987.060	596
987.141	-119
987.222	946
987.302	777
987.383	1251
987.464	-9
987.544	1279
987.625	1177
987.705	535
987.786	383
987.866	500
987.947	589
988.027	1348
988.108	-138
988.188	1058
988.268	682
988.349	1435
988.429	211
988.509	674
988.589	908
988.670	-792
988.750	1525
988.830	1172
988.910	1233
988.990	454
989.070	84
989.151	1081
989.231	-516
989.311	1087
989.391	415
989.471	617
989.551	-531
989.631	850
989.711	593
989.791	612
989.870	67
989.950	1072
990.030	-3
990.110	512
990.190	-106
990.269	885
990.349	754
990.429	904
990.509	734
990.588	279
990.668	544
990.747	1206
990.827	139
990.907	227
990.986	-103
991.066	1414
991.145	407
991.225	1006
991.304	335
991.383	862
991.463	-23
991.542	718
991.622	-16
991.701	1138
991.780	854
991.859	578
991.939	441
992.018	771
992.097	359
992.176	1013
992.256	780
992.335	1018
992.414	1507
992.493	829
992.572	445
992.651	-78
992.730	158
992.809	1078
992.888	-231
992.967	232
993.046	274
993.125	78
993.203	-618
993.282	198
993.361	303
993.440	472
993.519	-1061
993.597	131
993.676	356
993.755	1128
993.834	-248
993.912	913
993.991	782
994.069	474
994.148	-71
994.226	-4
994.305	512
994.384	22
994.462	592
994.540	490
994.619	-20
994.697	253
994.776	-819
994.854	1484
994.932	-873
995.011	33
995.089	-580
995.167	-325
995.245	-90
995.324	5
995.402	855
995.480	206
995.558	-370
995.636	378
995.714	-583
995.792	941
995.870	-95
995.948	1419
996.026	257
996.104	-540
996.182	361
996.260	621
996.338	-355
996.416	508
996.494	-218
996.572	189
996.649	-711
996.727	-651
996.805	511
996.883	-291
996.960	274
997.038	48
997.116	-155
997.193	-447
997.271	358
997.348	568
997.426	-220
997.504	-104
997.581	86
997.658	-9
997.736	-697
997.813	-228
997.891	679
997.968	167
998.046	384
998.123	-942
998.200	-928
998.277	-427
998.355	208
998.432	-462
998.509	35
998.586	613
998.663	236
998.741	-246
998.818	-213
998.895	240
998.972	643
999.049	428
999.126	-504
999.203	185
999.280	509
999.357	-486
999.434	232
999.511	425
999.587	455
999.664	-1219
999.741	-107
999.818	-574
999.895	-322
999.971	-838
1000.048	-993
1000.125	503
1000.202	-1047
1000.278	-56
1000.355	-143
1000.431	-716
1000.508	-475
1000.584	-421
1000.661	64
1000.738	-504
1000.814	-1065
1000.890	861
1000.967	-10
1001.043	437
1001.120	-722
1001.196	-195
1001.272	-592
1001.349	1148
1001.425	-47
1001.501	556
1001.577	-310
1001.654	-294
1001.730	-812
1001.806	-568
1001.882	-274
1001.958	-66
1002.034	-915
1002.110	-92
1002.186	-776
1002.262	-29
1002.338	-633
1002.414	478
1002.490	-5
1002.566	-1246
1002.642	-891
1002.718	133
1002.794	-504
1002.870	-346
1002.945	-1084
1003.021	225
1003.097	-797
1003.173	631
1003.248	-1569
1003.324	372
1003.400	-79
1003.475	-69
1003.551	-325
1003.626	97
1003.702	-1076
1003.777	-495
1003.853	-951
1003.928	-535
1004.004	-1338
1004.079	737
1004.155	-341
1004.230	-1374
1004.305	-450
1004.381	-433
1004.456	-935
1004.531	-538
1004.607	-196
1004.682	-232
1004.757	-236
1004.832	-322
1004.907	-275
1004.982	-156
1005.057	-809
1005.133	-409
1005.208	-226
1005.283	419
1005.358	-376
1005.433	-1027
1005.508	-433
1005.583	-538
1005.657	-608
1005.732	881
1005.807	-441
1005.882	-587
1005.957	-504
1006.032	359
1006.106	-262
1006.181	-231
1006.256	-458
1006.331	-444
1006.405	-701
1006.480	59
1006.554	-620
1006.629	-565
1006.704	-346
1006.778	341
1006.853	-439
1006.927	-403
1007.002	-994
1007.076	-536
1007.150	-755
1007.225	-43
1007.299	-622
1007.373	-1123
1007.448	-78
1007.522	-156
1007.596	-672
1007.671	-677
1007.745	-342
1007.819	-446
1007.893	-410
1007.967	-205
1008.041	-1693
1008.115	-860
1008.190	-1533
1008.264	-41
1008.338	-2052
1008.412	-432
1008.486	-475
1008.560	-218
1008.633	-570
1008.707	-468
1008.781	-695
1008.855	-120
1008.929	-1357
1009.003	-469
1009.076	-1406
1009.150	-209
1009.224	-818
1009.298	-546
1009.371	-205
1009.445	-285
1009.519	-142
1009.592	-1184
1009.666	-562
1009.739	-465
1009.813	-1059
1009.886	-541
1009.960	-1379
1010.033	-264
1010.107	-563
1010.180	211
1010.253	-285
1010.327	-1298
1010.400	-458
1010.473	-457
1010.547	-40
1010.620	-1021
1010.693	-275
1010.766	-1097
1010.840	-1058
1010.913	-869
1010.986	-1423
1011.059	-1352
1011.132	-659
1011.205	148
1011.278	-776
1011.351	-246
1011.424	-328
1011.497	-1324
1011.570	-1231
1011.643	-112
1011.716	-1361
1011.789	-547
1011.862	-736
1011.934	-384
1012.007	-2294
1012.080	-747
1012.153	-955
1012.225	378
1012.298	-1565
1012.371	-764
1012.443	-600
1012.516	-1023
1012.588	-771
1012.661	-371
1012.733	-741
1012.806	70
1012.879	-1383
1012.951	-390
1013.023	-683
1013.096	-571
1013.168	-1284
1013.241	135
1013.313	-1752
1013.385	-1185
1013.458	-1139
1013.530	-1074
1013.602	-1956
1013.674	-830
1013.746	-858
1013.819	-1331
1013.891	-271
1013.963	-1336
1014.035	-1609
1014.107	-827
1014.179	-890
1014.251	-782
1014.323	-969
1014.395	-1132
1014.467	-1393
1014.539	-1102
1014.611	-858
1014.683	175
1014.754	-875
1014.826	-1959
1014.898	-1160
1014.970	-1014
1015.042	-795
1015.113	-467
1015.185	-656
1015.257	-1412
1015.328	-955
1015.400	-344
1015.471	-1436
1015.543	-1527
1015.615	-545
1015.686	299
1015.757	-1469
1015.829	-642
1015.901	-2137
1015.972	-943
1016.043	-1654
1016.115	-1070
1016.186	-1259
1016.257	-1059
1016.328	-1352
1016.400	-806
1016.471	-1584
1016.542	-1280
1016.613	-437
1016.685	-1284
1016.756	-997
1016.827	-548
1016.898	-811
1016.969	31
1017.040	-1025
1017.111	-1565
1017.182	-1626
1017.253	-234
1017.324	-1145
1017.395	-688
1017.466	-697
1017.537	-1597
1017.608	-1485
1017.678	-1714
1017.749	-1079
1017.820	-928
1017.891	-649
1017.961	-1354
1018.032	-580
1018.103	-741
1018.173	-1136
1018.244	-567
1018.315	-1784
1018.385	-650
1018.456	-1250
1018.526	-937
1018.597	-1082
1018.667	-1119
1018.738	-1494
1018.808	-446
1018.878	-729
1018.949	-1037
1019.019	-1386
1019.089	-353
1019.160	-740
1019.230	-1414
1019.300	-975
1019.371	-1160
1019.441	-620
1019.511	-1038
1019.581	-1495
1019.651	-1609
1019.721	-853
1019.791	-1374
1019.861	-1022
1019.931	-1091
1020.001	-1482
1020.071	-246
1020.141	-1695
1020.211	-1218
1020.281	-798
1020.351	-1405
1020.421	-773
1020.491	-594
1020.560	-1013
1020.630	-1565
1020.700	-1076
1020.770	-1285
1020.839	-1269
1020.909	-1341
1020.979	-1539
1021.048	-1084
1021.118	-1516
1021.187	-986
1021.257	-918
1021.326	-358
1021.396	-748
1021.465	-1231
1021.535	-1577
1021.604	-1937
1021.674	-1359
1021.743	-1119
1021.812	-1139
1021.882	-1233
1021.951	-806
1022.020	-1221
1022.089	-1131
1022.159	-987
1022.228	-1491
1022.297	-385
1022.366	-1489
1022.435	-1154
1022.504	-1067
1022.573	-1324
1022.642	-888
1022.711	-2148
1022.781	-513
1022.849	-825
1022.918	-381
1022.987	-1696
1023.056	-1568
1023.125	-688
1023.194	-1425
1023.263	-873
1023.331	-1325
1023.400	-1577
1023.469	-1990
1023.538	-1013
1023.606	-881
1023.675	-900
1023.744	-1315
1023.812	-1091
1023.881	-1117
1023.949	-1008
1024.018	-1661
1024.086	-828
1024.155	-1341
1024.223	-1414
1024.292	-916
1024.360	-794
1024.429	-1352
1024.497	-1232
1024.565	-196
1024.634	-606
1024.702	-612
1024.770	-1728
1024.838	-1608
1024.907	-693
1024.975	-1294
1025.043	-689
1025.111	-739
1025.179	-1517
1025.247	-569
1025.315	-1341
1025.383	-934
1025.451	-346
1025.519	-1355
1025.587	-1174
1025.655	-1146
1025.723	-1532
1025.791	-691
1025.859	-718
1025.927	-245
1025.995	-559
1026.062	-649
1026.130	-319
1026.198	-1625
1026.266	-1001
1026.333	-765
1026.401	-692
1026.469	-1753
1026.536	-1270
1026.604	-1081
1026.671	-848
1026.739	-2197
1026.806	-473
1026.874	-1864
1026.941	-1156
1027.009	-549
1027.076	-1011
1027.144	-1131
1027.211	-1748
1027.278	-1534
1027.345	-1477
1027.413	-812
1027.480	-1303
1027.547	-1716
1027.614	-743
1027.682	-677
1027.749	-993
1027.816	-1805
1027.883	-1144
1027.950	-823
1028.017	-1350
1028.084	-998
1028.151	-1262
1028.218	-796
1028.285	-555
1028.352	-1629
1028.419	-1462
1028.486	-861
1028.553	-800
1028.619	-1524
1028.686	-784
1028.753	-1702
1028.820	-597
1028.886	-1029
1028.953	-1306
1029.020	-356
1029.086	-1576
1029.153	-1409
1029.220	-1102
1029.286	-1445
1029.353	-1128
1029.419	-1645
1029.486	-1554
1029.552	-1641
1029.619	-1148
1029.685	-1369
1029.751	-2258
1029.818	-954
1029.884	-1909
1029.951	-929
1030.017	-1244
1030.083	-1301
1030.149	-1114
1030.216	-1967
1030.282	-1048
1030.348	-1424
1030.414	-1379
1030.480	-1212
1030.546	-1196
1030.612	-1164
1030.678	-527
1030.744	-1974
1030.810	-1084
1030.876	-1094
1030.942	-1536
1031.008	-860
1031.074	-1602
1031.140	-282
1031.206	-568
1031.272	-1643
1031.337	-1109
1031.403	-942
1031.469	-137
1031.534	-1035
1031.600	-562
1031.666	-1366
1031.731	-1082
1031.797	-1873
1031.863	-981
1031.928	-1503
1031.994	-1067
1032.059	-1600
1032.125	-498
1032.190	-1417
1032.256	-1139
1032.321	-1914
1032.386	-1089
1032.452	-1979
1032.517	-1387
1032.582	-1445
1032.647	-645
1032.713	-1954
1032.778	-664
1032.843	-283
1032.908	-1387
1032.974	-1475
1033.039	-1399
1033.104	-1088
1033.169	-836
1033.234	-2056
1033.299	-1236
1033.364	-358
1033.429	-1167
1033.494	-948
1033.559	-1728
1033.624	-1123
1033.688	-412
1033.753	-2199
1033.818	-177
1033.883	-1367
1033.948	-206
1034.013	-587
1034.077	-811
1034.142	-524
1034.207	-670
1034.271	-637
1034.336	166
1034.400	172
1034.465	257
1034.530	-736
1034.594	-866
1034.658	-756
1034.723	-1417
1034.787	-1155
1034.852	-550
1034.916	-1183
1034.981	-1151
1035.045	-1149
1035.109	-1675
1035.173	-402
1035.238	-1559
1035.302	-1426
1035.366	-1216
1035.430	-1375
1035.495	-1265
1035.559	-803
1035.623	-682
1035.687	-1767
1035.751	-1045
1035.815	-1463
1035.879	-963
1035.943	-1499
1036.007	-755
1036.071	-592
1036.135	-750
1036.198	-974
1036.262	-1673
1036.326	-737
1036.390	-953
1036.454	-626
1036.517	-891
1036.581	-908
1036.645	-1021
1036.709	-160
1036.772	-869
1036.836	-1151
1036.900	-1192
1036.963	-1218
1037.026	-2208
1037.090	-1151
1037.154	-729
1037.217	-580
1037.280	-1685
1037.344	-925
1037.407	-1751
1037.471	-936
1037.534	-1272
1037.597	-1722
1037.661	-1582
1037.724	-1022
1037.787	-770
1037.850	-1124
1037.913	-1145
1037.977	-248
1038.040	-1302
1038.103	-1576
1038.166	-1362
1038.229	-1349
1038.292	-911
1038.355	-1350
1038.418	-892
1038.481	-1140
1038.544	-1264
1038.607	-1095
1038.670	-479
1038.732	-1151
1038.795	-1422
1038.858	-1242
1038.921	-544
1038.984	-746
1039.046	-623
1039.109	-1151
1039.172	-653
1039.234	-1423
1039.297	-820
1039.360	-1573
1039.422	-917
1039.485	-1602
1039.547	-833
1039.610	-1000
1039.672	-1726
1039.734	-1673
1039.797	-338
1039.859	-1020
1039.922	-1339
1039.984	-1634
1040.046	-798
1040.109	-1060
1040.171	-1666
1040.233	-608
1040.295	-1272
1040.358	-1619
1040.420	-1378
1040.482	-596
1040.544	-720
1040.606	-905
1040.668	-598
1040.730	-1177
1040.792	-1553
1040.854	-1345
1040.916	-1811
1040.978	-1462
1041.040	-1069
1041.102	-1523
1041.164	-1739
1041.225	-1623
1041.287	-1393
1041.349	-853
1041.411	-871
1041.472	-1272
1041.534	-1849
1041.596	-1305
1041.657	-1449
1041.719	-1152
1041.781	-1145
1041.842	-1901
1041.904	-504
1041.965	-1298
1042.027	-613
1042.088	-1112
1042.150	-739
1042.211	-1286
1042.272	-1081
1042.334	-1388
1042.395	-953
1042.456	-1063
1042.518	-882
1042.579	-787
1042.640	-1225
1042.701	-1287
1042.763	-1601
1042.824	-1536
1042.885	-1127
1042.946	-1607
1043.007	-1756
1043.068	-1504
1043.129	-1019
1043.190	-1615
1043.251	-1055
1043.312	-1406
1043.373	-465
1043.434	-1319
1043.495	-540
1043.556	-1122
1043.616	-1666
1043.677	-1320
1043.738	-834
1043.799	-693
1043.859	-715
1043.920	-1535
1043.981	-1257
1044.041	-954
1044.102	-1213
1044.162	-1300
1044.223	-1491
1044.284	-1053
1044.344	-1659
1044.405	-856
1044.465	-1315
1044.525	-1268
1044.586	-902
1044.646	-884
1044.707	-865
1044.767	-1137
1044.827	-1335
1044.887	-960
1044.948	-556
1045.008	-1141
1045.068	-1381
1045.128	-1344
1045.188	-1344
1045.249	-892
1045.309	-973
1045.369	-624
1045.429	-1741
1045.489	-1944
1045.549	-1624
1045.609	-1037
1045.669	-2006
1045.729	-1160
1045.789	-985
1045.848	-1546
1045.908	-905
1045.968	-472
1046.028	-924
1046.088	-946
1046.147	-136
1046.207	-1780
1046.267	-916
1046.326	-839
1046.386	-974
1046.446	-699
1046.505	-682
1046.565	-728
1046.624	-720
1046.684	119
1046.743	-690
1046.803	-482
1046.862	-25
1046.922	0
