'Start Wavelength	183.907
'End Wavelength	1046.922
'Gate Delay	5.000
'Gate Width (ms)	1.050
'Laser Output Level	0.000
'X Position	0.000
'Y Position	0.000
'Z Position	0.000
'Grid Point Number	1.000
'Shot Number	100.000
183.907	247.000
183.977	53.000
184.047	-309
184.116	432
184.186	-202
184.256	388
184.325	-451
184.395	283
184.465	117
184.534	-77
184.604	186
184.674	374
184.743	87
184.813	-388
184.883	-32
184.952	46
185.022	199
185.092	299
185.161	-610
185.231	-347
185.301	-97
185.370	343
185.440	-207
185.509	-348
185.579	-702
185.649	388
185.718	-216
185.788	558
185.857	-112
185.927	230
185.996	22
186.066	7
186.136	-504
186.205	-474
186.275	109
186.344	-117
186.414	-101
186.483	-862
186.553	326
186.622	710
186.692	-597
186.761	-891
186.831	-185
186.900	-104
186.970	391
187.039	466
187.109	754
187.178	690
187.248	409
187.317	559
187.387	319
187.456	-207
187.526	225
187.595	400
187.664	-19
187.734	471
187.803	617
187.873	784
187.942	98
188.012	106
188.081	-176
188.150	262
188.220	192
188.289	296
188.358	-276
188.428	126
188.497	-781
188.567	828
188.636	73
188.705	-98
188.775	458
188.844	712
188.913	1144
188.983	725
189.052	-119
189.121	434
189.191	-273
189.260	799
189.329	560
189.399	-98
189.468	460
189.537	264
189.606	625
189.676	443
189.745	555
189.814	813
189.883	-85
189.953	-73
190.022	668
190.091	1015
190.161	1438
190.230	74
190.299	-263
190.368	400
190.437	-1101
190.507	394
190.576	656
190.645	7
190.714	-745
190.783	457
190.853	431
190.922	738
190.991	364
191.060	623
191.129	314
191.198	688
191.268	288
191.337	-169
191.406	503
191.475	723
191.544	-46
191.613	-175
191.682	306
191.752	385
191.821	183
191.890	121
191.959	-46
192.028	-102
192.097	279
192.166	271
192.235	52
192.304	374
192.373	41
192.442	440
192.511	208
192.580	-147
192.650	259
192.719	947
192.788	466
192.857	-54
192.926	-362
192.995	214
193.064	418
193.133	487
193.202	734
193.271	14
193.340	217
193.409	794
193.478	46
193.547	1286
193.615	1137
193.684	1610
193.753	395
193.822	1256
193.891	-243
193.960	625
194.029	565
194.098	209
194.167	474
194.236	1142
194.305	334
194.374	-434
194.443	202
194.512	273
194.580	1051
194.649	666
194.718	703
194.787	255
194.856	79
194.925	345
194.994	-51
195.062	198
195.131	216
195.200	-61
195.269	330
195.338	476
195.407	304
195.475	109
195.544	794
195.613	519
195.682	216
195.751	522
195.819	-788
195.888	731
195.957	1141
196.026	-50
196.094	326
196.163	1293
196.232	461
196.301	225
196.369	232
196.438	-91
196.507	141
196.576	14
196.644	370
196.713	251
196.782	389
196.850	81
196.919	-180
196.988	478
197.056	845
197.125	-158
197.194	378
197.262	-299
197.331	390
197.400	78
197.468	-294
197.537	-333
197.606	142
197.674	289
197.743	668
197.812	388
197.880	942
197.949	335
198.017	317
198.086	1043
198.155	356
198.223	719
198.292	942
198.360	590
198.429	162
198.497	284
198.566	497
198.635	1423
198.703	433
198.772	-221
198.840	1605
198.909	663
198.977	182
199.046	536
199.114	375
199.183	598
199.251	328
199.320	-497
199.388	688
199.457	376
199.525	354
199.594	4
199.662	-288
199.731	-157
199.799	1128
199.867	195
199.936	184
200.004	385
200.073	420
200.141	616
200.210	162
200.278	-463
200.346	399
200.415	49
200.483	314
200.552	1148
200.620	735
200.688	-57
200.757	459
200.825	283
200.893	205
200.962	631
201.030	180
201.098	97
201.167	571
201.235	140
201.303	-735
201.372	-546
201.440	-314
201.508	184
201.577	382
201.645	-19
201.713	-356
201.781	338
201.850	416
201.918	472
201.986	-420
202.055	1268
202.123	673
202.191	158
202.259	-144
202.327	111
202.396	63
202.464	519
202.532	198
202.600	2087
202.669	377
202.737	505
202.805	-85
202.873	-6
202.941	709
203.009	200
203.078	-5
203.146	268
203.214	-89
203.282	321
203.350	856
203.418	-83
203.487	283
203.555	259
203.623	290
203.691	705
203.759	283
203.827	531
203.895	454
203.963	-170
204.031	102
204.099	281
204.168	1177
204.236	1370
204.304	91
204.372	838
204.440	621
204.508	860
204.576	650
204.644	50
204.712	-4
204.780	-273
204.848	353
204.916	491
204.984	401
205.052	-278
205.120	686
205.188	-87
205.256	-17
205.324	446
205.392	62
205.460	274
205.528	226
205.596	2
205.664	1214
205.732	-57
205.799	1527
205.867	2308
205.935	634
206.003	616
206.071	-39
206.139	540
206.207	737
206.275	394
206.343	360
206.411	572
206.478	299
206.546	400
206.614	70
206.682	897
206.750	824
206.818	747
206.885	436
206.953	-182
207.021	543
207.089	521
207.157	423
207.225	582
207.292	652
207.360	653
207.428	798
207.496	250
207.563	998
207.631	609
207.699	640
207.767	134
207.834	201
207.902	942
207.970	482
208.038	911
208.105	187
208.173	865
208.241	649
208.309	882
208.376	320
208.444	1511
208.512	1097
208.579	-178
208.647	1020
208.715	1250
208.782	142
208.850	443
208.918	875
208.985	507
209.053	656
209.120	474
209.188	373
209.256	1015
209.323	209
209.391	1191
209.459	1153
209.526	823
209.594	-4
209.661	360
209.729	433
209.796	988
209.864	1694
209.932	-527
209.999	1176
210.067	829
210.134	476
210.202	1284
210.269	789
210.337	1226
210.404	370
210.472	208
210.539	358
210.607	620
210.674	499
210.742	462
210.809	328
210.877	629
210.944	1267
211.012	267
211.079	1828
211.146	986
211.214	23
211.281	651
211.349	377
211.416	195
211.484	529
211.551	832
211.618	452
211.686	1173
211.753	541
211.821	1349
211.888	843
211.955	412
212.023	671
212.090	279
212.157	734
212.225	533
212.292	1239
212.359	2781
212.427	7132
212.494	2518
212.561	1220
212.629	602
212.696	745
212.763	1722
212.831	942
212.898	1011
212.965	551
213.032	394
213.100	932
213.167	1399
213.234	1072
213.301	1730
213.369	889
213.436	182
213.503	687
213.570	1107
213.638	1015
213.705	639
213.772	183
213.839	246
213.906	1618
213.973	632
214.041	728
214.108	1351
214.175	1430
214.242	591
214.309	673
214.376	737
214.444	420
214.511	913
214.578	170
214.645	1027
214.712	619
214.779	1297
214.846	629
214.913	1559
214.980	998
215.048	1041
215.115	858
215.182	923
215.249	1415
215.316	730
215.383	972
215.450	534
215.517	763
215.584	194
215.651	475
215.718	216
215.785	1313
215.852	1464
215.919	408
215.986	1231
216.053	1162
216.120	332
216.187	923
216.254	1878
216.321	421
216.388	867
216.455	832
216.522	775
216.589	972
216.656	1476
216.722	2319
216.789	2447
216.856	1146
216.923	1344
216.990	1844
217.057	2471
217.124	1486
217.191	1816
217.258	1864
217.324	2530
217.391	2629
217.458	2245
217.525	1279
217.592	1077
217.659	1147
217.725	1645
217.792	1310
217.859	1687
217.926	47
217.993	1183
218.059	1176
218.126	969
218.193	207
218.260	448
218.327	949
218.393	614
218.460	-138
218.527	640
218.594	507
218.660	1845
218.727	1502
218.794	847
218.860	890
218.927	562
218.994	1000
219.061	473
219.127	539
219.194	1427
219.261	658
219.327	1061
219.394	275
219.461	254
219.527	-256
219.594	1193
219.661	685
219.727	-53
219.794	1433
219.860	426
219.927	567
219.994	1112
220.060	2268
220.127	1538
220.193	1261
220.260	1001
220.326	2686
220.393	3781
220.460	4280
220.526	1980
220.593	1542
220.659	2626
220.726	1780
220.792	5181
220.859	4269
220.925	5665
220.992	7074
221.058	6801
221.125	4980
221.191	3268
221.258	2079
221.324	1848
221.391	879
221.457	466
221.524	1775
221.590	1650
221.657	4546
221.723	2240
221.789	2507
221.856	2707
221.922	1354
221.989	1707
222.055	822
222.121	157
222.188	1549
222.254	902
222.321	174
222.387	122
222.453	546
222.520	-219
222.586	-46
222.652	665
222.719	267
222.785	-441
222.851	-446
222.918	740
222.984	70
223.050	656
223.116	-313
223.183	1210
223.249	-22
223.315	360
223.382	587
223.448	147
223.514	-10
223.580	144
223.647	307
223.713	-499
223.779	112
223.845	564
223.911	-289
223.978	362
224.044	209
224.110	566
224.176	257
224.242	184
224.309	-126
224.375	518
224.441	482
224.507	63
224.573	152
224.639	417
224.705	73
224.772	828
224.838	798
224.904	868
224.970	471
225.036	266
225.102	571
225.168	712
225.234	-217
225.300	618
225.366	595
225.432	699
225.499	434
225.565	342
225.631	164
225.697	522
225.763	1001
225.829	1334
225.895	639
225.961	1902
226.027	1265
226.093	670
226.159	2269
226.225	3543
226.291	7004
226.357	10180
226.423	4320
226.489	3509
226.554	1760
226.620	2216
226.686	2028
226.752	4774
226.818	7430
226.884	13491
226.950	10817
227.016	5024
227.082	3454
227.148	1945
227.214	1304
227.279	1135
227.345	410
227.411	810
227.477	774
227.543	2134
227.609	2824
227.674	1321
227.740	479
227.806	990
227.872	1210
227.938	690
228.003	1499
228.069	915
228.135	392
228.201	995
228.267	473
228.332	88
228.398	-230
228.464	967
228.530	-32
228.595	-175
228.661	-227
228.727	1172
228.792	1690
228.858	253
228.924	166
228.990	2277
229.055	199
229.121	1200
229.187	764
229.252	1045
229.318	-140
229.384	630
229.449	726
229.515	-486
229.581	-899
229.646	1205
229.712	-13
229.777	1859
229.843	1634
229.909	1543
229.974	1655
230.040	1616
230.105	375
230.171	1083
230.236	1614
230.302	2323
230.368	1575
230.433	614
230.499	1455
230.564	1625
230.630	568
230.695	807
230.761	1061
230.826	23
230.892	1760
230.957	865
231.023	674
231.088	522
231.154	256
231.219	1073
231.284	338
231.350	1535
231.415	-675
231.481	477
231.546	1019
231.612	711
231.677	267
231.742	275
231.808	1427
231.873	269
231.939	-483
232.004	1231
232.069	1763
232.135	1275
232.200	525
232.265	486
232.331	-242
232.396	-127
232.461	328
232.527	59
232.592	226
232.657	940
232.723	493
232.788	432
232.853	95
232.918	1276
232.984	159
233.049	669
233.114	1137
233.179	1447
233.245	2695
233.310	2669
233.375	111
233.440	337
233.506	743
233.571	293
233.636	-205
233.701	754
233.766	1578
233.832	1651
233.897	495
233.962	330
234.027	1148
234.092	1031
234.157	277
234.222	999
234.288	1154
234.353	5416
234.418	4408
234.483	3089
234.548	1478
234.613	1045
234.678	1797
234.743	1929
234.808	6377
234.873	2865
234.938	1891
235.004	581
235.069	1441
235.134	786
235.199	732
235.264	1257
235.329	-464
235.394	1247
235.459	1502
235.524	1219
235.589	656
235.654	914
235.719	86
235.784	1008
235.849	960
235.913	3212
235.978	3189
236.043	3856
236.108	1421
236.173	1566
236.238	1473
236.303	1381
236.368	617
236.433	2787
236.498	3537
236.563	1920
236.627	5900
236.692	17235
236.757	13179
236.822	5822
236.887	3988
236.952	3038
237.017	2336
237.081	2797
237.146	4118
237.211	9195
237.276	17457
237.341	23927
237.405	12552
237.470	5677
237.535	4040
237.600	3750
237.664	1866
237.729	1027
237.794	2164
237.859	5605
237.923	4441
237.988	1686
238.053	3618
238.118	3169
238.182	8392
238.247	6773
238.312	3088
238.376	3028
238.441	903
238.506	1992
238.570	35
238.635	1754
238.700	973
238.764	1244
238.829	4024
238.893	3793
238.958	1688
239.023	2213
239.087	860
239.152	1094
239.216	1133
239.281	590
239.346	609
239.410	1573
239.475	1222
239.539	7709
239.604	3849
239.668	1872
239.733	832
239.797	1821
239.862	3635
239.926	6397
239.991	1858
240.055	1136
240.120	1392
240.184	1386
240.249	-3
240.313	825
240.378	69
240.442	4610
240.507	7484
240.571	1963
240.635	3045
240.700	4171
240.764	1110
240.829	889
240.893	513
240.957	837
241.022	4835
241.086	6749
241.151	2550
241.215	21
241.279	1944
241.344	3236
241.408	1802
241.472	62
241.537	1756
241.601	913
241.665	470
241.730	1252
241.794	1286
241.858	262
241.922	846
241.987	727
242.051	962
242.115	622
242.179	672
242.244	149
242.308	1631
242.372	1988
242.436	1539
242.501	1281
242.565	-126
242.629	529
242.693	1444
242.757	-131
242.822	178
242.886	1173
242.950	387
243.014	858
243.078	1253
243.142	1943
243.206	754
243.271	1671
243.335	1001
243.399	2672
243.463	9699
243.527	23551
243.591	6136
243.655	3766
243.719	1196
243.783	2263
243.847	2685
243.911	4339
243.975	4255
244.040	2169
244.104	2590
244.168	1440
244.232	1952
244.296	4028
244.360	3171
244.424	1245
244.488	1547
244.552	1107
244.615	7
244.679	1485
244.743	1097
244.807	1375
244.871	1583
244.935	673
244.999	-287
245.063	368
245.127	1164
245.191	2824
245.255	1256
245.319	1614
245.383	325
245.446	2397
245.510	322
245.574	1412
245.638	1024
245.702	1095
245.766	3568
245.829	2592
245.893	1398
245.957	521
246.021	2175
246.085	1791
246.149	1221
246.212	5347
246.276	6765
246.340	3523
246.404	2561
246.467	2716
246.531	2844
246.595	3186
246.659	2145
246.722	1393
246.786	2496
246.850	2124
246.913	3141
246.977	516
247.041	1440
247.104	1542
247.168	2333
247.232	5053
247.295	9466
247.359	4298
247.423	1536
247.486	4854
247.550	3265
247.614	2263
247.677	2085
247.741	1735
247.804	1333
247.868	1808
247.932	4536
247.995	9514
248.059	2384
248.122	436
248.186	2817
248.249	4894
248.313	15877
248.376	14615
248.440	9749
248.503	3108
248.567	3952
248.630	4370
248.694	6365
248.757	7972
248.821	15996
248.884	9667
248.948	8552
249.011	12914
249.075	18324
249.138	15547
249.202	5913
249.265	4228
249.328	5830
249.392	3304
249.455	3091
249.519	2121
249.582	2940
249.645	5255
249.709	5098
249.772	4607
249.835	3044
249.899	2754
249.962	2744
250.025	1740
250.089	7192
250.152	7703
250.215	3943
250.279	2423
250.342	2261
250.405	3091
250.468	1300
250.532	2560
250.595	6558
250.658	23399
250.721	33672
250.785	11108
250.848	7126
250.911	3430
250.974	3919
251.038	4981
251.101	10072
251.164	3854
251.227	5202
251.290	4789
251.354	8726
251.417	33237
251.480	27675
251.543	22060
251.606	55786
251.669	37060
251.732	15179
251.795	15469
251.859	15680
251.922	34890
251.985	18762
252.048	7868
252.111	6123
252.174	5101
252.237	10242
252.300	20399
252.363	23928
252.426	43224
252.489	16619
252.552	9404
252.615	5056
252.678	7506
252.741	15093
252.804	22582
252.867	44741
252.930	25331
252.993	12976
253.056	7940
253.119	6182
253.182	4530
253.245	7695
253.308	5788
253.371	5252
253.434	4615
253.497	5088
253.559	8988
253.622	5809
253.685	8537
253.748	7844
253.811	3725
253.874	5345
253.937	3755
254.000	3269
254.062	5728
254.125	9660
254.188	8917
254.251	6938
254.314	4217
254.376	6777
254.439	7578
254.502	5706
254.565	7095
254.628	10392
254.690	6075
254.753	3537
254.816	2637
254.878	3527
254.941	7145
255.004	6587
255.067	2582
255.129	2859
255.192	799
255.255	535
255.317	1310
255.380	1113
255.443	406
255.505	914
255.568	975
255.631	401
255.693	828
255.756	351
255.819	1631
255.881	382
255.944	1311
256.006	587
256.069	926
256.132	395
256.194	2332
256.257	6501
256.319	4417
256.382	3219
256.444	2550
256.507	947
256.569	1445
256.632	2024
256.694	3880
256.757	11821
256.819	27470
256.882	9325
256.944	4569
257.007	4126
257.069	3879
257.132	1947
257.194	2533
257.257	1391
257.319	525
257.381	1769
257.444	9427
257.506	32707
257.569	32194
257.631	12184
257.693	7361
257.756	3642
257.818	3440
257.880	2145
257.943	1499
258.005	1467
258.067	1080
258.130	1245
258.192	2189
258.254	4574
258.317	2315
258.379	1643
258.441	5853
258.503	4663
258.566	8794
258.628	9733
258.690	1777
258.753	1625
258.815	4751
258.877	1421
258.939	2046
259.001	1842
259.064	1587
259.126	1013
259.188	2379
259.250	1759
259.312	2164
259.375	4034
259.437	2660
259.499	1427
259.561	1467
259.623	1547
259.685	565
259.747	1623
259.809	8302
259.872	14347
259.934	22308
259.996	15985
260.058	3829
260.120	1882
260.182	1263
260.244	1189
260.306	1146
260.368	946
260.430	543
260.492	2674
260.554	5192
260.616	2893
260.678	11366
260.740	13220
260.802	2742
260.864	1592
260.926	968
260.988	2124
261.050	1785
261.112	3535
261.174	15240
261.236	10191
261.298	2780
261.359	6952
261.421	8879
261.483	699
261.545	1349
261.607	869
261.669	1463
261.731	4014
261.793	9299
261.854	2343
261.916	2915
261.978	857
262.040	1071
262.102	1199
262.164	3146
262.225	1903
262.287	1237
262.349	3679
262.411	3202
262.472	1764
262.534	3147
262.596	8179
262.658	2392
262.719	367
262.781	2141
262.843	7378
262.904	3026
262.966	2445
263.028	3183
263.090	18758
263.151	39773
263.213	9817
263.275	4784
263.336	1717
263.398	1701
263.459	649
263.521	970
263.583	4831
263.644	2225
263.706	674
263.767	126
263.829	62
263.891	575
263.952	106
264.014	119
264.075	919
264.137	3463
264.198	1305
264.260	22
264.321	129
264.383	3288
264.444	6599
264.506	1633
264.567	1071
264.629	2815
264.690	3785
264.752	1819
264.813	-2
264.875	168
264.936	1033
264.998	-33
265.059	443
265.120	1208
265.182	2516
265.243	16220
265.305	12565
265.366	2154
265.427	1895
265.489	1270
265.550	-151
265.611	668
265.673	1089
265.734	790
265.795	530
265.857	-341
265.918	364
265.979	5605
266.040	25779
266.102	17273
266.163	4560
266.224	3110
266.286	1247
266.347	392
266.408	1084
266.469	1894
266.530	936
266.592	848
266.653	2714
266.714	3537
266.775	498
266.836	390
266.898	442
266.959	744
267.020	-100
267.081	1306
267.142	863
267.203	173
267.264	-907
267.326	1530
267.387	71
267.448	-418
267.509	510
267.570	-102
267.631	-103
267.692	-151
267.753	-11
267.814	192
267.875	3023
267.936	4587
267.997	2425
268.058	1364
268.119	-67
268.180	785
268.241	338
268.302	469
268.363	573
268.424	61
268.485	450
268.546	-572
268.607	-420
268.668	16
268.729	-321
268.790	-190
268.851	993
268.912	2908
268.972	3408
269.033	612
269.094	-728
269.155	186
269.216	201
269.277	287
269.338	-244
269.398	498
269.459	-435
269.520	1659
269.581	2287
269.642	2191
269.702	633
269.763	764
269.824	-204
269.885	918
269.945	1862
270.006	825
270.067	784
270.128	-185
270.188	212
270.249	-10
270.310	-969
270.370	870
270.431	299
270.492	139
270.553	340
270.613	2344
270.674	5741
270.734	1092
270.795	445
270.856	1562
270.916	386
270.977	517
271.038	769
271.098	966
271.159	2336
271.219	1048
271.280	531
271.340	430
271.401	621
271.462	3744
271.522	1808
271.583	263
271.643	745
271.704	795
271.764	1596
271.825	4255
271.885	15191
271.946	16650
272.006	5161
272.066	9575
272.127	13442
272.187	4184
272.248	1457
272.308	2073
272.369	10454
272.429	4971
272.489	3442
272.550	2720
272.610	3864
272.671	1889
272.731	3472
272.791	4764
272.852	2309
272.912	2193
272.972	74
273.033	528
273.093	1344
273.153	1885
273.214	1453
273.274	775
273.334	7511
273.394	14093
273.455	4845
273.515	6064
273.575	12385
273.635	4388
273.696	7571
273.756	12885
273.816	5470
273.876	2481
273.936	9134
273.997	13750
274.057	2465
274.117	1621
274.177	4445
274.237	18786
274.297	14159
274.358	10888
274.418	12332
274.478	8310
274.538	2266
274.598	2650
274.658	12875
274.718	14599
274.778	4527
274.838	2488
274.898	6921
274.958	20504
275.018	15448
275.078	8345
275.138	3733
275.198	1179
275.258	942
275.318	2475
275.378	3891
275.438	4002
275.498	3134
275.558	10978
275.618	18035
275.678	10164
275.738	6125
275.798	3608
275.858	1307
275.918	509
275.978	1514
276.038	1028
276.098	844
276.157	2888
276.217	10057
276.277	3538
276.337	1643
276.397	787
276.457	1874
276.517	1046
276.576	214
276.636	143
276.696	2119
276.756	6441
276.815	3244
276.875	928
276.935	884
276.995	459
277.055	612
277.114	964
277.174	1564
277.234	8033
277.293	2685
277.353	1320
277.413	546
277.472	637
277.532	576
277.592	1443
277.651	7612
277.711	13163
277.771	3513
277.830	17518
277.890	11354
277.950	9970
278.009	25790
278.069	8378
278.128	9952
278.188	12736
278.248	5288
278.307	14872
278.367	7997
278.426	2293
278.486	916
278.545	140
278.605	966
278.664	753
278.724	1304
278.783	5927
278.843	14079
278.902	3134
278.962	1098
279.021	1824
279.081	2649
279.140	3335
279.199	1978
279.259	2390
279.318	2019
279.378	3685
279.437	6673
279.496	25305
279.556	82061
279.615	55365
279.675	14670
279.734	9292
279.793	11875
279.853	15752
279.912	5988
279.971	3152
280.031	2347
280.090	6366
280.149	9939
280.208	11135
280.268	57880
280.327	50482
280.386	11256
280.445	8916
280.505	6771
280.564	2962
280.623	2575
280.682	5568
280.742	7092
280.801	1799
280.860	737
280.919	627
280.978	294
281.037	1030
281.097	421
281.156	359
281.215	457
281.274	1472
281.333	10620
281.392	6273
281.451	1354
281.510	1101
281.569	909
281.628	760
281.688	-10
281.747	199
281.806	1056
281.865	211
281.924	216
281.983	-128
282.042	-671
282.101	491
282.160	-624
282.219	158
282.278	1136
282.337	5034
282.396	2063
282.454	944
282.513	928
282.572	8346
282.631	3298
282.690	1169
282.749	-129
282.808	1316
282.867	1183
282.926	1035
282.985	-312
283.043	69
283.102	-75
283.161	548
283.220	3836
283.279	9131
283.338	2357
283.396	614
283.455	597
283.514	1270
283.573	1620
283.631	997
283.690	582
283.749	121
283.808	2835
283.866	3586
283.925	261
283.984	828
284.043	622
284.101	1535
284.160	119
284.219	2043
284.277	1111
284.336	3097
284.395	11387
284.453	7365
284.512	2736
284.570	3271
284.629	2766
284.688	2509
284.746	1809
284.805	2786
284.863	4353
284.922	5623
284.981	6643
285.039	10260
285.098	20797
285.156	48675
285.215	80521
285.273	74722
285.332	44961
285.390	23931
285.449	14706
285.507	10486
285.566	7627
285.624	5119
285.683	4207
285.741	2109
285.799	2428
285.858	1983
285.916	1512
285.975	1960
286.033	133
286.091	1369
286.150	765
286.208	599
286.267	368
286.325	694
286.383	2213
286.442	1427
286.500	-78
286.558	-360
286.616	189
286.675	1787
286.733	893
286.791	416
286.850	1197
286.908	1302
286.966	3766
287.024	557
287.083	-124
287.141	389
287.199	924
287.257	543
287.315	1423
287.374	1892
287.432	3694
287.490	1359
287.548	20
287.606	238
287.664	-301
287.723	1888
287.781	2073
287.839	470
287.897	1443
287.955	1782
288.013	4338
288.071	12810
288.129	49931
288.187	113408
288.245	47143
288.303	15001
288.361	7899
288.419	6354
288.477	3822
288.535	2666
288.593	2027
288.651	1557
288.709	178
288.767	1187
288.825	-93
288.883	595
288.941	-599
288.999	549
289.057	-748
289.115	-216
289.173	-440
289.231	716
289.289	-93
289.346	-294
289.404	-46
289.462	1839
289.520	1352
289.578	161
289.636	-538
289.694	48
289.751	-380
289.809	234
289.867	-620
289.925	214
289.983	273
290.040	-317
290.098	-87
290.156	382
290.214	243
290.271	565
290.329	46
290.387	-1100
290.444	-112
290.502	-1305
290.560	-148
290.617	-821
290.675	-871
290.733	-605
290.790	397
290.848	-794
290.906	-76
290.963	-1
291.021	130
291.078	-51
291.136	-223
291.194	2923
291.251	7838
291.309	682
291.366	-54
291.424	20
291.481	-697
291.539	511
291.596	-129
291.654	-598
291.711	-682
291.769	384
291.826	1907
291.884	322
291.941	-1279
291.999	-472
292.056	25
292.114	-436
292.171	-256
292.228	-205
292.286	47
292.343	1858
292.401	1967
292.458	942
292.515	-78
292.573	602
292.630	562
292.687	649
292.745	246
292.802	474
292.859	3756
292.917	8592
292.974	3658
293.031	412
293.089	2
293.146	-325
293.203	32
293.260	634
293.318	310
293.375	752
293.432	-501
293.489	169
293.546	-818
293.604	847
293.661	5879
293.718	14140
293.775	4981
293.832	2072
293.889	1659
293.947	1548
294.004	617
294.061	655
294.118	2860
294.175	7617
294.232	7845
294.289	1997
294.346	977
294.403	800
294.460	635
294.517	1
294.574	-150
294.631	257
294.688	916
294.745	4206
294.802	16577
294.859	14449
294.916	4437
294.973	2301
295.030	939
295.087	1298
295.144	414
295.201	594
295.258	592
295.315	1687
295.372	5969
295.429	11149
295.486	3891
295.542	3178
295.599	5337
295.656	10312
295.713	7263
295.770	10619
295.827	3675
295.883	1981
295.940	830
295.997	3029
296.054	2497
296.111	708
296.167	100
296.224	245
296.281	-101
296.338	-118
296.394	180
296.451	446
296.508	4979
296.564	8056
296.621	5156
296.678	13328
296.734	16753
296.791	5702
296.848	2229
296.904	3236
296.961	8532
297.018	12883
297.074	7896
297.131	2735
297.187	1508
297.244	3795
297.301	14551
297.357	22551
297.414	6894
297.470	2469
297.527	1488
297.583	1141
297.640	466
297.696	206
297.753	-710
297.809	237
297.866	-333
297.922	504
297.979	-936
298.035	-29
298.092	1084
298.148	7636
298.204	5941
298.261	2501
298.317	6099
298.374	14786
298.430	7354
298.486	3852
298.543	1993
298.599	1900
298.656	2416
298.712	5101
298.768	15064
298.824	8820
298.881	2068
298.937	1411
298.993	978
299.050	1450
299.106	532
299.162	901
299.218	156
299.275	571
299.331	239
299.387	3783
299.443	14643
299.500	13192
299.556	4722
299.612	2402
299.668	1028
299.724	1944
299.780	1694
299.837	1381
299.893	3137
299.949	13249
300.005	15109
300.061	11155
300.117	18852
300.173	8956
300.229	3381
300.285	4427
300.341	4862
300.397	2536
300.453	761
300.510	724
300.566	405
300.622	2060
300.678	5633
300.734	13014
300.790	11328
300.845	14542
300.901	8047
300.957	12911
301.013	8807
301.069	3166
301.125	1540
301.181	1738
301.237	1021
301.293	195
301.349	16
301.405	-240
301.461	115
301.516	818
301.572	605
301.628	3286
301.684	1809
301.740	4627
301.796	7514
301.851	5026
301.907	9680
301.963	9942
302.019	16173
302.074	41568
302.130	37908
302.186	16940
302.242	6674
302.297	4136
302.353	3944
302.409	8372
302.464	7050
302.520	5900
302.576	14709
302.631	16656
302.687	8605
302.743	2271
302.798	992
302.854	1124
302.910	1358
302.965	1631
303.021	3741
303.076	3236
303.132	4986
303.187	5967
303.243	2362
303.299	1001
303.354	245
303.410	124
303.465	675
303.521	473
303.576	113
303.632	897
303.687	2855
303.743	13281
303.798	9664
303.853	3481
303.909	1024
303.964	863
304.020	2575
304.075	4868
304.130	3698
304.186	7958
304.241	8754
304.297	6023
304.352	2552
304.358	2333
304.407	550
304.449	618
304.463	644
304.518	564
304.539	480
304.573	323
304.629	1246
304.630	1283
304.684	3080
304.720	7241
304.739	9325
304.794	15166
304.811	12753
304.850	6760
304.902	3004
304.905	2774
304.960	1798
304.992	2130
305.015	2421
305.071	1791
305.083	1795
305.126	1657
305.173	754
305.181	630
305.236	112
305.264	405
305.292	696
305.347	1191
305.354	1203
305.402	1297
305.445	1795
305.457	1935
305.512	2712
305.535	2895
305.567	3055
305.622	2607
305.626	2742
305.678	6473
305.716	14072
305.733	16763
305.788	18545
305.807	16202
305.843	11969
305.897	13948
305.898	13963
305.953	13841
305.988	9594
306.008	7202
306.063	3633
306.078	3282
306.118	2829
306.168	1933
306.173	1860
306.228	1139
306.259	1392
306.283	1605
306.338	1046
306.349	1152
306.393	1828
306.440	2571
306.448	2644
306.503	1836
306.530	2156
306.558	3147
306.613	6128
306.620	6646
306.668	11262
306.711	16495
306.723	16857
306.778	13295
306.801	10335
306.833	6997
306.888	2646
306.892	2569
306.943	2750
306.982	1847
306.997	1563
307.052	1866
307.072	1869
307.107	1998
307.162	2746
307.163	2748
307.217	3571
307.253	3996
307.272	4069
307.327	4559
307.343	4293
307.381	3601
307.434	3837
307.436	3996
307.491	8273
307.524	12149
307.546	13655
307.600	16002
307.614	14901
307.655	8807
307.704	3968
307.710	3869
307.765	4697
307.795	5479
307.819	6382
307.874	9852
307.885	9922
307.929	8963
307.975	8761
307.984	9226
308.038	13337
308.065	16959
308.093	28210
308.148	56489
308.156	62443
308.202	95508
308.246	115516
308.257	112145
308.312	68397
308.336	51175
308.366	39797
308.421	24511
308.426	23195
308.475	15590
308.517	10508
308.530	9797
308.585	8078
308.607	7379
308.639	6945
308.694	7101
308.697	7143
308.748	9839
308.787	12734
308.803	13085
308.857	11710
308.877	11037
308.912	10558
308.967	10521
308.967	10526
309.021	15445
309.058	19075
309.076	24154
309.130	43075
309.148	50161
309.185	79959
309.238	130544
309.239	131109
309.293	144618
309.328	140823
309.348	124495
309.402	70306
309.418	56328
309.457	40463
309.508	24050
309.511	23699
309.566	19756
309.598	18040
309.620	19170
309.674	23345
309.688	24450
309.729	23992
309.778	21221
309.783	20818
309.837	16020
309.868	13657
309.892	16578
309.946	24438
309.959	26824
310.001	35874
310.049	43707
310.055	42139
310.109	25905
310.139	16305
310.163	12939
310.218	7396
310.229	6335
310.272	5374
310.319	4575
310.326	4474
310.381	3693
310.409	3340
310.435	3313
310.489	3342
310.499	3336
310.543	3194
310.589	2971
310.598	3028
310.652	3627
310.679	3725
310.706	3416
310.760	2988
310.769	2898
310.814	2544
310.859	2181
310.868	2251
310.923	2523
310.948	2740
310.977	2998
311.031	3344
311.038	3404
311.085	3357
311.128	3033
311.139	3091
311.193	3561
311.218	3640
311.247	3334
311.301	2952
311.308	2879
311.356	3013
311.398	3158
311.410	3120
311.464	2826
311.488	2709
311.518	2838
311.572	2978
311.578	2991
311.626	4413
311.668	5594
311.680	5505
311.734	4992
311.758	4757
311.788	4296
311.842	3377
311.847	3273
311.896	5003
311.937	6501
311.950	6422
312.004	5922
312.027	5696
312.058	5026
312.112	3787
312.117	3653
312.165	3697
312.207	3716
312.297	4005
312.386	3839
312.476	4028
312.566	8853
312.656	4611
312.745	2930
312.835	3978
312.925	3627
313.015	2998
313.104	3454
313.194	3592
313.284	3773
313.374	5646
313.463	5233
313.553	3573
313.643	2800
313.732	3779
313.822	2390
313.912	3261
314.001	3952
314.091	3966
314.180	4519
314.270	5796
314.360	5675
314.449	4603
314.539	3451
314.628	3219
314.718	3163
314.808	4292
314.897	3261
314.987	3521
315.076	4181
315.166	4972
315.255	3662
315.345	5323
315.434	4532
315.524	4217
315.613	4547
315.703	6687
315.792	7700
315.881	11104
315.971	6582
316.060	8103
316.150	7989
316.239	7619
316.328	4290
316.418	3253
316.507	3272
316.597	5301
316.686	4723
316.775	5174
316.865	7537
316.954	3567
317.043	2336
317.133	3796
317.222	3242
317.311	3645
317.400	2979
317.490	4854
317.579	5423
317.668	4222
317.757	5244
317.847	9256
317.936	20012
318.025	15522
318.114	8398
318.203	6556
318.293	9136
318.382	20619
318.471	16120
318.560	18546
318.649	31465
318.738	8321
318.828	5471
318.917	6615
319.006	6329
319.095	11766
319.184	38200
319.273	25876
319.362	14880
319.451	4823
319.540	4921
319.629	9728
319.718	19065
319.807	9050
319.896	12525
319.985	48629
320.074	21589
320.163	5681
320.252	6779
320.341	6416
320.430	6251
320.519	9383
320.608	5827
320.697	4498
320.786	4820
320.875	6747
320.964	7737
321.053	12516
321.142	16942
321.230	19746
321.319	11809
321.408	29662
321.497	13296
321.586	11851
321.675	10573
321.764	12010
321.852	8258
321.941	17747
322.030	13114
322.119	11851
322.207	30249
322.296	16042
322.385	9625
322.474	12137
322.562	36116
322.651	20816
322.740	12472
322.829	15915
322.917	11558
323.006	10547
323.095	9874
323.183	6700
323.272	10848
323.361	15017
323.449	30763
323.538	12907
323.626	21690
323.715	14613
323.804	6860
323.892	19049
323.981	15433
324.069	5950
324.158	8957
324.246	11937
324.335	6459
324.424	12213
324.512	5833
324.601	7496
324.689	12860
324.778	27082
324.866	10481
324.954	3660
325.043	4186
325.131	6189
325.220	8888
325.308	10052
325.397	8248
325.485	5932
325.574	2980
325.662	3673
325.750	4866
325.839	4004
325.927	3009
326.015	4183
326.104	3885
326.192	5947
326.280	3654
326.369	3861
326.457	5521
326.545	10124
326.634	5546
326.722	2496
326.810	2920
326.898	3691
326.987	4931
327.075	8819
327.163	8021
327.251	4579
327.340	8382
327.428	17071
327.516	3585
327.604	4156
327.692	4123
327.781	3569
327.869	4425
327.957	4306
328.045	4470
328.133	3367
328.221	3270
328.309	3493
328.397	3783
328.485	4887
328.574	6394
328.662	20252
328.750	11011
328.838	4764
328.926	3858
329.014	4056
329.102	4657
329.190	10035
329.278	9170
329.366	3959
329.454	3337
329.542	3565
329.630	3885
329.718	4683
329.806	6530
329.893	7086
329.981	10206
330.069	20145
330.157	63205
330.245	140234
330.333	93859
330.421	23600
330.509	12534
330.597	27158
330.684	18625
330.772	6581
330.860	7031
330.948	8348
331.036	5106
331.123	2690
331.211	2753
331.299	4263
331.387	5857
331.475	12920
331.562	4535
331.650	3541
331.738	2766
331.825	3518
331.913	2768
332.001	2978
332.089	3060
332.176	4863
332.264	9155
332.352	8956
332.439	4371
332.527	3706
332.614	2456
332.702	3902
332.790	2874
332.877	4894
332.965	9328
333.052	5186
333.140	3742
333.228	9784
333.315	3278
333.403	3432
333.490	6339
333.578	7227
333.665	11275
333.753	7954
333.840	3470
333.928	4261
334.015	7017
334.103	12600
334.190	42154
334.278	14215
334.365	4911
334.452	4744
334.540	3385
334.627	4292
334.715	6209
334.802	8849
334.889	29431
334.977	36943
335.064	7171
335.151	4605
335.239	5455
335.326	6535
335.413	21810
335.501	35728
335.588	5842
335.675	4688
335.762	5080
335.850	8667
335.937	7008
336.024	12351
336.111	38906
336.199	20435
336.286	6448
336.373	4591
336.460	3039
336.547	3714
336.635	5052
336.722	4571
336.809	3496
336.896	5411
336.983	14389
337.070	34999
337.157	49697
337.245	24319
337.332	16118
337.419	3634
337.506	3150
337.593	4055
337.680	10047
337.767	33632
337.854	10603
337.941	10722
338.028	9706
338.115	5216
338.202	5400
338.289	7512
338.376	21455
338.463	9641
338.550	17332
338.637	22885
338.724	5139
338.811	7118
338.898	2535
338.984	2224
339.071	3919
339.158	4713
339.245	10730
339.332	7992
339.419	6262
339.506	6530
339.593	1948
339.679	3177
339.766	2777
339.853	4968
339.940	9405
340.027	4314
340.113	3563
340.200	5167
340.287	3498
340.374	5306
340.460	8909
340.547	4861
340.634	6175
340.720	23757
340.807	16025
340.894	3390
340.980	3388
341.067	3473
341.154	3871
341.240	5830
341.327	12848
341.414	5169
341.500	6977
341.587	4018
341.674	3522
341.760	7923
341.847	10787
341.933	4524
342.020	1626
342.106	2651
342.193	3273
342.279	7516
342.366	5419
342.452	9538
342.539	5026
342.625	10535
342.712	26625
342.798	12652
342.885	5284
342.971	2559
343.058	1716
343.144	3107
343.230	2786
343.317	3365
343.403	2504
343.490	2527
343.576	1784
343.662	3429
343.749	3058
343.835	4777
343.921	7696
344.008	36671
344.094	90732
344.180	24733
344.267	9145
344.353	24776
344.439	27607
344.525	14645
344.612	11398
344.698	13355
344.784	7598
344.870	3855
344.957	3885
345.043	5880
345.129	4388
345.215	9110
345.301	6008
345.387	4838
345.474	1676
345.560	1872
345.646	2056
345.732	3126
345.818	3304
345.904	4250
345.990	3140
346.076	3368
346.162	4553
346.249	3327
346.335	2447
346.421	3325
346.507	9417
346.593	37019
346.679	11350
346.765	3688
346.851	2437
346.937	3247
347.023	3264
347.108	3762
347.194	3237
347.280	3489
347.366	4413
347.452	11235
347.538	41707
347.624	33723
347.710	28281
347.796	5095
347.882	3257
347.967	2147
348.053	3250
348.139	3270
348.225	2226
348.311	2959
348.397	2805
348.482	3811
348.568	4318
348.654	2784
348.740	3417
348.825	3718
348.911	6247
348.997	18320
349.083	39071
349.168	7692
349.254	3852
349.340	4039
349.425	2515
349.511	3663
349.597	4985
349.682	8093
349.768	27329
349.854	15735
349.939	3178
350.025	2704
350.110	3602
350.196	2446
350.282	2742
350.367	2912
350.453	2390
350.538	3136
350.624	4399
350.709	4219
350.795	2188
350.880	2472
350.966	3412
351.051	5132
351.137	2793
351.222	3033
351.308	9012
351.393	28524
351.479	8607
351.564	3643
351.649	3149
351.735	2847
351.820	2438
351.906	2970
351.991	3254
352.076	15499
352.162	27271
352.247	6227
352.332	3819
352.418	7957
352.503	10016
352.588	35556
352.673	33103
352.759	8136
352.844	4326
352.929	4927
353.014	5986
353.100	4516
353.185	5607
353.270	8376
353.355	10323
353.441	4130
353.526	3046
353.611	8151
353.696	10886
353.781	6984
353.866	3064
353.952	4374
354.037	8108
354.122	19330
354.207	17665
354.292	8301
354.377	3784
354.462	2902
354.547	4387
354.632	4413
354.717	4109
354.802	5351
354.887	3135
354.972	3153
355.057	3115
355.142	2963
355.227	3884
355.312	6866
355.397	12083
355.482	30311
355.567	16459
355.652	10999
355.737	11510
355.822	30991
355.907	29745
355.991	6337
356.076	3746
356.161	3112
356.246	2761
356.331	4430
356.416	6681
356.501	43162
356.585	52976
356.670	11313
356.755	6719
356.840	8329
356.924	30259
357.009	109557
357.094	51288
357.179	12660
357.263	8379
357.348	8022
357.433	7818
357.517	7233
357.602	5978
357.687	5081
357.771	6913
357.856	26868
357.941	19374
358.025	26500
358.110	107737
358.195	62133
358.279	12998
358.364	8054
358.448	22557
358.533	62853
358.617	49774
358.702	45222
358.787	19367
358.871	10839
358.956	9610
359.040	4212
359.125	2551
359.209	4203
359.294	12247
359.378	24523
359.462	9693
359.547	5598
359.631	3217
359.716	2373
359.800	3002
359.885	4644
359.969	2968
360.053	4216
360.138	2641
360.222	4866
360.306	9489
360.391	8378
360.475	13195
360.559	33850
360.644	24721
360.728	18924
360.812	23073
360.896	70666
360.981	33137
361.065	18476
361.149	5346
361.233	5105
361.318	3999
361.402	4692
361.486	3795
361.570	3859
361.654	4849
361.739	10694
361.823	42906
361.907	74313
361.991	16718
362.075	8357
362.159	19214
362.243	15406
362.327	11998
362.411	14090
362.495	7878
362.580	6268
362.664	3892
362.748	4404
362.832	5838
362.916	9546
363.000	23723
363.084	54713
363.168	85248
363.252	26007
363.336	8945
363.420	10013
363.503	31396
363.587	43204
363.671	10108
363.755	6899
363.839	10427
363.923	5938
364.007	11344
364.091	13329
364.175	12782
364.258	57153
364.342	45971
364.426	42925
364.510	25051
364.594	14711
364.677	14419
364.761	59617
364.845	48866
364.929	18364
365.013	14581
365.096	11299
365.180	14389
365.264	13064
365.347	53218
365.431	26952
365.515	7064
365.598	4624
365.682	4344
365.766	5863
365.849	7030
365.933	5061
366.017	6589
366.100	4868
366.184	1561
366.267	3710
366.351	2627
366.435	2223
366.518	2145
366.602	3063
366.685	2314
366.769	4138
366.852	5783
366.936	11836
367.019	6820
367.103	4758
367.186	7686
367.270	4070
367.353	1331
367.436	4175
367.520	2821
367.603	3910
367.687	5905
367.770	11688
367.853	7253
367.937	17711
368.020	32771
368.104	9438
368.187	7840
368.270	12869
368.353	12582
368.437	11019
368.520	14244
368.603	13484
368.687	21455
368.770	47129
368.853	13143
368.936	11454
369.020	10231
369.103	4737
369.186	2810
369.269	3798
369.352	6798
369.436	10322
369.519	7203
369.602	3576
369.685	4308
369.768	4777
369.851	2656
369.934	2792
370.018	4024
370.101	9551
370.184	8559
370.267	5574
370.350	9618
370.433	14083
370.516	30333
370.599	40352
370.682	12418
370.765	25906
370.848	29899
370.931	53595
371.014	22811
371.097	5218
371.180	4334
371.263	2525
371.346	1508
371.429	4035
371.511	2773
371.594	5639
371.677	8789
371.760	11285
371.843	10070
371.926	39238
372.009	97224
372.091	37981
372.174	19002
372.257	46765
372.340	21016
372.423	13707
372.505	15512
372.588	8178
372.671	15034
372.754	50800
372.836	29174
372.919	16322
373.002	32548
373.085	12559
373.167	9607
373.250	22438
373.332	47739
373.415	58984
373.498	125215
373.580	54775
373.663	53164
373.746	82536
373.828	22704
373.911	10032
373.993	9015
374.076	28844
374.159	31358
374.241	13678
374.324	44496
374.406	34165
374.489	31948
374.571	100885
374.654	48681
374.736	19005
374.819	58339
374.901	86292
374.983	95950
375.066	21351
375.148	6863
375.231	21894
375.313	49640
375.395	20585
375.478	5999
375.560	4292
375.643	5342
375.725	15675
375.807	72394
375.890	57623
375.972	18281
376.054	11924
376.136	12787
376.219	7268
376.301	19205
376.383	66164
376.465	29777
376.548	17572
376.630	19405
376.712	57022
376.794	29668
376.877	5147
376.959	3216
377.041	3613
377.123	5538
377.205	8369
377.287	2596
377.369	3019
377.452	2346
377.534	3287
377.616	3415
377.698	3068
377.780	2659
377.862	3275
377.944	3285
378.026	2062
378.108	1686
378.190	2278
378.272	2612
378.354	2624
378.436	2304
378.518	4070
378.600	13353
378.682	13417
378.764	31673
378.846	28796
378.928	7040
379.010	11656
379.091	6884
379.173	3696
379.255	2748
379.337	4890
379.419	13685
379.501	45983
379.583	20491
379.664	6063
379.746	10164
379.828	31202
379.910	44272
379.991	41466
380.073	9047
380.155	4819
380.237	4353
380.318	3389
380.400	3106
380.482	7818
380.564	11186
380.645	9418
380.727	10388
380.809	7048
380.890	5127
380.972	3427
381.053	3493
381.135	5069
381.217	10210
381.298	34720
381.380	19442
381.461	12309
381.543	53806
381.624	77262
381.706	17010
381.787	7979
381.869	8526
381.951	22586
382.032	90334
382.113	66565
382.195	16622
382.276	9252
382.358	16656
382.439	49951
382.521	56477
382.602	88263
382.684	43412
382.765	74718
382.846	80486
382.928	94533
383.009	58802
383.090	41956
383.172	133222
383.253	205980
383.334	80739
383.416	80591
383.497	46860
383.578	22362
383.659	37319
383.741	118681
383.822	294336
383.903	169876
383.984	61841
384.066	103781
384.147	73286
384.228	17622
384.309	11180
384.390	8836
384.471	6260
384.553	7822
384.634	8736
384.715	10192
384.796	5327
384.877	6905
384.958	27004
385.039	40335
385.120	15312
385.201	6964
385.282	7209
385.363	7004
385.444	6247
385.525	11894
385.606	39571
385.687	38518
385.768	9473
385.849	10754
385.930	43169
386.011	82708
386.092	26756
386.173	7351
386.254	4281
386.335	5375
386.416	5521
386.496	17775
386.577	35534
386.658	12436
386.739	6933
386.820	6333
386.901	4886
386.981	5605
387.062	3485
387.143	7091
387.224	29540
387.304	31718
387.385	10734
387.466	6284
387.547	6956
387.627	6584
387.708	9930
387.789	49908
387.869	68457
387.950	21509
388.031	3980
388.111	2290
388.192	8545
388.273	11233
388.353	7838
388.434	6298
388.514	9809
388.595	44456
388.676	65539
388.756	35911
388.837	31975
388.917	22386
388.998	4518
389.078	4494
389.159	3466
389.239	3107
389.320	7577
389.400	4729
389.480	10007
389.561	31667
389.641	18968
389.722	5768
389.802	9901
389.883	12764
389.963	36087
390.043	24536
390.124	7253
390.204	11278
390.284	37487
390.365	26095
390.445	21118
390.525	59433
390.605	61164
390.686	23202
390.766	7748
390.846	4752
390.927	2775
391.007	2388
391.087	4700
391.167	3724
391.247	2663
391.328	5269
391.408	6350
391.488	6462
391.568	2093
391.648	5159
391.728	8024
391.808	7806
391.888	8052
391.969	16660
392.049	30848
392.129	14497
392.209	11911
392.289	36597
392.369	21710
392.449	14105
392.529	10464
392.609	9221
392.689	10102
392.769	33457
392.849	33859
392.929	18570
393.009	44878
393.089	38380
393.169	25725
393.248	72000
393.328	285807
393.408	345088
393.488	99969
393.568	27714
393.648	14436
393.728	9443
393.807	6485
393.887	8438
393.967	7390
394.047	9264
394.127	12024
394.206	18477
394.286	53894
394.366	209164
394.446	253196
394.525	83350
394.605	23727
394.685	15389
394.764	21222
394.844	34118
394.924	27594
395.003	11129
395.083	7532
395.163	7214
395.242	6398
395.322	8052
395.402	4571
395.481	8441
395.561	13104
395.640	39559
395.720	34296
395.799	43560
395.879	39737
395.958	29344
396.038	82339
396.117	269335
396.197	321988
396.276	133233
396.356	45070
396.435	27694
396.515	19061
396.594	18610
396.673	26794
396.753	79838
396.832	277967
396.912	240385
396.991	65122
397.070	18081
397.150	8754
397.229	8376
397.308	8853
397.388	16425
397.467	10492
397.546	5555
397.625	3669
397.705	6569
397.784	6138
397.863	4093
397.942	2703
398.022	3893
398.101	9088
398.180	32847
398.259	18653
398.338	5991
398.417	3849
398.497	2606
398.576	3608
398.655	2246
398.734	2733
398.813	2335
398.892	8330
398.971	35875
399.050	20287
399.129	3092
399.208	2119
399.287	3779
399.366	1623
399.445	1686
399.524	1462
399.603	1965
399.682	4547
399.761	11260
399.840	37878
399.919	33281
399.998	5239
400.077	1258
400.156	515
400.235	3880
400.313	1984
400.392	2476
400.471	15280
400.550	30656
400.629	8599
400.708	3975
400.786	2735
400.865	6463
400.944	9105
401.023	5807
401.102	1392
401.180	1552
401.259	676
401.338	2275
401.416	3666
401.495	2681
401.574	2746
401.652	2173
401.731	2954
401.810	2465
401.888	1957
401.967	1288
402.046	1297
402.124	2696
402.203	2993
402.281	2849
402.360	2214
402.438	8782
402.517	7078
402.596	2871
402.674	1777
402.753	1485
402.831	2092
402.910	3222
402.988	6420
403.066	25988
403.145	17569
403.223	8718
403.302	22346
403.380	17842
403.459	16334
403.537	7634
403.615	2927
403.694	1131
403.772	1953
403.850	1888
403.929	1264
404.007	1059
404.085	4897
404.164	4790
404.242	3762
404.320	14380
404.398	50176
404.477	59416
404.555	78800
404.633	78708
404.711	43632
404.789	32147
404.868	8450
404.946	3933
405.024	2123
405.102	2098
405.180	1879
405.258	1193
405.336	2388
405.415	1320
405.493	3974
405.571	4204
405.649	1188
405.727	1449
405.805	4762
405.883	3533
405.961	3022
406.039	3356
406.117	1373
406.195	4033
406.273	13633
406.351	61829
406.429	43945
406.507	7350
406.585	2721
406.663	2894
406.740	3885
406.818	3235
406.896	1659
406.974	3343
407.052	4029
407.130	34400
407.208	58448
407.285	14451
407.363	2445
407.441	2134
407.519	1401
407.596	3168
407.674	7054
407.752	28919
407.830	28847
407.907	8900
407.985	2314
408.063	2555
408.141	1045
408.218	2976
408.296	1885
408.373	1918
408.451	3014
408.529	3097
408.606	1222
408.684	1197
408.762	1265
408.839	698
408.917	1056
408.994	1057
409.072	612
409.149	1667
409.227	3221
409.304	3734
409.382	2661
409.459	2145
409.537	4114
409.614	4745
409.692	2944
409.769	2747
409.846	4014
409.924	6037
410.001	4197
410.079	3950
410.156	3771
410.233	3211
410.311	1783
410.388	2502
410.465	2697
410.543	3335
410.620	2436
410.697	2033
410.775	2733
410.852	1112
410.929	2061
411.006	4999
411.083	1329
411.161	5231
411.238	7061
411.315	2443
411.392	534
411.469	3180
411.547	3536
411.624	1522
411.701	1395
411.778	2563
411.855	4829
411.932	3889
412.009	1556
412.086	1836
412.163	2351
412.240	2249
412.317	3115
412.394	2225
412.471	1073
412.548	899
412.625	1259
412.702	2043
412.779	4284
412.856	3931
412.933	1085
413.010	1067
413.087	2682
413.164	15146
413.241	25830
413.318	6955
413.395	4276
413.471	5202
413.548	3292
413.625	2251
413.702	1934
413.779	2470
413.855	607
413.932	712
414.009	574
414.086	937
414.162	737
414.239	3057
414.316	12499
414.393	36589
414.469	15506
414.546	1891
414.623	1407
414.699	1824
414.776	2128
414.853	1640
414.929	1702
415.006	1122
415.082	1741
415.159	2131
415.236	1188
415.312	2530
415.389	3681
415.465	5215
415.542	2771
415.618	1553
415.695	3757
415.771	2653
415.848	1738
415.924	1414
416.000	1391
416.077	1487
416.153	708
416.230	-307
416.306	867
416.383	1403
416.459	1406
416.535	582
416.612	701
416.688	1327
416.764	918
416.841	910
416.917	1573
416.993	1434
417.069	1771
417.146	2868
417.222	6516
417.298	3899
417.374	1379
417.451	1685
417.527	2680
417.603	2682
417.679	1823
417.755	2066
417.831	379
417.908	459
417.984	749
418.060	534
418.136	4418
418.212	5984
418.288	2285
418.364	1410
418.440	1007
418.516	3294
418.592	3133
418.668	6785
418.744	11032
418.820	9022
418.896	2111
418.972	1087
419.048	1252
419.124	4604
419.200	3844
419.276	2022
419.352	429
419.428	879
419.504	298
419.579	2475
419.655	1922
419.731	1878
419.807	6384
419.883	12728
419.959	9340
420.034	3353
420.110	3800
420.186	21872
420.262	21310
420.337	4047
420.413	2439
420.489	1762
420.565	1787
420.640	1334
420.716	1561
420.792	670
420.867	2474
420.943	1815
421.019	3934
421.094	3192
421.170	1933
421.245	1407
421.321	2456
421.397	2125
421.472	5556
421.548	16235
421.623	13881
421.699	5158
421.774	4293
421.850	4003
421.925	6116
422.001	6142
422.076	5038
422.152	5871
422.227	9659
422.302	13258
422.378	16716
422.453	29296
422.529	62645
422.604	160529
422.679	242049
422.755	197489
422.830	90503
422.905	37428
422.981	20025
423.056	12261
423.131	9826
423.207	6892
423.282	5651
423.357	10185
423.432	8087
423.508	6305
423.583	10931
423.658	10382
423.733	4138
423.808	3858
423.883	5124
423.959	3371
424.034	2956
424.109	2748
424.184	1720
424.259	2386
424.334	1836
424.409	865
424.484	1905
424.559	2230
424.634	1487
424.709	1995
424.784	3763
424.859	2770
424.934	2901
425.009	14270
425.084	28010
425.159	11319
425.234	2881
425.309	1540
425.384	6584
425.459	13572
425.534	5363
425.609	1488
425.683	1443
425.758	1261
425.833	1342
425.908	3289
425.983	6757
426.058	27518
426.132	14762
426.207	2403
426.282	2777
426.357	2593
426.431	1352
426.506	1402
426.581	933
426.655	1726
426.730	1023
426.805	1017
426.879	1566
426.954	2137
427.029	3376
427.103	19518
427.178	57492
427.253	30061
427.327	4538
427.402	3709
427.476	12731
427.551	8667
427.625	2775
427.700	2603
427.774	750
427.849	1703
427.923	544
427.998	1202
428.072	720
428.147	4118
428.221	15873
428.296	54399
428.370	35162
428.444	5045
428.519	2735
428.593	6271
428.667	5948
428.742	7225
428.816	8168
428.890	28456
428.965	59831
429.039	22596
429.113	8611
429.188	4096
429.262	1919
429.336	2753
429.410	11910
429.485	9727
429.559	6580
429.633	5609
429.707	2126
429.781	5147
429.855	29824
429.930	57378
430.004	26637
430.078	31693
430.152	33977
430.226	66360
430.300	82676
430.374	16005
430.448	4816
430.522	9383
430.596	32005
430.670	24623
430.744	52458
430.818	94258
430.892	24484
430.966	4449
431.040	2247
431.114	1031
431.188	332
431.262	780
431.336	458
431.410	3464
431.484	8874
431.557	9003
431.631	1531
431.705	1880
431.779	8322
431.853	45266
431.927	39260
432.000	5693
432.074	2307
432.148	1406
432.222	729
432.295	1284
432.369	1234
432.443	3008
432.516	17374
432.590	56206
432.664	26882
432.737	3048
432.811	934
432.885	748
432.958	976
433.032	777
433.106	539
433.179	938
433.253	348
433.326	863
433.400	662
433.473	1150
433.547	-11
433.620	1692
433.694	2012
433.767	2849
433.841	707
433.914	976
433.988	1229
434.061	814
434.134	1071
434.208	685
434.281	465
434.355	-309
434.428	395
434.501	887
434.575	267
434.648	1228
434.721	1132
434.795	261
434.868	364
434.941	-133
435.014	441
435.088	423
435.161	1599
435.234	1343
435.307	3423
435.381	1687
435.454	634
435.527	1759
435.600	1631
435.673	2034
435.746	814
435.819	1235
435.892	558
435.966	759
436.039	681
436.112	2063
436.185	313
436.258	416
436.331	-702
436.404	255
436.477	47
436.550	482
436.623	613
436.696	104
436.769	843
436.842	1089
436.915	173
436.987	1467
437.060	260
437.133	331
437.206	629
437.279	909
437.352	-410
437.425	899
437.498	747
437.570	3166
437.643	3471
437.716	1106
437.789	843
437.861	1568
437.934	8242
438.007	5191
438.080	512
438.152	1255
438.225	2919
438.298	21866
438.370	75126
438.443	39439
438.516	10418
438.588	1921
438.661	506
438.734	1269
438.806	483
438.879	1800
438.951	1912
439.024	4353
439.096	2843
439.169	805
439.241	777
439.314	152
439.386	792
439.459	2474
439.531	3009
439.604	2159
439.676	929
439.749	588
439.821	-51
439.893	825
439.966	438
440.038	689
440.110	1191
440.183	394
440.255	1188
440.327	2182
440.400	8873
440.472	45847
440.544	40360
440.617	6047
440.689	3510
440.761	3388
440.833	6857
440.905	5330
440.978	1336
441.050	336
441.122	650
441.194	238
441.266	838
441.338	766
441.411	2099
441.483	14079
441.555	26171
441.627	6963
441.699	2339
441.771	2119
441.843	236
441.915	362
441.987	528
442.059	246
442.131	543
442.203	2303
442.275	1922
442.347	2761
442.419	3889
442.491	17817
442.563	52733
442.635	29558
442.706	11137
442.778	9845
442.850	2591
442.922	1807
442.994	1902
443.066	2294
443.137	2336
443.209	2063
443.281	3407
443.353	6747
443.425	24292
443.496	94068
443.568	106818
443.640	43281
443.711	9838
443.783	3356
443.855	1391
443.926	1179
443.998	1049
444.070	1708
444.141	1501
444.213	3050
444.285	3927
444.356	2659
444.428	2004
444.499	701
444.571	238
444.642	102
444.714	1140
444.785	3452
444.857	3022
444.928	5220
445.000	4466
445.071	3664
445.143	5432
445.214	4510
445.285	6493
445.357	18049
445.428	60353
445.500	157860
445.571	110322
445.642	55244
445.714	19827
445.785	13830
445.856	4744
445.928	4921
445.999	3565
446.070	3623
446.141	2432
446.213	4423
446.284	1980
446.355	1563
446.426	1105
446.497	911
446.569	1917
446.640	3409
446.711	3155
446.782	823
446.853	454
446.924	1222
446.995	1458
447.066	442
447.138	2110
447.209	1394
447.280	-628
447.351	967
447.422	171
447.493	1223
447.564	1576
447.635	2388
447.706	1244
447.777	1085
447.847	698
447.918	310
447.989	1061
448.060	1020
448.131	3589
448.202	4403
448.273	2933
448.344	1787
448.414	586
448.485	1094
448.556	950
448.627	-459
448.698	881
448.768	771
448.839	-49
448.910	2430
448.981	2382
449.051	906
449.122	620
449.193	580
449.263	596
449.334	878
449.405	1445
449.475	4683
449.546	4075
449.616	2563
449.687	3144
449.758	1091
449.828	414
449.899	1881
449.969	442
450.040	1238
450.110	790
450.181	1384
450.251	176
450.322	930
450.392	725
450.463	288
450.533	-104
450.604	796
450.674	769
450.744	1383
450.815	85
450.885	723
450.955	416
451.026	658
451.096	72
451.166	443
451.237	1434
451.307	7047
451.377	3272
451.447	494
451.518	902
451.588	427
451.658	394
451.728	1525
451.799	5939
451.869	9071
451.939	2376
452.009	545
452.079	277
452.149	710
452.219	742
452.289	7204
452.360	6822
452.430	2349
452.500	1024
452.570	2042
452.640	2602
452.710	5928
452.780	10885
452.850	9568
452.920	7882
452.990	3621
453.060	1258
453.129	1798
453.199	2285
453.269	7544
453.339	21775
453.409	36054
453.479	28064
453.549	44351
453.619	48015
453.688	23453
453.758	3754
453.828	2016
453.898	325
453.968	662
454.037	727
454.087	911
454.107	986
454.168	896
454.177	877
454.247	908
454.249	878
454.316	-44
454.330	249
454.386	1400
454.411	2025
454.456	2999
454.492	4648
454.525	6092
454.574	3983
454.595	3083
454.655	1085
454.665	776
454.734	1115
454.736	1163
454.804	2837
454.817	3459
454.873	5892
454.898	6926
454.943	8736
454.979	5964
455.013	3451
455.060	2279
455.082	1790
455.141	1688
455.152	1706
455.221	4376
455.222	4483
455.291	12070
455.303	12191
455.360	11885
455.384	16996
455.430	24836
455.465	20674
455.499	16919
455.546	10975
455.569	8358
455.627	6458
455.638	6115
455.707	1435
455.708	1434
455.777	1059
455.789	1016
455.846	662
455.869	701
455.916	775
455.950	900
455.985	1044
456.031	459
456.054	189
456.112	696
456.124	767
456.193	535
456.193	531
456.262	115
456.274	346
456.332	1481
456.355	1416
456.401	1158
456.436	1080
456.470	955
456.516	512
456.540	376
456.597	882
456.609	944
456.678	321
456.678	316
456.747	271
456.759	267
456.817	115
456.840	120
456.886	130
456.920	206
456.955	273
457.001	334
457.024	430
457.082	593
457.093	621
457.162	806
457.163	817
457.232	1607
457.243	1540
457.301	931
457.324	622
457.370	239
457.405	651
457.439	1051
457.485	524
457.508	287
457.566	648
457.577	703
457.646	802
457.647	814
457.715	2139
457.727	2223
457.784	2867
457.808	3728
457.853	5012
457.889	6482
457.922	7146
457.969	5467
457.991	5340
458.050	4573
458.060	4465
458.129	7630
458.130	7745
458.198	10841
458.211	10293
458.267	7477
458.292	5474
458.336	3033
458.372	2768
458.405	2921
458.453	3323
458.474	3828
458.533	6378
458.543	6673
458.611	13082
458.614	13264
458.680	13280
458.694	11421
458.749	6179
458.775	4498
458.818	2223
458.855	1764
458.887	1425
458.936	1457
458.955	1439
459.016	781
459.024	760
459.093	1579
459.097	1577
459.162	816
459.177	848
459.230	1516
459.257	1772
459.299	1812
459.338	1804
459.368	1876
459.418	1681
459.437	1543
459.499	1880
459.505	1914
459.574	1393
459.579	1368
459.643	1105
459.659	1084
459.711	1269
459.740	1337
459.780	1443
459.820	1539
459.849	1462
459.900	1619
459.917	1684
459.981	1940
459.986	1955
460.054	2156
460.061	2121
460.123	1835
460.141	1914
460.191	2721
460.222	3001
460.260	3060
460.302	3707
460.328	3951
460.382	3892
460.397	3795
460.462	2934
460.465	2955
460.534	3846
460.543	4019
460.602	11825
460.623	14924
460.671	23690
460.703	34380
460.739	37211
460.783	38808
460.808	36570
460.864	11214
460.876	8138
460.944	2307
460.945	2254
461.013	2046
461.024	2014
461.081	1396
461.104	1508
461.150	1873
461.184	1649
461.218	1336
461.264	1390
461.286	1488
461.345	1275
461.355	1267
461.423	1280
461.425	1294
461.491	1281
461.505	1331
461.559	2658
461.585	3013
461.628	4141
461.665	5572
461.696	6461
461.745	8947
461.764	8324
461.825	3681
461.832	3580
461.901	1572
461.905	1594
461.969	1285
461.985	1012
462.037	1119
462.065	1543
462.105	1519
462.145	1280
462.173	1954
462.225	2998
462.241	3267
462.305	4880
462.310	4784
462.378	4173
462.385	3810
462.446	2000
462.465	1769
462.514	1450
462.545	1207
462.582	1224
462.625	1536
462.650	1504
462.705	1246
462.718	1260
462.785	1177
462.786	1185
462.854	1825
462.865	1949
462.922	2718
462.945	3145
462.990	2884
463.025	2202
463.058	1814
463.104	1352
463.126	1317
463.184	1477
463.194	1519
463.262	1480
463.264	1512
463.330	2145
463.344	2074
463.398	1758
463.424	1749
463.466	1754
463.504	1751
463.533	1882
463.583	1857
463.601	1811
463.663	1864
463.669	1896
463.737	2202
463.743	2252
463.805	3367
463.823	3679
463.873	5703
463.903	7005
463.940	7641
463.982	8652
464.008	7297
464.062	3365
464.076	3154
464.142	1797
464.144	1775
464.211	1579
464.221	1598
464.279	1799
464.301	1827
464.347	2308
464.381	2658
464.414	2342
464.461	1923
464.482	2230
464.540	3139
464.550	3086
464.617	2604
464.620	2589
464.685	2989
464.699	3027
464.753	3756
464.779	4199
464.820	4575
464.859	4824
464.888	4445
464.938	3871
464.956	3960
465.018	4185
465.023	4155
465.091	3585
465.098	3542
465.158	2905
465.177	2702
465.226	2950
465.257	3054
465.293	3303
465.336	3631
465.361	3808
465.416	4211
465.428	4354
465.495	5263
465.496	5280
465.563	6983
465.575	7343
465.631	9490
465.654	10554
465.698	7869
465.734	5125
465.765	4757
465.813	4074
465.833	3940
465.893	3987
465.900	3910
465.968	3236
465.972	3176
466.035	3000
466.052	2993
466.102	3217
466.131	3316
466.170	3301
466.210	3261
466.237	3479
466.290	3971
466.304	3997
466.369	4011
466.372	4038
466.439	4786
466.449	4891
466.506	4619
466.528	4512
466.573	5582
466.607	6362
466.641	8565
466.687	11635
466.708	12958
466.766	16770
466.775	15834
466.842	8584
466.845	8228
466.909	6015
466.925	5526
466.977	5011
467.004	4775
467.044	4944
467.083	5126
467.111	5703
467.163	6788
467.178	6967
467.242	7682
467.245	7639
467.312	6675
467.321	6545
467.379	5703
467.400	5391
467.446	5970
467.480	6385
467.559	4708
467.638	4714
467.717	5077
467.796	5986
467.875	6352
467.955	5513
468.034	6828
468.113	12213
468.192	17979
468.271	8042
468.350	4595
468.429	4999
468.508	4891
468.588	3865
468.667	3992
468.746	5425
468.825	4039
468.904	4037
468.983	4744
469.062	5950
469.141	7152
469.220	3452
469.299	4641
469.378	4111
469.456	6465
469.535	5491
469.614	4711
469.693	4141
469.772	4981
469.851	6266
469.930	5929
470.009	3701
470.088	4525
470.166	4621
470.245	6920
470.324	9597
470.403	6914
470.482	4607
470.560	4575
470.639	4382
470.718	5562
470.797	4134
470.875	4214
470.954	5219
471.033	6040
471.111	3290
471.190	2884
471.269	3137
471.347	3355
471.426	3095
471.505	4397
471.583	5478
471.662	4531
471.740	4535
471.819	4018
471.898	4487
471.976	3776
472.055	3797
472.133	3988
472.212	5092
472.290	5925
472.369	2843
472.447	3624
472.526	2644
472.604	3835
472.683	3430
472.761	3423
472.839	2957
472.918	3364
472.996	3066
473.075	3356
473.153	3982
473.231	2773
473.310	3428
473.388	4875
473.466	2325
473.545	4039
473.623	6501
473.701	6522
473.780	3948
473.858	2344
473.936	4109
474.014	2697
474.093	4298
474.171	5479
474.249	6432
474.327	4627
474.405	2787
474.484	2856
474.562	2895
474.640	2937
474.718	2910
474.796	3468
474.874	3397
474.952	3282
475.030	2939
475.108	3260
475.187	2693
475.265	4466
475.343	4359
475.421	5406
475.499	3738
475.577	4200
475.655	4236
475.733	6256
475.811	11165
475.889	9937
475.966	8416
476.044	2428
476.122	2423
476.200	3577
476.278	3203
476.356	2609
476.434	3487
476.512	3214
476.590	3449
476.667	4407
476.745	2602
476.823	2480
476.901	2338
476.979	2272
477.056	2212
477.134	2866
477.212	4015
477.290	3700
477.367	2699
477.445	2257
477.523	2122
477.601	2282
477.678	3125
477.756	3488
477.834	3077
477.911	2808
477.989	2840
478.066	2447
478.144	2555
478.222	3424
478.299	2761
478.377	4195
478.454	2817
478.532	2338
478.609	2420
478.687	2831
478.764	2019
478.842	2423
478.919	2188
478.997	2595
479.074	2164
479.152	2727
479.229	3373
479.307	2810
479.384	1491
479.461	1901
479.539	1692
479.616	2526
479.694	2137
479.771	2211
479.848	2356
479.926	3095
480.003	4679
480.080	2643
480.157	2278
480.235	2096
480.312	1884
480.389	2409
480.467	2996
480.544	4412
480.621	2238
480.698	2055
480.775	2276
480.853	2710
480.930	2187
481.007	2383
481.084	2539
481.161	3287
481.238	4501
481.315	2008
481.392	915
481.470	982
481.547	2097
481.624	1585
481.701	1553
481.778	1266
481.855	1740
481.932	3256
482.009	4982
482.086	4586
482.163	2449
482.240	2269
482.317	4024
482.393	4292
482.470	2757
482.547	1489
482.624	1425
482.701	2250
482.778	1958
482.855	1513
482.932	1681
483.009	1528
483.085	1131
483.162	3206
483.239	3200
483.316	913
483.393	2236
483.469	1748
483.546	1858
483.623	2388
483.699	1049
483.776	1933
483.853	2416
483.930	2674
484.006	7843
484.083	16350
484.160	11853
484.236	16954
484.313	14194
484.389	9770
484.466	8430
484.543	7805
484.619	7678
484.696	8567
484.772	7835
484.849	8414
484.925	7357
485.002	7265
485.078	7977
485.155	7755
485.231	7334
485.308	7761
485.384	7150
485.461	7946
485.537	11735
485.614	14048
485.690	8053
485.766	6933
485.843	6692
485.919	10890
485.995	12041
486.072	6880
486.148	5679
486.224	6368
486.301	6585
486.377	7626
486.453	6935
486.530	7169
486.606	10583
486.682	11323
486.758	11782
486.835	12791
486.911	10204
486.987	16003
487.063	19016
487.139	27077
487.215	20141
487.292	11035
487.368	7772
487.444	8547
487.520	9375
487.596	9398
487.672	11233
487.748	23499
487.824	38658
487.900	19012
487.976	8608
488.052	8116
488.128	9882
488.204	7321
488.280	7968
488.356	6943
488.432	11778
488.508	18995
488.584	8376
488.660	6498
488.736	6788
488.812	6558
488.888	8135
488.964	10414
489.039	22732
489.115	39649
489.191	26917
489.267	7817
489.343	5917
489.418	5829
489.494	5221
489.570	4210
489.646	5242
489.722	5743
489.797	5551
489.873	6816
489.949	13159
490.024	13600
490.100	4462
490.176	4898
490.251	6100
490.327	9025
490.403	5184
490.478	4121
490.554	3396
490.629	4967
490.705	3847
490.781	5527
490.856	4204
490.932	6294
491.007	5085
491.083	5705
491.158	4213
491.234	5336
491.309	9412
491.385	11489
491.460	5380
491.536	5195
491.611	5047
491.686	5236
491.762	7445
491.837	14180
491.913	25935
491.988	33680
492.063	52101
492.139	14588
492.214	6924
492.289	4844
492.365	3975
492.440	5104
492.515	4034
492.590	4462
492.666	3383
492.741	4362
492.816	6778
492.891	4112
492.967	4318
493.042	3793
493.117	4103
493.192	5160
493.267	9043
493.342	34955
493.418	62157
493.493	12786
493.568	3744
493.643	2852
493.718	4778
493.793	5756
493.868	7783
493.943	5010
494.018	3806
494.093	2293
494.168	3595
494.243	2806
494.318	2770
494.393	2429
494.468	3221
494.543	2490
494.618	3347
494.693	3180
494.768	2132
494.842	3033
494.917	2457
494.992	2249
495.067	2348
495.142	3462
495.217	2956
495.292	2266
495.366	3891
495.441	4789
495.516	5820
495.591	7857
495.665	28353
495.740	80849
495.815	44236
495.890	6343
495.964	2660
496.039	4209
496.114	3174
496.188	5263
496.263	5495
496.338	3402
496.412	3297
496.487	4957
496.561	5630
496.636	5942
496.710	4724
496.785	4356
496.860	4970
496.934	4437
497.009	4088
497.083	4922
497.158	4567
497.232	5663
497.307	6333
497.381	6196
497.455	6680
497.530	8457
497.604	7666
497.679	7574
497.753	11044
497.827	14514
497.902	15661
497.976	17099
498.050	27717
498.125	97731
498.199	131381
498.273	29462
498.348	19866
498.422	16881
498.496	14587
498.570	13620
498.645	8865
498.719	9039
498.793	10183
498.867	11064
498.941	14590
499.016	33514
499.090	106256
499.164	56189
499.238	6049
499.312	5029
499.386	5424
499.460	6197
499.534	4546
499.609	5682
499.683	7146
499.757	7943
499.831	12507
499.905	59684
499.979	76966
500.053	10841
500.127	9972
500.201	8997
500.275	5269
500.349	4925
500.422	5120
500.496	7094
500.570	15294
500.644	34450
500.718	69755
500.792	22962
500.866	4490
500.940	5182
501.013	4008
501.087	3099
501.161	7674
501.235	10567
501.309	16410
501.382	48456
501.456	58386
501.530	11943
501.603	15554
501.677	8907
501.751	2283
501.825	4554
501.898	5869
501.972	19526
502.046	16978
502.119	3476
502.193	8458
502.266	22061
502.340	13872
502.413	8461
502.487	17941
502.561	11830
502.634	3267
502.708	3400
502.781	1877
502.855	2812
502.928	208
503.002	1469
503.075	1800
503.149	2368
503.222	1723
503.295	1658
503.369	2499
503.442	3525
503.516	11955
503.589	36754
503.662	28611
503.736	8624
503.809	14999
503.882	16006
503.956	19163
504.029	23248
504.102	14961
504.175	20509
504.249	8387
504.322	4636
504.395	2804
504.468	2510
504.542	1771
504.615	671
504.688	1983
504.761	679
504.834	2021
504.907	2771
504.980	6800
505.053	3355
505.127	1458
505.200	5236
505.273	2603
505.346	2424
505.419	664
505.492	1348
505.565	140
505.638	1008
505.711	1366
505.784	547
505.857	430
505.930	1928
506.003	134
506.076	2262
506.149	1004
506.221	1666
506.294	3442
506.367	5793
506.440	25781
506.513	21087
506.586	3876
506.659	1827
506.731	1412
506.804	1815
506.877	3387
506.950	3049
507.022	1327
507.095	1338
507.168	2437
507.241	2149
507.313	507
507.386	972
507.459	4405
507.531	2299
507.604	1084
507.677	1645
507.749	-15
507.822	2333
507.894	5757
507.967	8172
508.040	3166
508.112	3344
508.185	3146
508.257	2317
508.330	4160
508.402	2402
508.475	2521
508.547	2782
508.620	1619
508.692	3798
508.765	2833
508.837	761
508.909	2134
508.982	1886
509.054	2957
509.127	1513
509.199	1795
509.271	2143
509.344	641
509.416	1018
509.488	1417
509.560	2188
509.633	1872
509.705	3296
509.777	2261
509.849	4480
509.922	2537
509.994	2679
510.066	2137
510.138	1101
510.210	6118
510.283	5258
510.355	4800
510.427	3829
510.499	3871
510.571	3022
510.643	3043
510.715	5386
510.787	4944
510.859	3577
510.931	3979
511.003	5314
511.076	5491
511.148	3216
511.219	2601
511.291	4316
511.363	4848
511.435	3113
511.507	2058
511.579	3367
511.651	3068
511.723	2647
511.795	2038
511.867	2090
511.939	2834
512.010	4890
512.082	4386
512.154	2565
512.226	3139
512.298	4572
512.369	7427
512.441	6201
512.513	5606
512.585	3361
512.656	3911
512.728	4032
512.800	3360
512.871	3460
512.943	3273
513.015	2533
513.086	3133
513.158	3118
513.230	2820
513.301	4194
513.373	8912
513.444	3541
513.516	3066
513.588	3017
513.659	2987
513.731	4840
513.802	3236
513.874	7501
513.945	16235
514.016	7663
514.088	2359
514.159	3547
514.231	3945
514.302	7063
514.374	4512
514.445	3188
514.516	6870
514.588	6496
514.659	3606
514.730	6418
514.802	6638
514.873	4892
514.944	7479
515.016	4782
515.087	4951
515.158	5724
515.229	8103
515.301	4999
515.372	8970
515.443	6495
515.514	3914
515.585	2920
515.656	3439
515.728	3319
515.799	2637
515.870	2879
515.941	3280
516.012	2668
516.083	4848
516.154	4245
516.225	7227
516.296	7747
516.367	5959
516.438	5901
516.509	8080
516.580	11139
516.651	29934
516.722	126162
516.793	84116
516.864	13831
516.935	12049
517.006	12827
517.077	16746
517.148	35383
517.219	125745
517.289	268596
517.360	67264
517.431	20513
517.502	5486
517.573	4528
517.643	4430
517.714	5206
517.785	6032
517.856	5750
517.926	8031
517.997	9861
518.068	12730
518.138	18461
518.209	24664
518.280	79349
518.350	377180
518.421	205780
518.492	19932
518.562	8486
518.633	6310
518.703	5463
518.774	9341
518.845	19465
518.915	23278
518.986	8867
519.056	6283
519.127	12199
519.197	17582
519.268	33119
519.338	25523
519.408	6809
519.479	7832
519.549	6258
519.620	4729
519.690	3463
519.760	2758
519.831	2760
519.901	2788
519.971	3043
520.042	2442
520.112	2623
520.182	4041
520.253	5498
520.323	2128
520.393	3248
520.463	8390
520.534	3707
520.604	11145
520.674	6054
520.744	3312
520.814	9693
520.885	13591
520.955	7860
521.025	33948
521.095	19566
521.165	3029
521.235	2864
521.305	1979
521.375	2182
521.445	2556
521.515	4138
521.585	4957
521.655	3904
521.725	3771
521.795	3103
521.865	146
521.935	4086
522.005	3049
522.075	1326
522.145	2570
522.215	2647
522.285	3412
522.355	5069
522.424	9498
522.494	7971
522.564	5298
522.634	9046
522.704	35184
522.774	19149
522.843	4558
522.913	2688
522.983	3157
523.053	2694
523.122	2370
523.192	2737
523.262	16186
523.331	23201
523.401	4215
523.471	1676
523.540	2301
523.610	273
523.680	1863
523.749	1055
523.819	2363
523.888	2738
523.958	1330
524.027	1760
524.097	1860
524.166	1937
524.236	1034
524.305	3750
524.375	2107
524.444	1711
524.514	2603
524.583	879
524.653	489
524.722	3133
524.791	1107
524.861	1538
524.930	455
524.999	1203
525.069	3369
525.138	1929
525.207	926
525.277	1849
525.346	1805
525.415	1396
525.484	2150
525.554	1260
525.623	2651
525.692	2574
525.761	1859
525.830	2519
525.900	2615
525.969	3912
526.038	6462
526.107	11583
526.176	40237
526.245	42525
526.314	15731
526.383	20724
526.452	32063
526.522	46879
526.591	67746
526.660	25295
526.729	13136
526.797	11759
526.867	20801
526.935	97613
527.004	158928
527.073	104862
527.142	11056
527.211	4407
527.280	3260
527.349	3865
527.418	1146
527.487	1738
527.555	708
527.624	539
527.693	-234
527.762	1682
527.831	9
527.899	1052
527.968	169
528.037	-31
528.106	2103
528.174	5445
528.243	3564
528.312	4934
528.380	8139
528.449	1138
528.518	1250
528.586	-470
528.655	1514
528.723	1182
528.792	701
528.861	612
528.929	-238
528.998	1831
529.066	540
529.135	1576
529.203	29
529.272	121
529.340	2121
529.409	2753
529.477	922
529.545	1011
529.614	3724
529.682	1267
529.751	2154
529.819	3554
529.887	2057
529.956	1221
530.024	1599
530.092	1270
530.161	2835
530.229	4285
530.297	2184
530.365	2739
530.434	2045
530.502	2143
530.570	1207
530.638	-57
530.707	3243
530.775	2774
530.843	754
530.911	1117
530.979	1626
531.047	1339
531.115	2468
531.183	1724
531.252	1888
531.320	1295
531.388	913
531.456	1802
531.524	368
531.592	2370
531.660	2957
531.728	957
531.796	911
531.864	1409
531.932	2303
532.000	848
532.067	1931
532.135	2987
532.203	3861
532.271	2968
532.339	5500
532.407	16303
532.475	11791
532.542	5372
532.610	5102
532.678	5625
532.746	21574
532.814	78226
532.881	27378
532.949	4641
533.017	3536
533.084	2694
533.152	2190
533.220	2708
533.287	2190
533.355	2711
533.423	1403
533.490	2134
533.558	1671
533.625	2553
533.693	2440
533.761	2218
533.828	2800
533.896	1825
533.963	5394
534.031	7039
534.098	9388
534.166	5707
534.233	2195
534.300	2955
534.368	3118
534.435	2118
534.503	2781
534.570	3595
534.637	2234
534.705	2041
534.772	3371
534.840	2604
534.907	15958
534.974	31011
535.041	5547
535.109	3057
535.176	1639
535.243	2560
535.310	2330
535.378	1384
535.445	1205
535.512	1610
535.579	1768
535.646	1478
535.714	1359
535.781	2784
535.848	2460
535.915	3496
535.982	2067
536.049	2202
536.116	4315
536.183	1921
536.250	2195
536.317	1625
536.384	2192
536.451	5235
536.518	5254
536.585	2036
536.652	3855
536.719	6582
536.786	4978
536.853	2906
536.920	5246
536.987	9127
537.053	7615
537.120	30068
537.187	40028
537.254	3971
537.321	1559
537.388	2736
537.454	1028
537.521	1069
537.588	936
537.654	2117
537.721	1064
537.788	2751
537.855	1576
537.921	1325
537.988	1822
538.055	2337
538.121	1443
538.188	1827
538.254	3147
538.321	9466
538.388	6575
538.454	1612
538.521	2192
538.587	1227
538.654	660
538.720	1395
538.787	1862
538.853	1347
538.920	2738
538.986	1781
539.053	1213
539.119	2092
539.185	1292
539.252	3052
539.318	3912
539.385	4768
539.451	2018
539.517	2898
539.583	2899
539.650	5968
539.716	25637
539.782	9866
539.849	2199
539.915	2330
539.981	1493
540.047	2449
540.114	2557
540.180	2860
540.246	1994
540.312	3030
540.378	7798
540.444	11906
540.510	7387
540.576	28569
540.643	12202
540.709	1524
540.775	989
540.841	1941
540.907	2707
540.973	5249
541.039	4676
541.105	5191
541.171	2648
541.237	1012
541.303	2936
541.369	3614
541.435	2870
541.500	7557
541.566	4702
541.632	1510
541.698	1070
541.764	2096
541.830	1009
541.896	945
541.961	2026
542.027	1116
542.093	2275
542.159	1570
542.224	1755
542.290	3242
542.356	6406
542.421	12069
542.487	5766
542.553	2197
542.618	2278
542.684	1535
542.750	1720
542.815	3199
542.881	4501
542.947	20966
543.012	24143
543.078	2743
543.143	1482
543.209	2559
543.274	1714
543.340	2908
543.405	6811
543.471	15462
543.536	3831
543.602	2423
543.667	122
543.732	2664
543.798	1059
543.863	2537
543.928	901
543.994	-70
544.059	1770
544.124	2160
544.190	1404
544.255	1880
544.320	1269
544.386	1427
544.451	4179
544.516	5135
544.581	4191
544.646	11165
544.712	28132
544.777	7055
544.842	2175
544.907	2557
544.972	2328
545.037	1479
545.102	2637
545.168	1868
545.233	2683
545.298	2938
545.363	3056
545.428	4398
545.493	8222
545.558	18676
545.623	10697
545.688	2003
545.753	3402
545.818	2468
545.883	2870
545.947	1443
546.012	3153
546.077	1811
546.142	2570
546.207	2499
546.272	4107
546.337	4660
546.401	3864
546.466	3387
546.531	2007
546.596	3441
546.661	2797
546.725	4102
546.790	2177
546.855	3594
546.919	1949
546.984	3281
547.049	2378
547.113	3532
547.178	2909
547.243	4630
547.307	5762
547.372	5230
547.436	6014
547.501	5200
547.565	5950
547.630	6461
547.695	6187
547.759	5863
547.823	5412
547.888	5799
547.952	5112
548.017	5600
548.081	6607
548.146	8014
548.210	6941
548.274	5848
548.339	5878
548.403	6407
548.468	4669
548.532	4744
548.596	5671
548.660	4509
548.725	6529
548.789	6854
548.853	7657
548.917	6655
548.982	5939
549.046	6986
549.110	4564
549.174	4024
549.238	5020
549.303	5115
549.367	6828
549.431	5469
549.495	5963
549.559	5123
549.623	6464
549.687	7148
549.751	9185
549.815	8257
549.879	8570
549.943	6465
550.007	8397
550.071	7659
550.135	9208
550.199	8196
550.263	7427
550.327	7267
550.391	7406
550.455	7928
550.519	7186
550.582	9146
550.646	9879
550.710	11276
550.774	9567
550.838	9646
550.901	9103
550.965	10856
551.029	9610
551.093	11470
551.156	13851
551.220	18030
551.284	23385
551.347	14991
551.411	16439
551.475	20168
551.538	11716
551.602	9620
551.666	8405
551.729	7434
551.793	8755
551.856	9220
551.920	7870
551.983	9041
552.047	8086
552.110	8191
552.174	8116
552.237	7498
552.301	7494
552.364	7490
552.428	6991
552.491	6668
552.554	8090
552.618	7245
552.681	8496
552.745	8953
552.808	11742
552.871	16834
552.934	11060
552.998	7906
553.061	8356
553.124	7821
553.187	7702
553.251	8122
553.314	9807
553.377	9349
553.440	12509
553.503	27486
553.567	60126
553.630	18271
553.693	8802
553.756	7937
553.819	8450
553.882	7449
553.945	7871
554.008	7585
554.071	6917
554.134	7606
554.197	6926
554.260	7745
554.323	8952
554.386	8059
554.449	7439
554.512	8490
554.575	6753
554.638	7669
554.701	6931
554.764	7130
554.827	6854
554.889	6222
554.952	5684
555.015	5791
555.078	5341
555.141	6282
555.203	5580
555.266	5784
555.329	6707
555.391	5944
555.454	5545
555.517	6790
555.580	4708
555.642	5121
555.705	4905
555.768	4910
555.830	5791
555.893	4295
555.955	5245
556.018	5343
556.080	4640
556.143	5074
556.206	5244
556.268	5108
556.330	5405
556.393	5242
556.455	4838
556.518	5953
556.580	7802
556.643	6032
556.705	5052
556.767	3241
556.830	4880
556.892	5030
556.955	7801
557.017	7267
557.079	4586
557.142	5359
557.204	4491
557.266	10223
557.328	10626
557.391	4967
557.453	3884
557.515	3920
557.577	4742
557.639	6225
557.701	4224
557.764	3539
557.826	4073
557.888	5483
557.950	4791
558.012	5485
558.074	6556
558.136	12084
558.198	37023
558.260	21083
558.322	5617
558.384	5630
558.446	7769
558.508	9691
558.570	11861
558.632	17542
558.694	28964
558.756	28061
558.818	64810
558.880	208921
558.942	94692
559.003	41080
559.065	28561
559.127	10490
559.189	9423
559.251	9918
559.312	14515
559.374	30315
559.436	115414
559.498	86616
559.559	14055
559.621	9758
559.683	11882
559.744	15440
559.806	43483
559.868	94863
559.929	24694
559.991	10466
560.052	12308
560.114	33809
560.176	30549
560.237	18702
560.299	39286
560.360	13061
560.422	4353
560.483	4319
560.545	4058
560.606	3812
560.667	2868
560.729	2661
560.790	1755
560.852	3136
560.913	2427
560.974	3261
561.036	3927
561.097	2700
561.158	2412
561.220	4250
561.281	2995
561.342	3034
561.403	4464
561.465	5044
561.526	12640
561.587	22743
561.648	5710
561.709	3453
561.771	3314
561.832	2104
561.893	2544
561.954	3624
562.015	3440
562.076	2640
562.137	3120
562.198	3293
562.259	3423
562.320	2853
562.381	2728
562.442	5722
562.503	4636
562.564	4186
562.625	2988
562.686	3205
562.747	2729
562.808	3906
562.869	3107
562.930	3378
562.991	3163
563.051	3212
563.112	2592
563.173	3433
563.234	2766
563.294	2777
563.355	3079
563.416	4327
563.477	3271
563.537	3760
563.598	3206
563.659	2778
563.720	2868
563.780	3602
563.841	3156
563.901	3313
563.962	3139
564.023	2644
564.083	3302
564.144	4015
564.204	3477
564.265	3426
564.325	3878
564.386	6010
564.446	6775
564.507	2809
564.567	3861
564.628	4072
564.688	3531
564.749	3354
564.809	3767
564.869	4686
564.930	3896
564.990	4438
565.050	3721
565.111	3859
565.171	3781
565.231	3644
565.292	5650
565.352	3163
565.412	4110
565.472	4033
565.532	4252
565.593	4227
565.653	4158
565.713	3482
565.773	5672
565.833	5538
565.893	8004
565.953	5160
566.013	4657
566.074	5976
566.134	5520
566.194	8872
566.254	9981
566.314	7872
566.374	6056
566.434	6526
566.494	6244
566.554	7188
566.614	6912
566.673	6785
566.733	8163
566.793	9130
566.853	8648
566.913	10002
566.973	9330
567.033	9663
567.092	9948
567.152	9677
567.212	10217
567.272	10283
567.331	10790
567.391	11513
567.451	12179
567.511	13210
567.570	13486
567.630	10957
567.690	10677
567.749	11118
567.809	11483
567.868	14801
567.928	16299
567.988	18738
568.047	22974
568.107	27919
568.166	36196
568.226	52308
568.285	73283
568.345	72792
568.404	63485
568.464	56322
568.523	51417
568.582	51112
568.642	54576
568.701	64517
568.761	83997
568.820	120263
568.879	132762
568.939	110777
568.998	88460
569.057	70477
569.116	55999
569.176	45579
569.235	38766
569.294	32754
569.353	27312
569.413	25067
569.472	21243
569.531	18595
569.590	16421
569.649	16101
569.708	13768
569.767	14592
569.827	12672
569.886	11980
569.945	10559
570.004	10253
570.063	9114
570.122	9896
570.181	9588
570.240	8409
570.299	8614
570.358	8938
570.417	7449
570.475	7350
570.534	7384
570.593	7936
570.652	7240
570.711	6560
570.770	6436
570.829	7390
570.887	6381
570.946	7945
571.005	6668
571.064	6082
571.122	6964
571.181	6997
571.240	6384
571.299	5054
571.357	6185
571.416	5340
571.475	6298
571.533	6802
571.592	4389
571.650	5891
571.709	5705
571.768	5503
571.826	5369
571.885	5542
571.943	4925
572.002	5785
572.060	4917
572.119	4767
572.177	4980
572.236	5036
572.294	3777
572.352	4518
572.411	4486
572.469	4890
572.528	4371
572.586	5047
572.644	4643
572.703	5551
572.761	4447
572.819	3946
572.877	4364
572.936	4244
572.994	4492
573.052	4923
573.110	4445
573.169	4828
573.227	3975
573.285	5649
573.343	3946
573.401	4727
573.459	4728
573.517	4046
573.576	4251
573.634	4569
573.692	4187
573.750	5196
573.808	4448
573.866	4224
573.924	5172
573.982	5401
574.040	4029
574.098	4988
574.155	4178
574.213	4776
574.271	3961
574.329	4256
574.387	4524
574.445	3599
574.503	4327
574.560	3999
574.618	4121
574.676	4679
574.734	4280
574.792	4751
574.849	4243
574.907	4704
574.965	4318
575.022	3428
575.080	4764
575.138	4940
575.195	4387
575.253	4062
575.311	4020
575.368	4465
575.426	4036
575.483	4422
575.541	4170
575.598	4697
575.656	4673
575.713	4353
575.771	4514
575.828	5020
575.886	3909
575.943	4895
576.001	4184
576.058	4145
576.115	5539
576.173	5179
576.230	5618
576.287	5892
576.345	6599
576.402	4631
576.459	4708
576.517	5105
576.574	4867
576.631	5627
576.688	4783
576.746	5115
576.803	5174
576.860	5070
576.917	5156
576.974	5924
577.031	5134
577.089	4674
577.146	4609
577.203	5080
577.260	5901
577.317	5019
577.374	5899
577.431	6070
577.488	5268
577.545	5312
577.602	6323
577.659	5836
577.716	6221
577.773	6843
577.830	5709
577.886	5978
577.943	6057
578.000	6909
578.057	6122
578.114	6730
578.171	7344
578.227	9465
578.284	9675
578.341	9201
578.398	7810
578.454	7075
578.511	6814
578.568	7545
578.625	6840
578.681	6550
578.738	5890
578.794	6054
578.851	5760
578.908	6579
578.964	6452
579.021	7217
579.077	5444
579.134	5928
579.190	6685
579.247	6611
579.303	6151
579.360	5908
579.416	6628
579.473	5786
579.529	6086
579.586	6634
579.642	6852
579.698	7135
579.755	6982
579.811	6952
579.867	7854
579.924	7005
579.980	7164
580.036	9329
580.093	11127
580.149	13660
580.205	16835
580.261	14002
580.317	12016
580.374	11507
580.430	10581
580.486	9158
580.542	8804
580.598	8374
580.619	8254
580.654	8023
580.692	8302
580.710	8408
580.765	8475
580.767	8454
580.823	8355
580.838	8404
580.879	8464
580.911	9162
580.935	9625
580.984	8602
580.991	8438
581.047	9693
581.057	9630
581.103	9287
581.130	10059
581.159	10818
581.203	11644
581.215	11795
581.270	11505
581.276	11450
581.326	10681
581.349	10936
581.382	11241
581.422	10987
581.438	10839
581.494	10717
581.494	10743
581.550	10578
581.567	10881
581.606	11484
581.640	11231
581.661	11028
581.713	11482
581.717	11491
581.773	11103
581.786	11322
581.829	12098
581.859	12356
581.885	12418
581.932	13099
581.940	13214
581.996	13615
582.004	13627
582.052	13404
582.077	13692
582.107	14021
582.150	13788
582.163	13697
582.219	15274
582.223	15279
582.274	15020
582.296	15205
582.330	15432
582.368	15765
582.386	15946
582.441	16216
582.441	16195
582.497	16650
582.514	17167
582.552	18458
582.587	18810
582.608	18884
582.659	18519
582.663	18468
582.719	19604
582.732	19299
582.774	18339
582.805	19353
582.830	20363
582.877	21303
582.885	21423
582.941	23024
582.950	23112
582.996	23991
583.023	25341
583.052	26917
583.095	28994
583.107	29550
583.162	31112
583.168	31410
583.218	33156
583.240	33324
583.273	32911
583.313	31485
583.328	30831
583.384	30915
583.385	30832
583.439	29067
583.458	29112
583.494	29289
583.531	29006
583.549	29020
583.603	29491
583.605	29506
583.660	29333
583.676	29463
583.715	30225
583.748	30892
583.770	31275
583.820	31683
583.825	31781
583.881	32458
583.893	32707
583.936	33448
583.965	33496
583.991	33618
584.038	34879
584.046	35137
584.101	36136
584.110	36225
584.156	37057
584.183	37196
584.211	37386
584.255	38917
584.266	39419
584.321	40585
584.328	40710
584.376	42060
584.400	42824
584.431	43704
584.472	43485
584.486	43664
584.541	45376
584.545	45411
584.596	46765
584.617	47165
584.651	48026
584.689	49208
584.706	49969
584.761	51435
584.762	51365
584.816	52829
584.834	53408
584.871	54709
584.906	55285
584.926	55982
584.978	57734
584.980	57874
585.035	59175
585.051	59513
585.090	61546
585.123	62948
585.145	64041
585.195	65584
585.200	65857
585.254	68365
585.267	68896
585.309	71732
585.340	74005
585.364	76200
585.412	78940
585.419	79490
585.473	82529
585.484	83159
585.528	88253
585.556	91833
585.583	99533
585.628	115003
585.637	122572
585.692	176232
585.700	186187
585.747	243918
585.772	254351
585.801	213656
585.845	143965
585.856	134652
585.910	108904
585.917	105903
585.965	103915
585.989	102973
586.019	103738
586.061	105005
586.074	106148
586.128	108491
586.133	108474
586.183	111376
586.205	112020
586.237	113657
586.277	114767
586.292	115894
586.346	119638
586.349	119506
586.401	123708
586.421	124767
586.455	127229
586.493	129796
586.509	132370
586.564	139521
586.565	139296
586.618	150468
586.637	153747
586.672	156102
586.709	155404
586.727	156565
586.781	160949
586.781	161466
586.835	167049
586.853	168535
586.889	172978
586.925	175610
586.944	178852
586.996	187354
586.998	188232
587.052	197564
587.068	199879
587.106	207289
587.140	212416
587.161	217042
587.212	226831
587.215	228233
587.269	241805
587.284	244521
587.323	255109
587.356	263234
587.377	270484
587.427	284845
587.431	286977
587.485	303610
587.499	306860
587.539	323662
587.571	335443
587.593	345708
587.643	364972
587.648	368463
587.702	393970
587.715	399189
587.755	424815
587.786	441043
587.810	456944
587.858	487209
587.864	493378
587.917	538081
587.930	546461
587.971	585018
588.001	609915
588.025	638087
588.073	688250
588.079	698267
588.133	769466
588.145	782633
588.187	849588
588.217	892186
588.241	940604
588.288	1027473
588.295	1045413
588.348	1167358
588.360	1189650
588.402	1310551
588.431	1387595
588.456	1472786
588.503	1623692
588.510	1653800
588.564	1854324
588.575	1890022
588.617	2062381
588.646	2169167
588.671	2253121
588.718	2392118
588.725	2406451
588.778	2450435
588.789	2449514
588.832	2285404
588.861	2152190
588.886	1928192
588.932	1466288
588.939	1436156
588.993	1161707
589.004	1118010
589.047	1579323
589.075	1883841
589.100	2130569
589.147	2549500
589.154	2575743
589.207	2704829
589.218	2721984
589.261	2709635
589.290	2689639
589.314	2695294
589.361	2684960
589.368	2690837
589.421	2665427
589.433	2649926
589.475	2411491
589.504	2223579
589.528	1976223
589.576	1444566
589.582	1481013
589.635	1809976
589.647	1878062
589.689	2326631
589.718	2617295
589.742	2633353
589.790	2626585
589.795	2613447
589.849	2392501
589.861	2332463
589.902	2149659
589.932	1999713
589.955	1907278
590.004	1690107
590.009	1680287
590.062	1497981
590.075	1447234
590.115	1342940
590.146	1251710
590.168	1209435
590.218	1099527
590.222	1097116
590.275	1003875
590.289	975418
590.328	925338
590.360	877004
590.381	854637
590.431	789929
590.435	790318
590.488	737708
590.503	719701
590.541	691308
590.574	660982
590.594	648972
590.645	608350
590.647	609808
590.700	575614
590.716	562730
590.753	545387
590.787	524548
590.806	518263
590.859	492348
590.859	494275
590.912	473634
590.930	464848
590.965	453876
591.001	438792
591.018	435561
591.071	419552
591.072	417449
591.124	404170
591.143	397020
591.177	390572
591.214	379615
591.230	378018
591.283	366922
591.285	364759
591.336	354687
591.356	348312
591.389	343784
591.427	334908
591.442	333426
591.495	322023
591.498	319664
591.547	312809
591.569	307577
591.600	304969
591.640	298163
591.653	297967
591.706	291094
591.711	288974
591.759	284825
591.782	280691
591.811	280037
591.853	275728
591.864	276181
591.917	271744
591.924	269802
591.969	264158
591.995	258882
592.022	258115
592.066	253602
592.075	254142
592.127	249839
592.137	247857
592.180	247239
592.208	244819
592.233	243026
592.279	236135
592.285	236887
592.338	233642
592.350	231753
592.390	229457
592.421	225789
592.443	226591
592.491	224807
592.495	225563
592.548	220806
592.562	218412
592.600	216586
592.633	213034
592.653	213069
592.704	209241
592.705	210372
592.775	205881
592.846	203291
592.916	201531
592.987	198366
593.058	194848
593.128	189221
593.199	187149
593.270	181749
593.341	181808
593.411	178505
593.482	177090
593.553	175022
593.623	171500
593.694	169537
593.764	168226
593.835	165761
593.906	163940
593.976	161674
594.047	160610
594.117	162951
594.188	163750
594.258	157870
594.329	153733
594.399	154267
594.470	152837
594.540	152692
594.611	154022
594.681	150643
594.751	149562
594.822	149976
594.892	150908
594.963	149257
595.033	150760
595.103	151577
595.174	151282
595.244	154464
595.314	162079
595.384	151156
595.455	148844
595.525	150167
595.595	151452
595.665	150600
595.736	147297
595.806	147077
595.876	149751
595.946	147920
596.016	149140
596.087	152634
596.157	151982
596.227	150117
596.297	154919
596.367	158137
596.437	161646
596.507	163446
596.577	167887
596.647	162500
596.717	163354
596.787	165231
596.857	164253
596.927	165803
596.997	165547
597.067	166525
597.137	173967
597.207	173933
597.277	170005
597.347	167840
597.417	165804
597.487	166786
597.557	168916
597.626	168650
597.696	173701
597.766	175484
597.836	175658
597.906	165774
597.975	162574
598.045	163324
598.115	165129
598.185	171635
598.254	179909
598.324	189983
598.394	194322
598.464	189646
598.533	190039
598.603	184335
598.672	184685
598.742	182793
598.812	186347
598.881	186106
598.951	187980
599.020	189640
599.090	193189
599.159	198319
599.229	196676
599.299	195007
599.368	198259
599.437	199686
599.507	196121
599.576	194025
599.646	198300
599.715	201550
599.785	198296
599.854	196305
599.924	198480
599.993	199692
600.062	201157
600.132	205984
600.201	211778
600.270	226601
600.340	237025
600.409	236268
600.478	239090
600.547	240582
600.617	244564
600.686	228210
600.755	221393
600.824	220043
600.894	222031
600.963	224473
601.032	226039
601.101	230611
601.170	230747
601.239	230972
601.308	236746
601.378	240976
601.447	244279
601.516	251103
601.585	255005
601.654	261427
601.723	266515
601.792	272759
601.861	283052
601.930	298491
601.999	307324
602.068	303532
602.137	301275
602.206	303339
602.275	307216
602.343	311420
602.412	314072
602.481	315115
602.550	314083
602.619	319573
602.688	318761
602.756	325146
602.825	321540
602.894	327924
602.963	325818
603.032	328082
603.100	331480
603.169	320237
603.238	333741
603.307	325817
603.375	319998
603.444	341103
603.513	316782
603.581	317471
603.650	342993
603.719	293474
603.787	268795
603.856	270648
603.924	275560
603.993	283640
604.061	288002
604.130	294230
604.198	303137
604.267	304628
604.335	313470
604.404	308842
604.472	319983
604.541	320571
604.609	330779
604.678	343424
604.746	346356
604.815	366396
604.883	355688
604.951	337547
605.020	348970
605.088	329608
605.156	299939
605.225	298069
605.293	298463
605.361	300138
605.429	294713
605.498	303832
605.566	297673
605.634	304921
605.702	309472
605.771	305175
605.839	321149
605.907	293566
605.975	307298
606.043	303798
606.111	277930
606.180	312564
606.248	300450
606.316	276184
606.384	306249
606.452	260364
606.520	194471
606.588	191471
606.656	187387
606.724	185906
606.792	180082
606.860	167472
606.928	156399
606.996	150138
607.064	148762
607.132	149053
607.200	154907
607.267	160983
607.335	162317
607.403	166707
607.471	166856
607.539	159918
607.607	161771
607.674	147769
607.742	145351
607.810	145507
607.878	143928
607.946	144547
608.013	149002
608.081	151915
608.149	153814
608.216	152396
608.284	158010
608.352	156684
608.419	156504
608.487	155299
608.555	150549
608.622	150703
608.690	154852
608.757	162738
608.825	168337
608.893	165133
608.960	161380
609.028	158592
609.095	156079
609.163	155414
609.230	142900
609.298	131543
609.365	134624
609.432	143369
609.500	153498
609.567	170878
609.635	191640
609.702	203011
609.769	201324
609.837	174891
609.904	150845
609.971	155942
610.039	173406
610.106	217222
610.173	348872
610.241	723786
610.308	948205
610.375	612616
610.442	268035
610.509	182896
610.577	161465
610.644	155007
610.711	155259
610.778	157149
610.845	157765
610.912	165208
610.980	175474
611.047	187519
611.114	181644
611.181	162798
611.248	160735
611.315	166928
611.382	168371
611.449	175069
611.516	177720
611.583	174052
611.650	176513
611.717	175937
611.784	179284
611.851	184115
611.918	195422
611.984	213780
612.051	270098
612.118	449523
612.185	1004228
612.252	1077531
612.319	339425
612.386	235334
612.452	213426
612.519	200755
612.586	200579
612.653	200191
612.719	202529
612.786	198845
612.853	187172
612.919	179337
612.986	182701
613.053	173552
613.120	166753
613.186	159582
613.253	161093
613.319	158117
613.386	161504
613.453	163037
613.519	167894
613.586	168154
613.652	183937
613.719	174664
613.785	173339
613.852	165769
613.918	166002
613.985	166837
614.051	178436
614.118	198278
614.184	209705
614.250	168863
614.317	167476
614.383	164809
614.449	169565
614.516	167141
614.582	167083
614.648	166480
614.715	165826
614.781	164893
614.847	164307
614.914	165089
614.980	163392
615.046	161407
615.112	166679
615.179	172879
615.245	184352
615.311	209493
615.377	276853
615.443	359099
615.509	281578
615.575	218775
615.642	195849
615.708	192286
615.774	200521
615.840	215543
615.906	245111
615.972	323292
616.038	537201
616.104	877254
616.170	1355098
616.236	1628047
616.302	544224
616.368	305512
616.434	245074
616.500	214831
616.565	210151
616.631	230306
616.697	224802
616.763	213887
616.829	244439
616.895	354648
616.961	422098
617.026	282765
617.092	198377
617.158	180073
617.224	177671
617.289	166819
617.355	160372
617.421	157240
617.487	157813
617.552	151514
617.618	147571
617.684	147869
617.749	149499
617.815	146131
617.880	142196
617.946	142148
618.012	146384
618.077	149073
618.143	145850
618.208	144069
618.274	151926
618.339	158713
618.405	140544
618.470	135851
618.536	136442
618.601	136148
618.667	132587
618.732	126839
618.798	124832
618.863	123458
618.928	122209
618.994	124825
619.059	125200
619.124	134761
619.190	130648
619.255	124227
619.320	122670
619.386	122866
619.451	122888
619.516	120154
619.581	120543
619.647	124940
619.712	126544
619.777	123490
619.842	123360
619.907	125870
619.972	125960
620.038	127183
620.103	121901
620.168	121996
620.233	123667
620.298	123988
620.363	123507
620.428	127162
620.493	128999
620.558	129877
620.623	132288
620.688	132096
620.753	130236
620.818	132379
620.883	133610
620.948	133473
621.013	134052
621.078	134341
621.143	132523
621.207	135242
621.272	136175
621.337	134595
621.402	132877
621.467	135646
621.532	140310
621.596	136635
621.661	133377
621.726	129964
621.791	131080
621.855	133478
621.920	135628
621.985	133983
622.049	136363
622.114	136256
622.179	138558
622.243	143004
622.308	142331
622.373	146988
622.437	146714
622.502	141214
622.566	139957
622.631	137897
622.695	142399
622.760	139617
622.824	141340
622.889	140708
622.953	143686
623.018	156415
623.082	164180
623.147	145349
623.211	143338
623.276	143996
623.340	139641
623.404	135400
623.469	135908
623.533	136133
623.597	134506
623.662	133874
623.726	129724
623.790	123781
623.854	121899
623.919	124190
623.983	123282
624.047	123918
624.111	123986
624.176	125437
624.240	130760
624.304	134836
624.368	127322
624.432	123810
624.496	126463
624.560	129648
624.625	135258
624.689	129731
624.753	132689
624.817	129405
624.881	124793
624.945	119817
625.009	117199
625.073	118047
625.137	121702
625.201	128858
625.265	131802
625.329	121001
625.393	122204
625.456	118826
625.520	119369
625.584	123228
625.648	128249
625.712	134853
625.776	161644
625.839	175853
625.903	132208
625.967	104671
626.031	113865
626.095	141041
626.158	121230
626.222	100060
626.286	94245
626.349	90975
626.413	88803
626.477	89035
626.540	87322
626.604	85368
626.668	86622
626.731	84778
626.795	86287
626.858	85919
626.922	81815
626.986	81227
627.049	82560
627.113	82887
627.176	81835
627.240	80997
627.303	79514
627.366	78944
627.430	78729
627.493	80112
627.557	80194
627.620	81808
627.684	81075
627.747	79324
627.810	76394
627.874	72609
627.937	70210
628.000	73896
628.064	73862
628.127	65609
628.190	65238
628.253	65698
628.317	64802
628.380	62139
628.443	60474
628.506	62635
628.569	59883
628.632	57194
628.696	58026
628.759	57302
628.822	56161
628.885	54187
628.948	53915
629.011	55786
629.074	53780
629.137	54579
629.200	52679
629.263	54679
629.326	52037
629.389	52553
629.452	51836
629.515	51638
629.578	51799
629.641	53019
629.704	52302
629.767	53694
629.830	50627
629.892	50106
629.955	49605
630.018	51819
630.081	50670
630.144	55224
630.207	50048
630.269	50936
630.332	49938
630.395	49440
630.458	47770
630.520	46373
630.583	47696
630.646	45758
630.708	46961
630.771	45975
630.834	49074
630.896	46172
630.959	45733
631.021	45554
631.084	46375
631.146	47010
631.209	48507
631.272	46079
631.334	46664
631.397	45317
631.459	45699
631.522	46232
631.584	46532
631.646	47599
631.709	47335
631.771	50559
631.834	49613
631.896	45856
631.958	44071
632.021	44901
632.083	44377
632.145	44604
632.208	44475
632.270	44316
632.332	43687
632.395	42847
632.457	44168
632.519	43280
632.581	42988
632.643	42851
632.706	43451
632.768	41273
632.830	42333
632.892	43129
632.954	43136
633.016	43541
633.078	41794
633.141	42448
633.203	42807
633.265	42772
633.327	41843
633.389	42265
633.451	43944
633.513	47422
633.575	45511
633.637	43602
633.698	43946
633.760	44283
633.822	42957
633.884	43146
633.946	43484
634.008	44016
634.070	45666
634.132	49544
634.193	48427
634.255	45447
634.317	44752
634.379	45707
634.441	45494
634.502	43707
634.564	41719
634.626	41139
634.687	40142
634.749	40727
634.811	39477
634.873	39548
634.934	39761
634.996	40571
635.057	39889
635.119	39613
635.181	38692
635.242	40709
635.304	38530
635.365	41724
635.427	39367
635.488	40399
635.550	38854
635.611	39404
635.673	38949
635.734	40653
635.796	41382
635.857	42510
635.918	41395
635.980	43056
636.041	43540
636.102	43577
636.164	44037
636.225	44241
636.286	41077
636.348	40681
636.409	39512
636.470	38667
636.531	39234
636.593	39135
636.654	39338
636.715	37761
636.776	36893
636.838	36874
636.899	37885
636.960	36552
637.021	36323
637.082	36464
637.143	36717
637.204	34980
637.265	34893
637.326	35099
637.387	35529
637.448	34837
637.509	35310
637.570	36038
637.631	35779
637.692	34939
637.753	34346
637.814	34641
637.875	34506
637.936	36538
637.997	33592
638.058	35014
638.119	35745
638.179	34539
638.240	33499
638.301	33996
638.362	32450
638.423	33472
638.483	34298
638.544	32394
638.605	33108
638.666	32757
638.726	34512
638.787	33419
638.848	33628
638.908	32338
638.969	32675
639.030	31576
639.090	32051
639.151	32135
639.211	33954
639.272	35999
639.332	43274
639.393	38421
639.453	31678
639.514	33698
639.574	32624
639.635	31900
639.695	31238
639.756	31782
639.816	32061
639.877	32269
639.937	37425
639.997	44684
640.058	34107
640.118	30860
640.178	31208
640.239	30139
640.299	29899
640.359	30861
640.420	30388
640.480	30713
640.540	31971
640.600	31225
640.661	33270
640.721	31774
640.781	38148
640.841	40605
640.901	33120
640.961	30959
641.021	31333
641.082	32097
641.142	35864
641.202	33376
641.262	29090
641.322	29776
641.382	28779
641.442	28784
641.502	28925
641.562	29501
641.622	29092
641.682	29700
641.742	30448
641.802	30787
641.861	30203
641.921	29144
641.981	29858
642.041	30020
642.101	32296
642.161	30708
642.221	27569
642.280	27254
642.340	27781
642.400	27032
642.460	29070
642.519	27376
642.579	28418
642.639	29093
642.698	25956
642.758	30723
642.818	28466
642.877	29161
642.937	28465
642.997	30446
643.056	34898
643.116	31990
643.175	30154
643.235	29119
643.294	29018
643.354	29508
643.414	30063
643.473	33055
643.532	36434
643.592	41567
643.651	54070
643.711	81714
643.770	141647
643.830	301208
643.889	784949
643.948	358036
644.008	64719
644.067	41388
644.126	34940
644.186	31394
644.245	30167
644.304	27593
644.363	28612
644.423	26488
644.482	28089
644.541	28016
644.600	26939
644.659	30939
644.719	31605
644.778	39898
644.837	51581
644.896	82773
644.955	193984
645.014	123187
645.073	41509
645.132	29779
645.191	28622
645.250	28480
645.309	29298
645.368	28388
645.427	31319
645.486	35558
645.545	56020
645.604	35410
645.663	26835
645.722	27410
645.781	29017
645.840	28627
645.898	31882
645.957	37709
646.016	48346
646.075	74348
646.134	133897
646.192	298123
646.251	638425
646.310	176021
646.369	45793
646.427	35646
646.486	31624
646.545	28266
646.603	26652
646.662	26429
646.721	24402
646.779	23741
646.838	24307
646.896	26696
646.955	29564
647.014	36239
647.072	51626
647.131	117387
647.189	104195
647.248	28725
647.306	25628
647.365	23925
647.423	20901
647.481	23126
647.540	21556
647.598	23181
647.657	21837
647.715	22314
647.773	21076
647.832	22346
647.890	20295
647.948	21318
648.007	22681
648.065	21250
648.123	21323
648.181	23419
648.240	23978
648.298	25467
648.356	21183
648.414	20718
648.472	21009
648.531	21282
648.589	21418
648.647	20337
648.705	19881
648.763	20749
648.821	20408
648.879	21363
648.937	21098
648.995	22429
649.053	24324
649.111	30576
649.169	39776
649.227	61253
649.285	106328
649.343	297246
649.401	264656
649.459	59485
649.516	44429
649.574	28025
649.632	35043
649.690	46941
649.748	34339
649.806	38088
649.863	61943
649.921	86121
649.979	93098
650.037	27888
650.094	20120
650.152	19951
650.210	19194
650.268	19532
650.325	20740
650.383	23381
650.440	19782
650.498	18100
650.556	18179
650.613	16835
650.671	17188
650.728	17438
650.786	17508
650.843	18746
650.901	16695
650.958	16027
651.016	16973
651.073	17094
651.131	17819
651.188	15115
651.246	16781
651.303	15710
651.360	16468
651.418	15780
651.475	17149
651.532	15057
651.590	16880
651.647	14830
651.704	15313
651.762	15753
651.819	15907
651.876	15806
651.933	15109
651.990	15600
652.048	14252
652.105	14217
652.162	16066
652.219	14110
652.276	14994
652.333	15310
652.390	14675
652.448	15935
652.505	15376
652.562	15474
652.619	17728
652.676	21630
652.733	27026
652.790	16568
652.847	14231
652.904	15404
652.961	14729
653.017	14604
653.074	15364
653.131	15070
653.188	13123
653.245	14114
653.302	14215
653.359	14461
653.415	15201
653.472	14095
653.529	13812
653.586	13539
653.642	13716
653.699	13714
653.756	12649
653.813	13760
653.869	14332
653.926	13971
653.983	14095
654.039	13255
654.096	14148
654.152	14743
654.209	13352
654.266	14332
654.322	13265
654.379	15124
654.435	14962
654.492	14407
654.548	16632
654.605	19793
654.661	17972
654.717	14371
654.774	14498
654.830	14690
654.887	14928
654.943	14819
655.000	16267
655.056	15475
655.112	14323
655.168	13145
655.225	13730
655.281	14924
655.337	14486
655.394	17611
655.450	16574
655.506	15023
655.562	16275
655.618	17403
655.675	13357
655.731	14283
655.787	13507
655.843	14240
655.899	12972
655.955	14174
656.011	14432
656.067	12104
656.123	13714
656.179	13924
656.235	14595
656.291	11918
656.347	13971
656.403	13235
656.459	13624
656.515	13684
656.571	14062
656.627	14060
656.683	14689
656.739	14406
656.795	13417
656.850	14270
656.906	14361
656.962	14903
657.018	13979
657.074	13770
657.129	14604
657.185	15948
657.241	23109
657.297	21163
657.352	15187
657.408	12761
657.464	14654
657.519	14261
657.575	12690
657.630	12849
657.686	12029
657.742	12394
657.797	13816
657.853	12855
657.908	14606
657.964	12905
658.019	12930
658.075	13588
658.130	13474
658.186	12213
658.241	13296
658.297	11574
658.352	12324
658.407	13848
658.463	13112
658.518	13922
658.573	13172
658.629	11957
658.684	12630
658.739	12717
658.795	12342
658.850	13114
658.905	12535
658.960	12869
659.016	11610
659.071	12467
659.126	13981
659.181	13342
659.236	16112
659.291	18153
659.346	15586
659.401	15726
659.457	16409
659.512	19695
659.567	16846
659.622	13015
659.677	12387
659.732	12417
659.787	13377
659.842	13564
659.897	13971
659.952	14108
660.007	13322
660.061	12927
660.116	12383
660.171	12914
660.226	12567
660.281	12211
660.336	12097
660.391	12907
660.445	12898
660.500	13353
660.555	13493
660.610	12779
660.664	14073
660.719	11800
660.774	12833
660.828	12643
660.883	12669
660.938	12880
660.992	12509
661.047	12712
661.101	12553
661.156	12508
661.211	12517
661.265	12249
661.320	12026
661.374	12443
661.429	12019
661.483	13067
661.538	12464
661.592	12519
661.647	12486
661.701	14157
661.755	14167
661.810	13524
661.864	11677
661.919	11880
661.973	12083
662.027	12137
662.081	12134
662.136	12186
662.190	12159
662.244	13008
662.299	11926
662.353	11850
662.407	12168
662.461	11979
662.515	12441
662.569	12165
662.624	13241
662.678	10830
662.732	12216
662.786	11473
662.840	12166
662.894	11906
662.948	12895
663.002	11121
663.056	11975
663.110	10872
663.164	11566
663.218	11717
663.272	11759
663.326	12486
663.380	12447
663.434	11893
663.488	11453
663.542	11706
663.595	11223
663.649	10804
663.703	10734
663.757	10946
663.811	10813
663.864	10834
663.918	11408
663.972	10879
664.026	11441
664.079	10417
664.133	12129
664.187	10826
664.240	11488
664.294	11482
664.348	12198
664.401	11859
664.455	11104
664.508	10349
664.562	11309
664.615	11211
664.669	11318
664.722	10996
664.776	10895
664.829	11478
664.883	11181
664.936	10964
664.990	11880
665.043	11635
665.097	10967
665.150	13275
665.203	11490
665.257	11644
665.310	11975
665.363	11270
665.417	11912
665.470	11694
665.523	11799
665.576	11056
665.630	11229
665.683	11000
665.736	11545
665.789	12196
665.842	10414
665.895	11196
665.949	11657
666.002	11749
666.055	11630
666.108	11710
666.161	11279
666.214	11989
666.267	11956
666.320	11886
666.373	12308
666.426	11420
666.479	10955
666.532	11315
666.585	10851
666.638	12134
666.691	11316
666.744	11915
666.796	11864
666.849	11338
666.902	11480
666.955	10812
667.008	10717
667.060	10376
667.113	10732
667.166	9868
667.219	10739
667.271	10656
667.324	11423
667.377	11450
667.430	11951
667.482	12956
667.535	13242
667.587	11751
667.640	11916
667.693	12336
667.745	14330
667.798	16454
667.850	12676
667.903	11603
667.955	11737
668.008	10709
668.060	12366
668.113	12533
668.165	11728
668.218	11505
668.270	11929
668.322	11244
668.375	11680
668.427	11757
668.479	11188
668.532	11644
668.584	12438
668.636	12110
668.689	12029
668.741	11095
668.793	11131
668.845	10671
668.898	11504
668.950	11849
669.002	12045
669.054	11896
669.106	11706
669.158	13248
669.211	11962
669.263	11859
669.315	14772
669.367	15460
669.419	13439
669.471	14049
669.523	13354
669.575	14847
669.627	14717
669.679	14171
669.731	13912
669.783	15021
669.835	14974
669.886	15094
669.938	16846
669.990	16019
670.042	16828
670.094	17767
670.146	20087
670.197	22101
670.249	26892
670.301	31334
670.353	40213
670.404	53966
670.456	74099
670.508	110789
670.560	176517
670.611	285532
670.663	474683
670.715	869787
670.766	1113291
670.818	803344
670.869	295110
670.921	131425
670.972	81888
671.024	57693
671.075	43852
671.127	35014
671.178	29111
671.230	26322
671.281	23407
671.333	20480
671.384	20094
671.436	21314
671.487	19871
671.538	19381
671.590	21322
671.641	24249
671.692	30734
671.744	45406
671.795	50565
671.846	29761
671.897	20680
671.949	17276
672.000	14932
672.051	13093
672.102	14209
672.153	12628
672.204	13194
672.256	11733
672.307	12549
672.358	12237
672.409	12416
672.460	11728
672.511	10827
672.562	10624
672.613	10708
672.664	11254
672.715	9667
672.766	10443
672.817	10420
672.868	10561
672.919	10413
672.970	10274
673.021	10335
673.071	9840
673.122	9984
673.173	10472
673.224	10158
673.275	10261
673.326	9428
673.376	9055
673.427	9136
673.478	9274
673.528	9866
673.579	9116
673.630	10377
673.680	10191
673.731	8709
673.782	9234
673.832	9390
673.883	9814
673.934	9563
673.984	9281
674.035	9343
674.085	8781
674.136	9617
674.186	9290
674.237	9417
674.287	10932
674.338	9925
674.388	8578
674.438	8917
674.489	9072
674.539	9002
674.589	8257
674.640	9806
674.690	10293
674.740	8478
674.791	9660
674.841	8994
674.891	9094
674.942	8142
674.992	8544
675.042	8592
675.092	8544
675.142	7882
675.193	8071
675.243	8187
675.293	8238
675.343	9165
675.393	9220
675.443	8430
675.493	7720
675.543	8370
675.593	7674
675.643	9007
675.693	8339
675.743	7591
675.793	8804
675.843	6670
675.893	8611
675.943	8996
675.993	7877
676.043	8429
676.093	8943
676.142	8185
676.192	8381
676.242	8061
676.292	7044
676.341	7778
676.391	7231
676.441	7759
676.491	6676
676.540	7443
676.590	7484
676.640	7435
676.689	8443
676.739	7270
676.789	7844
676.838	7672
676.888	7262
676.937	7016
676.987	6807
677.037	7627
677.086	5876
677.136	7567
677.185	7094
677.235	6183
677.284	7071
677.333	7417
677.383	7436
677.432	6932
677.482	7123
677.531	7158
677.580	6597
677.630	6607
677.679	6524
677.728	7080
677.778	7263
677.827	7303
677.876	6924
677.925	7496
677.975	7397
678.024	6449
678.073	6122
678.122	7786
678.171	6775
678.220	7367
678.269	7726
678.319	6884
678.368	7075
678.417	7150
678.466	7530
678.515	8646
678.564	7739
678.613	7513
678.662	7174
678.711	6969
678.760	7305
678.809	7712
678.857	6981
678.906	7344
678.955	6449
679.004	7522
679.053	7193
679.102	8704
679.151	7865
679.199	7410
679.248	6103
679.297	6386
679.346	6477
679.394	6428
679.443	7187
679.492	6883
679.540	6963
679.589	7328
679.638	7102
679.686	6836
679.735	6447
679.784	7303
679.832	7593
679.881	6243
679.929	6147
679.978	6584
680.026	6616
680.075	6784
680.123	6484
680.172	6568
680.220	6170
680.268	5612
680.317	6720
680.365	6660
680.414	5698
680.462	7028
680.510	6696
680.559	5447
680.607	6124
680.655	6344
680.703	5564
680.752	6546
680.800	6042
680.848	5502
680.896	5446
680.945	6143
680.993	5809
681.041	5614
681.089	6338
681.137	5976
681.185	5943
681.233	6619
681.258	6695
681.281	6725
681.329	4970
681.377	6448
681.380	6438
681.425	5427
681.473	7010
681.502	6858
681.521	6671
681.569	7395
681.617	6915
681.624	6913
681.665	6594
681.713	7011
681.745	6729
681.761	6524
681.809	6992
681.857	7406
681.867	7492
681.904	7633
681.952	7179
681.989	7460
682.000	7476
682.048	7458
682.096	7004
682.111	7006
682.143	6913
682.191	7613
682.233	8433
682.239	8506
682.286	7340
682.334	7352
682.354	7533
682.382	7712
682.430	8213
682.476	8700
682.477	8671
682.525	7597
682.572	8696
682.598	8215
682.620	7775
682.667	7994
682.715	8235
682.720	8352
682.763	8936
682.810	7650
682.841	7813
682.857	7879
682.905	8538
682.952	8724
682.963	8598
683.000	7963
683.047	8791
683.085	9757
683.095	9965
683.142	8954
683.190	9061
683.206	9081
683.237	9072
683.284	9936
683.328	9326
683.332	9235
683.379	10008
683.426	8799
683.449	9219
683.473	9601
683.521	9744
683.568	9545
683.571	9581
683.615	9657
683.662	9947
683.693	9906
683.709	9822
683.757	9639
683.804	10629
683.814	10475
683.851	9801
683.898	11128
683.936	10105
683.945	9824
683.992	10389
684.039	10609
684.057	10691
684.086	10794
684.133	10831
684.179	10951
684.180	10923
684.227	11289
684.274	11116
684.300	11283
684.321	11351
684.368	11373
684.415	11095
684.422	11146
684.462	11339
684.509	11334
684.543	11072
684.556	10948
684.603	11072
684.649	10755
684.665	11054
684.696	11640
684.743	11756
684.786	11578
684.790	11536
684.837	11843
684.883	11998
684.908	12491
684.930	12985
684.977	12461
685.023	12669
685.029	12726
685.070	12784
685.117	13147
685.150	12928
685.164	12870
685.210	13051
685.257	14145
685.272	13985
685.303	13544
685.350	13439
685.393	14173
685.396	14207
685.443	13497
685.490	13777
685.514	13852
685.536	13950
685.583	14126
685.629	14191
685.636	14299
685.675	14572
685.722	13766
685.757	14167
685.768	14366
685.815	14149
685.861	13869
685.878	14028
685.908	14176
685.954	14292
686.000	14395
686.000	14387
686.047	14618
686.093	14854
686.121	15058
686.139	15121
686.185	15247
686.232	14926
686.242	14843
686.278	14523
686.324	15119
686.363	14435
686.370	14312
686.416	15063
686.463	15051
686.484	15313
686.509	15657
686.555	15332
686.601	15365
686.606	15445
686.647	15710
686.693	15343
686.727	14927
686.739	14873
686.785	14474
686.831	15139
686.848	15286
686.877	15365
686.923	15482
686.969	15165
686.969	15163
687.015	16291
687.061	15788
687.090	15663
687.107	15501
687.153	16346
687.199	15737
687.211	15732
687.245	15757
687.291	15801
687.332	16174
687.336	16230
687.382	16310
687.428	16552
687.453	16432
687.474	16190
687.520	17230
687.565	16160
687.574	16283
687.611	17099
687.657	17170
687.695	17853
687.702	18087
687.748	19360
687.794	21019
687.816	21215
687.839	20642
687.885	19382
687.931	18666
687.937	18561
687.976	18072
688.022	17317
688.058	17174
688.067	17249
688.113	17155
688.158	17530
688.179	17343
688.204	17138
688.249	17495
688.295	18202
688.300	18203
688.340	18500
688.386	18358
688.421	18238
688.431	18133
688.477	18605
688.522	18821
688.542	18703
688.567	18654
688.613	18770
688.658	18236
688.663	18242
688.703	18471
688.749	18097
688.784	18928
688.794	19143
688.839	18604
688.884	18738
688.905	18535
688.930	18479
688.975	18282
689.020	19373
689.026	19362
689.065	19125
689.110	19237
689.146	19244
689.155	19330
689.201	19433
689.246	19640
689.267	19826
689.291	19867
689.336	19679
689.381	19133
689.388	19173
689.426	19734
689.471	19686
689.509	20188
689.516	20274
689.561	20037
689.606	19756
689.630	19645
689.651	19640
689.696	19753
689.741	20403
689.750	20390
689.785	20346
689.830	20138
689.871	20169
689.875	20177
689.920	19619
689.965	19891
689.992	19556
690.010	19593
690.054	19912
690.099	20200
690.112	20290
690.144	20586
690.189	21219
690.233	20984
690.233	21006
690.278	21466
690.323	21154
690.354	21140
690.367	21396
690.412	22270
690.457	23075
690.474	23378
690.501	23946
690.546	24002
690.590	25368
690.595	25429
690.635	26540
690.680	27254
690.716	28368
690.724	29103
690.769	32678
690.813	36926
690.836	39051
690.857	43038
690.902	50924
690.946	60756
690.957	63149
690.991	84714
691.035	115315
691.077	147375
691.080	148632
691.124	158979
691.168	164125
691.198	168903
691.213	157253
691.257	124377
691.301	91986
691.318	79415
691.346	71294
691.390	58126
691.434	45245
691.439	43749
691.478	40040
691.522	36067
691.559	32598
691.567	32432
691.611	31391
691.655	29925
691.680	29053
691.699	28511
691.743	27717
691.787	26298
691.800	25860
691.831	25792
691.875	26065
691.919	26313
691.921	26270
691.964	25903
692.008	25691
692.041	25255
692.052	25248
692.096	25088
692.139	25201
692.162	25126
692.183	25137
692.227	25204
692.271	25158
692.282	25105
692.315	25091
692.359	25403
692.402	25172
692.403	25214
692.447	25274
692.490	25322
692.523	25263
692.534	25328
692.578	25456
692.622	25824
692.643	25770
692.666	25636
692.709	25647
692.753	25453
692.763	25361
692.797	25606
692.840	26010
692.884	26467
692.884	26519
692.928	26575
692.971	27200
693.004	27870
693.015	28076
693.059	27558
693.102	27876
693.124	27773
693.146	28171
693.189	29432
693.233	30474
693.245	30540
693.276	31622
693.320	34331
693.363	35963
693.365	35969
693.407	38815
693.450	41810
693.485	44166
693.493	45768
693.537	53885
693.580	62289
693.605	67105
693.624	75548
693.667	95281
693.710	116399
693.725	123875
693.753	164738
693.797	230250
693.840	299586
693.845	306488
693.883	328835
693.926	347865
693.966	366319
693.970	359605
694.013	284605
694.056	210181
694.086	159063
694.099	149915
694.142	120206
694.185	90573
694.206	76336
694.229	71538
694.272	62348
694.315	53130
694.326	50750
694.358	48418
694.401	44539
694.444	40862
694.446	40613
694.487	39063
694.530	36866
694.566	34871
694.573	34673
694.616	33608
694.659	31874
694.686	30990
694.702	30922
694.745	30542
694.787	29931
694.806	29578
694.830	29298
694.873	28928
694.916	28496
694.926	28329
694.959	28295
695.002	28262
695.044	28064
695.046	27998
695.087	27942
695.130	27740
695.166	27572
695.172	27649
695.215	27750
695.258	28077
695.286	28190
695.301	28314
695.343	28158
695.386	28445
695.406	28312
695.428	28012
695.471	27498
695.514	26910
695.526	26773
695.556	27463
695.599	28125
695.641	28806
695.646	28817
695.684	28583
695.726	28167
695.766	27810
695.769	27883
695.811	28072
695.854	28189
695.886	28196
695.896	28181
695.938	27883
695.981	27589
696.005	27377
696.023	27434
696.065	27324
696.108	27289
696.125	27259
696.150	27748
696.192	28243
696.235	28879
696.245	28962
696.277	28992
696.319	29050
696.361	28940
696.365	28877
696.404	29825
696.446	30702
696.485	31395
696.488	31433
696.530	30972
696.572	30685
696.604	30263
696.614	30245
696.656	29821
696.698	29596
696.724	29242
696.740	29081
696.783	28675
696.825	28259
696.844	28008
696.867	28047
696.909	27745
696.951	27710
696.964	27635
696.992	27868
697.034	27930
697.076	28090
697.083	28053
697.118	28735
697.160	29416
697.202	30189
697.203	30137
697.244	29782
697.286	29356
697.323	28827
697.327	28828
697.369	28227
697.411	27679
697.442	27200
697.453	27384
697.494	27809
697.536	28326
697.562	28537
697.578	28667
697.620	28819
697.661	28991
697.682	28999
697.703	29007
697.744	28872
697.786	28904
697.801	28780
697.828	29239
697.869	29838
697.911	30481
697.921	30567
697.952	30258
697.994	29707
698.035	29250
698.040	29112
698.077	28912
698.118	28667
698.160	28378
698.160	28305
698.201	28648
698.243	28985
698.279	29194
698.284	29286
698.325	29470
698.367	29626
698.399	29682
698.408	29702
698.449	29449
698.491	29198
698.518	28952
698.532	29191
698.573	29720
698.614	30247
698.638	30468
698.656	30357
698.697	29904
698.738	29488
698.757	29206
698.779	29410
698.820	29673
698.862	29909
698.877	29927
698.903	30131
698.944	30338
698.985	30541
698.996	30522
699.026	30480
699.067	30316
699.116	30047
699.235	30808
699.354	29885
699.474	30129
699.593	30127
699.713	31463
699.832	30114
699.951	29263
700.070	29786
700.190	28285
700.309	29062
700.428	28691
700.547	28423
700.667	27679
700.786	29032
700.905	27736
701.024	28702
701.143	27512
701.262	27213
701.381	27758
701.500	28009
701.619	27688
701.738	26653
701.857	26926
701.976	26887
702.095	26596
702.214	27570
702.333	27350
702.452	26658
702.571	27648
702.690	27290
702.809	26139
702.928	27440
703.047	25841
703.165	25931
703.284	25701
703.403	25252
703.522	25865
703.640	25506
703.759	25998
703.878	28200
703.997	25122
704.115	24962
704.234	25021
704.353	25846
704.471	24597
704.590	24036
704.708	23649
704.827	23245
704.946	24275
705.064	24383
705.183	24288
705.301	25495
705.420	31471
705.538	31237
705.656	28033
705.775	28973
705.893	40067
706.012	57924
706.130	30390
706.249	28344
706.367	27348
706.485	27740
706.604	26920
706.722	26639
706.840	29327
706.958	36487
707.077	34889
707.195	26930
707.313	25891
707.431	25699
707.549	24769
707.668	25933
707.786	25937
707.904	25617
708.022	25140
708.140	25028
708.258	24818
708.376	25311
708.494	24288
708.612	26122
708.730	30847
708.848	30428
708.966	28500
709.084	28591
709.202	26750
709.320	27972
709.438	28155
709.556	28898
709.674	26998
709.791	27996
709.909	26898
710.027	27851
710.145	26887
710.263	27495
710.380	25998
710.498	25813
710.616	25455
710.733	26094
710.851	25415
710.969	26510
711.086	26182
711.204	26357
711.322	25032
711.439	24821
711.557	25744
711.674	25133
711.792	25026
711.909	26615
712.027	28530
712.144	25063
712.262	24036
712.379	26382
712.497	29756
712.614	33188
712.732	30185
712.849	28568
712.966	27881
713.084	29621
713.201	28940
713.318	27929
713.436	27186
713.553	28932
713.670	28482
713.787	29257
713.905	27928
714.022	27912
714.139	26721
714.256	29070
714.373	32197
714.490	40596
714.608	64921
714.725	225088
714.842	389391
714.959	53897
715.076	29323
715.193	27927
715.310	27703
715.427	25163
715.544	24267
715.661	25433
715.778	25542
715.895	26763
716.011	25193
716.128	25673
716.245	25671
716.362	25892
716.479	26626
716.596	24645
716.713	24912
716.829	24525
716.946	24229
717.063	23262
717.180	22723
717.296	23136
717.413	23745
717.530	23005
717.646	22209
717.763	22157
717.880	21406
717.996	21983
718.113	22064
718.229	22255
718.346	21659
718.462	21801
718.579	21948
718.695	26518
718.812	25000
718.928	23736
719.045	22447
719.161	20607
719.277	21016
719.394	21098
719.510	21318
719.626	21157
719.743	24996
719.859	25666
719.975	31557
720.092	69167
720.208	191557
720.324	54833
720.440	23765
720.557	23327
720.673	24367
720.789	26666
720.905	34882
721.021	28102
721.137	20545
721.253	20782
721.369	21281
721.486	21011
721.602	22123
721.718	20144
721.834	18834
721.950	20086
722.066	18959
722.181	18164
722.297	19258
722.413	18875
722.529	18674
722.645	18864
722.761	19013
722.877	19101
722.993	19980
723.108	19823
723.224	19412
723.340	20018
723.456	18213
723.571	18652
723.687	18005
723.803	18355
723.918	17929
724.034	18399
724.150	18025
724.265	18582
724.381	20893
724.497	24752
724.612	16897
724.728	16801
724.843	17182
724.959	17265
725.074	20590
725.190	23927
725.305	17770
725.421	17452
725.536	16920
725.651	16597
725.767	15693
725.882	17399
725.997	16026
726.113	16925
726.228	16267
726.343	17115
726.459	15439
726.574	16509
726.689	15472
726.804	16834
726.920	16370
727.035	16692
727.150	15755
727.265	15921
727.380	16466
727.495	16907
727.610	15687
727.725	15938
727.841	16797
727.956	25323
728.071	25843
728.186	16532
728.301	14951
728.416	16470
728.531	15051
728.645	15207
728.760	15094
728.875	16166
728.990	14440
729.105	16099
729.220	15367
729.335	16058
729.449	14961
729.564	16071
729.679	14443
729.794	16256
729.908	14942
730.023	14599
730.138	14406
730.253	14339
730.367	14726
730.482	15185
730.596	13945
730.711	15130
730.826	15982
730.940	17298
731.055	15759
731.169	14399
731.284	13976
731.398	15528
731.513	14613
731.627	14820
731.742	15061
731.856	16001
731.970	16008
732.085	15883
732.199	16967
732.313	22122
732.428	34879
732.542	79649
732.656	70590
732.771	23344
732.885	17193
732.999	16556
733.113	16812
733.227	15747
733.342	16273
733.456	15286
733.570	14083
733.684	15196
733.798	15038
733.912	14214
734.026	14246
734.140	14099
734.254	14111
734.368	15595
734.482	17860
734.596	15395
734.710	15020
734.824	13949
734.938	13816
735.052	13969
735.166	14784
735.280	14712
735.393	13716
735.507	14195
735.621	14364
735.735	16935
735.849	14567
735.962	14435
736.076	13080
736.190	13510
736.303	13536
736.417	16890
736.531	13284
736.644	14120
736.758	13041
736.872	13544
736.985	13341
737.099	13255
737.212	12589
737.326	14188
737.439	13749
737.553	13374
737.666	14063
737.780	12945
737.893	13421
738.007	12860
738.120	13780
738.233	13002
738.347	12868
738.460	12874
738.573	13463
738.687	12996
738.800	12541
738.913	14579
739.026	13180
739.140	13711
739.253	13807
739.366	13393
739.479	12775
739.592	12881
739.705	12889
739.818	13204
739.932	13316
740.045	12574
740.158	13243
740.271	12777
740.384	13261
740.497	13180
740.610	13441
740.723	13238
740.836	12868
740.949	13843
741.062	13259
741.174	13821
741.287	12321
741.400	13105
741.513	12318
741.626	12991
741.739	12986
741.851	13000
741.964	12700
742.077	11999
742.189	12716
742.302	12012
742.415	12403
742.527	12360
742.640	12717
742.753	11952
742.865	11207
742.978	12692
743.090	12906
743.203	12042
743.316	11560
743.428	12837
743.541	12487
743.653	11572
743.766	11568
743.878	13599
743.990	12289
744.103	13165
744.215	12311
744.327	12323
744.440	13473
744.552	14466
744.664	12214
744.777	12065
744.889	11566
745.001	13077
745.113	11975
745.226	11596
745.338	11519
745.450	11978
745.562	11712
745.674	12800
745.786	11626
745.898	12570
746.010	12249
746.122	12239
746.234	11917
746.347	12907
746.459	12235
746.570	12228
746.682	12258
746.794	12413
746.906	12426
747.018	11382
747.130	12865
747.242	12137
747.354	12390
747.466	12688
747.577	11300
747.689	12131
747.801	11320
747.913	10970
748.024	12056
748.136	11874
748.248	11626
748.359	12421
748.471	11989
748.583	12000
748.694	12091
748.806	14073
748.918	12662
749.029	12434
749.141	12699
749.252	13265
749.364	12214
749.475	14987
749.587	12794
749.698	12580
749.809	11884
749.921	11862
750.032	12461
750.144	11780
750.255	12734
750.366	12541
750.478	12349
750.589	12397
750.700	12226
750.811	12984
750.923	13141
751.034	15207
751.145	15960
751.256	12221
751.367	11996
751.479	12510
751.590	12182
751.701	12860
751.812	12344
751.923	12869
752.034	12553
752.145	12771
752.256	11641
752.367	12443
752.478	12483
752.589	13911
752.700	12200
752.811	12807
752.922	12627
753.032	12612
753.143	12943
753.254	12390
753.365	13524
753.476	12722
753.586	12172
753.697	12419
753.808	12411
753.919	12473
754.029	12939
754.140	12703
754.251	12746
754.361	13266
754.472	12935
754.582	13894
754.693	13272
754.804	13103
754.914	12106
755.025	13221
755.135	13037
755.246	13511
755.356	13740
755.466	15111
755.577	13068
755.687	13924
755.798	13934
755.908	14204
756.018	14402
756.129	14862
756.239	14223
756.349	13672
756.460	13678
756.570	15247
756.680	14799
756.790	15016
756.900	15162
757.011	15349
757.121	15378
757.231	15291
757.341	15148
757.451	15152
757.561	14684
757.671	15554
757.781	15173
757.891	16029
758.001	15763
758.111	16345
758.221	16775
758.331	16517
758.441	16932
758.551	17109
758.661	18093
758.771	17957
758.880	17690
758.990	16695
759.100	17833
759.210	18345
759.320	18517
759.429	19913
759.539	19598
759.649	20294
759.758	20407
759.868	20587
759.978	20313
760.087	21273
760.197	21371
760.307	22642
760.416	21741
760.526	20881
760.635	22690
760.745	23575
760.854	23099
760.964	24229
761.073	24796
761.182	24762
761.292	25873
761.401	26871
761.511	26846
761.620	27770
761.729	28144
761.839	29027
761.948	29949
762.057	30568
762.166	31548
762.276	31454
762.385	32821
762.494	33889
762.603	35110
762.712	37178
762.822	38008
762.931	40165
763.040	40152
763.149	43315
763.258	44924
763.367	46650
763.476	48499
763.585	52090
763.694	54074
763.803	57208
763.912	61374
764.021	63964
764.130	67337
764.238	74754
764.347	77555
764.456	83339
764.565	90885
764.674	99674
764.783	108769
764.891	119372
765.000	132968
765.109	149504
765.217	168047
765.326	196306
765.435	228398
765.543	271718
765.652	329075
765.761	408151
765.869	513904
765.978	663371
766.086	858816
766.195	1080694
766.303	1205318
766.412	954431
766.520	791355
766.629	1124667
766.737	1112683
766.846	921657
766.954	720113
767.062	559546
767.171	443582
767.279	351572
767.387	284576
767.496	239502
767.604	203609
767.712	178673
767.820	158724
767.928	145978
768.037	132601
768.145	126466
768.253	119660
768.361	115285
768.469	114631
768.577	117483
768.685	120657
768.793	128818
768.901	141861
769.009	160174
769.117	189812
769.225	234773
769.333	306594
769.441	423116
769.549	608439
769.657	890062
769.765	1104222
769.873	858465
769.981	958839
770.088	976522
770.196	725352
770.304	518712
770.412	385324
770.519	295743
770.627	237058
770.735	192217
770.842	163065
770.950	140544
771.058	123708
771.165	109788
771.273	96632
771.380	89496
771.488	81492
771.595	75523
771.703	68702
771.810	64803
771.918	59408
772.025	57095
772.133	52510
772.240	50777
772.348	47411
772.455	46279
772.562	43389
772.670	41718
772.777	39758
772.884	38632
772.991	36386
773.099	35350
773.206	34452
773.313	32975
773.420	31375
773.528	31258
773.635	29870
773.742	28949
773.849	27852
773.956	26692
774.063	26018
774.170	25484
774.277	24813
774.384	25038
774.491	23343
774.598	24428
774.705	23416
774.812	24464
774.919	22636
775.026	21464
775.133	21533
775.239	20886
775.346	19552
775.453	19523
775.560	19582
775.667	19632
775.773	18353
775.880	19683
775.987	18437
776.093	19491
776.200	17864
776.307	17401
776.413	17353
776.520	17693
776.627	17183
776.733	17125
776.840	14987
776.946	17388
777.053	15552
777.159	15514
777.266	14556
777.372	16237
777.478	15011
777.585	15551
777.691	14466
777.798	15719
777.904	14480
778.010	15471
778.117	15880
778.223	13820
778.329	13529
778.435	13697
778.542	14213
778.648	13819
778.754	12842
778.860	13314
778.966	13110
779.072	13427
779.178	13784
779.284	13638
779.391	12927
779.497	15288
779.603	19562
779.708	26166
779.815	50601
779.920	151908
780.026	379331
780.132	134891
780.238	29609
780.344	19376
780.450	17219
780.556	14725
780.661	12322
780.767	12764
780.873	10821
780.979	11559
781.085	11041
781.190	11348
781.296	10523
781.402	10782
781.507	10490
781.613	9689
781.719	9326
781.824	11323
781.930	9612
782.035	9636
782.141	10297
782.246	9959
782.352	9645
782.457	8993
782.563	8527
782.668	8728
782.773	9550
782.879	8353
782.984	9896
783.090	9680
783.195	9514
783.300	9922
783.405	9355
783.511	8966
783.616	8792
783.721	9384
783.826	8404
783.932	9235
784.037	8604
784.142	8702
784.247	8249
784.352	8787
784.457	7932
784.562	8018
784.667	8125
784.772	7621
784.877	8078
784.982	7904
785.087	7303
785.192	8671
785.297	7550
785.402	7959
785.507	7869
785.611	8149
785.716	7767
785.821	7431
785.926	7334
786.031	7976
786.135	7794
786.240	8162
786.345	6490
786.450	7691
786.554	6228
786.659	6116
786.763	6378
786.868	6930
786.973	8486
787.077	7048
787.182	6366
787.286	7512
787.391	7492
787.495	6670
787.600	6560
787.704	6911
787.809	6806
787.913	6516
788.017	6882
788.122	7099
788.226	6421
788.330	5868
788.435	6295
788.539	7109
788.643	5124
788.747	5996
788.852	5712
788.956	6173
789.060	6605
789.164	6471
789.268	5814
789.372	6077
789.476	5982
789.580	6625
789.684	5726
789.788	6695
789.892	6076
789.996	6692
790.100	6252
790.204	5903
790.308	6583
790.412	6582
790.516	6693
790.620	6987
790.724	5790
790.828	5871
790.931	6274
791.035	6706
791.139	6493
791.242	6538
791.346	6571
791.450	6506
791.554	5495
791.657	5613
791.761	6089
791.864	6568
791.968	6161
792.072	5800
792.175	5619
792.279	6285
792.382	5659
792.486	6380
792.589	4925
792.693	5571
792.796	5474
792.899	6817
793.003	5478
793.106	5975
793.209	5595
793.313	5751
793.416	4904
793.519	6541
793.623	5717
793.726	6836
793.829	5843
793.932	5729
794.035	4835
794.138	6882
794.242	7024
794.345	10326
794.448	13093
794.551	27437
794.654	84361
794.757	234758
794.860	86380
794.963	14537
795.066	8168
795.169	7869
795.272	7073
795.375	7234
795.477	5718
795.580	6430
795.683	4249
795.786	5553
795.889	4100
795.991	5595
796.094	5184
796.197	4583
796.300	5463
796.402	5412
796.505	4287
796.608	4948
796.710	4985
796.813	4838
796.915	4957
797.018	5078
797.120	4833
797.223	3695
797.326	6090
797.428	4564
797.530	4492
797.633	3977
797.735	4517
797.838	4878
797.940	4465
798.042	4432
798.145	3614
798.247	4435
798.349	4749
798.452	5274
798.554	4720
798.656	4121
798.758	4506
798.860	5092
798.962	4207
799.065	4290
799.167	3669
799.269	5406
799.371	4463
799.473	5093
799.575	4684
799.677	4724
799.779	5657
799.881	4692
799.983	5153
800.085	4795
800.187	4208
800.289	3874
800.390	4898
800.492	4445
800.594	4009
800.696	4059
800.798	4277
800.899	4497
801.001	4530
801.103	3947
801.205	3782
801.306	4289
801.408	3251
801.509	4242
801.611	3971
801.713	4257
801.814	4008
801.916	4670
802.017	4380
802.119	3349
802.220	4281
802.322	2801
802.423	4578
802.525	3580
802.626	3181
802.727	4866
802.829	4329
802.930	2854
803.031	4852
803.133	4155
803.234	3685
803.335	4187
803.436	3225
803.538	3884
803.639	2526
803.740	3495
803.841	4080
803.942	4933
804.043	4502
804.144	3116
804.245	2647
804.346	3808
804.447	3885
804.548	2882
804.649	5533
804.750	3292
804.851	3462
804.952	4325
805.053	4267
805.154	2580
805.255	3514
805.355	4253
805.456	3921
805.557	2440
805.658	3476
805.758	4150
805.859	2985
805.960	3707
806.061	3402
806.161	3762
806.262	3069
806.362	4307
806.463	3066
806.564	4037
806.664	3119
806.765	3686
806.865	3711
806.966	3656
807.066	3322
807.166	3823
807.267	3759
807.367	3059
807.468	4289
807.568	3271
807.668	2531
807.769	4161
807.869	3287
807.969	4050
808.069	3757
808.170	3602
808.270	3106
808.370	3672
808.470	4386
808.570	3526
808.670	2694
808.770	3851
808.870	2996
808.970	3915
809.070	3592
809.170	3342
809.271	3846
809.370	4163
809.470	3191
809.570	3230
809.670	2870
809.770	3137
809.870	3048
809.970	4241
810.070	2538
810.169	3874
810.269	2598
810.369	4944
810.469	2988
810.568	2772
810.668	4010
810.768	3883
810.867	3224
810.967	3686
811.066	3440
811.166	2686
811.265	3857
811.365	3501
811.464	3763
811.564	3630
811.663	3791
811.763	3333
811.862	3431
811.962	3919
812.061	4036
812.160	3568
812.260	3857
812.359	5409
812.458	7283
812.557	14745
812.657	27160
812.756	17213
812.855	5156
812.954	4228
813.053	4064
813.153	4601
813.252	3609
813.351	3939
813.450	4687
813.549	4516
813.648	4053
813.747	4186
813.846	3540
813.945	4041
814.044	4091
814.143	5567
814.242	4009
814.341	4240
814.439	4070
814.538	4974
814.637	4601
814.736	4941
814.835	4725
814.933	5227
815.032	5545
815.131	5653
815.229	4851
815.328	6908
815.427	6465
815.525	6940
815.624	6208
815.722	6922
815.821	6332
815.919	7050
816.018	6974
816.116	7891
816.215	7769
816.313	8226
816.412	7754
816.510	8730
816.609	9741
816.707	10750
816.805	10537
816.904	11518
817.002	12193
817.100	13203
817.198	14936
817.296	16859
817.395	18558
817.493	22294
817.591	26214
817.689	33454
817.787	44960
817.885	63554
817.983	97490
818.081	168597
818.179	311632
818.277	561364
818.375	592827
818.473	385791
818.571	212473
818.669	132574
818.767	102523
818.865	95441
818.963	103961
819.061	128126
819.158	181795
819.256	290951
819.354	480278
819.452	680077
819.549	607151
819.647	449833
819.745	280415
819.842	176079
819.940	119390
820.038	85081
820.135	66048
820.233	53096
820.330	41792
820.428	34375
820.525	30140
820.623	26222
820.720	22401
820.818	20770
820.915	19092
821.012	17365
821.110	14841
821.207	13914
821.304	12570
821.402	11223
821.499	12366
821.596	11463
821.693	9512
821.791	10224
821.888	9178
821.985	10183
822.082	10191
822.179	8389
822.276	7333
822.373	7819
822.470	8177
822.567	6618
822.664	6970
822.761	7609
822.858	5634
822.955	6433
823.052	6206
823.149	5699
823.246	6289
823.343	6441
823.440	5745
823.536	4709
823.633	4702
823.730	5544
823.827	4629
823.923	5499
824.020	4933
824.117	5070
824.213	4081
824.310	4984
824.407	3938
824.503	4663
824.600	4732
824.696	4770
824.793	4663
824.889	5143
824.986	4086
825.082	4250
825.179	4249
825.275	3612
825.371	3540
825.468	4500
825.564	3172
825.660	3689
825.757	3975
825.853	4106
825.949	2974
826.045	4584
826.142	2835
826.238	4250
826.334	3736
826.430	2946
826.526	3648
826.622	2891
826.718	2940
826.814	3043
826.910	4172
827.006	3056
827.102	3746
827.198	4064
827.294	2708
827.390	3485
827.486	3726
827.582	3148
827.678	1760
827.774	3396
827.869	2561
827.965	3315
828.061	2427
828.157	3076
828.252	3407
828.348	3211
828.444	2934
828.539	1952
828.635	2538
828.731	3646
828.826	2388
828.922	3030
829.017	1975
829.113	3723
829.208	2411
829.304	2715
829.399	3850
829.495	2630
829.590	2902
829.685	1771
829.781	2695
829.876	2995
829.971	2469
830.066	2828
830.162	2205
830.257	3244
830.352	2278
830.447	3071
830.543	2610
830.638	1944
830.733	2999
830.828	2965
830.923	2946
831.018	2935
831.113	1741
831.208	2906
831.303	2131
831.398	1955
831.493	2263
831.588	2904
831.683	1417
831.778	2466
831.873	2549
831.967	2576
832.062	2008
832.157	2570
832.252	3020
832.346	2544
832.441	2708
832.536	3057
832.631	4030
832.725	5631
832.820	2658
832.914	2520
833.009	1692
833.104	2015
833.198	2422
833.293	2505
833.387	2194
833.482	2123
833.576	1387
833.670	2502
833.765	1680
833.859	2006
833.954	2581
834.048	1966
834.142	1564
834.237	1994
834.331	1846
834.425	2319
834.519	1332
834.613	2352
834.708	1834
834.802	2566
834.896	2085
834.990	2521
835.084	1807
835.178	2012
835.272	2168
835.366	1268
835.460	2687
835.554	2192
835.648	2072
835.742	1401
835.836	2233
835.930	1460
836.024	1795
836.117	2245
836.211	1368
836.305	2348
836.399	2728
836.493	1778
836.586	2682
836.680	2199
836.774	1451
836.867	2725
836.961	1121
837.055	1324
837.148	1737
837.242	2094
837.335	1315
837.429	1740
837.522	1715
837.616	2475
837.709	2266
837.803	2787
837.896	2131
837.989	2181
838.083	1966
838.176	2365
838.269	2888
838.363	2646
838.456	1749
838.549	2261
838.642	2350
838.735	4654
838.829	2679
838.922	1726
839.015	1274
839.108	1918
839.201	1860
839.294	2284
839.387	1839
839.480	1236
839.573	1307
839.666	1543
839.759	2038
839.852	1191
839.945	2024
840.038	1330
840.131	1611
840.223	1487
840.316	2207
840.409	1561
840.502	930
840.594	2460
840.687	1294
840.780	1670
840.873	1896
840.965	2363
841.058	1860
841.150	2504
841.243	2162
841.336	1711
841.428	1537
841.521	1175
841.613	1039
841.706	1915
841.798	1686
841.890	1241
841.983	809
842.075	1607
842.167	2058
842.260	1892
842.352	1461
842.444	2201
842.537	1961
842.629	4660
842.721	1881
842.813	1627
842.905	668
842.997	1400
843.090	1138
843.182	2043
843.274	1639
843.366	4246
843.458	7441
843.550	6342
843.642	2114
843.734	1507
843.826	977
843.918	2645
844.009	1892
844.101	1374
844.193	865
844.285	1352
844.377	1388
844.469	1890
844.560	1023
844.652	2010
844.744	1732
844.835	1707
844.927	1274
845.019	1214
845.110	1631
845.202	2578
845.293	1949
845.385	1207
845.476	1634
845.568	1860
845.659	1646
845.751	1745
845.842	1825
845.934	1232
846.025	1457
846.116	1598
846.208	1738
846.299	1269
846.390	1796
846.482	1210
846.573	1639
846.664	1657
846.755	1910
846.846	3225
846.937	444
847.029	2207
847.120	1734
847.211	1253
847.302	1643
847.393	1165
847.484	1714
847.575	1620
847.666	1209
847.757	1464
847.847	1681
847.938	1615
848.029	1496
848.120	1502
848.211	978
848.302	619
848.392	1200
848.483	2025
848.574	730
848.664	1090
848.755	1278
848.846	961
848.936	761
849.027	1532
849.118	1271
849.208	1314
849.299	1714
849.389	2662
849.480	2433
849.570	3278
849.661	4976
849.751	9747
849.841	4939
849.932	1969
850.022	918
850.112	1276
850.203	915
850.293	1742
850.383	1634
850.474	1764
850.564	1351
850.654	1743
850.744	1355
850.834	2214
850.924	1611
851.014	2085
851.104	1212
851.194	1680
851.284	1326
851.374	1946
851.464	1697
851.554	3149
851.644	2032
851.734	2973
851.824	4311
851.914	7034
852.004	14299
852.094	21346
852.183	7508
852.273	2335
852.363	1490
852.452	1372
852.542	1377
852.632	574
852.721	1501
852.811	1524
852.901	1332
852.990	1271
853.080	1108
853.169	1934
853.259	1409
853.348	745
853.438	1103
853.527	2232
853.617	1706
853.706	4051
853.795	4968
853.885	8387
853.974	16592
854.063	28398
854.152	52578
854.242	30083
854.331	5442
854.420	2961
854.509	1160
854.598	1687
854.687	2085
854.777	1902
854.866	1430
854.955	1881
855.044	428
855.133	2185
855.222	1074
855.311	628
855.400	1719
855.488	1728
855.577	1085
855.666	1613
855.755	984
855.844	2776
855.933	1963
856.021	1943
856.110	1101
856.199	496
856.288	104
856.376	1598
856.465	1087
856.554	1384
856.642	810
856.731	849
856.819	927
856.908	1513
856.996	492
857.085	1128
857.173	815
857.262	1017
857.350	404
857.438	1789
857.527	1021
857.615	831
857.703	1068
857.792	974
857.880	1474
857.968	1180
858.056	1165
858.145	1420
858.233	901
858.321	1136
858.409	1821
858.497	1309
858.585	622
858.673	1199
858.761	311
858.849	982
858.937	815
859.025	532
859.113	1410
859.201	924
859.289	1156
859.377	1443
859.465	1348
859.552	1132
859.640	1041
859.728	940
859.816	309
859.903	1965
859.991	203
860.079	1183
860.166	775
860.254	1896
860.342	1629
860.429	899
860.517	210
860.604	1471
860.692	978
860.779	709
860.867	608
860.954	1386
861.042	760
861.129	1294
861.216	940
861.304	502
861.391	1310
861.478	585
861.565	1104
861.653	791
861.740	-33
861.827	1229
861.914	717
862.001	811
862.089	1066
862.176	-104
862.263	692
862.350	1283
862.437	788
862.524	537
862.611	757
862.698	1144
862.785	699
862.871	813
862.958	373
863.045	1513
863.132	1246
863.219	799
863.306	4
863.392	1342
863.479	792
863.566	1018
863.652	174
863.739	408
863.826	888
863.912	1129
863.999	-45
864.086	1040
864.172	1085
864.259	988
864.345	946
864.432	972
864.518	254
864.604	623
864.691	262
864.777	1469
864.863	1401
864.950	1473
865.036	949
865.122	2485
865.209	1871
865.295	2265
865.381	1817
865.467	2141
865.553	1898
865.639	1237
865.726	2416
865.812	4620
865.898	7963
865.984	12301
866.070	20246
866.156	30486
866.242	11862
866.328	4136
866.414	1684
866.499	2202
866.585	1512
866.671	2062
866.757	1130
866.843	2456
866.928	1102
867.014	821
867.100	1764
867.186	1463
867.271	1670
867.357	2339
867.442	2129
867.528	1791
867.614	1569
867.699	853
867.785	1366
867.870	1582
867.956	1298
868.041	2654
868.127	1317
868.212	1347
868.297	1954
868.383	2001
868.468	1000
868.553	3453
868.639	2654
868.724	3915
868.809	5370
868.894	2068
868.979	1824
869.065	1748
869.150	1025
869.235	1068
869.320	928
869.405	1910
869.490	1054
869.575	2181
869.660	1027
869.745	1858
869.830	333
869.915	625
870.000	1489
870.085	1106
870.169	318
870.254	895
870.339	463
870.424	1166
870.509	1213
870.593	744
870.678	1713
870.763	1163
870.847	457
870.932	1775
871.016	1623
871.101	1029
871.186	896
871.270	1436
871.355	524
871.439	1702
871.523	1341
871.608	999
871.692	486
871.777	1347
871.861	1373
871.945	1106
872.030	1309
872.114	653
872.198	341
872.282	881
872.367	1172
872.451	1548
872.535	605
872.619	415
872.703	647
872.787	961
872.871	1152
872.955	517
873.039	451
873.123	740
873.207	1563
873.291	1237
873.375	501
873.459	1486
873.543	-236
873.627	889
873.711	514
873.794	235
873.878	660
873.962	517
874.045	-7
874.129	405
874.137	349
874.213	-215
874.245	137
874.296	701
874.352	302
874.380	113
874.460	1158
874.464	1198
874.547	990
874.568	1058
874.631	1279
874.676	743
874.714	289
874.784	804
874.798	910
874.881	1053
874.892	1109
874.965	1482
874.999	1117
875.048	630
875.107	835
875.131	913
875.215	781
875.215	781
875.298	842
875.323	698
875.381	370
875.430	1160
875.465	1763
875.538	908
875.548	771
875.631	958
875.646	895
875.714	658
875.753	609
875.798	503
875.861	507
875.881	539
875.964	1106
875.968	1086
876.047	673
876.076	754
876.130	914
876.183	1183
876.213	1306
876.291	391
876.296	339
876.379	609
876.398	730
876.462	1019
876.506	679
876.545	408
876.613	701
876.628	759
876.711	895
876.721	912
876.794	1132
876.828	847
876.877	377
876.935	-117
876.960	-302
877.043	957
877.043	958
877.125	988
877.150	922
877.208	901
877.258	937
877.291	941
877.365	998
877.374	1000
877.456	1012
877.472	912
877.539	445
877.579	732
877.622	1016
877.687	504
877.704	389
877.787	803
877.794	772
877.869	367
877.901	457
877.952	670
878.008	360
878.034	224
878.115	734
878.117	740
878.199	215
878.222	349
878.282	863
878.329	731
878.364	571
878.437	827
878.447	874
878.529	290
878.544	373
878.611	531
878.651	435
878.694	589
878.758	821
878.776	795
878.858	666
878.865	632
878.941	263
878.972	346
879.023	552
879.078	651
879.105	701
879.185	578
879.187	575
879.269	1335
879.292	1044
879.351	330
879.399	537
879.433	622
879.506	80
879.516	46
879.598	847
879.613	782
879.680	196
879.720	317
879.762	507
879.827	709
879.844	705
879.926	-36
879.933	-48
880.007	461
880.040	705
880.089	879
880.147	594
880.171	386
880.253	1170
880.254	1169
880.335	660
880.360	850
880.417	1778
880.467	2693
880.499	3088
880.574	4545
880.580	4598
880.662	1731
880.680	1370
880.744	338
880.787	182
880.825	309
880.893	494
880.907	437
880.989	-217
881.000	-191
881.070	366
881.106	275
881.152	-8
881.213	-1
881.233	94
881.315	199
881.319	227
881.396	444
881.426	249
881.478	-34
881.532	335
881.559	492
881.639	-133
881.641	-140
881.722	473
881.745	514
881.803	338
881.852	278
881.885	238
881.958	270
881.966	275
882.047	363
882.064	325
882.129	321
882.171	705
882.210	1061
882.277	885
882.291	801
882.372	1010
882.383	877
882.454	75
882.489	71
882.535	257
882.596	459
882.616	304
882.697	56
882.702	4
882.778	181
882.808	365
882.859	285
882.914	144
882.940	138
883.020	101
883.021	97
883.102	-442
883.127	-460
883.183	-4
883.233	70
883.264	55
883.339	501
883.345	524
883.426	-41
883.445	100
883.507	660
883.551	581
883.587	365
883.657	219
883.668	186
883.749	18
883.763	-37
883.830	135
883.869	201
883.910	51
883.975	271
883.991	423
884.072	264
884.081	321
884.152	345
884.187	181
884.233	6
884.292	61
884.314	75
884.394	-147
884.398	-158
884.475	17
884.504	150
884.555	135
884.610	-68
884.636	-157
884.716	108
884.716	108
884.797	62
884.821	10
884.877	-139
884.927	-237
884.958	-280
885.033	-214
885.038	-191
885.118	138
885.139	249
885.199	62
885.244	-159
885.279	-23
885.350	299
885.359	260
885.439	-28
885.456	-132
885.520	-294
885.561	-226
885.600	-219
885.667	-676
885.680	-689
885.760	-145
885.773	-111
885.840	284
885.878	604
885.920	741
885.984	817
886.000	673
886.080	170
886.089	83
886.160	-17
886.195	79
886.240	124
886.300	-76
886.320	12
886.400	553
886.406	588
886.480	185
886.511	11
886.560	252
886.616	467
886.640	394
886.720	411
886.722	402
886.800	-189
886.827	-260
886.879	-137
886.932	-180
886.959	-124
887.038	263
887.039	262
887.119	65
887.143	89
887.198	163
887.248	178
887.278	161
887.354	70
887.358	70
887.437	52
887.459	77
887.517	-184
887.564	-438
887.596	-393
887.669	-92
887.676	-107
887.755	-562
887.774	-600
887.835	-566
887.880	-584
887.914	-488
887.985	-472
887.994	-457
888.073	24
888.090	96
888.153	-76
888.195	-250
888.232	-148
888.300	188
888.311	123
888.391	-384
888.405	-461
888.470	85
888.510	328
888.549	21
888.615	-355
888.628	-211
888.708	651
888.720	784
888.787	297
888.825	17
888.866	104
888.930	234
888.945	218
889.024	178
889.035	172
889.103	114
889.140	98
889.182	-162
889.245	-576
889.261	-543
889.340	-309
889.349	-278
889.419	-660
889.454	-849
889.498	-512
889.559	-20
889.577	-19
889.656	0
889.664	8
889.735	423
889.768	618
889.814	253
889.873	-223
889.978	564
890.083	120
890.187	-189
890.292	-61
890.397	451
890.501	-285
890.606	-531
890.710	-228
890.815	395
890.919	148
891.024	18
891.128	246
891.233	579
891.337	-1088
891.442	-318
891.546	-182
891.650	385
891.755	-620
891.859	987
891.963	-483
892.068	290
892.172	144
892.276	-254
892.380	294
892.484	227
892.589	-129
892.693	104
892.797	194
892.901	87
893.005	-149
893.109	-299
893.213	-157
893.317	-183
893.421	-131
893.525	-134
893.629	-994
893.733	243
893.837	-561
893.941	204
894.045	234
894.148	-828
894.252	-128
894.356	-307
894.460	-543
894.564	556
894.667	-34
894.771	-502
894.875	-5
894.978	-301
895.082	-493
895.186	-311
895.289	51
895.393	-532
895.496	-182
895.600	579
895.703	-406
895.807	564
895.910	-687
896.014	-93
896.117	-1037
896.221	181
896.324	-713
896.427	-560
896.531	-700
896.634	-1066
896.737	-203
896.840	-693
896.944	-233
897.047	-780
897.150	63
897.253	-616
897.356	-247
897.460	-639
897.563	-578
897.666	-568
897.769	-691
897.872	-529
897.975	-786
898.078	-469
898.181	-394
898.284	-328
898.387	-421
898.490	-79
898.593	-340
898.695	-334
898.798	-717
898.901	-170
899.004	221
899.107	-448
899.209	-611
899.312	-172
899.415	-422
899.518	-78
899.620	-1149
899.723	137
899.826	0
899.928	-368
900.031	-708
900.133	-556
900.236	-754
900.338	193
900.441	-445
900.543	-725
900.646	-330
900.748	-934
900.851	-792
900.953	116
901.055	-332
901.158	-823
901.260	-869
901.362	-528
901.465	-379
901.567	-504
901.669	-612
901.771	-1204
901.873	-523
901.976	-368
902.078	-1358
902.180	30
902.282	-895
902.384	533
902.486	-482
902.588	-378
902.690	-1023
902.792	-900
902.894	527
902.996	-610
903.098	-699
903.200	-481
903.302	-812
903.404	-682
903.505	-1241
903.607	99
903.709	-724
903.811	-110
903.913	-1368
904.014	-1014
904.116	-765
904.218	-189
904.319	-522
904.421	-714
904.523	-497
904.624	-450
904.726	-1184
904.827	-60
904.929	-1838
905.030	-617
905.132	-511
905.233	-446
905.335	-913
905.436	139
905.537	-944
905.639	-84
905.740	-912
905.841	-136
905.943	-1296
906.044	-976
906.145	253
906.247	-1187
906.348	-807
906.449	-864
906.550	-728
906.651	-74
906.752	-568
906.854	-187
906.955	-566
907.056	-296
907.157	-238
907.258	-1058
907.359	-561
907.460	-873
907.561	-1252
907.662	-447
907.762	-222
907.863	-282
907.964	-1299
908.065	-81
908.166	-544
908.267	-255
908.367	-995
908.468	-958
908.569	-1071
908.670	-310
908.770	-333
908.871	-862
908.971	264
909.072	-576
909.173	-518
909.273	-583
909.374	-571
909.474	-1243
909.575	-511
909.675	-104
909.776	-1012
909.876	-1073
909.977	-665
910.077	-283
910.177	-294
910.278	-650
910.378	-796
910.478	-491
910.579	-1330
910.679	-745
910.779	-242
910.879	-62
910.980	-587
911.080	-404
911.180	-872
911.280	-204
911.380	-278
911.480	-268
911.580	-277
911.680	-1140
911.780	-1308
911.880	-520
911.980	-323
912.080	-703
912.180	-601
912.280	-610
912.380	-367
912.480	16
912.580	-933
912.679	-344
912.779	-322
912.879	-134
912.979	-1233
913.078	-823
913.178	-396
913.278	-275
913.377	-96
913.477	-30
913.577	-1202
913.676	107
913.776	-1291
913.875	-21
913.975	-614
914.074	-454
914.174	-211
914.273	-678
914.373	-605
914.472	-746
914.572	-570
914.671	-670
914.770	-575
914.870	-1228
914.969	-724
915.068	-372
915.167	-1549
915.267	-1218
915.366	-502
915.465	-515
915.564	-951
915.663	-811
915.763	-427
915.862	-730
915.961	-1361
916.060	-586
916.159	-379
916.258	-500
916.357	-940
916.456	-937
916.555	-627
916.654	-212
916.752	-1416
916.851	-168
916.950	-309
917.049	-451
917.148	-1370
917.247	-916
917.345	-577
917.444	-1207
917.543	-374
917.642	-737
917.740	-1071
917.839	-764
917.937	-836
918.036	-142
918.135	-338
918.233	-672
918.332	-845
918.430	-936
918.529	-1050
918.627	113
918.726	-1123
918.824	-711
918.923	-435
919.021	-78
919.119	-149
919.218	-404
919.316	-616
919.414	-668
919.512	74
919.611	-482
919.709	-228
919.807	-505
919.905	-1222
920.003	-927
920.102	-601
920.200	-284
920.298	-1178
920.396	-917
920.494	-1197
920.592	-579
920.690	-910
920.788	-647
920.886	-851
920.984	-698
921.082	-924
921.180	608
921.277	-1450
921.375	-298
921.473	-792
921.571	-718
921.669	-938
921.766	-873
921.864	-1298
921.962	-508
922.060	-834
922.157	312
922.255	-228
922.352	-945
922.450	-1289
922.548	-425
922.645	-713
922.743	-696
922.840	-675
922.938	-477
923.035	-886
923.133	-371
923.230	-1025
923.327	-236
923.425	-1006
923.522	-373
923.619	-532
923.717	-209
923.814	-742
923.911	-480
924.008	-490
924.106	-443
924.203	-995
924.300	-343
924.397	-858
924.494	-156
924.591	-807
924.688	-476
924.786	-574
924.883	-390
924.979	-1046
925.077	-653
925.173	-952
925.270	-1033
925.367	-1100
925.464	-913
925.561	-789
925.658	-135
925.755	-1086
925.852	-704
925.948	-697
926.045	-1209
926.142	-847
926.239	-304
926.335	-933
926.432	-552
926.529	-509
926.625	-334
926.722	-924
926.818	-629
926.915	-1100
927.011	290
927.108	-1452
927.204	-568
927.301	-674
927.397	-448
927.494	-799
927.590	-426
927.687	-990
927.783	-1048
927.879	-475
927.976	-1068
928.072	-988
928.168	-692
928.264	-329
928.361	-1126
928.457	-310
928.553	-378
928.649	-1303
928.745	-84
928.841	-868
928.937	-955
929.033	-1134
929.129	-119
929.225	-897
929.321	-449
929.417	-944
929.513	-683
929.609	-975
929.705	-1071
929.801	-1382
929.897	-830
929.993	-739
930.089	-925
930.184	-670
930.280	-728
930.376	-1179
930.471	-763
930.567	-618
930.663	-1156
930.758	-403
930.854	-915
930.950	-724
931.045	-1153
931.141	-1438
931.236	-774
931.332	-688
931.427	-16
931.523	-805
931.618	-1193
931.714	-1544
931.809	-894
931.905	-561
932.000	158
932.095	-1330
932.191	-826
932.286	-1108
932.381	-670
932.476	-1088
932.572	-548
932.667	-1494
932.762	-728
932.857	-1490
932.952	-862
933.047	-1358
933.142	-989
933.237	-419
933.332	-265
933.427	-519
933.522	-1249
933.617	-1037
933.712	-828
933.807	-1256
933.902	-986
933.997	-830
934.092	-451
934.187	-1274
934.282	96
934.376	-824
934.471	-397
934.566	-1036
934.661	-1093
934.755	-476
934.850	-405
934.945	-1090
935.039	-505
935.134	-576
935.228	-652
935.323	-881
935.417	-1074
935.512	-1140
935.606	-747
935.701	-1290
935.795	-960
935.890	-1005
935.984	-380
936.079	-1734
936.173	-1126
936.267	-1212
936.362	-941
936.456	-1417
936.550	126
936.644	-706
936.738	-1256
936.833	-41
936.927	-842
937.021	-971
937.115	-388
937.209	-1495
937.303	277
937.397	-1566
937.491	-387
937.585	10
937.679	-363
937.773	-328
937.867	417
937.961	-1626
938.055	-617
938.149	-1048
938.243	-364
938.337	-504
938.430	-844
938.524	-1515
938.618	-727
938.712	-1235
938.805	-566
938.899	-653
938.993	-1149
939.086	-1423
939.180	-1002
939.274	-833
939.367	-569
939.461	-840
939.554	-599
939.648	-1167
939.741	-436
939.835	-1197
939.928	-1512
940.022	-881
940.115	-986
940.208	-427
940.302	-485
940.395	-1683
940.488	-957
940.582	-771
940.675	-1042
940.768	-1305
940.861	-342
940.954	-478
941.048	-953
941.141	-1663
941.234	-194
941.327	-462
941.420	-297
941.513	-360
941.606	-1129
941.699	-326
941.792	-1017
941.885	-1630
941.978	-692
942.071	-895
942.164	-1520
942.257	-1213
942.349	-415
942.442	-553
942.535	-1187
942.628	-1884
942.721	-742
942.813	-2436
942.906	-262
942.999	-364
943.091	-1281
943.184	-1283
943.277	-675
943.369	-1281
943.462	-677
943.554	-538
943.647	-1514
943.739	-1059
943.832	-900
943.924	-1389
944.017	-625
944.109	-1550
944.201	-849
944.294	-831
944.386	-739
944.478	-389
944.571	-599
944.663	-1899
944.755	-956
944.847	-1563
944.940	-977
945.032	-1042
945.124	-976
945.216	-159
945.308	-958
945.400	-1118
945.492	-1323
945.584	-719
945.676	-528
945.768	-850
945.860	-271
945.952	-533
946.044	-677
946.136	-510
946.228	-769
946.320	-640
946.412	-1274
946.503	-618
946.595	-1641
946.687	-1268
946.779	-104
946.870	-1470
946.962	-463
947.054	-1188
947.145	-130
947.237	-580
947.329	-827
947.420	-1758
947.512	-665
947.603	-1609
947.695	-1077
947.786	-1289
947.878	-601
947.969	-975
948.061	-728
948.152	-1457
948.243	-1451
948.335	-579
948.426	-909
948.517	-1007
948.609	-982
948.700	-742
948.791	-849
948.882	-687
948.973	-680
949.065	-954
949.156	-645
949.247	-1885
949.338	-978
949.429	-974
949.520	-40
949.611	-1094
949.702	-1042
949.793	-858
949.884	-1073
949.975	-1130
950.066	-420
950.157	-1526
950.247	-1069
950.338	-615
950.429	-901
950.520	-1152
950.611	-618
950.701	-1075
950.792	-449
950.883	-353
950.973	-1419
951.064	-1779
951.155	-1533
951.245	-1331
951.336	-783
951.427	-1173
951.517	-58
951.608	-1292
951.698	-1185
951.788	-1132
951.879	-932
951.969	-1050
952.060	-283
952.150	-1065
952.240	-568
952.331	-1981
952.421	-210
952.511	-905
952.602	-348
952.692	-1490
952.782	-880
952.872	-1591
952.962	-1051
953.052	-1628
953.143	-1291
953.233	-1600
953.323	-429
953.413	-1092
953.503	-952
953.593	-1273
953.683	-1209
953.773	-1678
953.863	-947
953.953	-1959
954.042	-606
954.132	-1431
954.222	-691
954.312	-1082
954.402	-770
954.492	-1125
954.581	-800
954.671	-1082
954.761	-1086
954.850	227
954.940	-1028
955.030	-1308
955.119	-1449
955.209	-1139
955.298	-816
955.388	-905
955.477	-901
955.567	-1624
955.656	-578
955.746	-938
955.835	-1113
955.925	-2126
956.014	-1369
956.103	-2008
956.193	-1323
956.282	-1248
956.371	-640
956.461	-1310
956.550	-845
956.639	-1760
956.728	-1054
956.817	-1743
956.906	-501
956.995	-1318
957.085	-945
957.174	-1119
957.263	-619
957.352	-440
957.441	-1347
957.530	-694
957.619	-722
957.708	-883
957.796	-590
957.885	-1418
957.974	-1472
958.063	-651
958.152	-584
958.241	-1619
958.329	-773
958.418	-1391
958.507	-824
958.596	-1344
958.684	-935
958.773	-738
958.861	-518
958.950	-40
959.039	-263
959.127	-1654
959.216	-444
959.304	-881
959.393	-967
959.481	-1007
959.570	-905
959.658	-930
959.746	-859
959.835	-850
959.923	-850
960.011	-1149
960.100	-99
960.188	-495
960.276	-1019
960.365	-1391
960.453	-994
960.541	-1147
960.629	-355
960.717	-1022
960.805	-1097
960.893	-1007
960.981	-646
961.069	-1610
961.158	-1489
961.245	-1002
961.333	-566
961.421	-1961
961.509	-1429
961.597	-1421
961.685	-841
961.773	-777
961.861	-1585
961.949	-546
962.036	-1116
962.124	-539
962.212	-963
962.299	-1600
962.387	-1502
962.475	-1756
962.562	-1357
962.650	-1500
962.738	-1439
962.825	-1412
962.913	-509
963.000	-761
963.088	-1013
963.175	-1298
963.263	-735
963.350	-1234
963.438	-1936
963.525	-1847
963.612	-633
963.700	-1370
963.787	405
963.874	285
963.962	-610
964.049	-1514
964.136	-1094
964.223	-1590
964.310	-1640
964.398	-1545
964.485	-1442
964.572	-1170
964.659	-562
964.746	-1239
964.833	-786
964.920	-1914
965.007	-674
965.094	-1229
965.181	-1883
965.268	-1809
965.355	-1257
965.441	-968
965.528	-1254
965.615	-970
965.702	-697
965.789	-1662
965.875	-1767
965.962	-1811
966.049	-852
966.136	-1176
966.222	-1711
966.309	-1711
966.395	-2111
966.482	-1218
966.569	-1548
966.655	-1985
966.742	-1317
966.828	-1290
966.915	-1428
967.001	-1827
967.087	-2220
967.174	-1521
967.260	-1021
967.347	-1901
967.433	-1306
967.519	-703
967.605	-818
967.692	-1754
967.778	-974
967.864	-2150
967.950	-945
968.036	-1803
968.123	-507
968.209	-1205
968.295	-1738
968.381	-1641
968.467	-1430
968.553	-1738
968.639	-468
968.725	-2294
968.811	-1762
968.897	-1408
968.983	-2083
969.069	-817
969.154	-707
969.240	-1059
969.326	-1436
969.412	-1832
969.497	-1000
969.583	-1434
969.669	-1298
969.755	-1582
969.840	-1488
969.926	-1233
970.012	-1942
970.097	-1804
970.183	-1318
970.268	-1744
970.354	-1598
970.439	-1164
970.525	-338
970.610	-2128
970.696	-1471
970.781	-1758
970.866	-1512
970.952	-1063
971.037	-1370
971.122	-956
971.208	-2164
971.293	-1575
971.378	-1356
971.463	-1414
971.549	-1097
971.634	-1100
971.719	-1513
971.804	-1149
971.889	-1327
971.974	-1684
972.059	-1640
972.144	-2004
972.229	-1837
972.314	-2586
972.399	-1167
972.484	-1102
972.569	-2276
972.654	-2494
972.739	-503
972.824	-1462
972.908	-909
972.993	-1836
973.078	-2350
973.163	-1837
973.247	-931
973.332	-2608
973.417	-629
973.501	-1964
973.586	-1186
973.671	-2180
973.755	-646
973.840	-1027
973.924	-842
974.009	-1885
974.093	-1756
974.178	-694
974.262	-1184
974.346	-913
974.431	-943
974.515	-1627
974.600	-1850
974.684	-2680
974.768	-1464
974.852	-1245
974.937	-1801
975.021	-1286
975.105	-776
975.189	-1604
975.273	-549
975.358	-3083
975.442	-1653
975.526	-1755
975.610	-1283
975.694	-2691
975.778	-761
975.862	-1775
975.946	-2246
976.030	-1010
976.114	-1416
976.198	-1767
976.281	-1286
976.365	-1855
976.449	-1986
976.533	-2037
976.617	-2002
976.700	-1079
976.784	-1374
976.868	-1952
976.951	-1576
977.035	-1837
977.119	-1888
977.202	-1827
977.286	-1460
977.369	-1838
977.453	-1771
977.536	-2602
977.620	-1511
977.703	-1788
977.787	-2174
977.870	-1503
977.953	-1288
978.037	-1877
978.120	-819
978.203	-2587
978.287	-1384
978.370	-1949
978.453	-1350
978.536	-1289
978.620	-720
978.703	-2096
978.786	-1724
978.869	-1953
978.952	-2137
979.035	-1713
979.118	-1530
979.201	-2042
979.284	-1603
979.367	-2500
979.450	-1668
979.533	-2301
979.616	-1993
979.699	-2030
979.782	-1459
979.865	-1807
979.948	-1423
980.030	-2801
980.113	-1898
980.196	-2218
980.279	-1188
980.361	-1893
980.444	-2396
980.526	-1632
980.609	-1650
980.692	-2075
980.774	-1720
980.857	-2397
980.939	-1152
981.022	-1817
981.104	-1335
981.187	-1772
981.269	-2033
981.352	-2106
981.434	-2458
981.516	-2562
981.599	-689
981.681	-2404
981.763	-2540
981.846	-2342
981.928	-1100
982.010	-2837
982.092	-2026
982.174	-1985
982.256	-2567
982.339	-2020
982.421	-1946
982.503	-1521
982.585	-1339
982.667	-1613
982.749	-2348
982.831	-2065
982.913	-2307
982.995	-1656
983.077	-2185
983.158	-1437
983.240	-2795
983.322	-1141
983.404	-2154
983.486	-2586
983.568	-1399
983.649	-1979
983.731	-1315
983.813	-2231
983.894	-2427
983.976	-2179
984.058	-1989
984.139	-1548
984.221	-2780
984.302	-1176
984.384	-2166
984.465	-2445
984.547	-1846
984.628	-2344
984.710	-1455
984.791	-2266
984.872	-2149
984.954	-2124
985.035	-1390
985.116	-2286
985.198	-1446
985.279	-1447
985.360	-1779
985.441	-2999
985.522	-1400
985.604	-1894
985.685	-2739
985.766	-1696
985.847	-1275
985.928	-2937
986.009	-1522
986.090	-1715
986.171	-1621
986.252	-2353
986.333	-1249
986.414	-1372
986.495	-1753
986.576	-2192
986.656	-1962
986.737	-1859
986.818	-1953
986.899	-2503
986.980	-1681
987.060	-1403
987.141	-2000
987.222	-1177
987.302	-1918
987.383	-1719
987.464	-969
987.544	-1640
987.625	-2302
987.705	-470
987.786	-1945
987.866	-1670
987.947	-1245
988.027	-1665
988.108	-2363
988.188	-1507
988.268	-1739
988.349	-1477
988.429	-1389
988.509	-1466
988.589	-1908
988.670	-3351
988.750	-163
988.830	-1878
988.910	-1542
988.990	-1678
989.070	-1616
989.151	-1911
989.231	-2505
989.311	-1464
989.391	-1340
989.471	-1991
989.551	-2104
989.631	-1926
989.711	-1784
989.791	-2248
989.870	-2012
989.950	-1122
990.030	-1955
990.110	-2004
990.190	-1451
990.269	-2705
990.349	-1388
990.429	-1782
990.509	-1884
990.588	-2404
990.668	-1792
990.747	-2063
990.827	-1763
990.907	-2715
990.986	-1020
991.066	-1570
991.145	-1562
991.225	-1514
991.304	-1879
991.383	-1204
991.463	-1332
991.542	-1462
991.622	-1639
991.701	-1788
991.780	-1546
991.859	-1836
991.939	-2180
992.018	-1408
992.097	-1547
992.176	-2673
992.256	-2118
992.335	-2200
992.414	-937
992.493	-2465
992.572	-1654
992.651	-1303
992.730	-1700
992.809	-1439
992.888	-2252
992.967	-1924
993.046	-1482
993.125	-1698
993.203	-1899
993.282	-1707
993.361	-1388
993.440	-1780
993.519	-2695
993.597	-2119
993.676	-1741
993.755	-2064
993.834	-1344
993.912	-2775
993.991	-1109
994.069	-2337
994.148	-2051
994.226	-2343
994.305	-1581
994.384	-3274
994.462	-1462
994.540	-2279
994.619	-1818
994.697	-1366
994.776	-2682
994.854	-1304
994.932	-2464
995.011	-2003
995.089	-2301
995.167	-1825
995.245	-763
995.324	-2655
995.402	-1036
995.480	-2465
995.558	-1776
995.636	-3258
995.714	-2504
995.792	-1877
995.870	-2329
995.948	-2096
996.026	-1531
996.104	-2699
996.182	-1570
996.260	-2900
996.338	-2087
996.416	-2660
996.494	-1832
996.572	-1570
996.649	-2107
996.727	-3165
996.805	-1892
996.883	-2121
996.960	-2243
997.038	-1942
997.116	-918
997.193	-2712
997.271	-988
997.348	-2134
997.426	-1338
997.504	-2767
997.581	-1774
997.658	-1452
997.736	-2443
997.813	-2576
997.891	-1505
997.968	-1301
998.046	-2449
998.123	-2254
998.200	-1593
998.277	-2185
998.355	-856
998.432	-3155
998.509	-2229
998.586	-1108
998.663	-1151
998.741	-1520
998.818	-2248
998.895	-2507
998.972	-1123
999.049	-1770
999.126	-1801
999.203	-2497
999.280	-1847
999.357	-2132
999.434	-2487
999.511	-1620
999.587	-1984
999.664	-1578
999.741	-1562
999.818	-1963
999.895	-1735
999.971	-2876
1000.048	-1745
1000.125	-1896
1000.202	-2439
1000.278	-2020
1000.355	-1575
1000.431	-1209
1000.508	-2219
1000.584	-1634
1000.661	-1364
1000.738	-2212
1000.814	-1499
1000.890	-872
1000.967	-2570
1001.043	-1489
1001.120	-2127
1001.196	-2017
1001.272	-2069
1001.349	-1643
1001.425	-1083
1001.501	-1639
1001.577	-2970
1001.654	-1436
1001.730	-1321
1001.806	-1457
1001.882	-1874
1001.958	-2873
1002.034	-1740
1002.110	-1284
1002.186	-1364
1002.262	-1559
1002.338	-2380
1002.414	-1563
1002.490	-2084
1002.566	-2818
1002.642	-1303
1002.718	-1634
1002.794	-1638
1002.870	-2895
1002.945	-2447
1003.021	-1500
1003.097	-1449
1003.173	-1752
1003.248	-1598
1003.324	-1369
1003.400	-1251
1003.475	-2515
1003.551	-1539
1003.626	-2042
1003.702	-1306
1003.777	-1438
1003.853	-1758
1003.928	-3497
1004.004	-1455
1004.079	-1811
1004.155	-1524
1004.230	-3344
1004.305	-1263
1004.381	-2412
1004.456	-981
1004.531	-2118
1004.607	-2142
1004.682	-1672
1004.757	-2089
1004.832	-2579
1004.907	-1925
1004.982	-1836
1005.057	-1582
1005.133	-2313
1005.208	-1671
1005.283	-1973
1005.358	-1518
1005.433	-2455
1005.508	-1713
1005.583	-1957
1005.657	-1922
1005.732	-1819
1005.807	-2230
1005.882	-2393
1005.957	-1303
1006.032	-1624
1006.106	-1130
1006.181	-1733
1006.256	-1767
1006.331	-2791
1006.405	-1998
1006.480	-1623
1006.554	-1088
1006.629	-1755
1006.704	-1646
1006.778	-1822
1006.853	-2188
1006.927	-1979
1007.002	-1534
1007.076	-2074
1007.150	-1689
1007.225	-1605
1007.299	-1400
1007.373	-1762
1007.448	-1964
1007.522	-1255
1007.596	-1869
1007.671	-2366
1007.745	-1650
1007.819	-2580
1007.893	-2606
1007.967	-1737
1008.041	-2684
1008.115	-1792
1008.190	-2406
1008.264	-1943
1008.338	-2728
1008.412	-2362
1008.486	-2582
1008.560	-2261
1008.633	-2497
1008.707	-3076
1008.781	-1633
1008.855	-1949
1008.929	-2131
1009.003	-2049
1009.076	-2430
1009.150	-2241
1009.224	-2694
1009.298	-2304
1009.371	-2964
1009.445	-1609
1009.519	-1611
1009.592	-2243
1009.666	-2011
1009.739	-2532
1009.813	-2330
1009.886	-1379
1009.960	-2907
1010.033	-1714
1010.107	-1634
1010.180	-2827
1010.253	-1740
1010.327	-2526
1010.400	-2887
1010.473	-2144
1010.547	-466
1010.620	-2612
1010.693	-2048
1010.766	-2438
1010.840	-1624
1010.913	-1956
1010.986	-2024
1011.059	-2201
1011.132	-1830
1011.205	-2567
1011.278	-2015
1011.351	-2801
1011.424	-2424
1011.497	-3264
1011.570	-2040
1011.643	-2424
1011.716	-1888
1011.789	-2390
1011.862	-2123
1011.934	-2460
1012.007	-2653
1012.080	-2932
1012.153	-2585
1012.225	-1701
1012.298	-2537
1012.371	-3156
1012.443	-1167
1012.516	-3448
1012.588	-2685
1012.661	-2039
1012.733	-2531
1012.806	-981
1012.879	-2893
1012.951	-2333
1013.023	-2178
1013.096	-1745
1013.168	-2810
1013.241	-2180
1013.313	-2527
1013.385	-2624
1013.458	-2508
1013.530	-1436
1013.602	-2976
1013.674	-2057
1013.746	-2496
1013.819	-2442
1013.891	-1312
1013.963	-2481
1014.035	-2431
1014.107	-3023
1014.179	-2250
1014.251	-2778
1014.323	-2208
1014.395	-2168
1014.467	-1545
1014.539	-2672
1014.611	-2290
1014.683	-2828
1014.754	-2204
1014.826	-2948
1014.898	-1985
1014.970	-2622
1015.042	-1095
1015.113	-2101
1015.185	-2485
1015.257	-3083
1015.328	-2073
1015.400	-2870
1015.471	-2246
1015.543	-2717
1015.615	-1480
1015.686	-3123
1015.757	-2206
1015.829	-2713
1015.901	-2208
1015.972	-2972
1016.043	-2324
1016.115	-2660
1016.186	-2357
1016.257	-2413
1016.328	-2111
1016.400	-1032
1016.471	-2192
1016.542	-3326
1016.613	-2708
1016.685	-2556
1016.756	-2286
1016.827	-3020
1016.898	-3013
1016.969	-2597
1017.040	-2456
1017.111	-3024
1017.182	-2503
1017.253	-2247
1017.324	-2288
1017.395	-2725
1017.466	-1342
1017.537	-2824
1017.608	-2046
1017.678	-2998
1017.749	-2072
1017.820	-2505
1017.891	-2422
1017.961	-2979
1018.032	-2778
1018.103	-2375
1018.173	-2375
1018.244	-2946
1018.315	-2719
1018.385	-3348
1018.456	-2094
1018.526	-2661
1018.597	-2281
1018.667	-3377
1018.738	-2307
1018.808	-2929
1018.878	-1933
1018.949	-2258
1019.019	-1808
1019.089	-2428
1019.160	-2454
1019.230	-3114
1019.300	-2441
1019.371	-2965
1019.441	-2713
1019.511	-2033
1019.581	-2440
1019.651	-2415
1019.721	-2091
1019.791	-2854
1019.861	-2431
1019.931	-3061
1020.001	-2273
1020.071	-2862
1020.141	-2436
1020.211	-2977
1020.281	-3005
1020.351	-2490
1020.421	-1805
1020.491	-2647
1020.560	-2664
1020.630	-2161
1020.700	-2653
1020.770	-3126
1020.839	-1490
1020.909	-2869
1020.979	-3104
1021.048	-2324
1021.118	-1914
1021.187	-3094
1021.257	-2679
1021.326	-1700
1021.396	-2863
1021.465	-2582
1021.535	-2946
1021.604	-3899
1021.674	-2522
1021.743	-2348
1021.812	-2780
1021.882	-2106
1021.951	-2471
1022.020	-2694
1022.089	-1903
1022.159	-2058
1022.228	-2451
1022.297	-3482
1022.366	-2706
1022.435	-2914
1022.504	-2149
1022.573	-3092
1022.642	-2438
1022.711	-3426
1022.781	-1930
1022.849	-2312
1022.918	-3532
1022.987	-2221
1023.056	-2485
1023.125	-2882
1023.194	-3087
1023.263	-3040
1023.331	-2048
1023.400	-3384
1023.469	-3314
1023.538	-1896
1023.606	-2616
1023.675	-3239
1023.744	-2870
1023.812	-2973
1023.881	-2617
1023.949	-3073
1024.018	-2524
1024.086	-2618
1024.155	-2523
1024.223	-2115
1024.292	-2709
1024.360	-2638
1024.429	-3171
1024.497	-3707
1024.565	-2838
1024.634	-2564
1024.702	-1981
1024.770	-2323
1024.838	-2919
1024.907	-2923
1024.975	-2623
1025.043	-2866
1025.111	-2643
1025.179	-2553
1025.247	-2651
1025.315	-2959
1025.383	-2545
1025.451	-3203
1025.519	-2522
1025.587	-3007
1025.655	-2485
1025.723	-3241
1025.791	-1988
1025.859	-2633
1025.927	-2703
1025.995	-2636
1026.062	-2459
1026.130	-2193
1026.198	-2189
1026.266	-3141
1026.333	-2540
1026.401	-2160
1026.469	-2629
1026.536	-3107
1026.604	-2775
1026.671	-2328
1026.739	-2814
1026.806	-3324
1026.874	-2315
1026.941	-3178
1027.009	-2798
1027.076	-2850
1027.144	-3039
1027.211	-2765
1027.278	-2856
1027.345	-2140
1027.413	-2609
1027.480	-3162
1027.547	-2861
1027.614	-2094
1027.682	-1800
1027.749	-2224
1027.816	-2056
1027.883	-2071
1027.950	-2877
1028.017	-3175
1028.084	-2426
1028.151	-3135
1028.218	-3142
1028.285	-2907
1028.352	-2394
1028.419	-2748
1028.486	-3241
1028.553	-2487
1028.619	-2794
1028.686	-2837
1028.753	-2601
1028.820	-2775
1028.886	-1927
1028.953	-2872
1029.020	-2148
1029.086	-2239
1029.153	-3049
1029.220	-2973
1029.286	-2723
1029.353	-2629
1029.419	-2680
1029.486	-2889
1029.552	-2066
1029.619	-2698
1029.685	-2790
1029.751	-2381
1029.818	-1490
1029.884	-2362
1029.951	-1341
1030.017	-3035
1030.083	-2087
1030.149	-2376
1030.216	-2523
1030.282	-2497
1030.348	-1869
1030.414	-2617
1030.480	-2474
1030.546	-3250
1030.612	-2456
1030.678	-2731
1030.744	-2301
1030.810	-3310
1030.876	-2374
1030.942	-3050
1031.008	-2546
1031.074	-3400
1031.140	-2488
1031.206	-2607
1031.272	-3093
1031.337	-2254
1031.403	-2377
1031.469	-2123
1031.534	-2718
1031.600	-1635
1031.666	-2579
1031.731	-3482
1031.797	-2516
1031.863	-2510
1031.928	-2554
1031.994	-2557
1032.059	-1630
1032.125	-2331
1032.190	-2328
1032.256	-2586
1032.321	-2232
1032.386	-2887
1032.452	-1485
1032.517	-2842
1032.582	-2097
1032.647	-2683
1032.713	-2964
1032.778	-3400
1032.843	-2387
1032.908	-1864
1032.974	-2627
1033.039	-3014
1033.104	-2103
1033.169	-3176
1033.234	-2076
1033.299	-2579
1033.364	-2181
1033.429	-3283
1033.494	-1713
1033.559	-2621
1033.624	-2092
1033.688	-2128
1033.753	-2958
1033.818	-2623
1033.883	-1978
1033.948	-2776
1034.013	-2401
1034.077	-2422
1034.142	-1735
1034.207	-2627
1034.271	-1949
1034.336	-3342
1034.400	-2680
1034.465	-2345
1034.530	-2080
1034.594	-2619
1034.658	-2143
1034.723	-2890
1034.787	-2552
1034.852	-1701
1034.916	-3015
1034.981	-2836
1035.045	-2216
1035.109	-2941
1035.173	-1904
1035.238	-2245
1035.302	-2101
1035.366	-2818
1035.430	-2043
1035.495	-3304
1035.559	-2292
1035.623	-2952
1035.687	-2378
1035.751	-3447
1035.815	-1902
1035.879	-2062
1035.943	-2039
1036.007	-2879
1036.071	-2323
1036.135	-2818
1036.198	-2052
1036.262	-2836
1036.326	-1804
1036.390	-2412
1036.454	-2536
1036.517	-2036
1036.581	-2493
1036.645	-2641
1036.709	-1523
1036.772	-2686
1036.836	-2403
1036.900	-2399
1036.963	-2105
1037.026	-2121
1037.090	-2815
1037.154	-2767
1037.217	-2509
1037.280	-2558
1037.344	-1853
1037.407	-2979
1037.471	-2548
1037.534	-2955
1037.597	-2032
1037.661	-2413
1037.724	-1519
1037.787	-2920
1037.850	-2125
1037.913	-3258
1037.977	-1606
1038.040	-2361
1038.103	-2014
1038.166	-2703
1038.229	-3061
1038.292	-2404
1038.355	-1478
1038.418	-3400
1038.481	-1719
1038.544	-2662
1038.607	-1891
1038.670	-2977
1038.732	-2383
1038.795	-2336
1038.858	-2299
1038.921	-2820
1038.984	-2428
1039.046	-3511
1039.109	-2485
1039.172	-2754
1039.234	-2265
1039.297	-2917
1039.360	-2109
1039.422	-2936
1039.485	-2705
1039.547	-2705
1039.610	-2007
1039.672	-2668
1039.734	-2756
1039.797	-3143
1039.859	-2370
1039.922	-3100
1039.984	-1918
1040.046	-3024
1040.109	-2580
1040.171	-3271
1040.233	-1393
1040.295	-1855
1040.358	-3063
1040.420	-3528
1040.482	-1940
1040.544	-2460
1040.606	-2753
1040.668	-2082
1040.730	-2634
1040.792	-3667
1040.854	-1905
1040.916	-2840
1040.978	-2476
1041.040	-2979
1041.102	-2426
1041.164	-2322
1041.225	-2569
1041.287	-3362
1041.349	-2948
1041.411	-1944
1041.472	-1759
1041.534	-2069
1041.596	-2508
1041.657	-2987
1041.719	-2507
1041.781	-2869
1041.842	-2650
1041.904	-2375
1041.965	-2660
1042.027	-1842
1042.088	-1993
1042.150	-2360
1042.211	-2656
1042.272	-3178
1042.334	-2120
1042.395	-2816
1042.456	-2373
1042.518	-3172
1042.579	-2767
1042.640	-3174
1042.701	-2305
1042.763	-2871
1042.824	-2346
1042.885	-2617
1042.946	-2097
1043.007	-2982
1043.068	-2431
1043.129	-1963
1043.190	-2204
1043.251	-1852
1043.312	-2652
1043.373	-2554
1043.434	-2425
1043.495	-2670
1043.556	-2065
1043.616	-2519
1043.677	-2317
1043.738	-2416
1043.799	-2540
1043.859	-2922
1043.920	-2100
1043.981	-2653
1044.041	-2018
1044.102	-2854
1044.162	-2555
1044.223	-2896
1044.284	-2437
1044.344	-3320
1044.405	-2237
1044.465	-2492
1044.525	-2295
1044.586	-2985
1044.646	-2710
1044.707	-2978
1044.767	-2180
1044.827	-3182
1044.887	-1436
1044.948	-2200
1045.008	-2606
1045.068	-2225
1045.128	-2626
1045.188	-3105
1045.249	-1491
1045.309	-2163
1045.369	-1955
1045.429	-2700
1045.489	-2169
1045.549	-2198
1045.609	-2420
1045.669	-2761
1045.729	-1592
1045.789	-2399
1045.848	-916
1045.908	-2562
1045.968	-1947
1046.028	-2235
1046.088	-2774
1046.147	-1732
1046.207	-2887
1046.267	-2412
1046.326	-2005
1046.386	-2229
1046.446	-1731
1046.505	-1639
1046.565	-1005
1046.624	-1663
1046.684	-1259
1046.743	-1471
1046.803	-931
1046.862	-1605
1046.922	0
