'Start Wavelength	183.907
'End Wavelength	1046.922
'Gate Delay	5.000
'Gate Width (ms)	1.050
'Laser Output Level	0.000
'X Position	0.000
'Y Position	0.000
'Z Position	0.000
'Grid Point Number	1.000
'Shot Number	100.000
183.907	904.000
183.977	676.000
184.047	-209
184.116	115
184.186	167
184.256	-106
184.325	-699
184.395	-45
184.465	333
184.534	443
184.604	-996
184.674	136
184.743	-361
184.813	403
184.883	-905
184.952	-456
185.022	159
185.092	115
185.161	-253
185.231	278
185.301	-459
185.370	93
185.440	-622
185.509	-801
185.579	-208
185.649	204
185.718	-332
185.788	1284
185.857	291
185.927	-21
185.996	-1152
186.066	-37
186.136	-346
186.205	498
186.275	81
186.344	574
186.414	-50
186.483	-378
186.553	-39
186.622	283
186.692	-644
186.761	-132
186.831	-3
186.900	261
186.970	161
187.039	579
187.109	234
187.178	477
187.248	-178
187.317	329
187.387	-434
187.456	284
187.526	-189
187.595	617
187.664	-1012
187.734	1151
187.803	-279
187.873	571
187.942	1
188.012	62
188.081	-468
188.150	814
188.220	-323
188.289	606
188.358	585
188.428	288
188.497	-70
188.567	757
188.636	-938
188.705	659
188.775	-472
188.844	-42
188.913	374
188.983	189
189.052	-571
189.121	494
189.191	-55
189.260	309
189.329	-277
189.399	28
189.468	-47
189.537	462
189.606	-198
189.676	546
189.745	42
189.814	-271
189.883	-356
189.953	-60
190.022	-509
190.091	575
190.161	989
190.230	934
190.299	-380
190.368	-249
190.437	-30
190.507	402
190.576	-622
190.645	775
190.714	-157
190.783	215
190.853	526
190.922	1070
190.991	-315
191.060	168
191.129	-355
191.198	892
191.268	-147
191.337	796
191.406	299
191.475	-73
191.544	-193
191.613	-200
191.682	70
191.752	516
191.821	86
191.890	37
191.959	-195
192.028	-219
192.097	4
192.166	414
192.235	-426
192.304	566
192.373	-370
192.442	-220
192.511	49
192.580	559
192.650	32
192.719	-450
192.788	-14
192.857	386
192.926	-870
192.995	611
193.064	-12
193.133	196
193.202	540
193.271	1142
193.340	-13
193.409	734
193.478	-68
193.547	954
193.615	1030
193.684	1030
193.753	196
193.822	993
193.891	-369
193.960	1277
194.029	158
194.098	646
194.167	-245
194.236	606
194.305	-710
194.374	311
194.443	-647
194.512	8
194.580	-631
194.649	-3
194.718	714
194.787	1209
194.856	-492
194.925	269
194.994	-617
195.062	480
195.131	-33
195.200	289
195.269	-17
195.338	146
195.407	248
195.475	-156
195.544	16
195.613	604
195.682	-1013
195.751	-109
195.819	169
195.888	275
195.957	174
196.026	-183
196.094	439
196.163	183
196.232	45
196.301	193
196.369	-438
196.438	-360
196.507	485
196.576	65
196.644	-209
196.713	493
196.782	-362
196.850	594
196.919	-168
196.988	328
197.056	-807
197.125	317
197.194	-748
197.262	338
197.331	-440
197.400	-359
197.468	-522
197.537	-447
197.606	-577
197.674	28
197.743	1457
197.812	451
197.880	1316
197.949	244
198.017	661
198.086	478
198.155	-800
198.223	829
198.292	1034
198.360	24
198.429	-348
198.497	537
198.566	-56
198.635	1268
198.703	83
198.772	48
198.840	650
198.909	876
198.977	675
199.046	974
199.114	-635
199.183	301
199.251	7
199.320	445
199.388	-113
199.457	660
199.525	-203
199.594	167
199.662	85
199.731	217
199.799	-215
199.867	637
199.936	-172
200.004	582
200.073	-237
200.141	321
200.210	-177
200.278	759
200.346	-219
200.415	458
200.483	134
200.552	377
200.620	-160
200.688	657
200.757	508
200.825	127
200.893	-229
200.962	434
201.030	-231
201.098	571
201.167	158
201.235	693
201.303	-11
201.372	519
201.440	-622
201.508	308
201.577	-527
201.645	686
201.713	-396
201.781	249
201.850	305
201.918	508
201.986	-126
202.055	811
202.123	-555
202.191	246
202.259	-98
202.327	308
202.396	527
202.464	779
202.532	-819
202.600	1891
202.669	73
202.737	787
202.805	-31
202.873	438
202.941	454
203.009	812
203.078	293
203.146	463
203.214	-465
203.282	187
203.350	198
203.418	305
203.487	408
203.555	-465
203.623	-388
203.691	625
203.759	-770
203.827	798
203.895	1202
203.963	-364
204.031	-498
204.099	599
204.168	-361
204.236	253
204.304	-115
204.372	348
204.440	120
204.508	-68
204.576	-246
204.644	452
204.712	-84
204.780	387
204.848	-20
204.916	-167
204.984	220
205.052	528
205.120	82
205.188	820
205.256	282
205.324	207
205.392	-108
205.460	813
205.528	203
205.596	866
205.664	468
205.732	328
205.799	673
205.867	2418
205.935	-192
206.003	1196
206.071	-31
206.139	215
206.207	511
206.275	598
206.343	-425
206.411	418
206.478	-318
206.546	781
206.614	-350
206.682	1085
206.750	-561
206.818	666
206.885	727
206.953	-422
207.021	1057
207.089	285
207.157	-896
207.225	296
207.292	776
207.360	315
207.428	-147
207.496	1004
207.563	-204
207.631	1008
207.699	266
207.767	774
207.834	-1085
207.902	-42
207.970	817
208.038	633
208.105	737
208.173	616
208.241	5
208.309	1387
208.376	1
208.444	858
208.512	338
208.579	535
208.647	583
208.715	508
208.782	322
208.850	926
208.918	28
208.985	899
209.053	146
209.120	98
209.188	347
209.256	561
209.323	-816
209.391	1467
209.459	954
209.526	1201
209.594	-636
209.661	388
209.729	151
209.796	1531
209.864	-100
209.932	-170
209.999	654
210.067	1159
210.134	-182
210.202	621
210.269	1180
210.337	1226
210.404	199
210.472	912
210.539	805
210.607	867
210.674	797
210.742	1678
210.809	687
210.877	833
210.944	636
211.012	386
211.079	1538
211.146	749
211.214	713
211.281	1020
211.349	659
211.416	954
211.484	300
211.551	134
211.618	23
211.686	1068
211.753	724
211.821	961
211.888	139
211.955	989
212.023	448
212.090	1439
212.157	618
212.225	1056
212.292	1795
212.359	3139
212.427	6361
212.494	3292
212.561	768
212.629	1232
212.696	1590
212.763	1511
212.831	493
212.898	1724
212.965	-179
213.032	700
213.100	898
213.167	739
213.234	1067
213.301	701
213.369	262
213.436	572
213.503	-40
213.570	1559
213.638	410
213.705	1185
213.772	-285
213.839	1440
213.906	1042
213.973	1226
214.041	520
214.108	1416
214.175	803
214.242	1324
214.309	-386
214.376	1827
214.444	941
214.511	1832
214.578	551
214.645	1789
214.712	1008
214.779	846
214.846	960
214.913	1934
214.980	1002
215.048	1618
215.115	1309
215.182	1950
215.249	539
215.316	1453
215.383	746
215.450	918
215.517	263
215.584	841
215.651	1384
215.718	827
215.785	1149
215.852	445
215.919	1034
215.986	1403
216.053	327
216.120	749
216.187	397
216.254	1266
216.321	716
216.388	979
216.455	633
216.522	1487
216.589	788
216.656	2427
216.722	1820
216.789	2319
216.856	2241
216.923	2556
216.990	1271
217.057	1886
217.124	2923
217.191	2701
217.258	1905
217.324	3488
217.391	3254
217.458	2447
217.525	1829
217.592	1690
217.659	1099
217.725	2236
217.792	1396
217.859	2743
217.926	526
217.993	1334
218.059	1098
218.126	1277
218.193	250
218.260	854
218.327	317
218.393	591
218.460	1207
218.527	134
218.594	636
218.660	1713
218.727	1468
218.794	786
218.860	948
218.927	761
218.994	84
219.061	947
219.127	311
219.194	1904
219.261	165
219.327	1221
219.394	563
219.461	549
219.527	1032
219.594	1446
219.661	-219
219.727	-119
219.794	439
219.860	410
219.927	724
219.994	1764
220.060	1860
220.127	1211
220.193	1479
220.260	2205
220.326	2470
220.393	4354
220.460	4161
220.526	3824
220.593	1343
220.659	2453
220.726	2307
220.792	5801
220.859	5146
220.925	7455
220.992	9238
221.058	7682
221.125	6129
221.191	4474
221.258	1486
221.324	1594
221.391	812
221.457	1376
221.524	997
221.590	1388
221.657	4554
221.723	3290
221.789	2888
221.856	2724
221.922	1099
221.989	1443
222.055	176
222.121	797
222.188	1656
222.254	627
222.321	480
222.387	885
222.453	268
222.520	393
222.586	423
222.652	477
222.719	-15
222.785	1150
222.851	-219
222.918	589
222.984	60
223.050	1359
223.116	-849
223.183	884
223.249	-1213
223.315	671
223.382	146
223.448	466
223.514	141
223.580	353
223.647	-448
223.713	182
223.779	354
223.845	30
223.911	248
223.978	-60
224.044	27
224.110	486
224.176	15
224.242	334
224.309	585
224.375	649
224.441	-349
224.507	935
224.573	-511
224.639	-59
224.705	-311
224.772	325
224.838	45
224.904	594
224.970	-43
225.036	398
225.102	-483
225.168	1440
225.234	302
225.300	373
225.366	361
225.432	1169
225.499	194
225.565	169
225.631	538
225.697	568
225.763	78
225.829	1749
225.895	1376
225.961	2001
226.027	1721
226.093	2271
226.159	1869
226.225	3911
226.291	9057
226.357	13170
226.423	6255
226.489	3508
226.554	2428
226.620	2936
226.686	2635
226.752	4577
226.818	7342
226.884	17588
226.950	14056
227.016	6171
227.082	3802
227.148	2745
227.214	1830
227.279	1656
227.345	1107
227.411	1098
227.477	203
227.543	1832
227.609	1633
227.674	1437
227.740	883
227.806	1488
227.872	129
227.938	1344
228.003	1699
228.069	1042
228.135	854
228.201	734
228.267	-1
228.332	1112
228.398	210
228.464	996
228.530	-421
228.595	1218
228.661	-300
228.727	2191
228.792	809
228.858	911
228.924	-870
228.990	930
229.055	-434
229.121	1471
229.187	488
229.252	704
229.318	-173
229.384	634
229.449	782
229.515	-380
229.581	-997
229.646	1028
229.712	364
229.777	2539
229.843	1845
229.909	2564
229.974	1268
230.040	819
230.105	1485
230.171	945
230.236	1104
230.302	3390
230.368	1558
230.433	554
230.499	1730
230.564	1414
230.630	1053
230.695	877
230.761	407
230.826	-149
230.892	1759
230.957	1170
231.023	-190
231.088	515
231.154	-289
231.219	951
231.284	1580
231.350	1957
231.415	-574
231.481	1003
231.546	758
231.612	1352
231.677	-194
231.742	-76
231.808	560
231.873	923
231.939	-755
232.004	1811
232.069	1734
232.135	628
232.200	280
232.265	981
232.331	371
232.396	184
232.461	-32
232.527	805
232.592	-300
232.657	576
232.723	184
232.788	-35
232.853	106
232.918	1630
232.984	-286
233.049	133
233.114	490
233.179	1439
233.245	943
233.310	1852
233.375	-730
233.440	804
233.506	88
233.571	642
233.636	-76
233.701	770
233.766	598
233.832	1587
233.897	518
233.962	217
234.027	661
234.092	807
234.157	-224
234.222	306
234.288	587
234.353	4771
234.418	3520
234.483	3220
234.548	1315
234.613	1164
234.678	639
234.743	1287
234.808	4634
234.873	2032
234.938	1829
235.004	819
235.069	1033
235.134	99
235.199	893
235.264	544
235.329	-273
235.394	1108
235.459	591
235.524	1194
235.589	180
235.654	602
235.719	-751
235.784	1514
235.849	765
235.913	2704
235.978	1247
236.043	1727
236.108	748
236.173	1067
236.238	1289
236.303	1318
236.368	357
236.433	2040
236.498	2374
236.563	3123
236.627	6047
236.692	21280
236.757	16153
236.822	6246
236.887	3482
236.952	4476
237.017	1799
237.081	3358
237.146	3658
237.211	10551
237.276	21126
237.341	30258
237.405	14896
237.470	6839
237.535	3925
237.600	3603
237.664	1983
237.729	1139
237.794	1401
237.859	6734
237.923	2001
237.988	1475
238.053	2670
238.118	2263
238.182	5371
238.247	6204
238.312	1387
238.376	2294
238.441	192
238.506	2303
238.570	-281
238.635	1789
238.700	595
238.764	-161
238.829	2452
238.893	2776
238.958	1784
239.023	1248
239.087	279
239.152	1031
239.216	-737
239.281	988
239.346	193
239.410	643
239.475	653
239.539	5641
239.604	2933
239.668	2189
239.733	-23
239.797	1408
239.862	1051
239.926	3473
239.991	1170
240.055	566
240.120	211
240.184	831
240.249	362
240.313	986
240.378	494
240.442	3831
240.507	4260
240.571	1736
240.635	1718
240.700	2544
240.764	727
240.829	841
240.893	-202
240.957	679
241.022	3643
241.086	5445
241.151	949
241.215	798
241.279	1955
241.344	1745
241.408	999
241.472	910
241.537	1285
241.601	1008
241.665	-789
241.730	1010
241.794	920
241.858	378
241.922	957
241.987	1955
242.051	102
242.115	735
242.179	354
242.244	122
242.308	1423
242.372	1035
242.436	1149
242.501	1198
242.565	275
242.629	526
242.693	493
242.757	349
242.822	712
242.886	204
242.950	729
243.014	286
243.078	292
243.142	1460
243.206	491
243.271	1342
243.335	236
243.399	3524
243.463	9013
243.527	23687
243.591	6394
243.655	2727
243.719	1753
243.783	2792
243.847	2368
243.911	3586
243.975	3281
244.040	2066
244.104	1764
244.168	1377
244.232	2065
244.296	2586
244.360	2787
244.424	1043
244.488	1139
244.552	1918
244.615	-428
244.679	1081
244.743	957
244.807	1796
244.871	1432
244.935	1070
244.999	-555
245.063	1071
245.127	1269
245.191	2707
245.255	1442
245.319	2442
245.383	-696
245.446	2189
245.510	321
245.574	663
245.638	1140
245.702	801
245.766	3819
245.829	2123
245.893	414
245.957	1236
246.021	1180
246.085	1081
246.149	716
246.212	5389
246.276	6414
246.340	2864
246.404	2110
246.467	2580
246.531	2140
246.595	2405
246.659	1724
246.722	1364
246.786	1278
246.850	2352
246.913	2408
246.977	1052
247.041	832
247.104	1061
247.168	1879
247.232	5778
247.295	9156
247.359	5252
247.423	1064
247.486	4126
247.550	2353
247.614	1774
247.677	2370
247.741	1437
247.804	748
247.868	1623
247.932	2813
247.995	9304
248.059	2689
248.122	1013
248.186	2656
248.249	4145
248.313	15597
248.376	16111
248.440	8875
248.503	2670
248.567	3460
248.630	5043
248.694	5636
248.757	8570
248.821	16651
248.884	9955
248.948	8122
249.011	13009
249.075	18969
249.138	15957
249.202	5789
249.265	3596
249.328	4117
249.392	2671
249.455	2371
249.519	1923
249.582	2247
249.645	5623
249.709	3609
249.772	3222
249.835	2553
249.899	2062
249.962	2510
250.025	1685
250.089	5409
250.152	8383
250.215	2873
250.279	3232
250.342	2685
250.405	2989
250.468	1219
250.532	3554
250.595	6247
250.658	23384
250.721	36445
250.785	11421
250.848	6242
250.911	3217
250.974	3357
251.038	5021
251.101	9721
251.164	4848
251.227	4675
251.290	4612
251.354	7645
251.417	33267
251.480	28222
251.543	21330
251.606	60007
251.669	40000
251.732	14033
251.795	14847
251.859	15640
251.922	37558
251.985	18391
252.048	7608
252.111	4650
252.174	4855
252.237	9275
252.300	21101
252.363	22985
252.426	47724
252.489	15149
252.552	7872
252.615	4703
252.678	6658
252.741	15608
252.804	21911
252.867	47879
252.930	25586
252.993	12299
253.056	7957
253.119	4846
253.182	3575
253.245	7121
253.308	5722
253.371	3697
253.434	4247
253.497	4209
253.559	9601
253.622	4440
253.685	6180
253.748	5841
253.811	2486
253.874	4691
253.937	3996
254.000	1940
254.062	6410
254.125	8835
254.188	9161
254.251	5524
254.314	3531
254.376	5435
254.439	6555
254.502	4791
254.565	6011
254.628	10513
254.690	4795
254.753	1387
254.816	2693
254.878	2406
254.941	6657
255.004	5840
255.067	2554
255.129	1767
255.192	1659
255.255	62
255.317	2182
255.380	525
255.443	900
255.505	500
255.568	516
255.631	155
255.693	1435
255.756	11
255.819	1548
255.881	-23
255.944	1615
256.006	939
256.069	887
256.132	569
256.194	1619
256.257	3466
256.319	3293
256.382	1472
256.444	2683
256.507	957
256.569	1046
256.632	875
256.694	3126
256.757	12607
256.819	34807
256.882	11547
256.944	4096
257.007	3868
257.069	2896
257.132	1748
257.194	2472
257.257	753
257.319	1571
257.381	2120
257.444	9775
257.506	40359
257.569	39387
257.631	13654
257.693	7421
257.756	3450
257.818	3242
257.880	2329
257.943	2061
258.005	203
258.067	2028
258.130	694
258.192	1381
258.254	1968
258.317	1882
258.379	1656
258.441	6476
258.503	4871
258.566	5913
258.628	6102
258.690	1768
258.753	1905
258.815	4081
258.877	1913
258.939	970
259.001	1514
259.064	1137
259.126	212
259.188	1989
259.250	597
259.312	1748
259.375	2874
259.437	1862
259.499	616
259.561	711
259.623	847
259.685	1163
259.747	1398
259.809	5835
259.872	8960
259.934	16934
259.996	13831
260.058	3028
260.120	625
260.182	2020
260.244	754
260.306	846
260.368	490
260.430	531
260.492	2423
260.554	4276
260.616	1875
260.678	8765
260.740	9404
260.802	1578
260.864	1553
260.926	962
260.988	1680
261.050	1208
261.112	3570
261.174	11861
261.236	6650
261.298	2471
261.359	4193
261.421	5725
261.483	408
261.545	1552
261.607	-325
261.669	1734
261.731	1945
261.793	6282
261.854	-246
261.916	1913
261.978	715
262.040	1965
262.102	79
262.164	1632
262.225	1539
262.287	1161
262.349	3905
262.411	2682
262.472	1609
262.534	2366
262.596	4969
262.658	2118
262.719	285
262.781	1198
262.843	4214
262.904	2006
262.966	1511
263.028	2959
263.090	12552
263.151	33004
263.213	9097
263.275	4753
263.336	1416
263.398	1856
263.459	1203
263.521	1288
263.583	4293
263.644	2583
263.706	50
263.767	-364
263.829	81
263.891	-128
263.952	-590
264.014	924
264.075	1162
264.137	5242
264.198	2111
264.260	186
264.321	-32
264.383	2484
264.444	7887
264.506	2380
264.567	899
264.629	3950
264.690	5303
264.752	1470
264.813	881
264.875	467
264.936	608
264.998	1177
265.059	21
265.120	338
265.182	2203
265.243	20377
265.305	16131
265.366	3968
265.427	1667
265.489	1225
265.550	-410
265.611	943
265.673	937
265.734	880
265.795	484
265.857	33
265.918	478
265.979	5588
266.040	32020
266.102	22976
266.163	5828
266.224	4063
266.286	2109
266.347	813
266.408	739
266.469	1151
266.530	-29
266.592	-107
266.653	1560
266.714	3188
266.775	951
266.836	669
266.898	-95
266.959	1783
267.020	427
267.081	1431
267.142	-150
267.203	607
267.264	-1107
267.326	1463
267.387	-976
267.448	-427
267.509	-251
267.570	840
267.631	-958
267.692	-822
267.753	-51
267.814	-579
267.875	2409
267.936	6435
267.997	1370
268.058	1648
268.119	405
268.180	-84
268.241	-260
268.302	111
268.363	-239
268.424	427
268.485	436
268.546	-409
268.607	-925
268.668	168
268.729	-808
268.790	39
268.851	683
268.912	3079
268.972	2368
269.033	1052
269.094	-264
269.155	-50
269.216	-460
269.277	679
269.338	-340
269.398	110
269.459	-265
269.520	1267
269.581	1163
269.642	1861
269.702	312
269.763	624
269.824	-66
269.885	1215
269.945	1341
270.006	1657
270.067	-794
270.128	-169
270.188	-470
270.249	50
270.310	-952
270.370	718
270.431	-218
270.492	85
270.553	217
270.613	2432
270.674	4593
270.734	1231
270.795	627
270.856	1162
270.916	152
270.977	1119
271.038	1016
271.098	1070
271.159	1434
271.219	2124
271.280	40
271.340	488
271.401	518
271.462	2527
271.522	552
271.583	395
271.643	2
271.704	197
271.764	157
271.825	3868
271.885	15206
271.946	19509
272.006	4663
272.066	8873
272.127	14540
272.187	2586
272.248	1692
272.308	2343
272.369	10543
272.429	5181
272.489	2956
272.550	3059
272.610	3237
272.671	2809
272.731	2129
272.791	3024
272.852	755
272.912	1200
272.972	228
273.033	954
273.093	459
273.153	1409
273.214	724
273.274	983
273.334	7664
273.394	14732
273.455	4032
273.515	5964
273.575	13074
273.635	4512
273.696	6836
273.756	13490
273.816	4104
273.876	2901
273.936	5183
273.997	8864
274.057	1251
274.117	1506
274.177	3205
274.237	17270
274.297	13611
274.358	8662
274.418	11104
274.478	7824
274.538	1911
274.598	1473
274.658	7860
274.718	9143
274.778	2862
274.838	995
274.898	3391
274.958	13333
275.018	13881
275.078	7731
275.138	1717
275.198	1302
275.258	-190
275.318	1145
275.378	2609
275.438	2896
275.498	1844
275.558	6528
275.618	14258
275.678	9154
275.738	5487
275.798	3490
275.858	1524
275.918	822
275.978	877
276.038	1133
276.098	466
276.157	2620
276.217	9017
276.277	3436
276.337	1091
276.397	381
276.457	617
276.517	842
276.576	-42
276.636	745
276.696	1318
276.756	5073
276.815	3042
276.875	780
276.935	339
276.995	789
277.055	426
277.114	1087
277.174	1903
277.234	7826
277.293	1756
277.353	1230
277.413	301
277.472	884
277.532	159
277.592	1697
277.651	4358
277.711	8889
277.771	2020
277.830	13002
277.890	8996
277.950	7791
278.009	23993
278.069	7412
278.128	6322
278.188	8899
278.248	3393
278.307	10258
278.367	4549
278.426	1141
278.486	899
278.545	-171
278.605	-192
278.664	1122
278.724	1012
278.783	5511
278.843	14186
278.902	3507
278.962	1143
279.021	2003
279.081	2208
279.140	1163
279.199	994
279.259	2046
279.318	1152
279.378	2859
279.437	5266
279.496	20379
279.556	60372
279.615	41335
279.675	8689
279.734	6181
279.793	9280
279.853	14281
279.912	3626
279.971	2458
280.031	1932
280.090	5740
280.149	10173
280.208	8448
280.268	41523
280.327	36710
280.386	7108
280.445	6447
280.505	5264
280.564	3123
280.623	868
280.682	3932
280.742	6443
280.801	1516
280.860	416
280.919	368
280.978	367
281.037	264
281.097	-50
281.156	581
281.215	-606
281.274	1357
281.333	10636
281.392	6555
281.451	430
281.510	459
281.569	-234
281.628	512
281.688	-87
281.747	1199
281.806	-143
281.865	114
281.924	-156
281.983	93
282.042	-295
282.101	-945
282.160	295
282.219	632
282.278	-196
282.337	5269
282.396	2247
282.454	601
282.513	1413
282.572	8172
282.631	2838
282.690	646
282.749	-380
282.808	950
282.867	190
282.926	775
282.985	-9
283.043	-296
283.102	-50
283.161	892
283.220	3642
283.279	8529
283.338	888
283.396	178
283.455	985
283.514	350
283.573	1168
283.631	1127
283.690	-292
283.749	234
283.808	1575
283.866	3106
283.925	-152
283.984	1008
284.043	745
284.101	1371
284.160	-33
284.219	1038
284.277	568
284.336	2107
284.395	10700
284.453	7364
284.512	2167
284.570	3186
284.629	1657
284.688	1927
284.746	753
284.805	2277
284.863	2215
284.922	3585
284.981	4005
285.039	7129
285.098	14019
285.156	37877
285.215	89051
285.273	82596
285.332	37506
285.390	18832
285.449	11136
285.507	7210
285.566	5382
285.624	3353
285.683	1915
285.741	2189
285.799	1503
285.858	951
285.916	796
285.975	1183
286.033	-104
286.091	833
286.150	-381
286.208	181
286.267	113
286.325	1447
286.383	2219
286.442	1233
286.500	-391
286.558	698
286.616	-80
286.675	1456
286.733	-745
286.791	127
286.850	735
286.908	1430
286.966	3090
287.024	-64
287.083	257
287.141	395
287.199	644
287.257	1033
287.315	-34
287.374	806
287.432	4111
287.490	2788
287.548	425
287.606	-151
287.664	121
287.723	2151
287.781	667
287.839	644
287.897	1096
287.955	1674
288.013	3308
288.071	11460
288.129	48184
288.187	119892
288.245	47052
288.303	15184
288.361	7448
288.419	6342
288.477	3237
288.535	2829
288.593	1148
288.651	1187
288.709	-277
288.767	257
288.825	-20
288.883	507
288.941	-772
288.999	-171
289.057	35
289.115	-406
289.173	-652
289.231	46
289.289	105
289.346	-5
289.404	67
289.462	1465
289.520	979
289.578	195
289.636	-783
289.694	319
289.751	-626
289.809	-78
289.867	-427
289.925	925
289.983	131
290.040	206
290.098	-640
290.156	1263
290.214	-64
290.271	-108
290.329	-593
290.387	-305
290.444	-508
290.502	-242
290.560	-592
290.617	-442
290.675	-604
290.733	299
290.790	-393
290.848	-589
290.906	-523
290.963	-167
291.021	-166
291.078	1086
291.136	-257
291.194	3754
291.251	8382
291.309	1640
291.366	-386
291.424	57
291.481	-325
291.539	-237
291.596	-1185
291.654	-240
291.711	-1359
291.769	182
291.826	882
291.884	363
291.941	-1011
291.999	-32
292.056	-620
292.114	10
292.171	-107
292.228	-251
292.286	-220
292.343	1354
292.401	1721
292.458	521
292.515	-299
292.573	104
292.630	-277
292.687	718
292.745	-404
292.802	1214
292.859	3953
292.917	9146
292.974	3149
293.031	290
293.089	-85
293.146	445
293.203	74
293.260	-67
293.318	-90
293.375	1390
293.432	546
293.489	22
293.546	-465
293.604	1214
293.661	5221
293.718	15488
293.775	5954
293.832	2346
293.889	1033
293.947	1930
294.004	441
294.061	510
294.118	3064
294.175	8395
294.232	8862
294.289	3182
294.346	1254
294.403	2001
294.460	661
294.517	443
294.574	-226
294.631	401
294.688	726
294.745	4735
294.802	18598
294.859	17545
294.916	3112
294.973	2080
295.030	1397
295.087	1340
295.144	204
295.201	873
295.258	482
295.315	1348
295.372	6153
295.429	11845
295.486	4339
295.542	3255
295.599	8030
295.656	13502
295.713	8602
295.770	12588
295.827	2932
295.883	1351
295.940	1390
295.997	3102
296.054	1362
296.111	696
296.167	-2
296.224	837
296.281	-531
296.338	809
296.394	-37
296.451	1511
296.508	4281
296.564	10295
296.621	5437
296.678	14474
296.734	18742
296.791	6071
296.848	2644
296.904	2660
296.961	7876
297.018	14345
297.074	8809
297.131	3386
297.187	2403
297.244	4795
297.301	14952
297.357	26213
297.414	7379
297.470	2812
297.527	690
297.583	1546
297.640	989
297.696	415
297.753	181
297.809	145
297.866	-509
297.922	616
297.979	-350
298.035	889
298.092	1925
298.148	8025
298.204	6944
298.261	3016
298.317	5610
298.374	17529
298.430	8739
298.486	3479
298.543	1435
298.599	1341
298.656	3239
298.712	4927
298.768	12510
298.824	8848
298.881	2008
298.937	2222
298.993	386
299.050	1141
299.106	619
299.162	1348
299.218	898
299.275	547
299.331	776
299.387	3264
299.443	14974
299.500	13122
299.556	3744
299.612	2214
299.668	812
299.724	1672
299.780	589
299.837	987
299.893	2279
299.949	12831
300.005	12124
300.061	11174
300.117	19344
300.173	8467
300.229	2873
300.285	4434
300.341	4152
300.397	1643
300.453	-132
300.510	371
300.566	251
300.622	1685
300.678	1960
300.734	8483
300.790	10233
300.845	14887
300.901	6759
300.957	10183
301.013	7838
301.069	2290
301.125	550
301.181	1637
301.237	460
301.293	-822
301.349	274
301.405	738
301.461	712
301.516	1599
301.572	868
301.628	2529
301.684	2143
301.740	4716
301.796	8055
301.851	5470
301.907	9158
301.963	10105
302.019	16699
302.074	44844
302.130	40395
302.186	19273
302.242	6280
302.297	4548
302.353	5236
302.409	9582
302.464	6983
302.520	5655
302.576	15404
302.631	16691
302.687	8575
302.743	3502
302.798	1369
302.854	1226
302.910	1237
302.965	2117
303.021	4519
303.076	3488
303.132	4133
303.187	4973
303.243	2112
303.299	1219
303.354	975
303.410	1857
303.465	163
303.521	600
303.576	752
303.632	1611
303.687	3488
303.743	13536
303.798	10875
303.853	4263
303.909	1755
303.964	1687
304.020	2131
304.075	4618
304.130	3490
304.186	7969
304.241	8408
304.297	5560
304.352	2707
304.358	2592
304.407	1657
304.449	1390
304.463	1300
304.518	1710
304.539	1351
304.573	766
304.629	2002
304.630	2020
304.684	2984
304.720	8052
304.739	10581
304.794	15628
304.811	13129
304.850	6954
304.902	2252
304.905	1963
304.960	2240
304.992	1843
305.015	1540
305.071	2258
305.083	1912
305.126	652
305.173	1050
305.181	1121
305.236	114
305.264	483
305.292	892
305.347	1256
305.354	1376
305.402	2139
305.445	1732
305.457	1593
305.512	2955
305.535	2739
305.567	2473
305.622	3196
305.626	3320
305.678	6672
305.716	14296
305.733	16981
305.788	18293
305.807	15795
305.843	11451
305.897	14770
305.898	14803
305.953	15335
305.988	10293
306.008	7514
306.063	3966
306.078	3578
306.118	2838
306.168	1751
306.173	1677
306.228	852
306.259	1132
306.283	1388
306.338	968
306.349	1135
306.393	1884
306.440	1965
306.448	1955
306.503	2186
306.530	2164
306.558	2747
306.613	6815
306.620	7288
306.668	11198
306.711	16404
306.723	16917
306.778	13208
306.801	10281
306.833	6917
306.888	3401
306.892	3301
306.943	2876
306.982	1829
306.997	1560
307.052	2144
307.072	1946
307.107	1838
307.162	2908
307.163	2917
307.217	4385
307.253	5172
307.272	5353
307.327	4800
307.343	4690
307.381	4411
307.434	3913
307.436	4038
307.491	8207
307.524	12559
307.546	14247
307.600	15441
307.614	14208
307.655	8669
307.704	5142
307.710	5092
307.765	5349
307.795	6213
307.819	7332
307.874	11130
307.885	11282
307.929	10864
307.975	10107
307.984	10672
308.038	18052
308.065	22409
308.093	36431
308.148	72071
308.156	79428
308.202	116270
308.246	137946
308.257	134068
308.312	80074
308.336	59976
308.366	45830
308.421	27129
308.426	25495
308.475	17951
308.517	12692
308.530	11955
308.585	9964
308.607	9236
308.639	8666
308.694	8874
308.697	8853
308.748	11380
308.787	14993
308.803	15353
308.857	12987
308.877	12085
308.912	12122
308.967	13349
308.967	13354
309.021	19082
309.058	23504
309.076	29784
309.130	52184
309.148	60505
309.185	95426
309.238	156004
309.239	156654
309.293	171820
309.328	163396
309.348	144020
309.402	83132
309.418	67770
309.457	48957
309.508	28686
309.511	28243
309.566	22498
309.598	19343
309.620	18969
309.674	18857
309.688	18973
309.729	18082
309.778	15715
309.783	15545
309.837	13388
309.868	12485
309.892	15118
309.946	21995
309.959	24119
310.001	32259
310.049	39348
310.055	37992
310.109	23287
310.139	14735
310.163	11882
310.218	7322
310.229	6461
310.272	5888
310.319	5347
310.326	5193
310.381	4235
310.409	3632
310.435	3632
310.489	3678
310.499	3712
310.543	3760
310.589	3663
310.598	3717
310.652	4031
310.679	4137
310.706	3878
310.760	3345
310.769	3240
310.814	3029
310.859	2960
310.868	2983
310.923	2836
310.948	2857
310.977	3236
311.031	3787
311.038	3857
311.085	3607
311.128	3298
311.139	3436
311.193	4197
311.218	4441
311.247	4293
311.301	4086
311.308	4024
311.356	3672
311.398	3466
311.410	3490
311.464	3485
311.488	3484
311.518	3684
311.572	3947
311.578	3966
311.626	5199
311.668	6257
311.680	6197
311.734	5818
311.758	5584
311.788	5369
311.842	5045
311.847	4986
311.896	6844
311.937	8487
311.950	8360
312.004	7617
312.027	7267
312.058	6445
312.112	4929
312.117	4762
312.165	4619
312.207	4471
312.297	6439
312.386	5805
312.476	5300
312.566	8275
312.656	4935
312.745	4517
312.835	4810
312.925	6080
313.015	4438
313.104	4158
313.194	4194
313.284	3792
313.374	5734
313.463	6177
313.553	3601
313.643	3630
313.732	4561
313.822	3995
313.912	4363
314.001	4898
314.091	5121
314.180	6631
314.270	6563
314.360	6462
314.449	4678
314.539	3427
314.628	4701
314.718	4096
314.808	5456
314.897	4742
314.987	5066
315.076	4635
315.166	4993
315.255	4669
315.345	6183
315.434	4694
315.524	4996
315.613	4871
315.703	5833
315.792	5737
315.881	5316
315.971	4606
316.060	8101
316.150	7913
316.239	8190
316.328	5094
316.418	3858
316.507	4123
316.597	5284
316.686	4557
316.775	4014
316.865	8156
316.954	4383
317.043	3234
317.133	3616
317.222	3424
317.311	4467
317.400	2978
317.490	5310
317.579	6353
317.668	4222
317.757	5132
317.847	6074
317.936	6852
318.025	10697
318.114	6190
318.203	5367
318.293	9438
318.382	20978
318.471	15918
318.560	21167
318.649	40128
318.738	10208
318.828	6079
318.917	6767
319.006	7619
319.095	14083
319.184	48612
319.273	28406
319.362	14483
319.451	6171
319.540	4847
319.629	9311
319.718	16079
319.807	10418
319.896	14597
319.985	57644
320.074	22793
320.163	6372
320.252	7028
320.341	8019
320.430	7982
320.519	8960
320.608	5165
320.697	5407
320.786	4993
320.875	5930
320.964	7244
321.053	10191
321.142	13598
321.230	15606
321.319	11475
321.408	26624
321.497	11744
321.586	10489
321.675	10575
321.764	13460
321.852	10071
321.941	16700
322.030	11062
322.119	10808
322.207	25583
322.296	14947
322.385	9241
322.474	10159
322.562	29093
322.651	16436
322.740	11020
322.829	14530
322.917	10998
323.006	9551
323.095	8905
323.183	6591
323.272	10309
323.361	13397
323.449	30477
323.538	12455
323.626	20168
323.715	14159
323.804	7693
323.892	18868
323.981	14473
324.069	6026
324.158	10302
324.246	10534
324.335	7642
324.424	10635
324.512	4939
324.601	7818
324.689	8614
324.778	13188
324.866	9219
324.954	4612
325.043	4320
325.131	6548
325.220	8491
325.308	9553
325.397	7431
325.485	6867
325.574	3804
325.662	4291
325.750	4127
325.839	4381
325.927	3511
326.015	4352
326.104	5599
326.192	6406
326.280	4025
326.369	4950
326.457	6186
326.545	9575
326.634	5682
326.722	3286
326.810	3502
326.898	3729
326.987	4753
327.075	7660
327.163	7630
327.251	4066
327.340	6450
327.428	8067
327.516	2880
327.604	3763
327.692	3357
327.781	4166
327.869	4777
327.957	4138
328.045	4211
328.133	3780
328.221	4090
328.309	4218
328.397	4517
328.485	4421
328.574	6001
328.662	17203
328.750	9638
328.838	4648
328.926	3490
329.014	4041
329.102	5794
329.190	11514
329.278	8917
329.366	4364
329.454	3581
329.542	4750
329.630	4727
329.718	5665
329.806	5713
329.893	6968
329.981	10698
330.069	21584
330.157	69541
330.245	169932
330.333	105660
330.421	24236
330.509	11948
330.597	21899
330.684	16806
330.772	7162
330.860	7656
330.948	11334
331.036	5975
331.123	3869
331.211	3791
331.299	4629
331.387	8500
331.475	16682
331.562	5278
331.650	3413
331.738	2962
331.825	4164
331.913	2990
332.001	3002
332.089	4244
332.176	6585
332.264	9875
332.352	10042
332.439	4899
332.527	4736
332.614	2951
332.702	3743
332.790	3272
332.877	5861
332.965	9246
333.052	4116
333.140	3834
333.228	6723
333.315	3488
333.403	3624
333.490	6240
333.578	6404
333.665	8249
333.753	6373
333.840	3774
333.928	4319
334.015	7485
334.103	14940
334.190	51092
334.278	15757
334.365	4907
334.452	4130
334.540	2906
334.627	4189
334.715	4387
334.802	7353
334.889	28526
334.977	30779
335.064	5698
335.151	4452
335.239	4687
335.326	7557
335.413	26476
335.501	42641
335.588	6786
335.675	4686
335.762	5099
335.850	8543
335.937	5541
336.024	10047
336.111	38094
336.199	18469
336.286	4332
336.373	3497
336.460	3010
336.547	3821
336.635	4358
336.722	4288
336.809	4270
336.896	6375
336.983	17002
337.070	43057
337.157	60573
337.245	26442
337.332	16699
337.419	4083
337.506	3184
337.593	4691
337.680	13175
337.767	45038
337.854	13360
337.941	12645
338.028	9204
338.115	5251
338.202	6514
338.289	8916
338.376	21204
338.463	11266
338.550	23172
338.637	28873
338.724	6344
338.811	7930
338.898	3855
338.984	3820
339.071	4399
339.158	4803
339.245	10867
339.332	7543
339.419	6283
339.506	6315
339.593	2639
339.679	3805
339.766	3016
339.853	4797
339.940	8777
340.027	4228
340.113	4846
340.200	5491
340.287	3780
340.374	4441
340.460	7749
340.547	4458
340.634	6003
340.720	19461
340.807	13249
340.894	4341
340.980	2896
341.067	3645
341.154	3774
341.240	5173
341.327	10309
341.414	5119
341.500	5899
341.587	4919
341.674	2998
341.760	6717
341.847	9515
341.933	4055
342.020	2760
342.106	2897
342.193	3625
342.279	7846
342.366	4341
342.452	7681
342.539	4157
342.625	9055
342.712	22628
342.798	10483
342.885	5062
342.971	2545
343.058	2798
343.144	3114
343.230	3269
343.317	3378
343.403	2919
343.490	3149
343.576	2350
343.662	2965
343.749	3797
343.835	4952
343.921	8672
344.008	40111
344.094	93343
344.180	24749
344.267	9485
344.353	24965
344.439	27408
344.525	14965
344.612	20232
344.698	26301
344.784	15292
344.870	6942
344.957	4718
345.043	6135
345.129	3929
345.215	8523
345.301	4842
345.387	3945
345.474	2071
345.560	2293
345.646	2815
345.732	3423
345.818	3290
345.904	4807
345.990	3998
346.076	3280
346.162	4983
346.249	3907
346.335	2532
346.421	4017
346.507	10570
346.593	37438
346.679	11872
346.765	4339
346.851	3416
346.937	3528
347.023	3230
347.108	3924
347.194	3192
347.280	4041
347.366	4081
347.452	10370
347.538	42265
347.624	33641
347.710	27924
347.796	6199
347.882	3888
347.967	3311
348.053	4265
348.139	3270
348.225	3167
348.311	3463
348.397	2954
348.482	4223
348.568	3972
348.654	2704
348.740	2695
348.825	2487
348.911	5862
348.997	19373
349.083	39787
349.168	7530
349.254	4576
349.340	4419
349.425	3601
349.511	4091
349.597	4931
349.682	8121
349.768	27024
349.854	15180
349.939	4413
350.025	3471
350.110	4379
350.196	3175
350.282	2357
350.367	2803
350.453	3174
350.538	3941
350.624	3007
350.709	4142
350.795	2997
350.880	2961
350.966	3529
351.051	4589
351.137	3524
351.222	3831
351.308	8614
351.393	25258
351.479	8085
351.564	3405
351.649	3138
351.735	2784
351.820	2203
351.906	3462
351.991	4426
352.076	14929
352.162	24355
352.247	5931
352.332	4484
352.418	7381
352.503	9579
352.588	32997
352.673	28963
352.759	6857
352.844	3880
352.929	4983
353.014	4716
353.100	3779
353.185	4348
353.270	7679
353.355	8023
353.441	3946
353.526	3269
353.611	6174
353.696	7841
353.781	6013
353.866	3307
353.952	4253
354.037	7402
354.122	16094
354.207	14010
354.292	6087
354.377	3653
354.462	3522
354.547	3945
354.632	4691
354.717	5568
354.802	4789
354.887	3300
354.972	3148
355.057	2524
355.142	3036
355.227	3327
355.312	5457
355.397	10129
355.482	22952
355.567	12736
355.652	8195
355.737	10180
355.822	30495
355.907	26670
355.991	6100
356.076	3060
356.161	3524
356.246	3124
356.331	4833
356.416	8121
356.501	44255
356.585	49385
356.670	9773
356.755	6852
356.840	7703
356.924	28848
357.009	102391
357.094	45314
357.179	11062
357.263	7434
357.348	7572
357.433	7794
357.517	7295
357.602	5637
357.687	5528
357.771	8808
357.856	31643
357.941	21818
358.025	27483
358.110	108547
358.195	60328
358.279	11486
358.364	7708
358.448	20113
358.533	57243
358.617	43832
358.702	42189
358.787	16968
358.871	10502
358.956	9142
359.040	4125
359.125	3806
359.209	4463
359.294	14229
359.378	28120
359.462	9068
359.547	4105
359.631	3238
359.716	3571
359.800	3553
359.885	5582
359.969	4041
360.053	4481
360.138	3466
360.222	4752
360.306	8256
360.391	7976
360.475	14875
360.559	34691
360.644	21854
360.728	16063
360.812	24618
360.896	69992
360.981	31861
361.065	16424
361.149	5641
361.233	5189
361.318	3972
361.402	4603
361.486	4773
361.570	3214
361.654	4929
361.739	9965
361.823	41477
361.907	71543
361.991	15977
362.075	7184
362.159	14292
362.243	11175
362.327	6424
362.411	7148
362.495	4497
362.580	4127
362.664	2756
362.748	2543
362.832	3751
362.916	4765
363.000	9976
363.084	38469
363.168	78245
363.252	21679
363.336	7567
363.420	9089
363.503	37647
363.587	51537
363.671	9094
363.755	6721
363.839	8115
363.923	4586
364.007	8338
364.091	9345
364.175	12121
364.258	61361
364.342	34305
364.426	13582
364.510	7523
364.594	10507
364.677	15233
364.761	57356
364.845	47492
364.929	15377
365.013	12241
365.096	10442
365.180	12075
365.264	16541
365.347	66785
365.431	31699
365.515	8626
365.598	3941
365.682	4595
365.766	7015
365.849	10386
365.933	4705
366.017	6998
366.100	5592
366.184	2953
366.267	3924
366.351	2943
366.435	3065
366.518	2100
366.602	3264
366.685	2700
366.769	4105
366.852	6530
366.936	10875
367.019	7307
367.103	5283
367.186	10872
367.270	4601
367.353	2738
367.436	3667
367.520	2583
367.603	4376
367.687	4908
367.770	9223
367.853	6634
367.937	19511
368.020	34685
368.104	8875
368.187	7292
368.270	11581
368.353	10979
368.437	9302
368.520	14650
368.603	13262
368.687	21325
368.770	44772
368.853	13047
368.936	9914
369.020	10842
369.103	4619
369.186	3780
369.269	4374
369.352	5705
369.436	8959
369.519	5802
369.602	3105
369.685	4725
369.768	4454
369.851	4571
369.934	2706
370.018	3730
370.101	8085
370.184	7551
370.267	6107
370.350	8050
370.433	13318
370.516	31662
370.599	38961
370.682	10342
370.765	24000
370.848	28471
370.931	51257
371.014	22737
371.097	4853
371.180	3953
371.263	3584
371.346	2107
371.429	3875
371.511	3297
371.594	6173
371.677	9425
371.760	13098
371.843	10659
371.926	44117
372.009	104956
372.091	40618
372.174	21416
372.257	49104
372.340	21786
372.423	14606
372.505	19531
372.588	8287
372.671	14351
372.754	48658
372.836	27918
372.919	19309
373.002	41515
373.085	14344
373.167	8999
373.250	21393
373.332	50102
373.415	64089
373.498	127679
373.580	53512
373.663	56589
373.746	85087
373.828	22157
373.911	10532
373.993	9324
374.076	37641
374.159	37941
374.241	14183
374.324	42712
374.406	31752
374.489	36004
374.571	107118
374.654	49696
374.736	20467
374.819	63454
374.901	88717
374.983	94501
375.066	20981
375.148	8233
375.231	27347
375.313	61147
375.395	23999
375.478	5671
375.560	5095
375.643	5878
375.725	17126
375.807	73118
375.890	56723
375.972	17414
376.054	11594
376.136	11842
376.219	7036
376.301	19844
376.383	67143
376.465	28613
376.548	14366
376.630	18301
376.712	56500
376.794	29601
376.877	4692
376.959	2931
377.041	4141
377.123	8755
377.205	10747
377.287	2925
377.369	3469
377.452	2840
377.534	3214
377.616	2932
377.698	2294
377.780	1503
377.862	2823
377.944	3254
378.026	1803
378.108	3029
378.190	2040
378.272	2962
378.354	2473
378.436	2135
378.518	4624
378.600	16410
378.682	14456
378.764	29780
378.846	26449
378.928	6810
379.010	10603
379.091	6093
379.173	4245
379.255	2830
379.337	4138
379.419	12716
379.501	44717
379.583	20254
379.664	5254
379.746	9319
379.828	30009
379.910	41801
379.991	38357
380.073	8300
380.155	5359
380.237	3910
380.318	2391
380.400	2938
380.482	5826
380.564	8471
380.645	7614
380.727	8295
380.809	6246
380.890	4455
380.972	3290
381.053	3402
381.135	3960
381.217	9606
381.298	32244
381.380	17337
381.461	12371
381.543	52841
381.624	71680
381.706	15604
381.787	8275
381.869	9314
381.951	22917
382.032	91678
382.113	65688
382.195	14594
382.276	10055
382.358	16655
382.439	52003
382.521	56498
382.602	87846
382.684	41390
382.765	69152
382.846	64283
382.928	59124
383.009	35673
383.090	27627
383.172	85188
383.253	125360
383.334	55058
383.416	73872
383.497	42184
383.578	16589
383.659	26759
383.741	79698
383.822	190502
383.903	104713
383.984	49676
384.066	95050
384.147	63488
384.228	14698
384.309	8250
384.390	7058
384.471	5314
384.553	6043
384.634	7228
384.715	8775
384.796	4564
384.877	5679
384.958	25903
385.039	36884
385.120	13418
385.201	6385
385.282	6641
385.363	6820
385.444	6572
385.525	10567
385.606	42220
385.687	39509
385.768	10159
385.849	11417
385.930	46704
386.011	88057
386.092	27713
386.173	8245
386.254	4433
386.335	5434
386.416	5621
386.496	18158
386.577	32562
386.658	12128
386.739	6435
386.820	7057
386.901	4758
386.981	5145
387.062	4104
387.143	6889
387.224	28306
387.304	29905
387.385	10033
387.466	5798
387.547	8049
387.627	5704
387.708	10402
387.789	50403
387.869	66559
387.950	20576
388.031	4313
388.111	2512
388.192	9085
388.273	13402
388.353	8073
388.434	5426
388.514	10778
388.595	47782
388.676	67127
388.756	34085
388.837	28424
388.917	18734
388.998	4104
389.078	5102
389.159	4009
389.239	2911
389.320	6867
389.400	4212
389.480	10971
389.561	33923
389.641	18500
389.722	5501
389.802	9051
389.883	14410
389.963	38230
390.043	25582
390.124	7948
390.204	11216
390.284	33877
390.365	23616
390.445	24156
390.525	54978
390.605	50863
390.686	22024
390.766	7966
390.846	5297
390.927	3170
391.007	3244
391.087	5162
391.167	4996
391.247	2483
391.328	5309
391.408	8511
391.488	8211
391.568	1969
391.648	3717
391.728	6822
391.808	6192
391.888	6123
391.969	18101
392.049	31442
392.129	15241
392.209	13219
392.289	37536
392.369	22544
392.449	17925
392.529	11015
392.609	7119
392.689	8675
392.769	33343
392.849	31206
392.929	17721
393.009	46336
393.089	32638
393.169	9972
393.248	21567
393.328	118049
393.408	140347
393.488	29540
393.568	9688
393.648	6935
393.728	5270
393.807	5017
393.887	7155
393.967	6725
394.047	9585
394.127	13350
394.206	24811
394.286	77988
394.366	280042
394.446	328009
394.525	115627
394.605	34206
394.685	20549
394.764	28944
394.844	43897
394.924	32750
395.003	11882
395.083	7862
395.163	7742
395.242	6628
395.322	8158
395.402	5541
395.481	8459
395.561	16462
395.640	47133
395.720	33898
395.799	53187
395.879	53214
395.958	42699
396.038	121376
396.117	356555
396.197	408391
396.276	184378
396.356	65903
396.435	38145
396.515	22798
396.594	15874
396.673	16600
396.753	32879
396.832	115920
396.912	108675
396.991	34877
397.070	10779
397.150	5822
397.229	6044
397.308	4119
397.388	5231
397.467	4760
397.546	3708
397.625	1140
397.705	6008
397.784	5220
397.863	3218
397.942	3333
398.022	3729
398.101	12179
398.180	42967
398.259	24105
398.338	6102
398.417	4248
398.497	3610
398.576	3901
398.655	2176
398.734	2749
398.813	3164
398.892	11776
398.971	45858
399.050	24913
399.129	3806
399.208	2869
399.287	3378
399.366	1852
399.445	1979
399.524	2413
399.603	2289
399.682	5154
399.761	11880
399.840	48124
399.919	41817
399.998	6261
400.077	2240
400.156	1070
400.235	4426
400.313	2674
400.392	2923
400.471	15028
400.550	27544
400.629	7615
400.708	4358
400.786	3524
400.865	9965
400.944	11574
401.023	7142
401.102	1413
401.180	1659
401.259	1906
401.338	2030
401.416	3814
401.495	3186
401.574	2674
401.652	2348
401.731	3216
401.810	3121
401.888	2160
401.967	1278
402.046	2457
402.124	2588
402.203	4195
402.281	3527
402.360	4645
402.438	12981
402.517	9975
402.596	3751
402.674	2593
402.753	2215
402.831	2975
402.910	3010
402.988	6939
403.066	26276
403.145	17676
403.223	9579
403.302	22875
403.380	18159
403.459	15429
403.537	7568
403.615	3937
403.694	2277
403.772	3203
403.850	2793
403.929	2934
404.007	3149
404.085	6206
404.164	6723
404.242	9053
404.320	31735
404.398	103823
404.477	114457
404.555	98707
404.633	89574
404.711	83231
404.789	67548
404.868	18311
404.946	6765
405.024	4126
405.102	3102
405.180	2303
405.258	2132
405.336	2399
405.415	2431
405.493	5762
405.571	4033
405.649	1334
405.727	1211
405.805	3558
405.883	3100
405.961	2969
406.039	3906
406.117	2299
406.195	3801
406.273	14093
406.351	60342
406.429	41883
406.507	8390
406.585	3614
406.663	3489
406.740	3457
406.818	2436
406.896	2207
406.974	3689
407.052	4092
407.130	32775
407.208	53631
407.285	12537
407.363	2194
407.441	2060
407.519	2346
407.596	2079
407.674	4251
407.752	9885
407.830	12540
407.907	7877
407.985	2072
408.063	2958
408.141	1557
408.218	4278
408.296	3071
408.373	2275
408.451	2438
408.529	2599
408.606	1021
408.684	1103
408.762	1551
408.839	1037
408.917	689
408.994	1488
409.072	600
409.149	1312
409.227	2430
409.304	2490
409.382	1764
409.459	1496
409.537	1768
409.614	2583
409.692	1330
409.769	1695
409.846	1397
409.924	3303
410.001	1722
410.079	2011
410.156	2573
410.233	2521
410.311	1549
410.388	1462
410.465	2111
410.543	3285
410.620	1669
410.697	1976
410.775	2664
410.852	40
410.929	2625
411.006	4211
411.083	1667
411.161	5717
411.238	7181
411.315	3914
411.392	1463
411.469	2976
411.547	3499
411.624	1696
411.701	904
411.778	1759
411.855	4413
411.932	2942
412.009	2175
412.086	2266
412.163	2369
412.240	2463
412.317	3600
412.394	3212
412.471	2346
412.548	1484
412.625	694
412.702	2140
412.779	5230
412.856	3959
412.933	1055
413.010	2146
413.087	3149
413.164	14372
413.241	23910
413.318	5002
413.395	3763
413.471	3765
413.548	3432
413.625	2785
413.702	1971
413.779	2578
413.855	1224
413.932	1019
414.009	803
414.086	2142
414.162	1928
414.239	3141
414.316	12697
414.393	34201
414.469	13413
414.546	2618
414.623	1556
414.699	1741
414.776	2267
414.853	1516
414.929	1931
415.006	1980
415.082	1774
415.159	2604
415.236	1391
415.312	1889
415.389	2683
415.465	4753
415.542	2574
415.618	1643
415.695	2792
415.771	2415
415.848	1332
415.924	1727
416.000	624
416.077	1352
416.153	-261
416.230	740
416.306	540
416.383	1093
416.459	1086
416.535	1129
416.612	465
416.688	714
416.764	771
416.841	764
416.917	1398
416.993	1514
417.069	2146
417.146	4281
417.222	7814
417.298	4859
417.374	1876
417.451	2044
417.527	1754
417.603	2068
417.679	2204
417.755	1289
417.831	313
417.908	1031
417.984	953
418.060	595
418.136	3217
418.212	5094
418.288	2159
418.364	1321
418.440	1255
418.516	2736
418.592	3991
418.668	6726
418.744	9177
418.820	7300
418.896	1451
418.972	926
419.048	1110
419.124	3931
419.200	2708
419.276	1687
419.352	705
419.428	1142
419.504	1296
419.579	1778
419.655	1041
419.731	1785
419.807	5051
419.883	9680
419.959	7267
420.034	2897
420.110	4768
420.186	21404
420.262	19339
420.337	3114
420.413	2572
420.489	1156
420.565	1560
420.640	1236
420.716	1279
420.792	1465
420.867	1493
420.943	758
421.019	1845
421.094	2829
421.170	1464
421.245	-264
421.321	1114
421.397	936
421.472	2454
421.548	5250
421.623	6597
421.699	2379
421.774	1953
421.850	942
421.925	3357
422.001	2827
422.076	1435
422.152	2368
422.227	4009
422.302	4453
422.378	4440
422.453	7512
422.529	17260
422.604	74976
422.679	187165
422.755	108967
422.830	25167
422.905	7890
422.981	3936
423.056	2779
423.131	2773
423.207	2061
423.282	2376
423.357	5584
423.432	3862
423.508	3888
423.583	8683
423.658	7883
423.733	2052
423.808	2818
423.883	3779
423.959	2749
424.034	973
424.109	2332
424.184	1306
424.259	1229
424.334	1114
424.409	1036
424.484	1140
424.559	1296
424.634	1578
424.709	2149
424.784	2780
424.859	2304
424.934	2374
425.009	11682
425.084	24224
425.159	9557
425.234	1974
425.309	1384
425.384	7627
425.459	17604
425.534	6023
425.609	1804
425.683	854
425.758	1340
425.833	1670
425.908	2031
425.983	6637
426.058	23001
426.132	11632
426.207	2937
426.282	4401
426.357	3070
426.431	877
426.506	1685
426.581	1282
426.655	1985
426.730	1135
426.805	854
426.879	3221
426.954	2217
427.029	4501
427.103	19057
427.178	54256
427.253	27936
427.327	4847
427.402	5392
427.476	16595
427.551	9694
427.625	2642
427.700	2214
427.774	1486
427.849	2245
427.923	1109
427.998	1333
428.072	1195
428.147	4069
428.221	8765
428.296	18221
428.370	9189
428.444	2007
428.519	4549
428.593	8497
428.667	8504
428.742	9793
428.816	7214
428.890	15354
428.965	26645
429.039	13899
429.113	10584
429.188	4430
429.262	2161
429.336	3658
429.410	11661
429.485	7834
429.559	7024
429.633	7164
429.707	2775
429.781	3777
429.855	19347
429.930	29727
430.004	21913
430.078	39569
430.152	32727
430.226	26005
430.300	27320
430.374	4795
430.448	3282
430.522	11955
430.596	39919
430.670	25560
430.744	31447
430.818	59012
430.892	15597
430.966	3313
431.040	2078
431.114	1496
431.188	905
431.262	1352
431.336	1012
431.410	4452
431.484	10316
431.557	7593
431.631	1709
431.705	1659
431.779	2709
431.853	12055
431.927	9360
432.000	2251
432.074	1386
432.148	1714
432.222	1885
432.295	2091
432.369	1871
432.443	2862
432.516	18054
432.590	54231
432.664	24381
432.737	3490
432.811	989
432.885	653
432.958	1237
433.032	1024
433.106	165
433.179	682
433.253	188
433.326	710
433.400	747
433.473	1119
433.547	1026
433.620	1399
433.694	2676
433.767	3265
433.841	763
433.914	1104
433.988	1692
434.061	1678
434.134	584
434.208	1043
434.281	382
434.355	1295
434.428	1441
434.501	1195
434.575	792
434.648	876
434.721	635
434.795	138
434.868	355
434.941	256
435.014	566
435.088	1340
435.161	2041
435.234	2537
435.307	2440
435.381	1730
435.454	649
435.527	1391
435.600	394
435.673	1222
435.746	969
435.819	1242
435.892	1205
435.966	706
436.039	1021
436.112	1452
436.185	874
436.258	768
436.331	-155
436.404	1565
436.477	462
436.550	1024
436.623	615
436.696	560
436.769	722
436.842	1522
436.915	1089
436.987	2350
437.060	731
437.133	436
437.206	1157
437.279	1974
437.352	1191
437.425	1143
437.498	1416
437.570	4570
437.643	3750
437.716	1334
437.789	847
437.861	2252
437.934	7532
438.007	4664
438.080	1487
438.152	2430
438.225	3875
438.298	23227
438.370	72851
438.443	36630
438.516	8496
438.588	2511
438.661	428
438.734	1542
438.806	1528
438.879	2240
438.951	2394
439.024	4151
439.096	1717
439.169	1110
439.241	1200
439.314	761
439.386	884
439.459	3439
439.531	3711
439.604	1494
439.676	812
439.749	799
439.821	896
439.893	1863
439.966	1358
440.038	2036
440.110	1352
440.183	1255
440.255	721
440.327	2889
440.400	9206
440.472	45627
440.544	34445
440.617	5740
440.689	4590
440.761	4075
440.833	5850
440.905	4943
440.978	605
441.050	480
441.122	483
441.194	531
441.266	634
441.338	1287
441.411	2097
441.483	13662
441.555	24096
441.627	6009
441.699	3420
441.771	2172
441.843	1056
441.915	660
441.987	984
442.059	797
442.131	1569
442.203	1383
442.275	2590
442.347	1815
442.419	859
442.491	4120
442.563	9411
442.635	6861
442.706	9313
442.778	10071
442.850	1245
442.922	941
442.994	1551
443.066	2875
443.137	2310
443.209	907
443.281	1327
443.353	2389
443.425	6474
443.496	17429
443.568	16289
443.640	6564
443.711	2338
443.783	1484
443.855	1156
443.926	1079
443.998	1115
444.070	1589
444.141	949
444.213	2335
444.285	3522
444.356	2161
444.428	795
444.499	537
444.571	347
444.642	1167
444.714	1134
444.785	2797
444.857	2953
444.928	7292
445.000	3712
445.071	4163
445.143	5395
445.214	2263
445.285	3602
445.357	11402
445.428	16383
445.500	34058
445.571	23878
445.642	9730
445.714	7099
445.785	11811
445.856	2710
445.928	3335
445.999	3033
446.070	1970
446.141	2163
446.213	3953
446.284	1710
446.355	1487
446.426	797
446.497	987
446.569	1526
446.640	3861
446.711	2598
446.782	718
446.853	1482
446.924	1768
446.995	1695
447.066	2389
447.138	3251
447.209	2686
447.280	482
447.351	860
447.422	-87
447.493	1781
447.564	1623
447.635	2597
447.706	993
447.777	1125
447.847	1033
447.918	625
447.989	2279
448.060	2140
448.131	5402
448.202	4915
448.273	3730
448.344	1931
448.414	812
448.485	1243
448.556	768
448.627	1038
448.698	760
448.768	1372
448.839	338
448.910	2652
448.981	3352
449.051	1324
449.122	730
449.193	1145
449.263	1053
449.334	613
449.405	2277
449.475	4589
449.546	3863
449.616	3684
449.687	3392
449.758	1651
449.828	959
449.899	428
449.969	966
450.040	1120
450.110	1026
450.181	2117
450.251	486
450.322	663
450.392	1287
450.463	1829
450.533	847
450.604	1773
450.674	813
450.744	1030
450.815	1098
450.885	1534
450.955	975
451.026	1015
451.096	605
451.166	1734
451.237	2022
451.307	7787
451.377	3566
451.447	891
451.518	1230
451.588	992
451.658	1451
451.728	2854
451.799	8017
451.869	10302
451.939	2511
452.009	1952
452.079	1717
452.149	1729
452.219	2051
452.289	10526
452.360	8378
452.430	1766
452.500	1400
452.570	2244
452.640	2282
452.710	5612
452.780	8496
452.850	6305
452.920	6469
452.990	3010
453.060	2060
453.129	2771
453.199	3353
453.269	10085
453.339	23395
453.409	36754
453.479	33870
453.549	49930
453.619	53962
453.688	22291
453.758	4396
453.828	2812
453.898	1266
453.968	1898
454.037	637
454.087	1063
454.107	1234
454.168	914
454.177	867
454.247	1948
454.249	1916
454.316	1085
454.330	1221
454.386	1790
454.411	2752
454.456	4288
454.492	6221
454.525	7959
454.574	4592
454.595	3129
454.655	1466
454.665	1198
454.734	1093
454.736	1145
454.804	3049
454.817	4052
454.873	8143
454.898	9015
454.943	10514
454.979	6528
455.013	2944
455.060	2615
455.082	2510
455.141	1638
455.152	1506
455.221	6091
455.222	6190
455.291	13522
455.303	13835
455.360	14474
455.384	21464
455.430	33290
455.465	26945
455.499	21008
455.546	13144
455.569	9590
455.627	6564
455.638	6016
455.707	1443
455.708	1447
455.777	1660
455.789	1575
455.846	1168
455.869	1363
455.916	1703
455.950	1168
455.985	669
456.031	1054
456.054	1228
456.112	743
456.124	649
456.193	619
456.193	615
456.262	1319
456.274	1453
456.332	1913
456.355	1747
456.401	1322
456.436	1306
456.470	1365
456.516	667
456.540	244
456.597	713
456.609	838
456.678	103
456.678	95
456.747	1004
456.759	844
456.817	133
456.840	203
456.886	332
456.920	676
456.955	959
457.001	824
457.024	783
457.082	755
457.093	774
457.162	1375
457.163	1383
457.232	1015
457.243	994
457.301	1079
457.324	884
457.370	644
457.405	946
457.439	1108
457.485	793
457.508	717
457.566	1360
457.577	1456
457.646	1120
457.647	1125
457.715	1187
457.727	1241
457.784	1504
457.808	1538
457.853	1781
457.889	1842
457.922	1811
457.969	2100
457.991	2174
458.050	1814
458.060	1761
458.129	2531
458.130	2535
458.198	2600
458.211	2525
458.267	1756
458.292	1250
458.336	781
458.372	991
458.405	1290
458.453	1404
458.474	1325
458.533	1298
458.543	1378
458.611	2994
458.614	3036
458.680	3063
458.694	2854
458.749	2206
458.775	1958
458.818	1536
458.855	1171
458.887	889
458.936	616
458.955	563
459.016	866
459.024	934
459.093	1759
459.097	1756
459.162	1400
459.177	1427
459.230	1530
459.257	1435
459.299	1360
459.338	1666
459.368	1891
459.418	2200
459.437	2257
459.499	2147
459.505	2103
459.574	1702
459.579	1663
459.643	1455
459.659	1394
459.711	1345
459.740	1610
459.780	1795
459.820	1183
459.849	1010
459.900	2168
459.917	2385
459.981	2229
459.986	2205
460.054	1405
460.061	1416
460.123	1871
460.141	1846
460.191	1895
460.222	1951
460.260	1952
460.302	2722
460.328	3026
460.382	2336
460.397	2183
460.462	1832
460.465	1840
460.534	2521
460.543	2604
460.602	5722
460.623	6965
460.671	9918
460.703	14384
460.739	16685
460.783	16729
460.808	15028
460.864	4315
460.876	3078
460.944	1459
460.945	1442
461.013	1785
461.024	1812
461.081	1822
461.104	1940
461.150	2080
461.184	1935
461.218	1610
461.264	1031
461.286	1126
461.345	1931
461.355	1980
461.423	1938
461.425	1944
461.491	1519
461.505	1451
461.559	2357
461.585	2574
461.628	3752
461.665	5574
461.696	6680
461.745	9285
461.764	8810
461.825	3836
461.832	3658
461.901	2023
461.905	2042
461.969	2025
461.985	1797
462.037	1616
462.065	1801
462.105	1751
462.145	1761
462.173	2339
462.225	3256
462.241	3481
462.305	4945
462.310	4895
462.378	4454
462.385	4145
462.446	2184
462.465	1944
462.514	1798
462.545	1778
462.582	1955
462.625	2095
462.650	2069
462.705	1817
462.718	1840
462.785	2123
462.786	2125
462.854	2428
462.865	2435
462.922	2605
462.945	2857
462.990	2721
463.025	2245
463.058	2169
463.104	1993
463.126	1855
463.184	1639
463.194	1640
463.262	1519
463.264	1532
463.330	1615
463.344	1602
463.398	2179
463.424	2337
463.466	1687
463.504	1290
463.533	1705
463.583	2233
463.601	2147
463.663	1770
463.669	1788
463.737	2111
463.743	2146
463.805	4037
463.823	4626
463.873	5679
463.903	6352
463.940	6847
463.982	7824
464.008	7045
464.062	4089
464.076	3756
464.142	2270
464.144	2260
464.211	2235
464.221	2229
464.279	1451
464.301	1206
464.347	1638
464.381	2066
464.414	2019
464.461	1660
464.482	1802
464.540	2519
464.550	2513
464.617	2363
464.620	2353
464.685	3090
464.699	3269
464.753	3824
464.779	4063
464.820	4918
464.859	5975
464.888	5687
464.938	4766
464.956	4809
465.018	4912
465.023	4877
465.091	4579
465.098	4516
465.158	4437
465.177	4554
465.226	4260
465.257	3866
465.293	3980
465.336	4259
465.361	4371
465.416	4495
465.428	4647
465.495	5437
465.496	5458
465.563	7745
465.575	8176
465.631	10950
465.654	12280
465.698	9116
465.734	5894
465.765	5194
465.813	4163
465.833	3911
465.893	3487
465.900	3538
465.968	4037
465.972	4065
466.035	3798
466.052	3697
466.102	4320
466.131	4693
466.170	4022
466.210	3365
466.237	3663
466.290	4163
466.304	3992
466.369	3233
466.372	3266
466.439	4195
466.449	4326
466.506	4480
466.528	4548
466.573	5990
466.607	7038
466.641	8916
466.687	11525
466.708	12807
466.766	16540
466.775	15613
466.842	8355
466.845	7997
466.909	5586
466.925	5057
466.977	5296
467.004	5458
467.044	5457
467.083	5427
467.111	6215
467.163	7721
467.178	7963
467.242	8920
467.245	8858
467.312	7395
467.321	7197
467.379	7556
467.400	7670
467.446	8141
467.480	8466
467.559	7425
467.638	5067
467.717	5737
467.796	5956
467.875	6408
467.955	5603
468.034	7669
468.113	13579
468.192	19972
468.271	8420
468.350	4555
468.429	5037
468.508	5349
468.588	5228
468.667	5252
468.746	5482
468.825	5374
468.904	4864
468.983	5551
469.062	6833
469.141	8635
469.220	4916
469.299	4250
469.378	4870
469.456	6753
469.535	7454
469.614	5575
469.693	5689
469.772	6985
469.851	7022
469.930	7225
470.009	6142
470.088	4786
470.166	5048
470.245	5553
470.324	6048
470.403	5129
470.482	5094
470.560	5630
470.639	5341
470.718	6031
470.797	5178
470.875	6799
470.954	6174
471.033	7773
471.111	4554
471.190	5415
471.269	4171
471.347	4049
471.426	4211
471.505	5723
471.583	6324
471.662	5914
471.740	5066
471.819	5022
471.898	4372
471.976	4661
472.055	3833
472.133	5949
472.212	6116
472.290	5150
472.369	4889
472.447	4901
472.526	3949
472.604	5448
472.683	5086
472.761	5167
472.839	4664
472.918	4365
472.996	4233
473.075	4989
473.153	5163
473.231	5090
473.310	4078
473.388	4475
473.466	5132
473.545	5778
473.623	6661
473.701	5593
473.780	4502
473.858	4325
473.936	5682
474.014	4221
474.093	5555
474.171	6299
474.249	7658
474.327	6197
474.405	3720
474.484	4538
474.562	4019
474.640	4139
474.718	3549
474.796	4461
474.874	4553
474.952	3925
475.030	4206
475.108	3946
475.187	4965
475.265	4414
475.343	4475
475.421	5715
475.499	3707
475.577	4934
475.655	4540
475.733	7373
475.811	10963
475.889	11789
475.966	9738
476.044	3666
476.122	3358
476.200	4506
476.278	4633
476.356	3371
476.434	4206
476.512	4096
476.590	4833
476.667	4470
476.745	3294
476.823	3323
476.901	3079
476.979	4092
477.056	3794
477.134	3638
477.212	3542
477.290	4153
477.367	3344
477.445	3414
477.523	3326
477.601	3617
477.678	3826
477.756	4357
477.834	4300
477.911	3820
477.989	2600
478.066	3775
478.144	3241
478.222	3545
478.299	3765
478.377	5724
478.454	2937
478.532	2714
478.609	3444
478.687	4112
478.764	2576
478.842	3625
478.919	2941
478.997	3297
479.074	2697
479.152	3548
479.229	4042
479.307	3597
479.384	2777
479.461	3451
479.539	3348
479.616	3060
479.694	2646
479.771	2827
479.848	2952
479.926	3819
480.003	5357
480.080	3623
480.157	1813
480.235	2693
480.312	2057
480.389	3003
480.467	3805
480.544	5783
480.621	3576
480.698	3161
480.775	2949
480.853	3659
480.930	3728
481.007	2878
481.084	2798
481.161	3397
481.238	3064
481.315	2873
481.392	2992
481.470	2279
481.547	2885
481.624	2513
481.701	2971
481.778	2239
481.855	2399
481.932	5452
482.009	5909
482.086	5848
482.163	2683
482.240	3706
482.317	3796
482.393	3586
482.470	3129
482.547	3397
482.624	1838
482.701	3047
482.778	2270
482.855	2809
482.932	2249
483.009	2509
483.085	2106
483.162	2861
483.239	2809
483.316	1825
483.393	2739
483.469	2970
483.546	2407
483.623	3139
483.699	1951
483.776	3101
483.853	2522
483.930	4673
484.006	9273
484.083	18319
484.160	16962
484.236	26177
484.313	23593
484.389	16172
484.466	14020
484.543	12805
484.619	12065
484.696	12027
484.772	12784
484.849	13816
484.925	12545
485.002	11889
485.078	11747
485.155	12735
485.231	11223
485.308	11100
485.384	10800
485.461	11602
485.537	15118
485.614	19694
485.690	11645
485.766	11137
485.843	10868
485.919	13020
485.995	13541
486.072	10918
486.148	9816
486.224	10202
486.301	9824
486.377	10101
486.453	10400
486.530	11501
486.606	15059
486.682	19091
486.758	17300
486.835	17884
486.911	14285
486.987	18777
487.063	21694
487.139	23965
487.215	18991
487.292	13446
487.368	11816
487.444	10977
487.520	12169
487.596	11145
487.672	11341
487.748	14008
487.824	15435
487.900	12847
487.976	9591
488.052	10517
488.128	11711
488.204	10195
488.280	10665
488.356	10207
488.432	15642
488.508	22727
488.584	12981
488.660	8679
488.736	9137
488.812	8718
488.888	10709
488.964	12924
489.039	19364
489.115	30408
489.191	23030
489.267	10623
489.343	8851
489.418	9069
489.494	7551
489.570	8194
489.646	8668
489.722	8284
489.797	8039
489.873	9344
489.949	16431
490.024	18376
490.100	8040
490.176	7410
490.251	7049
490.327	9829
490.403	8339
490.478	7011
490.554	6759
490.629	6645
490.705	6677
490.781	7187
490.856	6385
490.932	7243
491.007	7098
491.083	7271
491.158	6455
491.234	7895
491.309	12466
491.385	15717
491.460	6638
491.536	6746
491.611	6574
491.686	6741
491.762	8027
491.837	11719
491.913	19400
491.988	25579
492.063	36588
492.139	15686
492.214	8543
492.289	6554
492.365	3937
492.440	6182
492.515	5939
492.590	5686
492.666	5390
492.741	5828
492.816	7883
492.891	6181
492.967	5908
493.042	5700
493.117	5358
493.192	6992
493.267	10580
493.342	39813
493.418	70360
493.493	18659
493.568	4716
493.643	5012
493.718	5216
493.793	6634
493.868	7385
493.943	5804
494.018	5320
494.093	4647
494.168	4494
494.243	3919
494.318	3745
494.393	4319
494.468	4030
494.543	4347
494.618	4847
494.693	4653
494.768	3938
494.842	4112
494.917	3627
494.992	4463
495.067	4237
495.142	4081
495.217	4384
495.292	4396
495.366	3572
495.441	5766
495.516	6234
495.591	7956
495.665	19453
495.740	53578
495.815	35981
495.890	6499
495.964	2831
496.039	6369
496.114	4390
496.188	5444
496.263	5007
496.338	5003
496.412	5146
496.487	6819
496.561	5531
496.636	6941
496.710	5808
496.785	5016
496.860	6676
496.934	6133
497.009	5668
497.083	5818
497.158	6155
497.232	6574
497.307	8048
497.381	6994
497.455	7508
497.530	9162
497.604	9620
497.679	7932
497.753	11688
497.827	15643
497.902	14049
497.976	15285
498.050	27243
498.125	93866
498.199	141157
498.273	29467
498.348	16802
498.422	14261
498.496	13228
498.570	12461
498.645	10303
498.719	9382
498.793	11321
498.867	12146
498.941	16355
499.016	35143
499.090	104711
499.164	72316
499.238	8039
499.312	6348
499.386	6867
499.460	7339
499.534	5562
499.609	6377
499.683	8747
499.757	10185
499.831	14839
499.905	60392
499.979	92127
500.053	15860
500.127	11538
500.201	8113
500.275	5913
500.349	5798
500.422	5255
500.496	7393
500.570	13460
500.644	33782
500.718	76520
500.792	32561
500.866	6377
500.940	6447
501.013	6528
501.087	5130
501.161	8067
501.235	10360
501.309	18573
501.382	55405
501.456	78341
501.530	15963
501.603	18835
501.677	13171
501.751	3753
501.825	5406
501.898	7186
501.972	21314
502.046	22219
502.119	4856
502.193	9347
502.266	24979
502.340	19782
502.413	10837
502.487	23392
502.561	16077
502.634	6156
502.708	4169
502.781	3043
502.855	3286
502.928	2784
503.002	3350
503.075	1796
503.149	2598
503.222	2917
503.295	3098
503.369	4671
503.442	4025
503.516	14496
503.589	43141
503.662	39114
503.736	11214
503.809	18488
503.882	20504
503.956	21863
504.029	29788
504.102	9510
504.175	8631
504.249	4254
504.322	3637
504.395	4045
504.468	3538
504.542	2810
504.615	1897
504.688	2341
504.761	1250
504.834	2944
504.907	3334
504.980	5766
505.053	4060
505.127	2057
505.200	7566
505.273	4668
505.346	3320
505.419	1628
505.492	2612
505.565	2052
505.638	1546
505.711	1467
505.784	1756
505.857	1633
505.930	2113
506.003	1777
506.076	4006
506.149	2696
506.221	3352
506.294	3990
506.367	6848
506.440	30574
506.513	30505
506.586	4859
506.659	2698
506.731	2604
506.804	1768
506.877	2935
506.950	2969
507.022	2335
507.095	2212
507.168	3993
507.241	3884
507.313	1528
507.386	1312
507.459	3974
507.531	1938
507.604	1326
507.677	3113
507.749	1480
507.822	3423
507.894	6663
507.967	13080
508.040	7799
508.112	6281
508.185	5830
508.257	3688
508.330	7428
508.402	5579
508.475	4202
508.547	4707
508.620	4478
508.692	6969
508.765	5413
508.837	3759
508.909	3911
508.982	3727
509.054	4223
509.127	4202
509.199	3207
509.271	2927
509.344	3229
509.416	3437
509.488	3869
509.560	4610
509.633	3605
509.705	4688
509.777	4635
509.849	6643
509.922	5116
509.994	4657
510.066	5575
510.138	3825
510.210	11574
510.283	11905
510.355	9393
510.427	7265
510.499	6415
510.571	7036
510.643	5385
510.715	7573
510.787	6901
510.859	5964
510.931	6268
511.003	7446
511.076	8103
511.148	5017
511.219	5091
511.291	7929
511.363	9170
511.435	6134
511.507	5345
511.579	5576
511.651	6319
511.723	5347
511.795	4316
511.867	4484
511.939	5217
512.010	7779
512.082	9247
512.154	3725
512.226	5269
512.298	7492
512.369	12408
512.441	10685
512.513	7930
512.585	6773
512.656	6606
512.728	7123
512.800	6170
512.871	6148
512.943	6088
513.015	4793
513.086	4835
513.158	6176
513.230	4942
513.301	6108
513.373	8469
513.444	5767
513.516	4851
513.588	4995
513.659	5496
513.731	5626
513.802	4739
513.874	8411
513.945	13542
514.016	7486
514.088	5023
514.159	4437
514.231	5750
514.302	9785
514.374	8980
514.445	7202
514.516	11062
514.588	9839
514.659	6260
514.730	8942
514.802	9942
514.873	6259
514.944	10188
515.016	8071
515.087	7224
515.158	7892
515.229	10614
515.301	7259
515.372	10929
515.443	8735
515.514	6715
515.585	5497
515.656	5467
515.728	5307
515.799	4751
515.870	5306
515.941	5076
516.012	4328
516.083	7578
516.154	7913
516.225	9037
516.296	8624
516.367	7388
516.438	6989
516.509	7943
516.580	9819
516.651	19692
516.722	71666
516.793	63508
516.864	12581
516.935	10820
517.006	10317
517.077	12125
517.148	23752
517.219	65653
517.289	146008
517.360	62701
517.431	29301
517.502	7678
517.573	6359
517.643	6027
517.714	7559
517.785	7892
517.856	7706
517.926	8628
517.997	9690
518.068	9646
518.138	13181
518.209	14238
518.280	41881
518.350	183340
518.421	132927
518.492	15827
518.562	8135
518.633	6109
518.703	4602
518.774	6973
518.845	7693
518.915	8332
518.986	6766
519.056	7983
519.127	12272
519.197	17007
519.268	37039
519.338	40028
519.408	9189
519.479	8616
519.549	7788
519.620	6233
519.690	4493
519.760	4493
519.831	5085
519.901	3988
519.971	4065
520.042	3735
520.112	4371
520.182	6077
520.253	7241
520.323	4377
520.393	6076
520.463	10723
520.534	4789
520.604	13821
520.674	9388
520.744	5352
520.814	11258
520.885	15873
520.955	11742
521.025	42784
521.095	34852
521.165	6657
521.235	4527
521.305	3624
521.375	4268
521.445	4132
521.515	4334
521.585	5653
521.655	5455
521.725	4839
521.795	5204
521.865	2891
521.935	6309
522.005	4781
522.075	3352
522.145	4162
522.215	3233
522.285	4720
522.355	6155
522.424	11490
522.494	13000
522.564	7003
522.634	8613
522.704	27910
522.774	19181
522.843	4333
522.913	3673
522.983	3850
523.053	4148
523.122	4374
523.192	3861
523.262	10980
523.331	19153
523.401	6055
523.471	3582
523.540	3996
523.610	1781
523.680	2524
523.749	2346
523.819	2909
523.888	3585
523.958	2580
524.027	2414
524.097	3181
524.166	3567
524.236	1955
524.305	4598
524.375	2657
524.444	1831
524.514	3682
524.583	2555
524.653	2930
524.722	4643
524.791	3057
524.861	3683
524.930	1661
524.999	1618
525.069	4266
525.138	3042
525.207	3895
525.277	3700
525.346	1331
525.415	2979
525.484	2625
525.554	2897
525.623	3437
525.692	3129
525.761	3014
525.830	3119
525.900	1375
525.969	2586
526.038	4475
526.107	3044
526.176	9640
526.245	9659
526.314	7415
526.383	8457
526.452	7733
526.522	12965
526.591	19618
526.660	15097
526.729	7940
526.797	7538
526.867	13136
526.935	70666
527.004	86864
527.073	38530
527.142	5957
527.211	3276
527.280	3258
527.349	4454
527.418	1727
527.487	3372
527.555	1395
527.624	2485
527.693	517
527.762	2734
527.831	656
527.899	2277
527.968	2299
528.037	522
528.106	1982
528.174	4748
528.243	4356
528.312	5190
528.380	7628
528.449	2966
528.518	2763
528.586	440
528.655	3162
528.723	1766
528.792	1147
528.861	1509
528.929	-12
528.998	2614
529.066	1076
529.135	1594
529.203	1390
529.272	669
529.340	1408
529.409	3118
529.477	980
529.545	2092
529.614	3342
529.682	1591
529.751	3279
529.819	5676
529.887	3147
529.956	1030
530.024	2238
530.092	1194
530.161	2431
530.229	3185
530.297	1900
530.365	2003
530.434	1489
530.502	1375
530.570	2120
530.638	196
530.707	2263
530.775	3317
530.843	1759
530.911	1784
530.979	1306
531.047	1654
531.115	2057
531.183	1781
531.252	2034
531.320	978
531.388	579
531.456	2243
531.524	-59
531.592	2057
531.660	2854
531.728	1247
531.796	1391
531.864	2376
531.932	1629
532.000	1557
532.067	2062
532.135	3381
532.203	3599
532.271	3111
532.339	6396
532.407	12945
532.475	11394
532.542	5431
532.610	5366
532.678	3635
532.746	18015
532.814	68503
532.881	29303
532.949	4749
533.017	2920
533.084	2004
533.152	1910
533.220	2670
533.287	1193
533.355	2114
533.423	2465
533.490	2298
533.558	1759
533.625	2754
533.693	3057
533.761	3499
533.828	4210
533.896	2578
533.963	6868
534.031	9315
534.098	10908
534.166	7501
534.233	3209
534.300	4959
534.368	5395
534.435	3490
534.503	4286
534.570	4145
534.637	2748
534.705	2656
534.772	2518
534.840	1940
534.907	5086
534.974	8215
535.041	3106
535.109	2503
535.176	1978
535.243	2622
535.310	2575
535.378	1787
535.445	2620
535.512	2113
535.579	2697
535.646	1849
535.714	2845
535.781	5007
535.848	4959
535.915	5287
535.982	5376
536.049	6358
536.116	6751
536.183	4870
536.250	4152
536.317	3624
536.384	3461
536.451	5509
536.518	5875
536.585	3579
536.652	5666
536.719	6222
536.786	4525
536.853	3393
536.920	5503
536.987	7854
537.053	6611
537.120	27571
537.187	41027
537.254	5194
537.321	1565
537.388	4732
537.454	1438
537.521	1773
537.588	1445
537.654	4764
537.721	4333
537.788	4465
537.855	2992
537.921	3767
537.988	2696
538.055	4478
538.121	2304
538.188	3089
538.254	3251
538.321	8291
538.388	6370
538.454	3063
538.521	2411
538.587	2554
538.654	2286
538.720	2375
538.787	2357
538.853	2053
538.920	3975
538.986	3790
539.053	2716
539.119	2136
539.185	3159
539.252	4394
539.318	4557
539.385	5364
539.451	3398
539.517	4836
539.583	5770
539.650	7689
539.716	25112
539.782	12853
539.849	3032
539.915	3984
539.981	2461
540.047	3684
540.114	3542
540.180	5118
540.246	3434
540.312	3921
540.378	6883
540.444	9581
540.510	7696
540.576	27241
540.643	15832
540.709	3174
540.775	3402
540.841	2873
540.907	4103
540.973	7837
541.039	6243
541.105	6643
541.171	3753
541.237	2715
541.303	4488
541.369	5518
541.435	4179
541.500	7466
541.566	4949
541.632	3157
541.698	2619
541.764	2755
541.830	1928
541.896	1605
541.961	3612
542.027	2946
542.093	3150
542.159	3788
542.224	3348
542.290	6107
542.356	6728
542.421	10083
542.487	6185
542.553	3320
542.618	5145
542.684	4002
542.750	3016
542.815	4001
542.881	5407
542.947	20568
543.012	27396
543.078	4516
543.143	3304
543.209	3710
543.274	3586
543.340	4864
543.405	6614
543.471	17518
543.536	6040
543.602	3928
543.667	2573
543.732	4049
543.798	2391
543.863	4577
543.928	2641
543.994	1998
544.059	3947
544.124	3779
544.190	3125
544.255	4420
544.320	3828
544.386	3550
544.451	4822
544.516	4801
544.581	4763
544.646	11502
544.712	30275
544.777	10560
544.842	4201
544.907	4774
544.972	4225
545.037	3770
545.102	4690
545.168	4003
545.233	5540
545.298	5338
545.363	5605
545.428	6427
545.493	9209
545.558	19764
545.623	13650
545.688	4681
545.753	4786
545.818	3843
545.883	4977
545.947	4121
546.012	4700
546.077	5028
546.142	4891
546.207	4409
546.272	5636
546.337	5489
546.401	5830
546.466	4391
546.531	3305
546.596	5414
546.661	5471
546.725	5424
546.790	3453
546.855	4015
546.919	2646
546.984	4049
547.049	3222
547.113	5422
547.178	3193
547.243	5001
547.307	5021
547.372	5315
547.436	6268
547.501	5299
547.565	4369
547.630	6001
547.695	5179
547.759	5668
547.823	5908
547.888	4839
547.952	4127
548.017	4886
548.081	4583
548.146	6645
548.210	5870
548.274	4346
548.339	4167
548.403	4940
548.468	3890
548.532	4352
548.596	3997
548.660	4183
548.725	5254
548.789	4726
548.853	6428
548.917	3706
548.982	6071
549.046	7459
549.110	4501
549.174	4589
549.238	3662
549.303	3234
549.367	5062
549.431	4204
549.495	4025
549.559	4422
549.623	4579
549.687	5011
549.751	7341
549.815	5884
549.879	5643
549.943	3075
550.007	5620
550.071	4799
550.135	6545
550.199	4989
550.263	5824
550.327	5494
550.391	4992
550.455	5053
550.519	4912
550.582	6016
550.646	6198
550.710	8353
550.774	6002
550.838	4970
550.901	4994
550.965	6698
551.029	5072
551.093	7184
551.156	7256
551.220	13165
551.284	17173
551.347	8884
551.411	13201
551.475	22594
551.538	7451
551.602	6153
551.666	4776
551.729	4123
551.793	4696
551.856	4907
551.920	5925
551.983	5228
552.047	5564
552.110	4903
552.174	4977
552.237	4776
552.301	4380
552.364	5212
552.428	4713
552.491	3938
552.554	5431
552.618	4033
552.681	5662
552.745	5302
552.808	7585
552.871	8909
552.934	7554
552.998	6704
553.061	6551
553.124	6894
553.187	5698
553.251	8959
553.314	9103
553.377	9884
553.440	13982
553.503	46144
553.567	135796
553.630	38600
553.693	7738
553.756	5835
553.819	5680
553.882	4918
553.945	4190
554.008	4550
554.071	3649
554.134	4511
554.197	3867
554.260	4441
554.323	5041
554.386	5049
554.449	4345
554.512	5440
554.575	3727
554.638	4618
554.701	4402
554.764	4778
554.827	3968
554.889	3193
554.952	3073
555.015	2816
555.078	3631
555.141	4431
555.203	4007
555.266	3946
555.329	4042
555.391	3632
555.454	3296
555.517	5139
555.580	4088
555.642	2838
555.705	2819
555.768	3260
555.830	4119
555.893	3567
555.955	3783
556.018	3523
556.080	3149
556.143	4573
556.206	2957
556.268	4695
556.330	3816
556.393	3866
556.455	3697
556.518	5248
556.580	6626
556.643	4125
556.705	3790
556.767	2245
556.830	4001
556.892	4253
556.955	4873
557.017	5296
557.079	4219
557.142	3740
557.204	3592
557.266	7716
557.328	8478
557.391	3506
557.453	3107
557.515	3524
557.577	4917
557.639	4790
557.701	2790
557.764	2697
557.826	2181
557.888	3784
557.950	2461
558.012	3298
558.074	3671
558.136	5361
558.198	8979
558.260	7049
558.322	3053
558.384	3749
558.446	4085
558.508	4565
558.570	5737
558.632	8591
558.694	14181
558.756	10188
558.818	14618
558.880	49140
558.942	26660
559.003	10549
559.065	8623
559.127	5020
559.189	4082
559.251	2874
559.312	4793
559.374	7673
559.436	25144
559.498	22970
559.559	4806
559.621	4090
559.683	4293
559.744	6916
559.806	12243
559.868	23632
559.929	8813
559.991	5958
560.052	4073
560.114	9909
560.176	8948
560.237	6849
560.299	11487
560.360	6173
560.422	4602
560.483	3926
560.545	4060
560.606	3501
560.667	2514
560.729	3001
560.790	3385
560.852	3499
560.913	3496
560.974	3502
561.036	3722
561.097	2836
561.158	4512
561.220	4011
561.281	4292
561.342	3983
561.403	5394
561.465	5380
561.526	10519
561.587	18592
561.648	6455
561.709	4203
561.771	3832
561.832	3999
561.893	3218
561.954	4039
562.015	3071
562.076	4153
562.137	3935
562.198	3891
562.259	4336
562.320	3965
562.381	4464
562.442	5362
562.503	5427
562.564	3819
562.625	3775
562.686	4215
562.747	3802
562.808	4304
562.869	3585
562.930	5310
562.991	5614
563.051	4864
563.112	4407
563.173	4804
563.234	3870
563.294	4355
563.355	3555
563.416	3869
563.477	4269
563.537	4266
563.598	4558
563.659	4106
563.720	3922
563.780	4050
563.841	3381
563.901	4459
563.962	4532
564.023	3862
564.083	4728
564.144	3733
564.204	3603
564.265	4162
564.325	4931
564.386	8763
564.446	9818
564.507	5084
564.567	3749
564.628	4380
564.688	3630
564.749	3543
564.809	4827
564.869	5685
564.930	5284
564.990	5317
565.050	4251
565.111	5008
565.171	4492
565.231	3485
565.292	4989
565.352	4069
565.412	4294
565.472	4233
565.532	4700
565.593	4958
565.653	3483
565.713	4602
565.773	4483
565.833	5043
565.893	7479
565.953	5778
566.013	3983
566.074	5936
566.134	6770
566.194	9051
566.254	10390
566.314	7786
566.374	5365
566.434	6444
566.494	6650
566.554	5754
566.614	6050
566.673	6981
566.733	7290
566.793	7824
566.853	7386
566.913	8302
566.973	7551
567.033	8776
567.092	8096
567.152	8462
567.212	8430
567.272	8039
567.331	9267
567.391	9245
567.451	9785
567.511	11304
567.570	12369
567.630	9180
567.690	8211
567.749	8618
567.809	9723
567.868	11529
567.928	11437
567.988	13687
568.047	15323
568.107	18386
568.166	23864
568.226	34892
568.285	48466
568.345	50936
568.404	44135
568.464	38505
568.523	35875
568.582	35111
568.642	36496
568.701	41967
568.761	54061
568.820	78369
568.879	91219
568.939	79585
568.998	62574
569.057	49595
569.116	39504
569.176	32420
569.235	26280
569.294	22530
569.353	19103
569.413	16517
569.472	15306
569.531	13005
569.590	11501
569.649	10254
569.708	9738
569.767	10059
569.827	9794
569.886	8472
569.945	7556
570.004	6894
570.063	6631
570.122	6729
570.181	7577
570.240	7200
570.299	7548
570.358	6384
570.417	5688
570.475	6146
570.534	5674
570.593	5852
570.652	6192
570.711	5521
570.770	5163
570.829	5052
570.887	4677
570.946	5550
571.005	4582
571.064	4574
571.122	4161
571.181	5486
571.240	4688
571.299	4456
571.357	4292
571.416	5043
571.475	3892
571.533	6471
571.592	3400
571.650	4565
571.709	4827
571.768	4272
571.826	4277
571.885	3880
571.943	4805
572.002	3639
572.060	4352
572.119	3818
572.177	3959
572.236	3815
572.294	3155
572.352	4169
572.411	3602
572.469	2758
572.528	3103
572.586	3915
572.644	2951
572.703	5713
572.761	4021
572.819	3559
572.877	3808
572.936	3533
572.994	3815
573.052	3204
573.110	3383
573.169	3021
573.227	2670
573.285	2766
573.343	2659
573.401	3671
573.459	3053
573.517	2967
573.576	3962
573.634	2826
573.692	2556
573.750	2991
573.808	3201
573.866	4057
573.924	4262
573.982	5620
574.040	3649
574.098	3940
574.155	2816
574.213	3266
574.271	3299
574.329	2562
574.387	2131
574.445	2618
574.503	2329
574.560	2847
574.618	2731
574.676	2803
574.734	2212
574.792	2966
574.849	2344
574.907	2239
574.965	2794
575.022	2949
575.080	2414
575.138	3315
575.195	2790
575.253	3139
575.311	2719
575.368	3166
575.426	3053
575.483	3969
575.541	3368
575.598	2588
575.656	3098
575.713	2799
575.771	3052
575.828	2760
575.886	2334
575.943	3564
576.001	2804
576.058	3073
576.115	3772
576.173	3787
576.230	4063
576.287	4319
576.345	4294
576.402	3705
576.459	3530
576.517	3199
576.574	3847
576.631	3446
576.688	2859
576.746	3040
576.803	3895
576.860	3555
576.917	3614
576.974	3087
577.031	2647
577.089	3652
577.146	2946
577.203	3510
577.260	3783
577.317	4603
577.374	4245
577.431	3915
577.488	3645
577.545	3601
577.602	4194
577.659	3624
577.716	4652
577.773	6151
577.830	5271
577.886	4544
577.943	3565
578.000	3957
578.057	3890
578.114	4908
578.171	5771
578.227	9822
578.284	10007
578.341	9164
578.398	5416
578.454	5935
578.511	4412
578.568	6343
578.625	4016
578.681	3862
578.738	3245
578.794	3820
578.851	3384
578.908	3593
578.964	3768
579.021	4393
579.077	3034
579.134	4132
579.190	2629
579.247	2906
579.303	2465
579.360	4021
579.416	3373
579.473	3868
579.529	3386
579.586	3971
579.642	3553
579.698	3788
579.755	4235
579.811	5149
579.867	4492
579.924	5760
579.980	5637
580.036	6974
580.093	9049
580.149	12846
580.205	17775
580.261	14965
580.317	10774
580.374	7996
580.430	7667
580.486	5952
580.542	5574
580.598	5082
580.619	4961
580.654	4729
580.692	4724
580.710	4697
580.765	4550
580.767	4523
580.823	5554
580.838	5270
580.879	4456
580.911	4167
580.935	3912
580.984	4204
580.991	4232
581.047	4221
581.057	4460
581.103	5404
581.130	5874
581.159	6381
581.203	7997
581.215	8338
581.270	7565
581.276	7596
581.326	7743
581.349	7079
581.382	5953
581.422	6192
581.438	6268
581.494	5356
581.494	5382
581.550	5736
581.567	5871
581.606	6125
581.640	6428
581.661	6549
581.713	6870
581.717	6885
581.773	6869
581.786	6818
581.829	6481
581.859	6456
581.885	6473
581.932	6789
581.940	6806
581.996	6866
582.004	6967
582.052	7522
582.077	7320
582.107	6989
582.150	7134
582.163	7184
582.219	8018
582.223	8007
582.274	7465
582.296	7450
582.330	7594
582.368	8059
582.386	8143
582.441	8301
582.441	8287
582.497	9437
582.514	9345
582.552	9137
582.587	10341
582.608	10941
582.659	10719
582.663	10676
582.719	9666
582.732	9828
582.774	10614
582.805	10527
582.830	10382
582.877	10925
582.885	11051
582.941	11961
582.950	11978
582.996	11924
583.023	12869
583.052	14384
583.095	15155
583.107	15525
583.162	19910
583.168	20323
583.218	23360
583.240	23712
583.273	23206
583.313	21834
583.328	21040
583.384	19049
583.385	19031
583.439	18726
583.458	18363
583.494	18201
583.531	17735
583.549	17482
583.603	17163
583.605	17164
583.660	16691
583.676	16986
583.715	17819
583.748	17106
583.770	16855
583.820	18394
583.825	18506
583.881	17920
583.893	17857
583.936	17927
583.965	18072
583.991	18177
584.038	18410
584.046	18577
584.101	19701
584.110	19788
584.156	19612
584.183	19638
584.211	19962
584.255	20271
584.266	20337
584.321	20114
584.328	20210
584.376	21750
584.400	22280
584.431	22651
584.472	22213
584.486	22264
584.541	23687
584.545	23662
584.596	23322
584.617	23351
584.651	24202
584.689	25747
584.706	26288
584.761	26625
584.762	26580
584.816	27526
584.834	28007
584.871	28708
584.906	28453
584.926	28612
584.978	29344
584.980	29418
585.035	30367
585.051	30438
585.090	31431
585.123	32465
585.145	33037
585.195	33413
585.200	33596
585.254	35329
585.267	35831
585.309	38356
585.340	40023
585.364	40731
585.412	39874
585.419	39746
585.473	40150
585.484	39829
585.528	40699
585.556	41829
585.583	43500
585.628	45755
585.637	46742
585.692	53723
585.700	54979
585.747	62151
585.772	63155
585.801	59078
585.845	50880
585.856	49986
585.910	49596
585.917	49255
585.965	49691
585.989	50047
586.019	51011
586.061	51985
586.074	52564
586.128	54303
586.133	54278
586.183	55724
586.205	56355
586.237	58277
586.277	59860
586.292	60487
586.346	61835
586.349	61757
586.401	64285
586.421	64877
586.455	66323
586.493	67757
586.509	69942
586.564	76145
586.565	76103
586.618	86769
586.637	89241
586.672	88007
586.709	83999
586.727	83166
586.781	82709
586.781	83002
586.835	85909
586.853	86970
586.889	89548
586.925	90740
586.944	92508
586.996	97240
586.998	97719
587.052	101732
587.068	102884
587.106	106916
587.140	109276
587.161	111657
587.212	116508
587.215	117274
587.269	124709
587.284	126168
587.323	130211
587.356	133298
587.377	137536
587.427	145396
587.431	146491
587.485	154655
587.499	156214
587.539	165393
587.571	171492
587.593	176565
587.643	186429
587.648	188399
587.702	202199
587.715	205111
587.755	218367
587.786	226440
587.810	235478
587.858	252226
587.864	255498
587.917	278471
587.930	282768
587.971	304924
588.001	319230
588.025	334734
588.073	363126
588.079	369095
588.133	410385
588.145	417956
588.187	457162
588.217	482600
588.241	512429
588.288	565749
588.295	576537
588.348	650148
588.360	663710
588.402	746411
588.431	799739
588.456	860650
588.503	970620
588.510	994429
588.564	1160043
588.575	1190747
588.617	1373823
588.646	1492734
588.671	1621299
588.718	1857548
588.725	1894728
588.778	2138445
588.789	2182052
588.832	2204379
588.861	2203306
588.886	2017199
588.932	1607447
588.939	1575687
588.993	1255821
589.004	1203763
589.047	1704028
589.075	2024517
589.100	2178929
589.147	2402212
589.154	2392450
589.207	2252676
589.218	2218762
589.261	2122048
589.290	2048747
589.314	2061528
589.361	2073811
589.368	2097200
589.421	2235306
589.433	2258645
589.475	2211243
589.504	2162139
589.528	1966906
589.576	1514238
589.582	1551390
589.635	1866707
589.647	1926663
589.689	2164394
589.718	2301212
589.742	2169010
589.790	1889176
589.795	1861378
589.849	1534097
589.861	1452798
589.902	1277040
589.932	1138373
589.955	1071230
590.004	915876
590.009	909397
590.062	795609
590.075	764257
590.115	702574
590.146	649253
590.168	626143
590.218	565215
590.222	563856
590.275	512991
590.289	497267
590.328	469942
590.360	443840
590.381	432798
590.431	400240
590.435	400490
590.488	372652
590.503	363096
590.541	350904
590.574	337304
590.594	331835
590.645	312292
590.647	313079
590.700	294075
590.716	287003
590.753	279409
590.787	269659
590.806	266475
590.859	252789
590.859	253843
590.912	242742
590.930	237917
590.965	233724
591.001	227242
591.018	225181
591.071	215632
591.072	214475
591.124	210242
591.143	207367
591.177	202706
591.214	195455
591.230	195632
591.283	193107
591.285	192045
591.336	187470
591.356	184415
591.389	182382
591.427	177708
591.442	176852
591.495	170684
591.498	169354
591.547	166353
591.569	163927
591.600	162531
591.640	158550
591.653	158761
591.706	156494
591.711	155451
591.759	153853
591.782	151881
591.811	152298
591.853	150985
591.864	150772
591.917	145748
591.924	144297
591.969	144364
591.995	143237
592.022	141800
592.066	137431
592.075	138226
592.127	138854
592.137	138265
592.180	139481
592.208	139076
592.233	137086
592.279	131229
592.285	131642
592.338	129493
592.350	128333
592.390	126970
592.421	124814
592.443	124465
592.491	121633
592.495	122248
592.548	122039
592.562	121352
592.600	119777
592.633	117259
592.653	117868
592.704	117201
592.705	117860
592.775	116640
592.846	113522
592.916	111887
592.987	111351
593.058	107674
593.128	105001
593.199	103675
593.270	101237
593.341	101296
593.411	99231
593.482	97752
593.553	96955
593.623	94865
593.694	93123
593.764	92620
593.835	90100
593.906	88521
593.976	87437
594.047	87991
594.117	89631
594.188	89758
594.258	85040
594.329	83291
594.399	82516
594.470	80315
594.540	79971
594.611	78922
594.681	79208
594.751	78184
594.822	78561
594.892	77969
594.963	78906
595.033	78299
595.103	77139
595.174	78180
595.244	83865
595.314	90351
595.384	76607
595.455	72292
595.525	73393
595.595	73387
595.665	73694
595.736	71077
595.806	71381
595.876	70454
595.946	70732
596.016	68205
596.087	69672
596.157	68818
596.227	69907
596.297	69489
596.367	70225
596.437	70341
596.507	75336
596.577	82176
596.647	70738
596.717	68096
596.787	67206
596.857	65010
596.927	67503
596.997	65571
597.067	67512
597.137	73542
597.207	73366
597.277	66608
597.347	67188
597.417	65872
597.487	66663
597.557	68108
597.626	66532
597.696	67124
597.766	69878
597.836	75441
597.906	68175
597.975	63468
598.045	63047
598.115	62055
598.185	63013
598.254	63584
598.324	64094
598.394	64250
598.464	63741
598.533	62833
598.603	60766
598.672	62793
598.742	62117
598.812	61050
598.881	61574
598.951	60210
599.020	59841
599.090	59276
599.159	60388
599.229	60073
599.299	58400
599.368	58883
599.437	58673
599.507	58148
599.576	60324
599.646	65024
599.715	65201
599.785	59195
599.854	58131
599.924	60129
599.993	59989
600.062	57259
600.132	59698
600.201	58710
600.270	60668
600.340	60452
600.409	59705
600.478	59803
600.547	59049
600.617	60428
600.686	59576
600.755	58954
600.824	58436
600.894	58703
600.963	57366
601.032	56488
601.101	57237
601.170	58227
601.239	57477
601.308	57559
601.378	58179
601.447	56554
601.516	57406
601.585	58322
601.654	59613
601.723	58857
601.792	60251
601.861	61474
601.930	68673
601.999	64815
602.068	59737
602.137	59997
602.206	60177
602.275	61075
602.343	62532
602.412	62571
602.481	58794
602.550	58044
602.619	58710
602.688	58457
602.756	60099
602.825	58434
602.894	59590
602.963	58717
603.032	58709
603.100	57959
603.169	56545
603.238	57697
603.307	58949
603.375	56877
603.444	58142
603.513	57394
603.581	57869
603.650	57692
603.719	56540
603.787	52866
603.856	56297
603.924	55316
603.993	56261
604.061	54220
604.130	55359
604.198	56287
604.267	55703
604.335	55350
604.404	55651
604.472	56004
604.541	56915
604.609	55775
604.678	56894
604.746	57274
604.815	58642
604.883	58156
604.951	57135
605.020	56623
605.088	56156
605.156	53878
605.225	54046
605.293	54243
605.361	54325
605.429	53624
605.498	55429
605.566	54581
605.634	55457
605.702	55030
605.771	54777
605.839	54299
605.907	53544
605.975	53837
606.043	55363
606.111	52876
606.180	57552
606.248	61469
606.316	67931
606.384	56366
606.452	57129
606.520	54809
606.588	50512
606.656	46263
606.724	46087
606.792	44269
606.860	44203
606.928	42404
606.996	43448
607.064	41942
607.132	43141
607.200	43859
607.267	45540
607.335	43232
607.403	43346
607.471	43398
607.539	43344
607.607	41546
607.674	42229
607.742	41348
607.810	42439
607.878	41902
607.946	41332
608.013	41950
608.081	42550
608.149	42978
608.216	42682
608.284	42921
608.352	43568
608.419	43543
608.487	50097
608.555	44579
608.622	42849
608.690	42183
608.757	43500
608.825	43737
608.893	44859
608.960	46530
609.028	50408
609.095	49918
609.163	44485
609.230	42278
609.298	43777
609.365	41227
609.432	42958
609.500	43685
609.567	46676
609.635	47638
609.702	50006
609.769	49509
609.837	51008
609.904	48685
609.971	51440
610.039	59981
610.106	75956
610.173	118270
610.241	228939
610.308	369094
610.375	280152
610.442	104322
610.509	62257
610.577	52655
610.644	48527
610.711	46606
610.778	46707
610.845	45212
610.912	47888
610.980	52950
611.047	70717
611.114	60090
611.181	44693
611.248	42125
611.315	43526
611.382	41911
611.449	42703
611.516	42715
611.583	43065
611.650	42720
611.717	43364
611.784	42024
611.851	44254
611.918	47089
611.984	48625
612.051	54193
612.118	80997
612.185	154051
612.252	152144
612.319	58561
612.386	47168
612.452	45529
612.519	46859
612.586	50408
612.653	48561
612.719	43118
612.786	43332
612.853	41822
612.919	41308
612.986	41055
613.053	40394
613.120	39997
613.186	40403
613.253	41037
613.319	40260
613.386	40953
613.453	40879
613.519	43033
613.586	47220
613.652	59752
613.719	52343
613.785	50612
613.852	41831
613.918	41461
613.985	44312
614.051	50750
614.118	81052
614.184	95385
614.250	46838
614.317	40637
614.383	40806
614.449	39455
614.516	40144
614.582	39955
614.648	40460
614.715	39383
614.781	40749
614.847	42044
614.914	43332
614.980	42527
615.046	42615
615.112	43277
615.179	45174
615.245	50576
615.311	64335
615.377	97608
615.443	138748
615.509	98785
615.575	65195
615.642	53073
615.708	52728
615.774	53497
615.840	61081
615.906	74543
615.972	106713
616.038	188511
616.104	285967
616.170	301351
616.236	285728
616.302	102494
616.368	66623
616.434	58264
616.500	55787
616.565	51969
616.631	54023
616.697	51019
616.763	50192
616.829	52590
616.895	65102
616.961	70678
617.026	56351
617.092	46483
617.158	45891
617.224	43300
617.289	44726
617.355	44057
617.421	45116
617.487	45106
617.552	44008
617.618	42354
617.684	42431
617.749	43635
617.815	42694
617.880	40962
617.946	41867
618.012	42576
618.077	44629
618.143	42332
618.208	43895
618.274	44005
618.339	45077
618.405	42644
618.470	43725
618.536	44973
618.601	48861
618.667	47765
618.732	45775
618.798	44632
618.863	44690
618.928	43506
618.994	45847
619.059	47792
619.124	56679
619.190	51211
619.255	43954
619.320	43303
619.386	43872
619.451	41040
619.516	43555
619.581	43477
619.647	44757
619.712	43796
619.777	44171
619.842	44235
619.907	45682
619.972	44460
620.038	44757
620.103	43138
620.168	42892
620.233	42009
620.298	43241
620.363	41949
620.428	41447
620.493	42620
620.558	42619
620.623	43744
620.688	43906
620.753	42272
620.818	42681
620.883	41962
620.948	43398
621.013	42635
621.078	43665
621.143	43249
621.207	45776
621.272	44654
621.337	46918
621.402	47359
621.467	53582
621.532	57042
621.596	51804
621.661	47886
621.726	46351
621.791	46477
621.855	49984
621.920	50159
621.985	49222
622.049	50845
622.114	50716
622.179	49555
622.243	53573
622.308	52070
622.373	53300
622.437	52290
622.502	50145
622.566	51087
622.631	51091
622.695	51449
622.760	51423
622.824	51187
622.889	52168
622.953	53970
623.018	62731
623.082	65472
623.147	52815
623.211	51279
623.276	51552
623.340	48904
623.404	48319
623.469	47949
623.533	49541
623.597	48009
623.662	48476
623.726	47532
623.790	46825
623.854	47231
623.919	49599
623.983	47001
624.047	48583
624.111	47266
624.176	47496
624.240	48548
624.304	53117
624.368	47113
624.432	46680
624.496	47656
624.560	48831
624.625	50466
624.689	48178
624.753	45055
624.817	46854
624.881	45829
624.945	44173
625.009	46072
625.073	45449
625.137	47799
625.201	53450
625.265	54397
625.329	46017
625.393	45182
625.456	45714
625.520	45185
625.584	47503
625.648	52695
625.712	59257
625.776	95639
625.839	116060
625.903	70121
625.967	47210
626.031	56522
626.095	77774
626.158	49746
626.222	42482
626.286	41361
626.349	41162
626.413	39710
626.477	42518
626.540	40756
626.604	40520
626.668	39694
626.731	40992
626.795	40982
626.858	42381
626.922	39620
626.986	40761
627.049	38127
627.113	39834
627.176	37460
627.240	39259
627.303	37982
627.366	38569
627.430	38932
627.493	38809
627.557	40916
627.620	40062
627.684	38773
627.747	39392
627.810	37740
627.874	38441
627.937	36510
628.000	39008
628.064	38944
628.127	35572
628.190	36698
628.253	37817
628.317	36668
628.380	36909
628.443	35870
628.506	38094
628.569	35325
628.632	35458
628.696	35372
628.759	35543
628.822	33735
628.885	33733
628.948	34519
629.011	34856
629.074	34026
629.137	33472
629.200	33844
629.263	36778
629.326	33092
629.389	34440
629.452	34399
629.515	35700
629.578	33828
629.641	35731
629.704	34876
629.767	36729
629.830	35125
629.892	35450
629.955	34046
630.018	36068
630.081	35176
630.144	38476
630.207	34217
630.269	36199
630.332	33800
630.395	33727
630.458	32363
630.520	32247
630.583	31922
630.646	31248
630.708	31172
630.771	31528
630.834	31865
630.896	31744
630.959	30910
631.021	31400
631.084	31336
631.146	32119
631.209	33430
631.272	31362
631.334	30913
631.397	30965
631.459	29724
631.522	29786
631.584	29265
631.646	31379
631.709	30904
631.771	34224
631.834	32434
631.896	30903
631.958	28523
632.021	30881
632.083	29249
632.145	30958
632.208	30117
632.270	30754
632.332	27634
632.395	28105
632.457	29498
632.519	29625
632.581	28908
632.643	28702
632.706	29104
632.768	28371
632.830	28868
632.892	28101
632.954	28778
633.016	30025
633.078	26774
633.141	28671
633.203	27325
633.265	28535
633.327	27605
633.389	28585
633.451	29112
633.513	32935
633.575	30504
633.637	30475
633.698	29162
633.760	29098
633.822	27396
633.884	28051
633.946	27495
634.008	28610
634.070	28781
634.132	34341
634.193	32098
634.255	27901
634.317	27557
634.379	27993
634.441	26903
634.502	26875
634.564	26406
634.626	26645
634.687	26478
634.749	27444
634.811	26599
634.873	26030
634.934	25507
634.996	26645
635.057	25661
635.119	25750
635.181	25889
635.242	26797
635.304	23895
635.365	27406
635.427	25052
635.488	26382
635.550	25194
635.611	26510
635.673	24208
635.734	27255
635.796	27006
635.857	28186
635.918	25019
635.980	26310
636.041	25675
636.102	26002
636.164	24938
636.225	25792
636.286	24537
636.348	25778
636.409	25119
636.470	24935
636.531	24354
636.593	26226
636.654	26107
636.715	25041
636.776	23435
636.838	23429
636.899	24126
636.960	24254
637.021	23608
637.082	23439
637.143	23004
637.204	23086
637.265	23072
637.326	24244
637.387	22031
637.448	22377
637.509	23304
637.570	23755
637.631	22897
637.692	23404
637.753	22331
637.814	22812
637.875	22822
637.936	24245
637.997	22710
638.058	23023
638.119	23177
638.179	21986
638.240	23343
638.301	23273
638.362	22337
638.423	22473
638.483	22844
638.544	21812
638.605	22203
638.666	21278
638.726	22569
638.787	23607
638.848	21994
638.908	22784
638.969	21778
639.030	23340
639.090	21102
639.151	22625
639.211	22530
639.272	25810
639.332	31850
639.393	27149
639.453	21536
639.514	22232
639.574	22128
639.635	21778
639.695	21601
639.756	20500
639.816	21811
639.877	23259
639.937	27192
639.997	33430
640.058	23789
640.118	21156
640.178	20706
640.239	20697
640.299	20011
640.359	19710
640.420	20276
640.480	19905
640.540	19724
640.600	21070
640.661	20603
640.721	21209
640.781	23716
640.841	22296
640.901	20743
640.961	21444
641.021	20843
641.082	20952
641.142	25111
641.202	23640
641.262	18580
641.322	20947
641.382	19390
641.442	20652
641.502	19358
641.562	20694
641.622	19493
641.682	19886
641.742	19775
641.802	20406
641.861	20838
641.921	20346
641.981	20986
642.041	21767
642.101	23546
642.161	20917
642.221	18784
642.280	19276
642.340	18545
642.400	18371
642.460	19055
642.519	20151
642.579	19478
642.639	20174
642.698	18090
642.758	21688
642.818	20085
642.877	19626
642.937	19713
642.997	22428
643.056	25881
643.116	21873
643.175	20336
643.235	19299
643.294	18362
643.354	20119
643.414	19240
643.473	20551
643.532	20069
643.592	21130
643.651	23268
643.711	27909
643.770	38523
643.830	66630
643.889	154357
643.948	67683
644.008	21573
644.067	20634
644.126	17517
644.186	18450
644.245	18081
644.304	16691
644.363	18939
644.423	17040
644.482	17086
644.541	17932
644.600	16005
644.659	19111
644.719	17321
644.778	21219
644.837	19632
644.896	26204
644.955	38447
645.014	30394
645.073	24119
645.132	19448
645.191	18690
645.250	18006
645.309	19349
645.368	18205
645.427	18064
645.486	17629
645.545	20775
645.604	18638
645.663	17859
645.722	17347
645.781	17069
645.840	17459
645.898	16725
645.957	19251
646.016	19179
646.075	25902
646.134	33747
646.192	61709
646.251	109478
646.310	35420
646.369	18119
646.427	17955
646.486	15616
646.545	17185
646.603	16413
646.662	17601
646.721	16292
646.779	16834
646.838	15302
646.896	17648
646.955	16768
647.014	18794
647.072	18805
647.131	27092
647.189	22750
647.248	16786
647.306	16468
647.365	16693
647.423	14586
647.481	17786
647.540	14172
647.598	16605
647.657	16044
647.715	16583
647.773	15704
647.832	17318
647.890	15284
647.948	16125
648.007	16197
648.065	15361
648.123	15607
648.181	19696
648.240	20512
648.298	21252
648.356	16231
648.414	16040
648.472	16526
648.531	15995
648.589	15326
648.647	16541
648.705	14860
648.763	15022
648.821	15879
648.879	16089
648.937	16210
648.995	16459
649.053	15547
649.111	17058
649.169	18745
649.227	22135
649.285	27309
649.343	55075
649.401	47556
649.459	34225
649.516	32267
649.574	21855
649.632	34899
649.690	48200
649.748	28374
649.806	28676
649.863	46358
649.921	30597
649.979	22251
650.037	16592
650.094	14212
650.152	16311
650.210	14326
650.268	16020
650.325	14324
650.383	15124
650.440	14572
650.498	15072
650.556	14573
650.613	14818
650.671	14209
650.728	14524
650.786	14566
650.843	15031
650.901	12832
650.958	15159
651.016	13773
651.073	14593
651.131	12946
651.188	14341
651.246	14579
651.303	13776
651.360	13843
651.418	14088
651.475	14878
651.532	12742
651.590	13921
651.647	12942
651.704	13656
651.762	13814
651.819	13835
651.876	14368
651.933	14521
651.990	14255
652.048	12626
652.105	13898
652.162	14918
652.219	13305
652.276	13840
652.333	13721
652.390	12959
652.448	14280
652.505	14704
652.562	15412
652.619	16546
652.676	23041
652.733	26912
652.790	14773
652.847	11783
652.904	13440
652.961	12250
653.017	12469
653.074	13503
653.131	14036
653.188	12339
653.245	13834
653.302	12736
653.359	13101
653.415	12891
653.472	13173
653.529	12552
653.586	12455
653.642	12084
653.699	14050
653.756	12231
653.813	13149
653.869	12460
653.926	13131
653.983	11604
654.039	12787
654.096	12116
654.152	13992
654.209	11025
654.266	13524
654.322	11739
654.379	13648
654.435	13470
654.492	14067
654.548	14912
654.605	18404
654.661	15687
654.717	13819
654.774	12699
654.830	13225
654.887	13797
654.943	13586
655.000	13102
655.056	13849
655.112	13416
655.168	12086
655.225	12065
655.281	13501
655.337	13611
655.394	17494
655.450	15200
655.506	15032
655.562	16021
655.618	18267
655.675	12096
655.731	13268
655.787	11570
655.843	13020
655.899	11776
655.955	13315
656.011	12681
656.067	11351
656.123	12648
656.179	13189
656.235	13680
656.291	11232
656.347	13636
656.403	12558
656.459	12162
656.515	13289
656.571	12993
656.627	12685
656.683	12465
656.739	14019
656.795	11393
656.850	12837
656.906	12890
656.962	14151
657.018	11347
657.074	12576
657.129	11772
657.185	12275
657.241	11923
657.297	12513
657.352	12961
657.408	12226
657.464	12781
657.519	12798
657.575	11785
657.630	12148
657.686	12418
657.742	11371
657.797	12099
657.853	12099
657.908	12640
657.964	12316
658.019	11938
658.075	12910
658.130	12011
658.186	11626
658.241	11426
658.297	11576
658.352	11835
658.407	12176
658.463	10411
658.518	12521
658.573	12184
658.629	11135
658.684	11878
658.739	11745
658.795	10907
658.850	12321
658.905	11780
658.960	11562
659.016	10455
659.071	11751
659.126	11137
659.181	12033
659.236	14701
659.291	17308
659.346	13193
659.401	14968
659.457	15636
659.512	20479
659.567	15109
659.622	13276
659.677	11155
659.732	10840
659.787	11780
659.842	11712
659.897	12943
659.952	12329
660.007	11564
660.061	12337
660.116	10347
660.171	11805
660.226	11164
660.281	13021
660.336	10327
660.391	12214
660.445	11120
660.500	11843
660.555	11532
660.610	10863
660.664	12682
660.719	11952
660.774	11237
660.828	12032
660.883	11832
660.938	12505
660.992	10394
661.047	12111
661.101	11027
661.156	11391
661.211	10388
661.265	11248
661.320	11730
661.374	11523
661.429	11477
661.483	11634
661.538	10570
661.592	11140
661.647	11275
661.701	12174
661.755	10962
661.810	11161
661.864	10699
661.919	10606
661.973	11156
662.027	12116
662.081	10046
662.136	10460
662.190	10844
662.244	11867
662.299	10902
662.353	11573
662.407	10529
662.461	11331
662.515	12277
662.569	11203
662.624	12379
662.678	10868
662.732	10861
662.786	11127
662.840	10901
662.894	11260
662.948	10658
663.002	11500
663.056	10807
663.110	10724
663.164	10651
663.218	10841
663.272	10210
663.326	11470
663.380	11038
663.434	11933
663.488	10212
663.542	11879
663.595	10698
663.649	10507
663.703	10402
663.757	11292
663.811	9788
663.864	10639
663.918	10788
663.972	10340
664.026	10423
664.079	10439
664.133	10849
664.187	10631
664.240	9949
664.294	9804
664.348	10499
664.401	11340
664.455	9980
664.508	10207
664.562	11227
664.615	10889
664.669	9474
664.722	11343
664.776	10289
664.829	10231
664.883	10385
664.936	10624
664.990	11589
665.043	11883
665.097	10876
665.150	13342
665.203	10876
665.257	11223
665.310	12501
665.363	11124
665.417	11460
665.470	11247
665.523	11374
665.576	11105
665.630	10454
665.683	11552
665.736	10173
665.789	11969
665.842	10499
665.895	10976
665.949	11434
666.002	11007
666.055	11278
666.108	12247
666.161	10696
666.214	11362
666.267	11452
666.320	12409
666.373	11433
666.426	11401
666.479	10197
666.532	11812
666.585	11365
666.638	12920
666.691	11306
666.744	12177
666.796	11269
666.849	11334
666.902	10990
666.955	10763
667.008	10027
667.060	10205
667.113	9877
667.166	10824
667.219	10628
667.271	10607
667.324	10547
667.377	12116
667.430	11829
667.482	13613
667.535	13739
667.587	11777
667.640	11186
667.693	12149
667.745	13456
667.798	16429
667.850	11878
667.903	10988
667.955	10591
668.008	11310
668.060	11909
668.113	11950
668.165	11543
668.218	12887
668.270	11026
668.322	11683
668.375	10423
668.427	12544
668.479	10747
668.532	11736
668.584	11812
668.636	11718
668.689	10853
668.741	12216
668.793	10599
668.845	11214
668.898	11709
668.950	11657
669.002	12003
669.054	10934
669.106	11542
669.158	12512
669.211	12237
669.263	13143
669.315	14305
669.367	16384
669.419	13240
669.471	14398
669.523	13192
669.575	15344
669.627	14506
669.679	12763
669.731	12962
669.783	13971
669.835	14419
669.886	14886
669.938	14157
669.990	15221
670.042	14755
670.094	16366
670.146	16061
670.197	19965
670.249	22345
670.301	25867
670.353	33633
670.404	44507
670.456	60235
670.508	89713
670.560	140405
670.611	224727
670.663	374732
670.715	698084
670.766	914550
670.818	600559
670.869	197838
670.921	90277
670.972	56780
671.024	41664
671.075	32542
671.127	26680
671.178	21949
671.230	20083
671.281	18292
671.333	17884
671.384	16173
671.436	16844
671.487	15364
671.538	15204
671.590	13612
671.641	15318
671.692	14930
671.744	16862
671.795	17551
671.846	14831
671.897	12387
671.949	13605
672.000	12376
672.051	12161
672.102	11795
672.153	11732
672.204	11189
672.256	11124
672.307	11657
672.358	12013
672.409	11378
672.460	11281
672.511	10368
672.562	10972
672.613	9894
672.664	11089
672.715	10028
672.766	10372
672.817	10032
672.868	11310
672.919	9745
672.970	10595
673.021	10731
673.071	9870
673.122	10013
673.173	10968
673.224	9624
673.275	10736
673.326	9862
673.376	10639
673.427	9115
673.478	9932
673.528	9928
673.579	9340
673.630	9187
673.680	10076
673.731	9281
673.782	9003
673.832	9658
673.883	10090
673.934	8835
673.984	9540
674.035	9221
674.085	10139
674.136	9479
674.186	10245
674.237	10464
674.287	11369
674.338	9714
674.388	9409
674.438	9218
674.489	9775
674.539	8751
674.589	9710
674.640	9677
674.690	10115
674.740	9239
674.791	10806
674.841	8891
674.891	9644
674.942	7340
674.992	9487
675.042	8024
675.092	8952
675.142	8013
675.193	9238
675.243	8441
675.293	9332
675.343	8369
675.393	9302
675.443	9095
675.493	9147
675.543	7915
675.593	9681
675.643	8732
675.693	8992
675.743	8746
675.793	8588
675.843	8069
675.893	9611
675.943	8014
675.993	9135
676.043	9126
676.093	9080
676.142	8292
676.192	9072
676.242	8070
676.292	8720
676.341	8653
676.391	9503
676.441	8115
676.491	8917
676.540	7527
676.590	8238
676.640	8085
676.689	8804
676.739	7499
676.789	8581
676.838	8233
676.888	8360
676.937	7163
676.987	8635
677.037	7714
677.086	8008
677.136	7911
677.185	8266
677.235	6607
677.284	7812
677.333	6864
677.383	8300
677.432	6917
677.482	7399
677.531	7241
677.580	8020
677.630	7168
677.679	7687
677.728	7592
677.778	7659
677.827	7735
677.876	7878
677.925	6631
677.975	7783
678.024	6384
678.073	7788
678.122	7916
678.171	8875
678.220	7830
678.269	8882
678.319	7475
678.368	8863
678.417	7692
678.466	8667
678.515	8343
678.564	9017
678.613	8357
678.662	8773
678.711	7803
678.760	7838
678.809	7566
678.857	7979
678.906	7800
678.955	8300
679.004	7748
679.053	8110
679.102	7208
679.151	7849
679.199	7503
679.248	7991
679.297	7458
679.346	8308
679.394	7092
679.443	7983
679.492	7510
679.540	7828
679.589	7612
679.638	8465
679.686	6720
679.735	8190
679.784	7094
679.832	7269
679.881	6757
679.929	7028
679.978	6370
680.026	7034
680.075	6915
680.123	7732
680.172	6830
680.220	7341
680.268	6449
680.317	6913
680.365	6425
680.414	6885
680.462	6807
680.510	7803
680.559	5944
680.607	6926
680.655	6317
680.703	6509
680.752	5796
680.800	6866
680.848	6249
680.896	6609
680.945	7323
680.993	7374
681.041	6101
681.089	7673
681.137	6003
681.185	6468
681.233	5996
681.258	6657
681.281	7272
681.329	5716
681.377	6973
681.380	6942
681.425	6169
681.473	7515
681.502	7011
681.521	6635
681.569	7074
681.617	7086
681.624	7128
681.665	7311
681.713	7144
681.745	7010
681.761	6934
681.809	6288
681.857	7201
681.867	7058
681.904	6489
681.952	7162
681.989	6847
682.000	6743
682.048	7620
682.096	6253
682.111	6627
682.143	7366
682.191	6715
682.233	8012
682.239	8196
682.286	6283
682.334	6722
682.354	6681
682.382	6610
682.430	7073
682.476	6733
682.477	6714
682.525	7226
682.572	6020
682.598	6593
682.620	7061
682.667	6824
682.715	7090
682.720	7021
682.763	6293
682.810	7029
682.841	6832
682.857	6698
682.905	6607
682.952	6653
682.963	6858
683.000	7523
683.047	6718
683.085	7412
683.095	7592
683.142	6844
683.190	6827
683.206	6899
683.237	7029
683.284	7055
683.328	7421
683.332	7429
683.379	7292
683.426	6765
683.449	7042
683.473	7406
683.521	7452
683.568	7440
683.571	7423
683.615	6912
683.662	7191
683.693	7017
683.709	6954
683.757	6633
683.804	6982
683.814	7108
683.851	7454
683.898	6979
683.936	8013
683.945	8256
683.992	8188
684.039	7178
684.057	7047
684.086	6817
684.133	7426
684.179	7187
684.180	7168
684.227	7463
684.274	7497
684.300	7784
684.321	8018
684.368	7102
684.415	7342
684.422	7260
684.462	6710
684.509	7366
684.543	7153
684.556	7068
684.603	7242
684.649	7065
684.665	7351
684.696	7929
684.743	7167
684.786	8088
684.790	8160
684.837	7664
684.883	8438
684.908	8326
684.930	8192
684.977	8952
685.023	7869
685.029	7886
685.070	7901
685.117	7649
685.150	7787
685.164	7857
685.210	8241
685.257	9218
685.272	8842
685.303	7995
685.350	8273
685.393	7985
685.396	7960
685.443	9017
685.490	8721
685.514	9123
685.536	9449
685.583	8017
685.629	9358
685.636	9190
685.675	8093
685.722	9258
685.757	8511
685.768	8274
685.815	8733
685.861	8696
685.878	8751
685.908	8881
685.954	8241
686.000	8931
686.000	8940
686.047	9321
686.093	9671
686.121	10167
686.139	10347
686.185	9422
686.232	8650
686.242	8779
686.278	9251
686.324	8849
686.363	8626
686.370	8599
686.416	8331
686.463	8645
686.484	8807
686.509	9027
686.555	8997
686.601	8689
686.606	8791
686.647	9448
686.693	8677
686.727	8730
686.739	8792
686.785	8468
686.831	9179
686.848	8946
686.877	8482
686.923	8981
686.969	8274
686.969	8270
687.015	8330
687.061	8242
687.090	8672
687.107	8870
687.153	8228
687.199	8938
687.211	8656
687.245	7888
687.291	8521
687.332	8555
687.336	8581
687.382	9458
687.428	9360
687.453	9547
687.474	9561
687.520	8891
687.565	9120
687.574	9118
687.611	9264
687.657	8673
687.695	9225
687.702	9343
687.748	9706
687.794	10177
687.816	10136
687.839	9947
687.885	9361
687.931	9041
687.937	9059
687.976	9214
688.022	9291
688.058	9091
688.067	9068
688.113	9498
688.158	9275
688.179	9469
688.204	9648
688.249	9102
688.295	10001
688.300	9932
688.340	9628
688.386	10191
688.421	9828
688.431	9722
688.477	9642
688.522	9873
688.542	10051
688.567	10169
688.613	9907
688.658	9719
688.663	9702
688.703	9688
688.749	9700
688.784	9994
688.794	10106
688.839	10444
688.884	10155
688.905	10075
688.930	9893
688.975	9907
689.020	9992
689.026	9951
689.065	9907
689.110	10485
689.146	10249
689.155	10160
689.201	10511
689.246	10235
689.267	10345
689.291	10544
689.336	10118
689.381	10300
689.388	10265
689.426	10156
689.471	10652
689.509	10355
689.516	10257
689.561	10653
689.606	9893
689.630	10028
689.651	10342
689.696	9958
689.741	10446
689.750	10500
689.785	10723
689.830	10981
689.871	10727
689.875	10687
689.920	10749
689.965	10916
689.992	10674
690.010	10619
690.054	10685
690.099	11081
690.112	11104
690.144	11172
690.189	11264
690.233	11306
690.233	11317
690.278	11744
690.323	11932
690.354	12012
690.367	12135
690.412	12505
690.457	13573
690.474	13512
690.501	13471
690.546	14520
690.590	14874
690.595	14937
690.635	15901
690.680	17048
690.716	17785
690.724	18347
690.769	21736
690.813	26019
690.836	27648
690.857	30872
690.902	39113
690.946	48600
690.957	51109
690.991	69961
691.035	98416
691.077	129550
691.080	130350
691.124	130773
691.168	121606
691.198	116504
691.213	107035
691.257	81299
691.301	57729
691.318	49114
691.346	43712
691.390	34602
691.434	26868
691.439	25911
691.478	23224
691.522	20937
691.559	18748
691.567	18599
691.611	17999
691.655	16896
691.680	16432
691.699	16181
691.743	15433
691.787	15191
691.800	14857
691.831	14455
691.875	14496
691.919	14341
691.921	14326
691.964	14356
692.008	13698
692.041	13844
692.052	13974
692.096	13817
692.139	13985
692.162	13842
692.183	13721
692.227	13654
692.271	13613
692.282	13737
692.315	14210
692.359	13508
692.402	14150
692.403	14176
692.447	14144
692.490	14475
692.523	14344
692.534	14221
692.578	14126
692.622	14101
692.643	14054
692.666	14154
692.709	13742
692.753	14056
692.763	14052
692.797	14112
692.840	13984
692.884	14108
692.884	14134
692.928	14781
692.971	14962
693.004	15493
693.015	15656
693.059	15858
693.102	16205
693.124	16279
693.146	16554
693.189	17327
693.233	18011
693.245	18223
693.276	19490
693.320	20898
693.363	22392
693.365	22411
693.407	24884
693.450	28227
693.485	30548
693.493	31941
693.537	39282
693.580	46558
693.605	51309
693.624	59695
693.667	79329
693.710	100521
693.725	108365
693.753	144257
693.797	203471
693.840	266465
693.845	272760
693.883	273034
693.926	260483
693.966	250222
693.970	245007
694.013	188585
694.056	135478
694.086	99160
694.099	93019
694.142	74290
694.185	55540
694.206	46828
694.229	43889
694.272	37949
694.315	32649
694.326	31083
694.358	29213
694.401	27317
694.444	25022
694.446	24875
694.487	23380
694.530	21452
694.566	20253
694.573	20157
694.616	19048
694.659	17933
694.686	17212
694.702	17216
694.745	17212
694.787	17131
694.806	17065
694.830	16749
694.873	16052
694.916	15483
694.926	15309
694.959	15303
695.002	15365
695.044	15269
695.046	15240
695.087	15543
695.130	15920
695.166	16178
695.172	16144
695.215	15426
695.258	15030
695.286	14567
695.301	14580
695.343	14783
695.386	14866
695.406	14959
695.428	14996
695.471	14727
695.514	14640
695.526	14561
695.556	14459
695.599	14344
695.641	14058
695.646	14023
695.684	14021
695.726	13946
695.766	13706
695.769	13717
695.811	13573
695.854	13687
695.886	13424
695.896	13410
695.938	13352
695.981	13306
696.005	13371
696.023	13607
696.065	13866
696.108	14325
696.125	14355
696.150	14226
696.192	14395
696.235	14151
696.245	14134
696.277	14730
696.319	15414
696.361	16143
696.365	16161
696.404	16424
696.446	16804
696.485	17079
696.488	17092
696.530	16611
696.572	16279
696.604	16008
696.614	15911
696.656	15253
696.698	14775
696.724	14397
696.740	14586
696.783	15040
696.825	15501
696.844	15644
696.867	15401
696.909	14917
696.951	14411
696.964	14192
696.992	14087
697.034	14055
697.076	13975
697.083	13941
697.118	14033
697.160	14017
697.202	13944
697.203	13914
697.244	13958
697.286	13983
697.323	13787
697.327	13819
697.369	14021
697.411	14113
697.442	14256
697.453	14366
697.494	14556
697.536	14821
697.562	14913
697.578	14804
697.620	14478
697.661	14110
697.682	13889
697.703	14039
697.744	14343
697.786	14579
697.801	14680
697.828	15117
697.869	15617
697.911	16109
697.921	16219
697.952	15782
697.994	15067
698.035	14435
698.040	14312
698.077	14357
698.118	14456
698.160	14509
698.160	14475
698.201	14445
698.243	14257
698.279	14147
698.284	14184
698.325	14206
698.367	14218
698.399	14185
698.408	14184
698.449	14066
698.491	13885
698.518	13783
698.532	13952
698.573	14317
698.614	14711
698.638	14892
698.656	14856
698.697	14708
698.738	14542
698.757	14444
698.779	14640
698.820	14924
698.862	15211
698.877	15285
698.903	15356
698.944	15409
698.985	15465
698.996	15445
699.026	15353
699.067	15179
699.116	14937
699.235	14967
699.354	14168
699.474	14814
699.593	15947
699.713	15964
699.832	14702
699.951	15385
700.070	14418
700.190	15229
700.309	14785
700.428	15402
700.547	14504
700.667	15186
700.786	15588
700.905	13992
701.024	15061
701.143	15300
701.262	14286
701.381	13530
701.500	14386
701.619	16272
701.738	14130
701.857	13877
701.976	14432
702.095	14306
702.214	14469
702.333	15577
702.452	14895
702.571	14211
702.690	13941
702.809	14252
702.928	13805
703.047	13851
703.165	14778
703.284	13736
703.403	14519
703.522	14265
703.640	14538
703.759	15483
703.878	18241
703.997	14366
704.115	14167
704.234	14001
704.353	13761
704.471	13374
704.590	13579
704.708	13537
704.827	14197
704.946	14050
705.064	14346
705.183	14723
705.301	16115
705.420	19966
705.538	19645
705.656	18363
705.775	21333
705.893	40848
706.012	50405
706.130	19144
706.249	17035
706.367	17397
706.485	18389
706.604	17449
706.722	17977
706.840	18251
706.958	19234
707.077	17446
707.195	17283
707.313	17107
707.431	16462
707.549	16314
707.668	16360
707.786	15587
707.904	16830
708.022	16043
708.140	15535
708.258	15869
708.376	16358
708.494	15280
708.612	17817
708.730	22122
708.848	21488
708.966	20493
709.084	19092
709.202	18647
709.320	19451
709.438	19657
709.556	18304
709.674	18996
709.791	18761
709.909	18626
710.027	19149
710.145	18360
710.263	19590
710.380	18852
710.498	18235
710.616	17904
710.733	19847
710.851	18176
710.969	18782
711.086	18346
711.204	18379
711.322	18069
711.439	17641
711.557	18045
711.674	18889
711.792	19376
711.909	21139
712.027	23052
712.144	17440
712.262	18582
712.379	19117
712.497	24227
712.614	24652
712.732	21898
712.849	20691
712.966	21378
713.084	23852
713.201	22591
713.318	22290
713.436	21144
713.553	20805
713.670	21896
713.787	22104
713.905	22128
714.022	21366
714.139	21107
714.256	20501
714.373	21542
714.490	22981
714.608	28130
714.725	58333
714.842	62718
714.959	22230
715.076	19788
715.193	20669
715.310	20162
715.427	19513
715.544	19257
715.661	19245
715.778	19541
715.895	20415
716.011	19987
716.128	19507
716.245	19997
716.362	19711
716.479	21522
716.596	19155
716.713	19924
716.829	19026
716.946	19099
717.063	17513
717.180	18222
717.296	18330
717.413	18780
717.530	17363
717.646	18436
717.763	17880
717.880	17997
717.996	18260
718.113	18951
718.229	18366
718.346	17673
718.462	17961
718.579	19347
718.695	23817
718.812	22867
718.928	21285
719.045	18428
719.161	16925
719.277	17178
719.394	17763
719.510	18653
719.626	17716
719.743	20151
719.859	18760
719.975	18812
720.092	26268
720.208	39151
720.324	20921
720.440	18301
720.557	19553
720.673	23226
720.789	27438
720.905	42544
721.021	24061
721.137	17152
721.253	17651
721.369	17645
721.486	18411
721.602	21426
721.718	16901
721.834	15966
721.950	17018
722.066	16759
722.181	16311
722.297	17603
722.413	16336
722.529	16189
722.645	16330
722.761	16716
722.877	16002
722.993	16040
723.108	17439
723.224	15100
723.340	16822
723.456	16102
723.571	16058
723.687	16025
723.803	16200
723.918	15457
724.034	16202
724.150	16656
724.265	17175
724.381	22616
724.497	25839
724.612	15903
724.728	15026
724.843	15888
724.959	15994
725.074	21583
725.190	25218
725.305	16397
725.421	14992
725.536	14723
725.651	14460
725.767	14103
725.882	15205
725.997	13862
726.113	14869
726.228	13890
726.343	14233
726.459	14516
726.574	14444
726.689	14935
726.804	14163
726.920	14055
727.035	14228
727.150	15235
727.265	14827
727.380	15648
727.495	14800
727.610	13818
727.725	15851
727.841	18842
727.956	36428
728.071	27074
728.186	15902
728.301	13642
728.416	14453
728.531	14385
728.645	14459
728.760	14820
728.875	14194
728.990	15228
729.105	13979
729.220	14205
729.335	14110
729.449	14170
729.564	14016
729.679	12803
729.794	14851
729.908	14397
730.023	13542
730.138	13764
730.253	13168
730.367	13861
730.482	13267
730.596	14030
730.711	13503
730.826	13743
730.940	13932
731.055	13190
731.169	13048
731.284	13248
731.398	13132
731.513	13728
731.627	13592
731.742	14790
731.856	14177
731.970	13118
732.085	13488
732.199	13502
732.313	14434
732.428	16634
732.542	23016
732.656	18670
732.771	13298
732.885	13122
732.999	12908
733.113	13125
733.227	13523
733.342	13285
733.456	12579
733.570	12574
733.684	12856
733.798	12767
733.912	12323
734.026	11901
734.140	12921
734.254	13545
734.368	15946
734.482	18919
734.596	12589
734.710	12422
734.824	12517
734.938	13073
735.052	13087
735.166	13317
735.280	13263
735.393	12067
735.507	12289
735.621	15068
735.735	17996
735.849	13052
735.962	12735
736.076	12538
736.190	12788
736.303	14843
736.417	16898
736.531	13344
736.644	12703
736.758	11753
736.872	12372
736.985	12587
737.099	12123
737.212	12213
737.326	12557
737.439	12361
737.553	12218
737.666	12517
737.780	13093
737.893	12503
738.007	12313
738.120	12634
738.233	13428
738.347	12880
738.460	12604
738.573	12945
738.687	11643
738.800	13899
738.913	14253
739.026	13657
739.140	13979
739.253	14144
739.366	12989
739.479	11799
739.592	11439
739.705	12456
739.818	12719
739.932	12245
740.045	13502
740.158	12237
740.271	13057
740.384	12790
740.497	12329
740.610	12752
740.723	12946
740.836	13364
740.949	13451
741.062	14572
741.174	14354
741.287	13546
741.400	12543
741.513	12961
741.626	12857
741.739	13024
741.851	13125
741.964	12845
742.077	12544
742.189	12304
742.302	13499
742.415	13703
742.527	13055
742.640	13143
742.753	13981
742.865	12957
742.978	12819
743.090	13150
743.203	12599
743.316	13210
743.428	13266
743.541	11925
743.653	13083
743.766	12546
743.878	12858
743.990	13722
744.103	13922
744.215	13502
744.327	13433
744.440	14549
744.552	16085
744.664	13498
744.777	12863
744.889	12872
745.001	12940
745.113	12645
745.226	13439
745.338	12809
745.450	13733
745.562	12988
745.674	13273
745.786	13544
745.898	13293
746.010	13837
746.122	13734
746.234	14283
746.347	13644
746.459	12948
746.570	12995
746.682	13443
746.794	13696
746.906	13298
747.018	13384
747.130	13482
747.242	13703
747.354	14180
747.466	13759
747.577	14093
747.689	14640
747.801	13538
747.913	14045
748.024	13280
748.136	13889
748.248	14046
748.359	14282
748.471	13893
748.583	14963
748.694	16295
748.806	17432
748.918	15267
749.029	15123
749.141	14822
749.252	14743
749.364	14312
749.475	17994
749.587	16695
749.698	14814
749.809	15125
749.921	15510
750.032	14793
750.144	14733
750.255	14622
750.366	14039
750.478	15255
750.589	15332
750.700	15236
750.811	16065
750.923	16303
751.034	19150
751.145	20442
751.256	15404
751.367	15835
751.479	15637
751.590	14851
751.701	16401
751.812	15972
751.923	15477
752.034	15949
752.145	15231
752.256	15864
752.367	15334
752.478	16104
752.589	16063
752.700	17055
752.811	15881
752.922	16507
753.032	16521
753.143	17372
753.254	16053
753.365	16662
753.476	16885
753.586	17502
753.697	17276
753.808	16684
753.919	18320
754.029	17252
754.140	17513
754.251	17950
754.361	18015
754.472	18105
754.582	18062
754.693	18366
754.804	18646
754.914	18688
755.025	18680
755.135	18986
755.246	18720
755.356	19519
755.466	19953
755.577	19536
755.687	20043
755.798	20068
755.908	20130
756.018	20260
756.129	20147
756.239	21030
756.349	21035
756.460	21117
756.570	21886
756.680	21727
756.790	21956
756.900	23139
757.011	21711
757.121	22794
757.231	22156
757.341	23369
757.451	23235
757.561	24141
757.671	24715
757.781	23916
757.891	25216
758.001	25543
758.111	25849
758.221	25370
758.331	27053
758.441	26610
758.551	28804
758.661	28855
758.771	28364
758.880	28623
758.990	29159
759.100	29985
759.210	29588
759.320	31152
759.429	31719
759.539	32211
759.649	32870
759.758	33089
759.868	33994
759.978	34442
760.087	35417
760.197	36464
760.307	37502
760.416	37203
760.526	38790
760.635	39935
760.745	41091
760.854	42404
760.964	43319
761.073	44255
761.182	45093
761.292	46540
761.401	48663
761.511	49524
761.620	50666
761.729	53630
761.839	54153
761.948	56434
762.057	57941
762.166	59333
762.276	60694
762.385	64317
762.494	65699
762.603	67859
762.712	70125
762.822	74369
762.931	76961
763.040	79404
763.149	83019
763.258	89303
763.367	92239
763.476	97845
763.585	103734
763.694	109278
763.803	115475
763.912	121272
764.021	130337
764.130	139070
764.238	150144
764.347	159887
764.456	172086
764.565	187661
764.674	205547
764.783	227577
764.891	249559
765.000	279810
765.109	316207
765.217	359301
765.326	415711
765.435	483722
765.543	572727
765.652	685455
765.761	829498
765.869	1007161
765.978	1222308
766.086	1430588
766.195	1549663
766.303	1401203
766.412	875022
766.520	984292
766.629	1622091
766.737	1657607
766.846	1423521
766.954	1155920
767.062	927897
767.171	747542
767.279	601547
767.387	495156
767.496	422549
767.604	363005
767.712	321446
767.820	287644
767.928	263301
768.037	243675
768.145	231837
768.253	223707
768.361	218302
768.469	219577
768.577	223063
768.685	234988
768.793	252807
768.901	279610
769.009	322545
769.117	384044
769.225	484814
769.333	627470
769.441	839823
769.549	1124342
769.657	1388718
769.765	1281520
769.873	923252
769.981	1434713
770.088	1466967
770.196	1132522
770.304	851033
770.412	653962
770.519	519520
770.627	423435
770.735	354240
770.842	300429
770.950	261569
771.058	230391
771.165	203049
771.273	182570
771.380	167178
771.488	151842
771.595	138083
771.703	127556
771.810	119914
771.918	111817
772.025	103895
772.133	98316
772.240	91849
772.348	87716
772.455	83474
772.562	78069
772.670	75067
772.777	72468
772.884	68139
772.991	65849
773.099	63895
773.206	60892
773.313	58621
773.420	56920
773.528	54039
773.635	52388
773.742	51272
773.849	49388
773.956	46288
774.063	46117
774.170	45277
774.277	44309
774.384	42620
774.491	41199
774.598	39827
774.705	39796
774.812	39563
774.919	37859
775.026	36692
775.133	36445
775.239	35351
775.346	34707
775.453	33380
775.560	33792
775.667	33121
775.773	32878
775.880	31988
775.987	30482
776.093	30013
776.200	29016
776.307	28641
776.413	28242
776.520	26626
776.627	27534
776.733	27244
776.840	25475
776.946	26639
777.053	25509
777.159	24979
777.266	24313
777.372	25199
777.478	23991
777.585	22979
777.691	22672
777.798	23014
777.904	23622
778.010	25483
778.117	23497
778.223	21309
778.329	20806
778.435	21360
778.542	20893
778.648	19754
778.754	19908
778.860	20629
778.966	20778
779.072	20273
779.178	19988
779.284	20396
779.391	22076
779.497	24627
779.603	35249
779.708	54703
779.815	118197
779.920	358251
780.026	525410
780.132	127178
780.238	39554
780.344	28928
780.450	24052
780.556	21044
780.661	19950
780.767	17982
780.873	17609
780.979	17183
781.085	15383
781.190	15449
781.296	15393
781.402	14486
781.507	14028
781.613	14325
781.719	14394
781.824	13896
781.930	14610
782.035	14208
782.141	13589
782.246	12937
782.352	12636
782.457	13164
782.563	12886
782.668	12653
782.773	12199
782.879	12981
782.984	13049
783.090	13257
783.195	14180
783.300	12288
783.405	11906
783.511	11667
783.616	12115
783.721	12572
783.826	11578
783.932	11645
784.037	11151
784.142	10943
784.247	11660
784.352	11855
784.457	10786
784.562	10916
784.667	10497
784.772	10258
784.877	10098
784.982	10144
785.087	9744
785.192	10788
785.297	9871
785.402	9629
785.507	9922
785.611	10218
785.716	10522
785.821	10050
785.926	10072
786.031	9709
786.135	9840
786.240	10023
786.345	8432
786.450	9506
786.554	9790
786.659	9117
786.763	8874
786.868	9917
786.973	9611
787.077	8247
787.182	8429
787.286	8916
787.391	9053
787.495	8457
787.600	8718
787.704	8770
787.809	8031
787.913	7976
788.017	7878
788.122	8489
788.226	8987
788.330	8058
788.435	8253
788.539	7966
788.643	8574
788.747	7199
788.852	7380
788.956	8564
789.060	7907
789.164	7524
789.268	6963
789.372	8048
789.476	7147
789.580	8152
789.684	7563
789.788	7609
789.892	7777
789.996	7548
790.100	7739
790.204	7345
790.308	7815
790.412	7731
790.516	8452
790.620	8831
790.724	7749
790.828	8060
790.931	7725
791.035	8671
791.139	8011
791.242	6479
791.346	7961
791.450	6477
791.554	6800
791.657	6088
791.761	6456
791.864	6540
791.968	7202
792.072	6733
792.175	7006
792.279	6808
792.382	6799
792.486	7097
792.589	7134
792.693	6207
792.796	6490
792.899	7097
793.003	6519
793.106	6043
793.209	5771
793.313	7119
793.416	5336
793.519	7215
793.623	7203
793.726	9631
793.829	7892
793.932	7520
794.035	6556
794.138	8519
794.242	10763
794.345	15704
794.448	26701
794.551	63197
794.654	198507
794.757	323484
794.860	69577
794.963	17145
795.066	10920
795.169	10012
795.272	7905
795.375	7578
795.477	7717
795.580	6535
795.683	4988
795.786	5887
795.889	5157
795.991	7652
796.094	6202
796.197	6132
796.300	7230
796.402	5368
796.505	5756
796.608	5893
796.710	5895
796.813	5167
796.915	5766
797.018	5774
797.120	5405
797.223	4519
797.326	5847
797.428	5038
797.530	5629
797.633	5309
797.735	5344
797.838	5799
797.940	6349
798.042	5181
798.145	4955
798.247	5319
798.349	4908
798.452	5070
798.554	4473
798.656	4081
798.758	5209
798.860	3986
798.962	4708
799.065	4732
799.167	3176
799.269	5804
799.371	4603
799.473	5368
799.575	5208
799.677	5666
799.779	5627
799.881	5495
799.983	5885
800.085	5125
800.187	4707
800.289	3058
800.390	4211
800.492	4341
800.594	4714
800.696	3590
800.798	3903
800.899	4646
801.001	4552
801.103	3830
801.205	3982
801.306	3648
801.408	3479
801.509	4461
801.611	4064
801.713	4013
801.814	4149
801.916	3664
802.017	3838
802.119	3112
802.220	4612
802.322	2245
802.423	5527
802.525	3200
802.626	4713
802.727	3469
802.829	3531
802.930	2384
803.031	4981
803.133	4209
803.234	4253
803.335	3396
803.436	3007
803.538	3343
803.639	3120
803.740	2864
803.841	2493
803.942	3521
804.043	3559
804.144	3445
804.245	3426
804.346	2904
804.447	3757
804.548	3882
804.649	4600
804.750	3815
804.851	3343
804.952	3943
805.053	3932
805.154	2714
805.255	4037
805.355	3157
805.456	3170
805.557	2956
805.658	2569
805.758	3389
805.859	4259
805.960	2552
806.061	2533
806.161	3642
806.262	3748
806.362	2549
806.463	3988
806.564	3932
806.664	3131
806.765	3839
806.865	3467
806.966	2973
807.066	2494
807.166	4152
807.267	3234
807.367	2684
807.468	3831
807.568	2250
807.668	4085
807.769	3320
807.869	2757
807.969	4022
808.069	3394
808.170	2956
808.270	3269
808.370	3106
808.470	2943
808.570	2727
808.670	3367
808.770	2895
808.870	3209
808.970	2684
809.070	2438
809.170	2395
809.271	3520
809.370	2692
809.470	2696
809.570	2675
809.670	2478
809.770	3421
809.870	2736
809.970	2586
810.070	2542
810.169	3182
810.269	2019
810.369	3872
810.469	3258
810.568	3055
810.668	2396
810.768	2659
810.867	2610
810.967	2771
811.066	2935
811.166	2760
811.265	3112
811.365	1907
811.464	2129
811.564	2249
811.663	3296
811.763	2394
811.862	2495
811.962	3516
812.061	2024
812.160	2421
812.260	3126
812.359	3343
812.458	6090
812.557	12181
812.657	16725
812.756	7825
812.855	4173
812.954	3030
813.053	3380
813.153	3042
813.252	2303
813.351	3007
813.450	3454
813.549	2017
813.648	2778
813.747	1974
813.846	3162
813.945	1968
814.044	3425
814.143	3443
814.242	3541
814.341	3037
814.439	2761
814.538	3172
814.637	3294
814.736	3424
814.835	3161
814.933	3562
815.032	4183
815.131	3000
815.229	3648
815.328	3236
815.427	3740
815.525	3578
815.624	5137
815.722	3115
815.821	3952
815.919	4253
816.018	3064
816.116	5061
816.215	4312
816.313	4356
816.412	4602
816.510	4513
816.609	5705
816.707	5582
816.805	5542
816.904	5736
817.002	6246
817.100	7249
817.198	7280
817.296	8344
817.395	10163
817.493	12454
817.591	13987
817.689	20123
817.787	26314
817.885	41842
817.983	72979
818.081	142735
818.179	300912
818.277	603568
818.375	580762
818.473	241167
818.571	102068
818.669	65748
818.767	53194
818.865	52789
818.963	61742
819.061	84534
819.158	137847
819.256	255802
819.354	489571
819.452	813609
819.549	673927
819.647	311121
819.745	142976
819.842	83451
819.940	56481
820.038	40642
820.135	31305
820.233	25114
820.330	20345
820.428	17306
820.525	14656
820.623	12906
820.720	10837
820.818	10229
820.915	9212
821.012	8042
821.110	7201
821.207	6973
821.304	6201
821.402	7193
821.499	6482
821.596	5577
821.693	5814
821.791	5797
821.888	5254
821.985	7191
822.082	6089
822.179	5285
822.276	4107
822.373	4072
822.470	4474
822.567	3576
822.664	3701
822.761	4446
822.858	2004
822.955	2488
823.052	3019
823.149	3490
823.246	2345
823.343	2288
823.440	3306
823.536	2561
823.633	2914
823.730	2823
823.827	2502
823.923	2392
824.020	3552
824.117	2970
824.213	2033
824.310	2724
824.407	2577
824.503	1762
824.600	2858
824.696	2524
824.793	2024
824.889	2233
824.986	2517
825.082	2152
825.179	1944
825.275	2137
825.371	2018
825.468	2384
825.564	1157
825.660	1255
825.757	2373
825.853	2620
825.949	1772
826.045	2233
826.142	1836
826.238	2083
826.334	2238
826.430	1181
826.526	2020
826.622	1176
826.718	2061
826.814	1060
826.910	2465
827.006	1124
827.102	1150
827.198	1833
827.294	1252
827.390	1473
827.486	1247
827.582	413
827.678	805
827.774	2080
827.869	962
827.965	3078
828.061	1010
828.157	1097
828.252	801
828.348	1280
828.444	1680
828.539	760
828.635	1358
828.731	2037
828.826	895
828.922	1277
829.017	690
829.113	1506
829.208	987
829.304	1353
829.399	2187
829.495	872
829.590	1257
829.685	402
829.781	851
829.876	1698
829.971	1398
830.066	1672
830.162	1409
830.257	1186
830.352	490
830.447	2447
830.543	2016
830.638	1010
830.733	2041
830.828	1420
830.923	704
831.018	1490
831.113	1062
831.208	1038
831.303	899
831.398	1634
831.493	946
831.588	922
831.683	649
831.778	932
831.873	998
831.967	924
832.062	37
832.157	802
832.252	2038
832.346	957
832.441	1907
832.536	2439
832.631	4145
832.725	4239
832.820	981
832.914	693
833.009	1377
833.104	1942
833.198	1725
833.293	787
833.387	1352
833.482	1317
833.576	1065
833.670	1076
833.765	518
833.859	633
833.954	1475
834.048	1134
834.142	1050
834.237	1139
834.331	1047
834.425	1307
834.519	626
834.613	1188
834.708	519
834.802	2021
834.896	475
834.990	343
835.084	271
835.178	158
835.272	575
835.366	923
835.460	457
835.554	769
835.648	1335
835.742	221
835.836	540
835.930	-445
836.024	1392
836.117	1045
836.211	1260
836.305	1625
836.399	1886
836.493	578
836.586	958
836.680	522
836.774	595
836.867	1810
836.961	662
837.055	469
837.148	1247
837.242	370
837.335	853
837.429	1165
837.522	408
837.616	1237
837.709	2697
837.803	1779
837.896	1494
837.989	1183
838.083	1320
838.176	3240
838.269	2338
838.363	1418
838.456	1178
838.549	1653
838.642	2572
838.735	4909
838.829	2994
838.922	163
839.015	741
839.108	-77
839.201	928
839.294	537
839.387	845
839.480	59
839.573	1621
839.666	1449
839.759	689
839.852	194
839.945	1064
840.038	435
840.131	832
840.223	319
840.316	1188
840.409	391
840.502	-199
840.594	1652
840.687	-471
840.780	1096
840.873	466
840.965	46
841.058	1263
841.150	2514
841.243	2220
841.336	1005
841.428	921
841.521	352
841.613	575
841.706	1509
841.798	541
841.890	1048
841.983	-644
842.075	997
842.167	847
842.260	926
842.352	1244
842.444	742
842.537	3005
842.629	4191
842.721	1239
842.813	792
842.905	-179
842.997	1402
843.090	1148
843.182	2365
843.274	2915
843.366	6809
843.458	10350
843.550	6967
843.642	1045
843.734	765
843.826	530
843.918	946
844.009	1584
844.101	989
844.193	-192
844.285	707
844.377	966
844.469	788
844.560	408
844.652	194
844.744	1142
844.835	-54
844.927	501
845.019	810
845.110	463
845.202	803
845.293	-32
845.385	338
845.476	484
845.568	867
845.659	313
845.751	996
845.842	-322
845.934	16
846.025	-248
846.116	1268
846.208	337
846.299	-618
846.390	1230
846.482	1595
846.573	1336
846.664	1005
846.755	1395
846.846	1591
846.937	-568
847.029	271
847.120	182
847.211	31
847.302	887
847.393	200
847.484	1052
847.575	742
847.666	532
847.757	-83
847.847	92
847.938	1258
848.029	493
848.120	475
848.211	262
848.302	821
848.392	219
848.483	279
848.574	177
848.664	132
848.755	695
848.846	-6
848.936	-308
849.027	879
849.118	626
849.208	232
849.299	1061
849.389	-19
849.480	282
849.570	1190
849.661	1143
849.751	1848
849.841	197
849.932	1143
850.022	119
850.112	672
850.203	191
850.293	721
850.383	-85
850.474	-380
850.564	-161
850.654	402
850.744	893
850.834	540
850.924	909
851.014	321
851.104	607
851.194	663
851.284	967
851.374	756
851.464	577
851.554	954
851.644	943
851.734	2745
851.824	2918
851.914	5279
852.004	10754
852.094	10036
852.183	1355
852.273	223
852.363	218
852.452	344
852.542	315
852.632	-118
852.721	618
852.811	654
852.901	-558
852.990	9
853.080	724
853.169	203
853.259	-37
853.348	296
853.438	55
853.527	-248
853.617	-294
853.706	487
853.795	1121
853.885	2479
853.974	3242
854.063	5857
854.152	9573
854.242	4730
854.331	511
854.420	12
854.509	547
854.598	97
854.687	471
854.777	780
854.866	161
854.955	264
855.044	-911
855.133	42
855.222	-51
855.311	-531
855.400	-127
855.488	258
855.577	211
855.666	71
855.755	1642
855.844	1640
855.933	1770
856.021	511
856.110	331
856.199	-157
856.288	257
856.376	-466
856.465	-1260
856.554	-93
856.642	-466
856.731	766
856.819	-195
856.908	242
856.996	36
857.085	-930
857.173	212
857.262	-739
857.350	-94
857.438	-242
857.527	-165
857.615	265
857.703	321
857.792	178
857.880	-524
857.968	-486
858.056	-458
858.145	336
858.233	-207
858.321	-780
858.409	964
858.497	-691
858.585	469
858.673	511
858.761	357
858.849	-769
858.937	-337
859.025	134
859.113	131
859.201	-416
859.289	29
859.377	-175
859.465	449
859.552	-330
859.640	-824
859.728	358
859.816	-326
859.903	-200
859.991	-321
860.079	-133
860.166	-102
860.254	859
860.342	527
860.429	-483
860.517	368
860.604	-312
860.692	-385
860.779	-15
860.867	-211
860.954	-612
861.042	547
861.129	-112
861.216	-140
861.304	53
861.391	510
861.478	-750
861.565	-264
861.653	-252
861.740	-891
861.827	-373
861.914	-350
862.001	240
862.089	-321
862.176	-827
862.263	-291
862.350	224
862.437	-678
862.524	104
862.611	-1129
862.698	184
862.785	-648
862.871	-238
862.958	-565
863.045	-712
863.132	-177
863.219	101
863.306	-495
863.392	557
863.479	-104
863.566	-91
863.652	1284
863.739	-794
863.826	-411
863.912	-238
863.999	-381
864.086	-484
864.172	-66
864.259	-108
864.345	-480
864.432	-388
864.518	-254
864.604	-447
864.691	-123
864.777	232
864.863	232
864.950	473
865.036	-490
865.122	-173
865.209	-696
865.295	-411
865.381	-304
865.467	-783
865.553	-358
865.639	-695
865.726	-219
865.812	599
865.898	2060
865.984	2518
866.070	5087
866.156	6196
866.242	1109
866.328	-119
866.414	-291
866.499	-448
866.585	-788
866.671	-71
866.757	-292
866.843	-247
866.928	-991
867.014	-928
867.100	170
867.186	-338
867.271	-306
867.357	580
867.442	70
867.528	-252
867.614	-787
867.699	-376
867.785	-728
867.870	-856
867.956	447
868.041	-13
868.127	836
868.212	73
868.297	-36
868.383	-556
868.468	358
868.553	1705
868.639	1719
868.724	3270
868.809	3321
868.894	891
868.979	-354
869.065	-406
869.150	-573
869.235	-279
869.320	-289
869.405	-347
869.490	-504
869.575	-547
869.660	-867
869.745	-340
869.830	-1600
869.915	4
870.000	-51
870.085	-271
870.169	-638
870.254	-593
870.339	-1032
870.424	-834
870.509	-504
870.593	-527
870.678	-533
870.763	-637
870.847	-727
870.932	-584
871.016	461
871.101	-310
871.186	-322
871.270	157
871.355	-422
871.439	15
871.523	-471
871.608	-403
871.692	-530
871.777	-850
871.861	-586
871.945	-692
872.030	469
872.114	-1171
872.198	-844
872.282	-1125
872.367	-246
872.451	172
872.535	-576
872.619	-1494
872.703	-745
872.787	-844
872.871	-403
872.955	-38
873.039	-667
873.123	-865
873.207	-407
873.291	-1392
873.375	-1239
873.459	-738
873.543	-750
873.627	-632
873.711	-328
873.794	-273
873.878	-890
873.962	-716
874.045	-315
874.129	-1087
874.137	-1029
874.213	-451
874.245	-406
874.296	-327
874.352	-655
874.380	-823
874.460	-373
874.464	-354
874.547	-709
874.568	-629
874.631	-420
874.676	-277
874.714	-139
874.784	95
874.798	135
874.881	-271
874.892	-395
874.965	-1191
874.999	-933
875.048	-634
875.107	-744
875.131	-765
875.215	246
875.215	246
875.298	-159
875.323	-283
875.381	-534
875.430	-769
875.465	-938
875.538	-157
875.548	-50
875.631	-983
875.646	-834
875.714	-135
875.753	-525
875.798	-967
875.861	-591
875.881	-472
875.964	-915
875.968	-901
876.047	-688
876.076	-578
876.130	-347
876.183	-477
876.213	-533
876.291	-216
876.296	-204
876.379	-854
876.398	-792
876.462	-459
876.506	-325
876.545	-243
876.613	-525
876.628	-577
876.711	-869
876.721	-813
876.794	-334
876.828	-346
876.877	-411
876.935	-478
876.960	-518
877.043	-392
877.043	-393
877.125	-346
877.150	-102
877.208	456
877.258	-131
877.291	-447
877.365	420
877.374	495
877.456	-247
877.472	-307
877.539	-521
877.579	-503
877.622	-483
877.687	-17
877.704	137
877.787	-3
877.794	-31
877.869	-464
877.901	-353
877.952	-57
878.008	104
878.034	96
878.115	-26
878.117	-23
878.199	-230
878.222	-171
878.282	-143
878.329	-67
878.364	47
878.437	-59
878.447	-120
878.529	-902
878.544	-898
878.611	-455
878.651	-129
878.694	80
878.758	1
878.776	-6
878.858	-385
878.865	-364
878.941	-218
878.972	-389
879.023	-494
879.078	-271
879.105	-252
879.185	-243
879.187	-240
879.269	-83
879.292	-257
879.351	-776
879.399	-590
879.433	-304
879.506	3
879.516	9
879.598	69
879.613	17
879.680	-96
879.720	201
879.762	460
879.827	-256
879.844	-436
879.926	-25
879.933	-63
880.007	-598
880.040	-719
880.089	-615
880.147	-109
880.171	-44
880.253	479
880.254	477
880.335	381
880.360	684
880.417	1084
880.467	778
880.499	878
880.574	2624
880.580	2688
880.662	618
880.680	343
880.744	-220
880.787	-325
880.825	-362
880.893	-167
880.907	-162
880.989	-162
881.000	-234
881.070	-848
881.106	-844
881.152	-466
881.213	-143
881.233	-113
881.315	-394
881.319	-405
881.396	-337
881.426	-54
881.478	198
881.532	-113
881.559	-263
881.639	-545
881.641	-545
881.722	94
881.745	-76
881.803	-501
881.852	-251
881.885	-68
881.958	123
881.966	163
882.047	358
882.064	428
882.129	360
882.171	452
882.210	651
882.277	957
882.291	1004
882.372	110
882.383	74
882.454	-189
882.489	-182
882.535	-67
882.596	-251
882.616	-341
882.697	-323
882.702	-318
882.778	245
882.808	449
882.859	399
882.914	165
882.940	124
883.020	-260
883.021	-260
883.102	-215
883.127	-134
883.183	-23
883.233	-168
883.264	-165
883.339	-139
883.345	-124
883.426	-459
883.445	-370
883.507	-167
883.551	24
883.587	46
883.657	-221
883.668	-190
883.749	-220
883.763	-206
883.830	-782
883.869	-744
883.910	-334
883.975	-184
883.991	-165
884.072	-551
884.081	-512
884.152	-55
884.187	-59
884.233	-348
884.292	-462
884.314	-437
884.394	-526
884.398	-525
884.475	-168
884.504	-56
884.555	-332
884.610	-827
884.636	-712
884.716	-15
884.716	-14
884.797	-270
884.821	-483
884.877	-647
884.927	-626
884.958	-638
885.033	-864
885.038	-843
885.118	-110
885.139	-9
885.199	-29
885.244	-71
885.279	-97
885.350	112
885.359	116
885.439	-314
885.456	-350
885.520	-149
885.561	-43
885.600	79
885.667	316
885.680	212
885.760	-604
885.773	-685
885.840	-354
885.878	-319
885.920	-81
885.984	390
886.000	346
886.080	126
886.089	107
886.160	320
886.195	230
886.240	8
886.300	133
886.320	198
886.400	245
886.406	232
886.480	-387
886.511	-504
886.560	-212
886.616	-108
886.640	-21
886.720	274
886.722	282
886.800	-196
886.827	-427
886.879	-243
886.932	31
886.959	-40
887.038	-504
887.039	-496
887.119	249
887.143	361
887.198	-124
887.248	-418
887.278	-260
887.354	-39
887.358	-50
887.437	-172
887.459	-204
887.517	-44
887.564	49
887.596	161
887.669	309
887.676	257
887.755	-272
887.774	-438
887.835	-103
887.880	190
887.914	271
887.985	455
887.994	370
888.073	-508
888.090	-655
888.153	-141
888.195	125
888.232	106
888.300	113
888.311	184
888.391	591
888.405	690
888.470	199
888.510	-197
888.549	-135
888.615	71
888.628	148
888.708	535
888.720	603
888.787	188
888.825	-88
888.866	-92
888.930	-28
888.945	-19
889.024	0
889.035	-7
889.103	69
889.140	152
889.182	108
889.245	42
889.261	-21
889.340	-358
889.349	-389
889.419	-67
889.454	65
889.498	-318
889.559	-806
889.577	-580
889.656	424
889.664	524
889.735	442
889.768	404
889.814	295
889.873	152
889.978	-303
890.083	-529
890.187	-259
890.292	770
890.397	426
890.501	246
890.606	-408
890.710	91
890.815	413
890.919	111
891.024	30
891.128	-77
891.233	-215
891.337	769
891.442	-318
891.546	456
891.650	416
891.755	-142
891.859	302
891.963	522
892.068	26
892.172	-161
892.276	-365
892.380	67
892.484	-376
892.589	-192
892.693	40
892.797	90
892.901	-321
893.005	-24
893.109	-66
893.213	-152
893.317	-46
893.421	-167
893.525	-145
893.629	-240
893.733	298
893.837	-134
893.941	14
894.045	1261
894.148	193
894.252	1057
894.356	-11
894.460	-108
894.564	-664
894.667	22
894.771	388
894.875	498
894.978	80
895.082	-365
895.186	-432
895.289	527
895.393	-67
895.496	620
895.600	423
895.703	408
895.807	-354
895.910	-307
896.014	-218
896.117	312
896.221	-451
896.324	-40
896.427	-544
896.531	-460
896.634	-347
896.737	764
896.840	-20
896.944	-422
897.047	-937
897.150	-167
897.253	-405
897.356	-56
897.460	-721
897.563	-142
897.666	-203
897.769	-247
897.872	1
897.975	-510
898.078	-53
898.181	-641
898.284	-333
898.387	529
898.490	-23
898.593	-449
898.695	-133
898.798	460
898.901	-78
899.004	301
899.107	37
899.209	-356
899.312	-644
899.415	162
899.518	-186
899.620	162
899.723	-691
899.826	102
899.928	-2
900.031	31
900.133	-256
900.236	62
900.338	-623
900.441	-453
900.543	-362
900.646	-637
900.748	-473
900.851	-265
900.953	-353
901.055	746
901.158	182
901.260	37
901.362	148
901.465	-387
901.567	-668
901.669	-212
901.771	-349
901.873	289
901.976	70
902.078	-699
902.180	-285
902.282	195
902.384	73
902.486	-57
902.588	147
902.690	-370
902.792	-957
902.894	297
902.996	-101
903.098	-68
903.200	-417
903.302	-452
903.404	-64
903.505	-527
903.607	93
903.709	234
903.811	260
903.913	489
904.014	-231
904.116	-472
904.218	-235
904.319	635
904.421	25
904.523	-302
904.624	441
904.726	-305
904.827	-511
904.929	66
905.030	-193
905.132	93
905.233	168
905.335	-238
905.436	-863
905.537	-290
905.639	61
905.740	-359
905.841	-328
905.943	-391
906.044	-442
906.145	269
906.247	-932
906.348	67
906.449	587
906.550	-379
906.651	-1110
906.752	92
906.854	-179
906.955	-477
907.056	-322
907.157	-182
907.258	-39
907.359	413
907.460	201
907.561	-248
907.662	229
907.762	-231
907.863	346
907.964	-331
908.065	145
908.166	-955
908.267	-306
908.367	-1214
908.468	-1010
908.569	-488
908.670	321
908.770	26
908.871	-294
908.971	-270
909.072	-515
909.173	-312
909.273	-749
909.374	-736
909.474	-619
909.575	-330
909.675	-912
909.776	-878
909.876	-1015
909.977	-265
910.077	-309
910.177	-869
910.278	-513
910.378	-148
910.478	-300
910.579	712
910.679	160
910.779	-629
910.879	-326
910.980	-237
911.080	-559
911.180	-704
911.280	-196
911.380	-791
911.480	-374
911.580	-284
911.680	-868
911.780	418
911.880	-203
911.980	-690
912.080	10
912.180	228
912.280	-854
912.380	-785
912.480	-471
912.580	172
912.679	-608
912.779	492
912.879	-253
912.979	178
913.078	-537
913.178	-452
913.278	-89
913.377	-235
913.477	-950
913.577	77
913.676	171
913.776	-521
913.875	-548
913.975	561
914.074	-264
914.174	-381
914.273	-703
914.373	98
914.472	-755
914.572	-136
914.671	-872
914.770	-1047
914.870	44
914.969	-206
915.068	-584
915.167	-423
915.267	-1042
915.366	-738
915.465	-384
915.564	-187
915.663	-515
915.763	-917
915.862	-711
915.961	-120
916.060	-306
916.159	-841
916.258	-1636
916.357	-480
916.456	-503
916.555	-131
916.654	-309
916.752	322
916.851	-1151
916.950	493
917.049	-239
917.148	-341
917.247	-538
917.345	-596
917.444	329
917.543	-213
917.642	-410
917.740	-272
917.839	-844
917.937	-378
918.036	-603
918.135	-764
918.233	-298
918.332	-277
918.430	-279
918.529	-1083
918.627	-773
918.726	-462
918.824	-788
918.923	-578
919.021	-555
919.119	-511
919.218	-798
919.316	-879
919.414	-372
919.512	-634
919.611	-885
919.709	-540
919.807	-679
919.905	-608
920.003	-958
920.102	-27
920.200	-962
920.298	85
920.396	-773
920.494	-603
920.592	-718
920.690	-532
920.788	-1293
920.886	16
920.984	-450
921.082	-930
921.180	256
921.277	200
921.375	273
921.473	-561
921.571	-728
921.669	-377
921.766	-697
921.864	-213
921.962	-452
922.060	-196
922.157	-215
922.255	-153
922.352	-39
922.450	174
922.548	-927
922.645	-304
922.743	-320
922.840	-1184
922.938	-67
923.035	161
923.133	-1321
923.230	-582
923.327	-199
923.425	489
923.522	-552
923.619	326
923.717	-1455
923.814	-193
923.911	-1169
924.008	812
924.106	-404
924.203	-1108
924.300	-917
924.397	-312
924.494	-34
924.591	-458
924.688	-839
924.786	-698
924.883	125
924.979	-880
925.077	-236
925.173	-502
925.270	-180
925.367	14
925.464	-701
925.561	183
925.658	-91
925.755	-444
925.852	-605
925.948	-958
926.045	-298
926.142	-252
926.239	624
926.335	-456
926.432	-558
926.529	-247
926.625	-61
926.722	-414
926.818	-776
926.915	-615
927.011	212
927.108	-312
927.204	-599
927.301	-40
927.397	-479
927.494	-43
927.590	-574
927.687	-704
927.783	-772
927.879	66
927.976	-545
928.072	-36
928.168	-353
928.264	-522
928.361	-747
928.457	-997
928.553	-571
928.649	-146
928.745	-606
928.841	-601
928.937	-1144
929.033	515
929.129	-249
929.225	-515
929.321	-1099
929.417	-189
929.513	-974
929.609	-191
929.705	-381
929.801	-380
929.897	-1006
929.993	-1187
930.089	-666
930.184	-201
930.280	-874
930.376	126
930.471	-586
930.567	527
930.663	56
930.758	-1356
930.854	-872
930.950	-963
931.045	-1045
931.141	-122
931.236	-43
931.332	-114
931.427	-509
931.523	11
931.618	-496
931.714	-1207
931.809	-1167
931.905	-127
932.000	-80
932.095	-427
932.191	-291
932.286	-1192
932.381	-1128
932.476	-519
932.572	-1630
932.667	-166
932.762	-937
932.857	-481
932.952	-1142
933.047	382
933.142	-98
933.237	-929
933.332	-359
933.427	236
933.522	-130
933.617	-1463
933.712	-391
933.807	-197
933.902	-379
933.997	-662
934.092	-82
934.187	-531
934.282	69
934.376	375
934.471	-28
934.566	259
934.661	-621
934.755	-529
934.850	-523
934.945	370
935.039	-975
935.134	-320
935.228	-22
935.323	-900
935.417	-556
935.512	-327
935.606	-414
935.701	-877
935.795	-710
935.890	-214
935.984	-171
936.079	-244
936.173	-556
936.267	-551
936.362	-102
936.456	436
936.550	-344
936.644	-221
936.738	-1645
936.833	656
936.927	-445
937.021	6
937.115	-395
937.209	-1124
937.303	159
937.397	-302
937.491	-413
937.585	-258
937.679	-1139
937.773	192
937.867	200
937.961	-775
938.055	-467
938.149	-533
938.243	-281
938.337	-1159
938.430	-819
938.524	105
938.618	-902
938.712	14
938.805	-356
938.899	-421
938.993	-473
939.086	6
939.180	-644
939.274	280
939.367	178
939.461	-6
939.554	-840
939.648	-536
939.741	-728
939.835	-344
939.928	-771
940.022	-893
940.115	-836
940.208	-190
940.302	-121
940.395	-105
940.488	-741
940.582	1
940.675	-514
940.768	-788
940.861	-756
940.954	-612
941.048	-784
941.141	-1119
941.234	-232
941.327	-100
941.420	-275
941.513	-429
941.606	-671
941.699	483
941.792	-629
941.885	-615
941.978	232
942.071	-478
942.164	-57
942.257	-730
942.349	-787
942.442	-1012
942.535	-598
942.628	-275
942.721	-40
942.813	-446
942.906	-564
942.999	-681
943.091	-589
943.184	-104
943.277	-299
943.369	-77
943.462	189
943.554	-246
943.647	-794
943.739	-21
943.832	-627
943.924	-565
944.017	-518
944.109	-328
944.201	-1129
944.294	-817
944.386	-164
944.478	-1408
944.571	-255
944.663	-833
944.755	-763
944.847	-137
944.940	-1316
945.032	-428
945.124	238
945.216	375
945.308	-441
945.400	-519
945.492	74
945.584	-1190
945.676	-1294
945.768	-117
945.860	-244
945.952	-474
946.044	-234
946.136	-118
946.228	-699
946.320	-486
946.412	-961
946.503	-186
946.595	383
946.687	-1170
946.779	-974
946.870	263
946.962	-712
947.054	-330
947.145	-86
947.237	352
947.329	-838
947.420	-502
947.512	-464
947.603	-434
947.695	-862
947.786	-562
947.878	-869
947.969	15
948.061	-934
948.152	39
948.243	-806
948.335	-579
948.426	-440
948.517	-400
948.609	-962
948.700	-158
948.791	-661
948.882	105
948.973	-457
949.065	-571
949.156	-496
949.247	-61
949.338	-861
949.429	33
949.520	-573
949.611	-1237
949.702	-935
949.793	369
949.884	-360
949.975	-262
950.066	-261
950.157	-1013
950.247	-160
950.338	-240
950.429	-828
950.520	-65
950.611	-916
950.701	-531
950.792	-1104
950.883	-366
950.973	-30
951.064	-411
951.155	-642
951.245	-375
951.336	281
951.427	-968
951.517	-579
951.608	-839
951.698	-895
951.788	-517
951.879	-920
951.969	-600
952.060	-625
952.150	-630
952.240	-657
952.331	-2228
952.421	88
952.511	-454
952.602	-755
952.692	-788
952.782	-228
952.872	-447
952.962	-978
953.052	-780
953.143	-579
953.233	-36
953.323	-601
953.413	-621
953.503	-1093
953.593	-703
953.683	-520
953.773	-853
953.863	-610
953.953	-1042
954.042	-1163
954.132	-439
954.222	-526
954.312	-770
954.402	-555
954.492	-326
954.581	-626
954.671	-753
954.761	-903
954.850	-1
954.940	-971
955.030	-241
955.119	-671
955.209	-91
955.298	-1652
955.388	-627
955.477	-236
955.567	-775
955.656	-108
955.746	-81
955.835	-1176
955.925	-1019
956.014	-829
956.103	-1270
956.193	-361
956.282	-798
956.371	-457
956.461	-605
956.550	-1185
956.639	-627
956.728	-746
956.817	-510
956.906	-385
956.995	-701
957.085	-1191
957.174	-305
957.263	-926
957.352	45
957.441	-1070
957.530	-638
957.619	-588
957.708	-1022
957.796	-336
957.885	-298
957.974	-1555
958.063	-837
958.152	-1865
958.241	-198
958.329	398
958.418	43
958.507	-1218
958.596	-299
958.684	-246
958.773	-356
958.861	-817
958.950	-972
959.039	-552
959.127	-361
959.216	-22
959.304	-521
959.393	112
959.481	125
959.570	-476
959.658	45
959.746	-663
959.835	-707
959.923	-586
960.011	-390
960.100	-950
960.188	-614
960.276	-724
960.365	-847
960.453	-581
960.541	-1050
960.629	-1352
960.717	-423
960.805	-1507
960.893	-461
960.981	-715
961.069	-593
961.158	-867
961.245	-442
961.333	-826
961.421	-884
961.509	-1024
961.597	-602
961.685	-339
961.773	-1460
961.861	-1052
961.949	-170
962.036	-1090
962.124	-513
962.212	-321
962.299	-572
962.387	-1316
962.475	-543
962.562	-960
962.650	-35
962.738	-662
962.825	-1220
962.913	-597
963.000	-691
963.088	-815
963.175	-146
963.263	-670
963.350	-1586
963.438	-1039
963.525	-969
963.612	-582
963.700	-1125
963.787	311
963.874	-1190
963.962	-809
964.049	-738
964.136	-534
964.223	-1319
964.310	-1302
964.398	-555
964.485	-1141
964.572	-384
964.659	-1260
964.746	-795
964.833	-483
964.920	-936
965.007	-1552
965.094	-1084
965.181	-1016
965.268	-1106
965.355	-602
965.441	-498
965.528	-671
965.615	-729
965.702	-891
965.789	-1147
965.875	-1901
965.962	-694
966.049	-2109
966.136	-745
966.222	-947
966.309	-328
966.395	-1181
966.482	-593
966.569	-1688
966.655	-743
966.742	-800
966.828	-1127
966.915	-2148
967.001	-874
967.087	-681
967.174	-1647
967.260	-1317
967.347	-1893
967.433	-896
967.519	-326
967.605	-838
967.692	-643
967.778	-699
967.864	-708
967.950	-501
968.036	-469
968.123	-762
968.209	-1334
968.295	-1145
968.381	-31
968.467	-843
968.553	-1787
968.639	-1052
968.725	-718
968.811	-668
968.897	-775
968.983	-977
969.069	-1260
969.154	-122
969.240	-355
969.326	-1034
969.412	-1410
969.497	-1936
969.583	-856
969.669	-708
969.755	-511
969.840	-1547
969.926	-237
970.012	-1877
970.097	-570
970.183	-1833
970.268	-1264
970.354	-724
970.439	-1465
970.525	-418
970.610	-1140
970.696	-376
970.781	-322
970.866	-1398
970.952	-1179
971.037	-1020
971.122	-679
971.208	-1377
971.293	-685
971.378	-1746
971.463	-977
971.549	-661
971.634	-528
971.719	-1032
971.804	-1452
971.889	-711
971.974	-1000
972.059	-735
972.144	-1034
972.229	-797
972.314	-1713
972.399	-1187
972.484	-805
972.569	-300
972.654	-1279
972.739	-811
972.824	-694
972.908	-753
972.993	-522
973.078	-889
973.163	-194
973.247	-1344
973.332	-2025
973.417	-407
973.501	-1447
973.586	-1178
973.671	-998
973.755	-584
973.840	-671
973.924	-818
974.009	-1584
974.093	-1176
974.178	65
974.262	-66
974.346	-975
974.431	-486
974.515	-1765
974.600	-1073
974.684	-1027
974.768	-1131
974.852	-492
974.937	-1692
975.021	-570
975.105	-859
975.189	-1057
975.273	-1180
975.358	-1134
975.442	-1156
975.526	-926
975.610	-990
975.694	-430
975.778	-15
975.862	-683
975.946	-1890
976.030	246
976.114	-1829
976.198	-442
976.281	-952
976.365	-694
976.449	-649
976.533	-814
976.617	-1275
976.700	-764
976.784	-846
976.868	-884
976.951	-308
977.035	-898
977.119	-1015
977.202	-522
977.286	-874
977.369	-1269
977.453	-897
977.536	-1303
977.620	-1642
977.703	-582
977.787	-1207
977.870	10
977.953	-495
978.037	-1437
978.120	-383
978.203	-808
978.287	-1130
978.370	-943
978.453	-894
978.536	-740
978.620	-567
978.703	-1286
978.786	-1443
978.869	-493
978.952	-1894
979.035	-1155
979.118	-43
979.201	-1149
979.284	-704
979.367	-948
979.450	-1028
979.533	-858
979.616	-1003
979.699	-837
979.782	-928
979.865	-1033
979.948	-654
980.030	-1092
980.113	-1158
980.196	-1039
980.279	-1025
980.361	-871
980.444	-1063
980.526	-451
980.609	-1212
980.692	-527
980.774	-825
980.857	-965
980.939	-785
981.022	-798
981.104	-482
981.187	-804
981.269	-190
981.352	-945
981.434	-1704
981.516	-1396
981.599	-1117
981.681	-609
981.763	-712
981.846	-1043
981.928	-1058
982.010	-564
982.092	-1064
982.174	-266
982.256	-759
982.339	-565
982.421	-1128
982.503	-927
982.585	-1685
982.667	-1828
982.749	-1113
982.831	-532
982.913	-1778
982.995	26
983.077	-2009
983.158	-72
983.240	-1501
983.322	-831
983.404	-95
983.486	-1062
983.568	-413
983.649	-711
983.731	-1144
983.813	-919
983.894	238
983.976	-1179
984.058	-1944
984.139	-534
984.221	-1085
984.302	-931
984.384	-491
984.465	-1063
984.547	-903
984.628	-1044
984.710	-91
984.791	-684
984.872	-1312
984.954	-845
985.035	-726
985.116	-1361
985.198	-812
985.279	-964
985.360	-1275
985.441	-111
985.522	-1181
985.604	-865
985.685	-1872
985.766	262
985.847	-110
985.928	-571
986.009	-111
986.090	-930
986.171	-1264
986.252	-733
986.333	61
986.414	-1468
986.495	-945
986.576	-686
986.656	-1309
986.737	-213
986.818	-875
986.899	-964
986.980	-1170
987.060	37
987.141	-935
987.222	-790
987.302	-1094
987.383	-771
987.464	-1166
987.544	-190
987.625	-728
987.705	-12
987.786	-1186
987.866	-1383
987.947	-974
988.027	-899
988.108	-584
988.188	-881
988.268	-425
988.349	-326
988.429	-1462
988.509	-1389
988.589	-1332
988.670	-2284
988.750	342
988.830	-869
988.910	-968
988.990	-1529
989.070	-510
989.151	-565
989.231	-1049
989.311	-555
989.391	-1240
989.471	-1429
989.551	-1287
989.631	-1096
989.711	-165
989.791	-142
989.870	-1366
989.950	-474
990.030	-1257
990.110	-1415
990.190	-580
990.269	-817
990.349	-1241
990.429	-303
990.509	-1186
990.588	-658
990.668	-649
990.747	18
990.827	-1070
990.907	-254
990.986	-669
991.066	-438
991.145	-1134
991.225	-517
991.304	-1071
991.383	-545
991.463	-1445
991.542	-502
991.622	-625
991.701	-1208
991.780	-1492
991.859	-974
991.939	-807
992.018	-1031
992.097	-1105
992.176	-300
992.256	-1052
992.335	-1784
992.414	-543
992.493	-1023
992.572	-1585
992.651	96
992.730	-1504
992.809	-737
992.888	-1229
992.967	-675
993.046	-676
993.125	-1120
993.203	-671
993.282	-456
993.361	-47
993.440	-526
993.519	-1461
993.597	-1060
993.676	-966
993.755	-464
993.834	-1118
993.912	-1614
993.991	140
994.069	-1654
994.148	-1066
994.226	-1230
994.305	-1538
994.384	-1080
994.462	286
994.540	-907
994.619	-1338
994.697	-1006
994.776	-1434
994.854	-602
994.932	-833
995.011	-1129
995.089	-1468
995.167	-942
995.245	-1044
995.324	-1726
995.402	-1373
995.480	-920
995.558	-779
995.636	-1577
995.714	-1549
995.792	-51
995.870	-1353
995.948	-1003
996.026	-623
996.104	-1755
996.182	-1195
996.260	-684
996.338	-907
996.416	-1505
996.494	-1134
996.572	59
996.649	-1108
996.727	-974
996.805	-1223
996.883	-1382
996.960	-1906
997.038	-469
997.116	-396
997.193	-1211
997.271	-1042
997.348	-1331
997.426	-1976
997.504	-1187
997.581	-1313
997.658	-527
997.736	-1729
997.813	-1279
997.891	-1081
997.968	-1500
998.046	-1459
998.123	-1219
998.200	-635
998.277	-1473
998.355	-638
998.432	-1373
998.509	-1479
998.586	-1201
998.663	-927
998.741	-775
998.818	-1441
998.895	-1720
998.972	-838
999.049	-1550
999.126	-1664
999.203	-622
999.280	-1167
999.357	-1436
999.434	-1327
999.511	-589
999.587	-379
999.664	-890
999.741	-1493
999.818	-479
999.895	-1950
999.971	-1881
1000.048	-702
1000.125	-541
1000.202	-1413
1000.278	-622
1000.355	-1691
1000.431	-561
1000.508	-1543
1000.584	-662
1000.661	-1408
1000.738	-1462
1000.814	-1165
1000.890	-965
1000.967	-1262
1001.043	-941
1001.120	-1710
1001.196	249
1001.272	-1592
1001.349	-1450
1001.425	-1097
1001.501	-859
1001.577	-2073
1001.654	-1249
1001.730	-1382
1001.806	-680
1001.882	-2175
1001.958	-1327
1002.034	-1117
1002.110	-1411
1002.186	-1880
1002.262	-1008
1002.338	-2734
1002.414	-338
1002.490	-580
1002.566	-1342
1002.642	-1861
1002.718	69
1002.794	-1434
1002.870	-1024
1002.945	-1450
1003.021	-1129
1003.097	-1355
1003.173	-430
1003.248	-2016
1003.324	-1385
1003.400	-1560
1003.475	-1898
1003.551	-809
1003.626	-1452
1003.702	-946
1003.777	-1289
1003.853	-1588
1003.928	-1710
1004.004	-1530
1004.079	-1367
1004.155	-1011
1004.230	-1877
1004.305	-1122
1004.381	-1326
1004.456	-1205
1004.531	-996
1004.607	-1352
1004.682	-1282
1004.757	-1136
1004.832	-1509
1004.907	-2112
1004.982	-1663
1005.057	-1031
1005.133	-931
1005.208	-1453
1005.283	-1485
1005.358	-993
1005.433	-1251
1005.508	-1459
1005.583	-1629
1005.657	-2446
1005.732	-1738
1005.807	-1970
1005.882	-1476
1005.957	-1332
1006.032	-1308
1006.106	-1903
1006.181	-1063
1006.256	-711
1006.331	-1266
1006.405	-1389
1006.480	-1456
1006.554	-2025
1006.629	-2110
1006.704	-909
1006.778	-782
1006.853	-953
1006.927	-2273
1007.002	-1277
1007.076	-1141
1007.150	-1593
1007.225	-1433
1007.299	-1690
1007.373	-1366
1007.448	-1380
1007.522	-751
1007.596	-1527
1007.671	-1481
1007.745	-1652
1007.819	-1774
1007.893	-878
1007.967	-1034
1008.041	-1935
1008.115	-1662
1008.190	-1502
1008.264	-1296
1008.338	-2554
1008.412	-1306
1008.486	-2152
1008.560	-1193
1008.633	-1750
1008.707	-1491
1008.781	-1241
1008.855	-1509
1008.929	-2214
1009.003	-1534
1009.076	-2326
1009.150	-1606
1009.224	-1968
1009.298	-1164
1009.371	-1644
1009.445	-1300
1009.519	-1530
1009.592	-1817
1009.666	-1838
1009.739	-1439
1009.813	-2475
1009.886	-668
1009.960	-2299
1010.033	-605
1010.107	-1597
1010.180	-1860
1010.253	-1609
1010.327	-1202
1010.400	-1509
1010.473	-1464
1010.547	-826
1010.620	-1876
1010.693	-1550
1010.766	-2609
1010.840	-1853
1010.913	-2443
1010.986	-1929
1011.059	-2205
1011.132	-1909
1011.205	-2198
1011.278	-2205
1011.351	-1716
1011.424	-1959
1011.497	-1213
1011.570	-2225
1011.643	-1425
1011.716	-2146
1011.789	-2112
1011.862	-2019
1011.934	-1724
1012.007	-1728
1012.080	-1228
1012.153	-2115
1012.225	-1404
1012.298	-2111
1012.371	-1534
1012.443	-1406
1012.516	-2070
1012.588	-1483
1012.661	-2023
1012.733	-1987
1012.806	-858
1012.879	-2615
1012.951	-1198
1013.023	-2118
1013.096	-1799
1013.168	-2266
1013.241	-1111
1013.313	-2196
1013.385	-1988
1013.458	-2107
1013.530	-1741
1013.602	-2529
1013.674	-1476
1013.746	-1982
1013.819	-1415
1013.891	-1142
1013.963	-1938
1014.035	-1487
1014.107	-964
1014.179	-1394
1014.251	-2136
1014.323	-2090
1014.395	-1368
1014.467	-1633
1014.539	-1372
1014.611	-2581
1014.683	-1305
1014.754	-1927
1014.826	-1568
1014.898	-1702
1014.970	-2675
1015.042	-1349
1015.113	-1342
1015.185	-1894
1015.257	-3140
1015.328	-1994
1015.400	-1671
1015.471	-2257
1015.543	-2053
1015.615	-1571
1015.686	-1701
1015.757	-1821
1015.829	-2070
1015.901	-1599
1015.972	-1521
1016.043	-1780
1016.115	-2221
1016.186	-1514
1016.257	-2465
1016.328	-1932
1016.400	-2586
1016.471	-2486
1016.542	-1769
1016.613	-1954
1016.685	-2043
1016.756	-1146
1016.827	-2194
1016.898	-2783
1016.969	-1188
1017.040	-1370
1017.111	-1350
1017.182	-1577
1017.253	-2217
1017.324	-2303
1017.395	-2016
1017.466	-1151
1017.537	-2549
1017.608	-2123
1017.678	-1455
1017.749	-1370
1017.820	-1842
1017.891	-1788
1017.961	-2399
1018.032	-1492
1018.103	-1536
1018.173	-2443
1018.244	-1822
1018.315	-2146
1018.385	-1133
1018.456	-1577
1018.526	-1953
1018.597	-2555
1018.667	-3004
1018.738	-1890
1018.808	-2082
1018.878	-1406
1018.949	-1322
1019.019	-2097
1019.089	-1627
1019.160	-2534
1019.230	-2087
1019.300	-2216
1019.371	-1804
1019.441	-2024
1019.511	-1042
1019.581	-1641
1019.651	-2313
1019.721	-1871
1019.791	-1565
1019.861	-2453
1019.931	-1295
1020.001	-1714
1020.071	-2700
1020.141	-1587
1020.211	-2070
1020.281	-2882
1020.351	-1376
1020.421	-1093
1020.491	-1651
1020.560	-2022
1020.630	-1792
1020.700	-1961
1020.770	-1739
1020.839	-2304
1020.909	-1631
1020.979	-2004
1021.048	-1451
1021.118	-2050
1021.187	-1196
1021.257	-2018
1021.326	-1979
1021.396	-2569
1021.465	-1983
1021.535	-1866
1021.604	-2470
1021.674	-1737
1021.743	-1807
1021.812	-2065
1021.882	-1880
1021.951	-2246
1022.020	-2114
1022.089	-1123
1022.159	-2532
1022.228	-2117
1022.297	-2476
1022.366	-2143
1022.435	-1689
1022.504	-1572
1022.573	-2762
1022.642	-1898
1022.711	-2167
1022.781	-1852
1022.849	-802
1022.918	-1804
1022.987	-852
1023.056	-2306
1023.125	-2018
1023.194	-2213
1023.263	-980
1023.331	-1430
1023.400	-1950
1023.469	-2566
1023.538	-1604
1023.606	-2560
1023.675	-765
1023.744	-2294
1023.812	-2166
1023.881	-1774
1023.949	-2337
1024.018	-1599
1024.086	-2256
1024.155	-1948
1024.223	-2562
1024.292	-1683
1024.360	-1185
1024.429	-2320
1024.497	-1643
1024.565	-1303
1024.634	-1651
1024.702	-792
1024.770	-2125
1024.838	-1877
1024.907	-1916
1024.975	-1909
1025.043	-2327
1025.111	-2621
1025.179	-1520
1025.247	-2433
1025.315	-2229
1025.383	-1938
1025.451	-1924
1025.519	-1528
1025.587	-1841
1025.655	-1794
1025.723	-1868
1025.791	-1300
1025.859	-1236
1025.927	-1393
1025.995	-1727
1026.062	-2359
1026.130	-2034
1026.198	-1816
1026.266	-1635
1026.333	-2091
1026.401	-1965
1026.469	-2693
1026.536	-1597
1026.604	-1848
1026.671	-2236
1026.739	-2065
1026.806	-1883
1026.874	-1533
1026.941	-2186
1027.009	-1992
1027.076	-1674
1027.144	-1475
1027.211	-2195
1027.278	-2462
1027.345	-2095
1027.413	-1282
1027.480	-2610
1027.547	-2130
1027.614	-2014
1027.682	-1952
1027.749	-1721
1027.816	-1660
1027.883	-1342
1027.950	-1875
1028.017	-1787
1028.084	-1704
1028.151	-2348
1028.218	-1495
1028.285	-2184
1028.352	-2156
1028.419	-2450
1028.486	-2744
1028.553	-1804
1028.619	-2234
1028.686	-2360
1028.753	-2209
1028.820	-1629
1028.886	-1588
1028.953	-1573
1029.020	-1806
1029.086	-1935
1029.153	-1963
1029.220	-1870
1029.286	-1175
1029.353	-1479
1029.419	-2599
1029.486	-1848
1029.552	-2023
1029.619	-2280
1029.685	-2171
1029.751	-1915
1029.818	-895
1029.884	-1580
1029.951	-993
1030.017	-1937
1030.083	-1835
1030.149	-1193
1030.216	-1722
1030.282	-1664
1030.348	-2419
1030.414	-2407
1030.480	-1734
1030.546	-1792
1030.612	-1459
1030.678	-2693
1030.744	-1689
1030.810	-1305
1030.876	-1128
1030.942	-1750
1031.008	-2025
1031.074	-2244
1031.140	-2216
1031.206	-1915
1031.272	-2114
1031.337	-1988
1031.403	-2185
1031.469	-2279
1031.534	-2082
1031.600	-1903
1031.666	-2052
1031.731	-2344
1031.797	-1617
1031.863	-2280
1031.928	-2035
1031.994	-1766
1032.059	-2307
1032.125	-1644
1032.190	-990
1032.256	-687
1032.321	-1770
1032.386	-2026
1032.452	-1707
1032.517	-1963
1032.582	-2007
1032.647	-1385
1032.713	-2029
1032.778	-1633
1032.843	-2319
1032.908	-1284
1032.974	-1647
1033.039	-1821
1033.104	-1120
1033.169	-1641
1033.234	-2449
1033.299	-1159
1033.364	-1674
1033.429	-2178
1033.494	-1752
1033.559	-1400
1033.624	-1911
1033.688	-1033
1033.753	-2249
1033.818	-1893
1033.883	-1847
1033.948	-1674
1034.013	-1970
1034.077	-2153
1034.142	-1449
1034.207	-1603
1034.271	-2583
1034.336	-1780
1034.400	-1615
1034.465	-1609
1034.530	-1707
1034.594	-1895
1034.658	-1769
1034.723	-1318
1034.787	-1934
1034.852	-1804
1034.916	-2460
1034.981	-2239
1035.045	-2242
1035.109	-2584
1035.173	-1324
1035.238	-1491
1035.302	-1567
1035.366	-1556
1035.430	-1486
1035.495	-1965
1035.559	-2214
1035.623	-1476
1035.687	-2363
1035.751	-2332
1035.815	-1479
1035.879	-1509
1035.943	-1932
1036.007	-1963
1036.071	-2163
1036.135	-3180
1036.198	-1832
1036.262	-2496
1036.326	-2005
1036.390	-2030
1036.454	-1933
1036.517	-1349
1036.581	-1578
1036.645	-1564
1036.709	-1922
1036.772	-1819
1036.836	-1696
1036.900	-1537
1036.963	-1963
1037.026	-1607
1037.090	-1637
1037.154	-1955
1037.217	-1826
1037.280	-1611
1037.344	-2015
1037.407	-2123
1037.471	-1535
1037.534	-1967
1037.597	-2316
1037.661	-1798
1037.724	-2008
1037.787	-2235
1037.850	-1862
1037.913	-1719
1037.977	-1891
1038.040	-1968
1038.103	-1378
1038.166	-1744
1038.229	-1867
1038.292	-1660
1038.355	-1335
1038.418	-1544
1038.481	-1717
1038.544	-2321
1038.607	-1398
1038.670	-1479
1038.732	-1919
1038.795	-1304
1038.858	-1729
1038.921	-1469
1038.984	-2272
1039.046	-1700
1039.109	-1828
1039.172	-1708
1039.234	-2321
1039.297	-1712
1039.360	-2329
1039.422	-1959
1039.485	-2210
1039.547	-1898
1039.610	-1550
1039.672	-2355
1039.734	-1198
1039.797	-1308
1039.859	-1428
1039.922	-1319
1039.984	-1609
1040.046	-1261
1040.109	-1269
1040.171	-1853
1040.233	-1765
1040.295	-2143
1040.358	-1905
1040.420	-1160
1040.482	-1868
1040.544	-1337
1040.606	-1196
1040.668	-1889
1040.730	-1554
1040.792	-1903
1040.854	-1795
1040.916	-2002
1040.978	-930
1041.040	58
1041.102	-1809
1041.164	-1545
1041.225	-2276
1041.287	-1598
1041.349	-1500
1041.411	-1716
1041.472	-1255
1041.534	-1427
1041.596	-2195
1041.657	-1491
1041.719	-1811
1041.781	-1840
1041.842	-2130
1041.904	-1671
1041.965	-1965
1042.027	-1656
1042.088	-1614
1042.150	-1768
1042.211	-1399
1042.272	-1639
1042.334	-2000
1042.395	-1664
1042.456	-2182
1042.518	-832
1042.579	-1825
1042.640	-1764
1042.701	-1972
1042.763	-2251
1042.824	-2038
1042.885	-2260
1042.946	-1214
1043.007	-1465
1043.068	-2165
1043.129	-2198
1043.190	-2048
1043.251	-1607
1043.312	-1948
1043.373	-1013
1043.434	-1970
1043.495	-1888
1043.556	-1464
1043.616	-1058
1043.677	-1311
1043.738	-1544
1043.799	-1836
1043.859	-2027
1043.920	-1114
1043.981	-1847
1044.041	-1295
1044.102	-1923
1044.162	-1271
1044.223	-1801
1044.284	-2172
1044.344	-1462
1044.405	-2492
1044.465	-1845
1044.525	-1640
1044.586	-1863
1044.646	-1907
1044.707	-1142
1044.767	-1432
1044.827	-1239
1044.887	-1096
1044.948	-2245
1045.008	-1122
1045.068	-1513
1045.128	-1141
1045.188	-1441
1045.249	-2485
1045.309	-1568
1045.369	-1665
1045.429	-1838
1045.489	-1509
1045.549	-851
1045.609	-982
1045.669	-1858
1045.729	-1850
1045.789	-1634
1045.848	-1379
1045.908	-1334
1045.968	-1789
1046.028	-1945
1046.088	-692
1046.147	-193
1046.207	-1293
1046.267	-384
1046.326	-1416
1046.386	-1810
1046.446	-1183
1046.505	-926
1046.565	-487
1046.624	-580
1046.684	-655
1046.743	44
1046.803	-626
1046.862	47
1046.922	0
