'Start Wavelength	183.907
'End Wavelength	1046.922
'Gate Delay	5.000
'Gate Width (ms)	1.050
'Laser Output Level	0.000
'X Position	0.000
'Y Position	0.000
'Z Position	0.000
'Grid Point Number	1.000
'Shot Number	100.000
183.907	-105.000
183.977	-108.000
184.047	-366
184.116	-474
184.186	22
184.256	596
184.325	-250
184.395	-628
184.465	161
184.534	-278
184.604	-785
184.674	969
184.743	-280
184.813	634
184.883	-359
184.952	44
185.022	21
185.092	762
185.161	185
185.231	98
185.301	-277
185.370	1103
185.440	296
185.509	396
185.579	-550
185.649	93
185.718	106
185.788	1142
185.857	-812
185.927	-384
185.996	-297
186.066	-502
186.136	-759
186.205	30
186.275	-438
186.344	453
186.414	-610
186.483	-6
186.553	69
186.622	417
186.692	277
186.761	153
186.831	-219
186.900	284
186.970	224
187.039	83
187.109	821
187.178	813
187.248	-136
187.317	368
187.387	-291
187.456	350
187.526	-245
187.595	-446
187.664	-399
187.734	489
187.803	-254
187.873	426
187.942	128
188.012	244
188.081	-550
188.150	105
188.220	375
188.289	468
188.358	-292
188.428	459
188.497	-915
188.567	600
188.636	-181
188.705	1
188.775	-347
188.844	111
188.913	30
188.983	230
189.052	-211
189.121	-113
189.191	-69
189.260	698
189.329	180
189.399	503
189.468	125
189.537	-516
189.606	530
189.676	537
189.745	11
189.814	430
189.883	-357
189.953	-8
190.022	133
190.091	1246
190.161	236
190.230	868
190.299	-527
190.368	610
190.437	-485
190.507	635
190.576	-264
190.645	289
190.714	119
190.783	-99
190.853	279
190.922	500
190.991	-465
191.060	430
191.129	-881
191.198	294
191.268	223
191.337	86
191.406	190
191.475	451
191.544	-125
191.613	889
191.682	308
191.752	1091
191.821	-315
191.890	-94
191.959	-37
192.028	186
192.097	320
192.166	710
192.235	-722
192.304	303
192.373	-948
192.442	791
192.511	-346
192.580	-453
192.650	609
192.719	79
192.788	667
192.857	839
192.926	102
192.995	258
193.064	-1115
193.133	933
193.202	61
193.271	752
193.340	826
193.409	620
193.478	340
193.547	1113
193.615	374
193.684	381
193.753	148
193.822	707
193.891	250
193.960	455
194.029	-229
194.098	779
194.167	-118
194.236	301
194.305	430
194.374	386
194.443	-127
194.512	201
194.580	-194
194.649	509
194.718	313
194.787	611
194.856	179
194.925	871
194.994	-438
195.062	315
195.131	130
195.200	1033
195.269	333
195.338	955
195.407	-85
195.475	-219
195.544	32
195.613	265
195.682	41
195.751	812
195.819	447
195.888	896
195.957	58
196.026	205
196.094	472
196.163	580
196.232	440
196.301	399
196.369	-54
196.438	258
196.507	205
196.576	740
196.644	421
196.713	-313
196.782	440
196.850	185
196.919	92
196.988	902
197.056	-305
197.125	464
197.194	620
197.262	634
197.331	-348
197.400	-243
197.468	-130
197.537	-154
197.606	-134
197.674	354
197.743	415
197.812	1117
197.880	406
197.949	224
198.017	224
198.086	230
198.155	783
198.223	902
198.292	1230
198.360	374
198.429	133
198.497	622
198.566	-102
198.635	210
198.703	772
198.772	757
198.840	1004
198.909	415
198.977	690
199.046	1138
199.114	365
199.183	598
199.251	-535
199.320	-223
199.388	-220
199.457	93
199.525	55
199.594	586
199.662	633
199.731	892
199.799	768
199.867	351
199.936	-265
200.004	344
200.073	832
200.141	91
200.210	242
200.278	357
200.346	254
200.415	303
200.483	55
200.552	632
200.620	144
200.688	194
200.757	47
200.825	266
200.893	-510
200.962	772
201.030	-228
201.098	308
201.167	264
201.235	1247
201.303	32
201.372	242
201.440	59
201.508	190
201.577	-211
201.645	618
201.713	432
201.781	593
201.850	539
201.918	833
201.986	-694
202.055	1166
202.123	-421
202.191	181
202.259	1169
202.327	296
202.396	88
202.464	603
202.532	-244
202.600	1170
202.669	-20
202.737	319
202.805	286
202.873	612
202.941	704
203.009	412
203.078	447
203.146	977
203.214	-486
203.282	302
203.350	483
203.418	-117
203.487	-525
203.555	695
203.623	608
203.691	523
203.759	-47
203.827	255
203.895	223
203.963	912
204.031	-754
204.099	768
204.168	297
204.236	1093
204.304	294
204.372	780
204.440	731
204.508	1190
204.576	71
204.644	463
204.712	252
204.780	129
204.848	-10
204.916	31
204.984	1295
205.052	614
205.120	151
205.188	350
205.256	-450
205.324	209
205.392	-386
205.460	385
205.528	-609
205.596	1105
205.664	-219
205.732	401
205.799	918
205.867	1491
205.935	100
206.003	830
206.071	125
206.139	832
206.207	-54
206.275	346
206.343	143
206.411	1171
206.478	588
206.546	460
206.614	80
206.682	649
206.750	-578
206.818	452
206.885	494
206.953	199
207.021	412
207.089	967
207.157	-74
207.225	540
207.292	329
207.360	-146
207.428	873
207.496	842
207.563	-58
207.631	888
207.699	-224
207.767	829
207.834	-3
207.902	1037
207.970	170
208.038	159
208.105	209
208.173	407
208.241	74
208.309	694
208.376	149
208.444	1171
208.512	232
208.579	609
208.647	51
208.715	1256
208.782	304
208.850	862
208.918	293
208.985	879
209.053	-250
209.120	381
209.188	208
209.256	593
209.323	213
209.391	1021
209.459	1113
209.526	328
209.594	-278
209.661	977
209.729	127
209.796	1119
209.864	466
209.932	495
209.999	682
210.067	1098
210.134	808
210.202	958
210.269	1331
210.337	961
210.404	-203
210.472	1011
210.539	328
210.607	362
210.674	771
210.742	957
210.809	-382
210.877	679
210.944	1288
211.012	739
211.079	1523
211.146	818
211.214	855
211.281	1445
211.349	381
211.416	846
211.484	679
211.551	770
211.618	69
211.686	862
211.753	-507
211.821	1599
211.888	457
211.955	1080
212.023	601
212.090	1225
212.157	314
212.225	401
212.292	1446
212.359	1724
212.427	4003
212.494	2395
212.561	922
212.629	804
212.696	420
212.763	1026
212.831	633
212.898	1375
212.965	558
213.032	1223
213.100	567
213.167	797
213.234	965
213.301	1058
213.369	987
213.436	867
213.503	780
213.570	1316
213.638	914
213.705	594
213.772	41
213.839	1072
213.906	528
213.973	2353
214.041	398
214.108	1431
214.175	509
214.242	1442
214.309	1177
214.376	973
214.444	454
214.511	1608
214.578	1210
214.645	1019
214.712	902
214.779	485
214.846	390
214.913	2460
214.980	1090
215.048	2121
215.115	1017
215.182	1346
215.249	1281
215.316	902
215.383	1170
215.450	1584
215.517	-196
215.584	693
215.651	478
215.718	530
215.785	1326
215.852	900
215.919	644
215.986	1291
216.053	545
216.120	805
216.187	1402
216.254	1635
216.321	-391
216.388	1208
216.455	883
216.522	1519
216.589	527
216.656	1112
216.722	856
216.789	1307
216.856	1362
216.923	735
216.990	1060
217.057	1485
217.124	1306
217.191	698
217.258	1431
217.324	2504
217.391	2542
217.458	1749
217.525	1393
217.592	999
217.659	211
217.725	2248
217.792	716
217.859	1668
217.926	394
217.993	716
218.059	393
218.126	497
218.193	959
218.260	430
218.327	-128
218.393	787
218.460	439
218.527	-235
218.594	187
218.660	794
218.727	1420
218.794	746
218.860	694
218.927	716
218.994	753
219.061	159
219.127	1216
219.194	787
219.261	633
219.327	115
219.394	1252
219.461	12
219.527	485
219.594	989
219.661	523
219.727	565
219.794	1013
219.860	200
219.927	807
219.994	2115
220.060	1270
220.127	1531
220.193	1177
220.260	1419
220.326	1958
220.393	3044
220.460	3507
220.526	1957
220.593	688
220.659	2572
220.726	866
220.792	2529
220.859	3385
220.925	4251
220.992	4804
221.058	4933
221.125	3693
221.191	2820
221.258	784
221.324	1493
221.391	494
221.457	1268
221.524	1310
221.590	634
221.657	2692
221.723	1879
221.789	1933
221.856	2017
221.922	1408
221.989	2243
222.055	812
222.121	597
222.188	2681
222.254	2191
222.321	235
222.387	199
222.453	215
222.520	1200
222.586	592
222.652	1574
222.719	563
222.785	848
222.851	426
222.918	618
222.984	151
223.050	554
223.116	-322
223.183	2029
223.249	-393
223.315	771
223.382	221
223.448	-112
223.514	91
223.580	815
223.647	296
223.713	895
223.779	130
223.845	980
223.911	112
223.978	1431
224.044	209
224.110	717
224.176	1241
224.242	384
224.309	30
224.375	835
224.441	197
224.507	358
224.573	-858
224.639	1760
224.705	-183
224.772	525
224.838	374
224.904	567
224.970	518
225.036	138
225.102	-178
225.168	1214
225.234	649
225.300	-876
225.366	445
225.432	1071
225.499	707
225.565	987
225.631	234
225.697	849
225.763	697
225.829	2504
225.895	1227
225.961	584
226.027	773
226.093	1675
226.159	1683
226.225	2797
226.291	5026
226.357	8064
226.423	4083
226.489	2988
226.554	2307
226.620	2004
226.686	1675
226.752	3422
226.818	4047
226.884	9522
226.950	8347
227.016	3842
227.082	2635
227.148	1878
227.214	2160
227.279	954
227.345	550
227.411	855
227.477	615
227.543	2146
227.609	2277
227.674	2310
227.740	587
227.806	451
227.872	440
227.938	950
228.003	1593
228.069	1083
228.135	-235
228.201	1729
228.267	453
228.332	1169
228.398	-19
228.464	1127
228.530	71
228.595	1327
228.661	-132
228.727	797
228.792	1072
228.858	927
228.924	-1293
228.990	1678
229.055	524
229.121	1513
229.187	763
229.252	896
229.318	28
229.384	833
229.449	-82
229.515	-531
229.581	-761
229.646	2524
229.712	1008
229.777	1504
229.843	1264
229.909	1702
229.974	1986
230.040	1186
230.105	1579
230.171	1012
230.236	1345
230.302	1921
230.368	1014
230.433	1118
230.499	925
230.564	2224
230.630	949
230.695	770
230.761	1219
230.826	310
230.892	1570
230.957	1349
231.023	292
231.088	1350
231.154	291
231.219	1781
231.284	56
231.350	1668
231.415	200
231.481	546
231.546	833
231.612	822
231.677	-427
231.742	24
231.808	818
231.873	309
231.939	-202
232.004	1526
232.069	1051
232.135	-71
232.200	-417
232.265	1257
232.331	16
232.396	62
232.461	-132
232.527	-200
232.592	780
232.657	1299
232.723	796
232.788	327
232.853	765
232.918	386
232.984	-285
233.049	-648
233.114	-361
233.179	705
233.245	850
233.310	1782
233.375	-70
233.440	1140
233.506	-300
233.571	245
233.636	721
233.701	910
233.766	-169
233.832	939
233.897	469
233.962	10
234.027	1758
234.092	1247
234.157	-146
234.222	537
234.288	812
234.353	1970
234.418	1864
234.483	2119
234.548	1465
234.613	1456
234.678	836
234.743	511
234.808	2919
234.873	558
234.938	1050
235.004	1301
235.069	777
235.134	1280
235.199	1192
235.264	1296
235.329	-355
235.394	1295
235.459	827
235.524	522
235.589	560
235.654	605
235.719	-135
235.784	1102
235.849	1239
235.913	2245
235.978	1153
236.043	1980
236.108	661
236.173	298
236.238	961
236.303	1102
236.368	199
236.433	2202
236.498	921
236.563	2488
236.627	4337
236.692	12183
236.757	9771
236.822	4411
236.887	2333
236.952	3169
237.017	1169
237.081	3052
237.146	1897
237.211	7604
237.276	11630
237.341	15898
237.405	8623
237.470	4451
237.535	2750
237.600	1657
237.664	2441
237.729	1547
237.794	1351
237.859	4827
237.923	1165
237.988	855
238.053	2061
238.118	1446
238.182	3601
238.247	4452
238.312	376
238.376	2362
238.441	4
238.506	1535
238.570	236
238.635	2041
238.700	570
238.764	1199
238.829	763
238.893	1487
238.958	1352
239.023	1810
239.087	1112
239.152	1809
239.216	-50
239.281	1040
239.346	446
239.410	1396
239.475	1232
239.539	3163
239.604	758
239.668	1247
239.733	-28
239.797	2059
239.862	3738
239.926	3125
239.991	1748
240.055	1297
240.120	633
240.184	927
240.249	-208
240.313	965
240.378	465
240.442	2085
240.507	2209
240.571	831
240.635	540
240.700	938
240.764	367
240.829	1284
240.893	-288
240.957	1241
241.022	1446
241.086	2721
241.151	367
241.215	317
241.279	1549
241.344	1145
241.408	1373
241.472	363
241.537	1698
241.601	1349
241.665	537
241.730	1124
241.794	1756
241.858	1451
241.922	504
241.987	1140
242.051	1179
242.115	223
242.179	220
242.244	14
242.308	2084
242.372	1304
242.436	314
242.501	1005
242.565	832
242.629	1031
242.693	1570
242.757	1438
242.822	1512
242.886	1738
242.950	1701
243.014	462
243.078	658
243.142	1184
243.206	785
243.271	1180
243.335	504
243.399	2272
243.463	4984
243.527	12871
243.591	3910
243.655	1775
243.719	931
243.783	2718
243.847	2276
243.911	2693
243.975	2894
244.040	1763
244.104	2509
244.168	1212
244.232	833
244.296	1574
244.360	1675
244.424	472
244.488	262
244.552	1499
244.615	-315
244.679	786
244.743	260
244.807	327
244.871	1304
244.935	1087
244.999	-980
245.063	735
245.127	1004
245.191	2192
245.255	1201
245.319	1890
245.383	384
245.446	2307
245.510	-286
245.574	1528
245.638	888
245.702	71
245.766	2545
245.829	1909
245.893	694
245.957	1348
246.021	843
246.085	910
246.149	1417
246.212	3778
246.276	3744
246.340	2335
246.404	1673
246.467	2347
246.531	843
246.595	2460
246.659	774
246.722	1126
246.786	1404
246.850	1954
246.913	2276
246.977	254
247.041	1195
247.104	1229
247.168	1085
247.232	3523
247.295	5197
247.359	3607
247.423	968
247.486	2252
247.550	1899
247.614	1057
247.677	1448
247.741	1002
247.804	235
247.868	1665
247.932	1416
247.995	6495
248.059	1221
248.122	769
248.186	2512
248.249	3042
248.313	8190
248.376	9858
248.440	5149
248.503	1289
248.567	3115
248.630	3044
248.694	4728
248.757	7178
248.821	9353
248.884	7075
248.948	5480
249.011	9361
249.075	10776
249.138	9937
249.202	4720
249.265	2661
249.328	3136
249.392	2684
249.455	2476
249.519	2317
249.582	2305
249.645	3329
249.709	2659
249.772	2026
249.835	1663
249.899	2011
249.962	1399
250.025	1441
250.089	4663
250.152	5551
250.215	2743
250.279	2115
250.342	2968
250.405	2812
250.468	1253
250.532	3391
250.595	4405
250.658	13565
250.721	21067
250.785	7888
250.848	5131
250.911	2391
250.974	2233
251.038	3961
251.101	5646
251.164	3379
251.227	3614
251.290	2804
251.354	5941
251.417	19188
251.480	17274
251.543	14292
251.606	32856
251.669	24632
251.732	10235
251.795	9137
251.859	10188
251.922	21811
251.985	11903
252.048	5792
252.111	4262
252.174	2433
252.237	6068
252.300	12436
252.363	14329
252.426	26166
252.489	10339
252.552	5754
252.615	2921
252.678	4868
252.741	9480
252.804	13192
252.867	27298
252.930	15851
252.993	7382
253.056	6350
253.119	3655
253.182	2497
253.245	4204
253.308	3982
253.371	2726
253.434	3438
253.497	3717
253.559	6144
253.622	2886
253.685	4730
253.748	4768
253.811	1496
253.874	2877
253.937	2229
254.000	1979
254.062	3959
254.125	5660
254.188	6317
254.251	4404
254.314	2189
254.376	3108
254.439	4916
254.502	3642
254.565	3535
254.628	6824
254.690	4041
254.753	1173
254.816	1050
254.878	1899
254.941	4302
255.004	3850
255.067	1789
255.129	592
255.192	1296
255.255	733
255.317	625
255.380	1193
255.443	720
255.505	249
255.568	-278
255.631	529
255.693	1343
255.756	113
255.819	828
255.881	173
255.944	793
256.006	-136
256.069	1019
256.132	992
256.194	1188
256.257	1980
256.319	1791
256.382	758
256.444	1860
256.507	1368
256.569	506
256.632	1022
256.694	1705
256.757	9385
256.819	21627
256.882	7136
256.944	3609
257.007	3541
257.069	2634
257.132	1079
257.194	2201
257.257	1248
257.319	1042
257.381	882
257.444	6546
257.506	24765
257.569	25902
257.631	12027
257.693	6933
257.756	2344
257.818	2214
257.880	1823
257.943	2510
258.005	898
258.067	1455
258.130	1203
258.192	1543
258.254	2011
258.317	1552
258.379	1636
258.441	3550
258.503	3418
258.566	3296
258.628	4172
258.690	1095
258.753	2057
258.815	2952
258.877	685
258.939	1710
259.001	1057
259.064	1404
259.126	500
259.188	1839
259.250	2146
259.312	2694
259.375	4606
259.437	3244
259.499	859
259.561	1951
259.623	1240
259.685	1135
259.747	1423
259.809	3217
259.872	5120
259.934	9380
259.996	9916
260.058	3075
260.120	509
260.182	1618
260.244	888
260.306	783
260.368	1427
260.430	1001
260.492	3072
260.554	5838
260.616	2076
260.678	5164
260.740	5139
260.802	1592
260.864	1593
260.926	279
260.988	1034
261.050	1494
261.112	3944
261.174	9225
261.236	4675
261.298	2181
261.359	1863
261.421	3641
261.483	339
261.545	1740
261.607	-289
261.669	334
261.731	979
261.793	3851
261.854	943
261.916	1829
261.978	1195
262.040	2278
262.102	815
262.164	600
262.225	1139
262.287	1336
262.349	2284
262.411	2617
262.472	1287
262.534	1763
262.596	1883
262.658	1551
262.719	60
262.781	982
262.843	1972
262.904	1271
262.966	922
263.028	1541
263.090	7037
263.151	18706
263.213	6679
263.275	4286
263.336	1302
263.398	1865
263.459	-798
263.521	941
263.583	3079
263.644	1341
263.706	322
263.767	34
263.829	417
263.891	227
263.952	136
264.014	-106
264.075	1303
264.137	5743
264.198	2411
264.260	473
264.321	-258
264.383	3365
264.444	7694
264.506	2794
264.567	894
264.629	4703
264.690	6408
264.752	3034
264.813	854
264.875	775
264.936	1082
264.998	-391
265.059	113
265.120	1033
265.182	2380
265.243	13525
265.305	11878
265.366	2769
265.427	1304
265.489	1099
265.550	-191
265.611	1130
265.673	387
265.734	892
265.795	629
265.857	170
265.918	583
265.979	4775
266.040	19564
266.102	16036
266.163	3931
266.224	2725
266.286	2230
266.347	1133
266.408	76
266.469	1567
266.530	77
266.592	376
266.653	2069
266.714	3407
266.775	227
266.836	621
266.898	-412
266.959	1674
267.020	-24
267.081	1073
267.142	-119
267.203	283
267.264	-575
267.326	962
267.387	-490
267.448	29
267.509	710
267.570	331
267.631	202
267.692	38
267.753	391
267.814	-383
267.875	862
267.936	4090
267.997	3084
268.058	2794
268.119	1089
268.180	1266
268.241	109
268.302	131
268.363	-165
268.424	749
268.485	965
268.546	717
268.607	274
268.668	-177
268.729	-343
268.790	-354
268.851	520
268.912	2397
268.972	2663
269.033	626
269.094	142
269.155	635
269.216	102
269.277	859
269.338	-21
269.398	180
269.459	367
269.520	1866
269.581	1281
269.642	2612
269.702	733
269.763	1674
269.824	422
269.885	1014
269.945	1873
270.006	650
270.067	256
270.128	42
270.188	483
270.249	-282
270.310	1
270.370	894
270.431	81
270.492	630
270.553	-86
270.613	1357
270.674	4112
270.734	1108
270.795	-156
270.856	1449
270.916	-13
270.977	339
271.038	671
271.098	747
271.159	1136
271.219	1693
271.280	73
271.340	136
271.401	-138
271.462	1569
271.522	695
271.583	-344
271.643	941
271.704	-385
271.764	99
271.825	2673
271.885	10064
271.946	11578
272.006	3268
272.066	5576
272.127	9515
272.187	2815
272.248	1055
272.308	599
272.369	6244
272.429	3294
272.489	2143
272.550	2378
272.610	3390
272.671	2404
272.731	1305
272.791	2334
272.852	527
272.912	1738
272.972	-236
273.033	1050
273.093	641
273.153	1108
273.214	851
273.274	1475
273.334	5219
273.394	9464
273.455	2907
273.515	4337
273.575	8517
273.635	3504
273.696	4497
273.756	8317
273.816	2828
273.876	1652
273.936	3422
273.997	5413
274.057	1139
274.117	822
274.177	1825
274.237	12069
274.297	8404
274.358	4547
274.418	7165
274.478	5850
274.538	1309
274.598	892
274.658	3975
274.718	5307
274.778	1590
274.838	872
274.898	1243
274.958	6423
275.018	7374
275.078	5072
275.138	1942
275.198	749
275.258	655
275.318	705
275.378	2147
275.438	2594
275.498	1948
275.558	3222
275.618	7816
275.678	6438
275.738	3720
275.798	3470
275.858	1194
275.918	297
275.978	967
276.038	716
276.098	938
276.157	2605
276.217	7162
276.277	2437
276.337	1226
276.397	371
276.457	637
276.517	405
276.576	367
276.636	-177
276.696	752
276.756	4051
276.815	1945
276.875	1535
276.935	8
276.995	1104
277.055	-144
277.114	1324
277.174	928
277.234	5817
277.293	1181
277.353	1174
277.413	929
277.472	464
277.532	-286
277.592	1615
277.651	3391
277.711	5525
277.771	1692
277.830	9887
277.890	6344
277.950	4122
278.009	13413
278.069	4552
278.128	4574
278.188	6491
278.248	2801
278.307	6983
278.367	4639
278.426	534
278.486	546
278.545	205
278.605	131
278.664	848
278.724	388
278.783	3491
278.843	8164
278.902	2662
278.962	797
279.021	1219
279.081	2009
279.140	1700
279.199	2177
279.259	1140
279.318	1198
279.378	3318
279.437	5490
279.496	16586
279.556	36449
279.615	25475
279.675	7038
279.734	5101
279.793	7597
279.853	13298
279.912	4465
279.971	2482
280.031	2461
280.090	5436
280.149	8758
280.208	5562
280.268	25474
280.327	23823
280.386	3829
280.445	5733
280.505	4372
280.564	2153
280.623	1340
280.682	3229
280.742	4314
280.801	968
280.860	1389
280.919	555
280.978	724
281.037	322
281.097	-492
281.156	596
281.215	52
281.274	817
281.333	5437
281.392	3535
281.451	414
281.510	301
281.569	-646
281.628	-285
281.688	-917
281.747	789
281.806	797
281.865	382
281.924	-445
281.983	39
282.042	-175
282.101	-40
282.160	556
282.219	-429
282.278	482
282.337	3479
282.396	1447
282.454	456
282.513	702
282.572	5477
282.631	2823
282.690	841
282.749	-553
282.808	894
282.867	155
282.926	677
282.985	-996
283.043	-561
283.102	-254
283.161	-39
283.220	1948
283.279	5648
283.338	1611
283.396	399
283.455	489
283.514	832
283.573	1220
283.631	1635
283.690	90
283.749	42
283.808	1771
283.866	2738
283.925	-849
283.984	787
284.043	906
284.101	853
284.160	348
284.219	1768
284.277	630
284.336	1734
284.395	7971
284.453	5999
284.512	1429
284.570	3288
284.629	2064
284.688	1865
284.746	1875
284.805	1631
284.863	1651
284.922	3866
284.981	3676
285.039	6696
285.098	11866
285.156	28642
285.215	48937
285.273	47608
285.332	31022
285.390	16742
285.449	9821
285.507	6448
285.566	4291
285.624	3660
285.683	2803
285.741	1527
285.799	1089
285.858	1839
285.916	1481
285.975	760
286.033	-43
286.091	405
286.150	178
286.208	-33
286.267	147
286.325	1043
286.383	1950
286.442	1466
286.500	-353
286.558	388
286.616	-86
286.675	917
286.733	175
286.791	122
286.850	941
286.908	985
286.966	3099
287.024	622
287.083	-161
287.141	598
287.199	334
287.257	1837
287.315	172
287.374	650
287.432	3156
287.490	2518
287.548	648
287.606	621
287.664	229
287.723	1191
287.781	1662
287.839	874
287.897	628
287.955	756
288.013	2359
288.071	6612
288.129	28796
288.187	72632
288.245	30869
288.303	10507
288.361	5422
288.419	4277
288.477	2526
288.535	1266
288.593	988
288.651	782
288.709	79
288.767	230
288.825	-438
288.883	1149
288.941	179
288.999	-11
289.057	-653
289.115	283
289.173	-607
289.231	600
289.289	329
289.346	-352
289.404	106
289.462	1653
289.520	1435
289.578	197
289.636	-26
289.694	-134
289.751	-691
289.809	60
289.867	-613
289.925	1224
289.983	611
290.040	880
290.098	92
290.156	324
290.214	601
290.271	-499
290.329	324
290.387	72
290.444	-118
290.502	-467
290.560	-66
290.617	369
290.675	-554
290.733	350
290.790	-263
290.848	-185
290.906	-323
290.963	-27
291.021	-1026
291.078	-254
291.136	-505
291.194	3313
291.251	7789
291.309	1077
291.366	114
291.424	-325
291.481	-95
291.539	373
291.596	-864
291.654	-225
291.711	-217
291.769	299
291.826	1532
291.884	693
291.941	-255
291.999	220
292.056	342
292.114	207
292.171	-655
292.228	166
292.286	397
292.343	1945
292.401	1910
292.458	1503
292.515	-531
292.573	562
292.630	1097
292.687	680
292.745	254
292.802	1297
292.859	4255
292.917	7014
292.974	3300
293.031	939
293.089	-371
293.146	140
293.203	-172
293.260	-16
293.318	761
293.375	2098
293.432	-235
293.489	556
293.546	-192
293.604	460
293.661	2972
293.718	11510
293.775	4590
293.832	2350
293.889	1442
293.947	1083
294.004	794
294.061	1668
294.118	2635
294.175	8074
294.232	12305
294.289	3752
294.346	1385
294.403	1610
294.460	829
294.517	941
294.574	-51
294.631	810
294.688	363
294.745	2443
294.802	13520
294.859	17755
294.916	5474
294.973	2594
295.030	1730
295.087	1490
295.144	1224
295.201	1931
295.258	522
295.315	1464
295.372	4414
295.429	7978
295.486	3401
295.542	2827
295.599	8301
295.656	15443
295.713	7447
295.770	8858
295.827	3161
295.883	1667
295.940	1196
295.997	2564
296.054	1544
296.111	1632
296.167	583
296.224	734
296.281	-575
296.338	148
296.394	84
296.451	671
296.508	3556
296.564	8034
296.621	5321
296.678	9996
296.734	14151
296.791	5639
296.848	3319
296.904	2912
296.961	6840
297.018	10145
297.074	6476
297.131	3108
297.187	1854
297.244	2339
297.301	8843
297.357	15750
297.414	4975
297.470	1868
297.527	977
297.583	951
297.640	690
297.696	722
297.753	238
297.809	230
297.866	-294
297.922	828
297.979	-151
298.035	240
298.092	1587
298.148	5377
298.204	5733
298.261	2652
298.317	5190
298.374	12130
298.430	6761
298.486	2159
298.543	1059
298.599	1778
298.656	1614
298.712	4027
298.768	10541
298.824	7258
298.881	2350
298.937	1841
298.993	1409
299.050	1332
299.106	906
299.162	594
299.218	1497
299.275	226
299.331	445
299.387	3144
299.443	9347
299.500	12465
299.556	4975
299.612	1995
299.668	2235
299.724	2341
299.780	3143
299.837	931
299.893	2153
299.949	9142
300.005	11117
300.061	9428
300.117	15237
300.173	7312
300.229	2807
300.285	4080
300.341	3953
300.397	2439
300.453	189
300.510	528
300.566	1115
300.622	2083
300.678	7385
300.734	12732
300.790	9065
300.845	10328
300.901	6076
300.957	10614
301.013	8230
301.069	2602
301.125	1388
301.181	1545
301.237	264
301.293	545
301.349	149
301.405	393
301.461	929
301.516	883
301.572	523
301.628	3392
301.684	1667
301.740	3377
301.796	6108
301.851	4026
301.907	6917
301.963	7959
302.019	10334
302.074	27811
302.130	27438
302.186	13389
302.242	4724
302.297	3656
302.353	2734
302.409	6625
302.464	5634
302.520	4807
302.576	10596
302.631	13545
302.687	6888
302.743	3426
302.798	1382
302.854	1617
302.910	1560
302.965	2312
303.021	3740
303.076	4359
303.132	3972
303.187	6159
303.243	3294
303.299	1994
303.354	1005
303.410	1447
303.465	453
303.521	1302
303.576	1107
303.632	1879
303.687	3000
303.743	9095
303.798	7495
303.853	3615
303.909	1873
303.964	952
304.020	2541
304.075	4457
304.130	3596
304.186	7746
304.241	8091
304.297	6111
304.352	2214
304.358	2183
304.407	1930
304.449	1304
304.463	1093
304.518	2771
304.539	2109
304.573	1044
304.629	2188
304.630	2187
304.684	2298
304.720	5341
304.739	6857
304.794	10466
304.811	9014
304.850	5385
304.902	2568
304.905	2396
304.960	1827
304.992	1657
305.015	1525
305.071	2063
305.083	1978
305.126	1662
305.173	584
305.181	420
305.236	-258
305.264	674
305.292	1576
305.347	1008
305.354	1122
305.402	1878
305.445	1999
305.457	2034
305.512	3275
305.535	2717
305.567	1885
305.622	1652
305.626	1769
305.678	4971
305.716	10338
305.733	12068
305.788	12676
305.807	11045
305.843	8491
305.897	10817
305.898	10835
305.953	10507
305.988	6806
306.008	4849
306.063	3748
306.078	3171
306.118	1821
306.168	1518
306.173	1514
306.228	1339
306.259	1496
306.283	1611
306.338	1498
306.349	1577
306.393	1933
306.440	1832
306.448	1795
306.503	2304
306.530	2177
306.558	2719
306.613	6585
306.620	7005
306.668	9691
306.711	11982
306.723	11981
306.778	9614
306.801	7611
306.833	5328
306.888	2116
306.892	2043
306.943	2121
306.982	1660
306.997	1478
307.052	1494
307.072	1421
307.107	1583
307.162	2094
307.163	2100
307.217	3159
307.253	4280
307.272	4645
307.327	4809
307.343	4532
307.381	3867
307.434	3700
307.436	3827
307.491	7249
307.524	10619
307.546	11603
307.600	12326
307.614	11267
307.655	6882
307.704	4319
307.710	4311
307.765	4314
307.795	4822
307.819	5797
307.874	10234
307.885	10294
307.929	8194
307.975	7024
307.984	7549
308.038	12944
308.065	15926
308.093	26645
308.148	54344
308.156	59584
308.202	87853
308.246	107076
308.257	102913
308.312	58525
308.336	40906
308.366	31426
308.421	17876
308.426	16760
308.475	11414
308.517	7876
308.530	7344
308.585	6180
308.607	5710
308.639	5693
308.694	5913
308.697	5976
308.748	9705
308.787	13232
308.803	13142
308.857	10441
308.877	9305
308.912	8768
308.967	8608
308.967	8605
309.021	12411
309.058	15604
309.076	20051
309.130	35843
309.148	41909
309.185	75172
309.238	128377
309.239	128828
309.293	134498
309.328	128185
309.348	111262
309.402	56968
309.418	42729
309.457	30506
309.508	17387
309.511	17067
309.566	13393
309.598	11693
309.620	12131
309.674	13746
309.688	14206
309.729	13426
309.778	11753
309.783	11551
309.837	8935
309.868	7873
309.892	10068
309.946	15478
309.959	17225
310.001	23600
310.049	29160
310.055	28142
310.109	16895
310.139	10437
310.163	8447
310.218	5348
310.229	4767
310.272	4017
310.319	3545
310.326	3464
310.381	2503
310.409	2298
310.435	2439
310.489	2493
310.499	2508
310.543	2936
310.589	3250
310.598	3170
310.652	2918
310.679	2696
310.706	2834
310.760	2941
310.769	2962
310.814	2383
310.859	1942
310.868	2020
310.923	2151
310.948	2353
310.977	2575
311.031	2753
311.038	2809
311.085	2569
311.128	1989
311.139	2032
311.193	2570
311.218	2675
311.247	2633
311.301	2683
311.308	2672
311.356	2454
311.398	2268
311.410	2375
311.464	2819
311.488	3002
311.518	2767
311.572	2353
311.578	2310
311.626	3727
311.668	4822
311.680	4781
311.734	4588
311.758	4467
311.788	4242
311.842	3830
311.847	3781
311.896	4748
311.937	5536
311.950	5525
312.004	5414
312.027	5344
312.058	4549
312.112	3116
312.117	2966
312.165	3516
312.207	3972
312.297	4612
312.386	4031
312.476	3439
312.566	5313
312.656	3521
312.745	2470
312.835	3665
312.925	3614
313.015	3285
313.104	3957
313.194	2741
313.284	3273
313.374	3901
313.463	3615
313.553	3268
313.643	3394
313.732	2838
313.822	2695
313.912	3573
314.001	3678
314.091	4160
314.180	5655
314.270	4426
314.360	4744
314.449	4199
314.539	3348
314.628	2880
314.718	4056
314.808	4164
314.897	3090
314.987	3371
315.076	3881
315.166	4067
315.255	4533
315.345	4034
315.434	4315
315.524	3393
315.613	4054
315.703	4719
315.792	5496
315.881	7049
315.971	4541
316.060	5617
316.150	8027
316.239	8430
316.328	4333
316.418	3182
316.507	3023
316.597	4108
316.686	4240
316.775	3916
316.865	8709
316.954	2629
317.043	3008
317.133	2669
317.222	2491
317.311	2083
317.400	2043
317.490	4214
317.579	3825
317.668	3026
317.757	4226
317.847	5329
317.936	11121
318.025	9045
318.114	5051
318.203	4889
318.293	7027
318.382	15375
318.471	11870
318.560	15727
318.649	33491
318.738	7667
318.828	4852
318.917	5103
319.006	5901
319.095	11584
319.184	40931
319.273	20903
319.362	10079
319.451	3413
319.540	3385
319.629	6375
319.718	12291
319.807	7154
319.896	12622
319.985	49973
320.074	17725
320.163	4516
320.252	6395
320.341	5624
320.430	5634
320.519	6648
320.608	4169
320.697	4007
320.786	3474
320.875	4060
320.964	5063
321.053	7390
321.142	10031
321.230	11916
321.319	8028
321.408	19510
321.497	9403
321.586	8388
321.675	8623
321.764	8877
321.852	6558
321.941	10450
322.030	8176
322.119	7682
322.207	19493
322.296	13393
322.385	7933
322.474	8151
322.562	23194
322.651	13107
322.740	8881
322.829	11439
322.917	11405
323.006	6738
323.095	6594
323.183	5071
323.272	7457
323.361	12241
323.449	34618
323.538	11800
323.626	23492
323.715	15652
323.804	6661
323.892	20117
323.981	12670
324.069	5094
324.158	11768
324.246	11793
324.335	5088
324.424	7246
324.512	4036
324.601	5282
324.689	8213
324.778	14947
324.866	9177
324.954	3553
325.043	3060
325.131	5022
325.220	9454
325.308	10021
325.397	7418
325.485	5443
325.574	2474
325.662	3170
325.750	2822
325.839	3221
325.927	1983
326.015	2491
326.104	4036
326.192	5421
326.280	3127
326.369	2734
326.457	3614
326.545	6562
326.634	3356
326.722	2295
326.810	2810
326.898	2700
326.987	3162
327.075	4833
327.163	5764
327.251	3905
327.340	6019
327.428	10857
327.516	2818
327.604	2596
327.692	3574
327.781	2581
327.869	4394
327.957	2689
328.045	3378
328.133	2602
328.221	2575
328.309	2914
328.397	2874
328.485	3407
328.574	3843
328.662	12427
328.750	7057
328.838	2990
328.926	2514
329.014	2121
329.102	3279
329.190	9419
329.278	5879
329.366	2331
329.454	1596
329.542	2549
329.630	3228
329.718	3435
329.806	3937
329.893	5117
329.981	6424
330.069	11792
330.157	39451
330.245	102040
330.333	62231
330.421	12544
330.509	6930
330.597	15731
330.684	11123
330.772	5289
330.860	5738
330.948	8316
331.036	4474
331.123	2115
331.211	2347
331.299	3448
331.387	7004
331.475	12302
331.562	3516
331.650	2399
331.738	3051
331.825	3237
331.913	2106
332.001	2231
332.089	2783
332.176	5196
332.264	10040
332.352	8525
332.439	3309
332.527	2754
332.614	2716
332.702	2565
332.790	2396
332.877	4713
332.965	9782
333.052	2471
333.140	3254
333.228	5670
333.315	1994
333.403	2577
333.490	5721
333.578	4579
333.665	5748
333.753	4129
333.840	2182
333.928	3732
334.015	6889
334.103	13160
334.190	46392
334.278	12604
334.365	4694
334.452	3566
334.540	2672
334.627	3058
334.715	3395
334.802	8221
334.889	36374
334.977	39829
335.064	7112
335.151	2546
335.239	3724
335.326	5751
335.413	24232
335.501	36435
335.588	5128
335.675	3354
335.762	4696
335.850	7592
335.937	5757
336.024	11398
336.111	44443
336.199	21091
336.286	4947
336.373	2794
336.460	2215
336.547	2006
336.635	2990
336.722	2581
336.809	2963
336.896	4492
336.983	14226
337.070	36158
337.157	53380
337.245	27855
337.332	18973
337.419	3159
337.506	2634
337.593	3960
337.680	11856
337.767	37890
337.854	10974
337.941	10960
338.028	9134
338.115	3936
338.202	5170
338.289	7299
338.376	24243
338.463	9593
338.550	21209
338.637	24004
338.724	5918
338.811	8160
338.898	1952
338.984	2241
339.071	3251
339.158	2679
339.245	8008
339.332	5537
339.419	5360
339.506	4989
339.593	1162
339.679	1784
339.766	1807
339.853	2848
339.940	5409
340.027	1820
340.113	2927
340.200	3229
340.287	2318
340.374	2663
340.460	5183
340.547	2607
340.634	4274
340.720	14749
340.807	9297
340.894	1677
340.980	2308
341.067	2197
341.154	2848
341.240	3542
341.327	7810
341.414	2819
341.500	2692
341.587	2710
341.674	2171
341.760	4880
341.847	5548
341.933	1531
342.020	1424
342.106	1556
342.193	1893
342.279	4040
342.366	2959
342.452	4633
342.539	2614
342.625	6424
342.712	15697
342.798	6467
342.885	2394
342.971	1594
343.058	1788
343.144	1682
343.230	1782
343.317	1219
343.403	1979
343.490	1540
343.576	1795
343.662	2030
343.749	2529
343.835	2272
343.921	5581
344.008	27770
344.094	66379
344.180	16562
344.267	5742
344.353	18540
344.439	19857
344.525	8355
344.612	5731
344.698	4655
344.784	3165
344.870	1831
344.957	1666
345.043	3526
345.129	2663
345.215	5931
345.301	2828
345.387	1824
345.474	1203
345.560	1437
345.646	1436
345.732	1307
345.818	1752
345.904	1715
345.990	2220
346.076	1753
346.162	3721
346.249	2611
346.335	1924
346.421	2071
346.507	7318
346.593	26956
346.679	6653
346.765	2776
346.851	2114
346.937	1977
347.023	1957
347.108	2401
347.194	1977
347.280	1937
347.366	1893
347.452	7441
347.538	31343
347.624	25072
347.710	20334
347.796	2891
347.882	1734
347.967	1873
348.053	3003
348.139	1639
348.225	1852
348.311	1710
348.397	1098
348.482	1972
348.568	3237
348.654	1314
348.740	1963
348.825	1534
348.911	4232
348.997	14179
349.083	29997
349.168	5334
349.254	2243
349.340	2034
349.425	1133
349.511	2317
349.597	2728
349.682	5584
349.768	19727
349.854	10037
349.939	2935
350.025	1839
350.110	2018
350.196	1567
350.282	930
350.367	2036
350.453	2532
350.538	1950
350.624	3002
350.709	2399
350.795	1443
350.880	1178
350.966	2550
351.051	2970
351.137	2187
351.222	1773
351.308	6130
351.393	18114
351.479	4155
351.564	2241
351.649	1891
351.735	1757
351.820	1326
351.906	2196
351.991	2702
352.076	9800
352.162	17084
352.247	4014
352.332	1992
352.418	4426
352.503	6403
352.588	23987
352.673	19732
352.759	4122
352.844	1640
352.929	1855
353.014	3394
353.100	2329
353.185	3921
353.270	5801
353.355	5651
353.441	2239
353.526	2450
353.611	4898
353.696	5976
353.781	3967
353.866	1544
353.952	2904
354.037	4727
354.122	11720
354.207	10035
354.292	3968
354.377	2324
354.462	1831
354.547	2469
354.632	2687
354.717	4752
354.802	4375
354.887	1609
354.972	1615
355.057	2031
355.142	1551
355.227	2185
355.312	2792
355.397	7168
355.482	16737
355.567	8096
355.652	6843
355.737	6487
355.822	22106
355.907	19521
355.991	3336
356.076	1672
356.161	2273
356.246	1357
356.331	2658
356.416	4764
356.501	34801
356.585	38070
356.670	5168
356.755	4603
356.840	5053
356.924	22673
357.009	83682
357.094	33093
357.179	6803
357.263	5042
357.348	4568
357.433	5319
357.517	4249
357.602	3551
357.687	2338
357.771	5783
357.856	19755
357.941	12971
358.025	18262
358.110	81886
358.195	40100
358.279	6276
358.364	3986
358.448	14557
358.533	41806
358.617	30571
358.702	30561
358.787	11206
358.871	5963
358.956	5887
359.040	2330
359.125	2537
359.209	2447
359.294	8679
359.378	15969
359.462	5886
359.547	2785
359.631	2513
359.716	1586
359.800	2316
359.885	4093
359.969	2342
360.053	2543
360.138	1875
360.222	2804
360.306	5740
360.391	4850
360.475	9166
360.559	20678
360.644	15173
360.728	11374
360.812	18851
360.896	54354
360.981	22665
361.065	11356
361.149	3700
361.233	2552
361.318	2210
361.402	2554
361.486	3423
361.570	2174
361.654	2796
361.739	7140
361.823	32841
361.907	54905
361.991	10487
362.075	4820
362.159	9836
362.243	7915
362.327	6157
362.411	8212
362.495	4938
362.580	3246
362.664	2144
362.748	1373
362.832	3468
362.916	4489
363.000	14337
363.084	40625
363.168	63163
363.252	15278
363.336	6268
363.420	7834
363.503	34665
363.587	43397
363.671	7482
363.755	3285
363.839	6306
363.923	2673
364.007	6902
364.091	6738
364.175	11490
364.258	57754
364.342	35724
364.426	28153
364.510	14897
364.594	8645
364.677	11259
364.761	45591
364.845	35745
364.929	11083
365.013	8403
365.096	6323
365.180	8952
365.264	14125
365.347	60110
365.431	26127
365.515	6383
365.598	2208
365.682	3346
365.766	5059
365.849	8598
365.933	2452
366.017	5334
366.100	3404
366.184	1103
366.267	2553
366.351	2956
366.435	1833
366.518	1199
366.602	1956
366.685	2191
366.769	2262
366.852	5041
366.936	8114
367.019	4038
367.103	3124
367.186	8924
367.270	2207
367.353	1355
367.436	2026
367.520	2020
367.603	2348
367.687	2671
367.770	6378
367.853	3864
367.937	13418
368.020	24544
368.104	5943
368.187	4921
368.270	7876
368.353	7729
368.437	7126
368.520	16041
368.603	10871
368.687	15020
368.770	32665
368.853	7695
368.936	7405
369.020	8487
369.103	2805
369.186	2394
369.269	1976
369.352	4740
369.436	5451
369.519	4596
369.602	1894
369.685	3445
369.768	2121
369.851	2343
369.934	1323
370.018	2294
370.101	5142
370.184	6283
370.267	3653
370.350	6510
370.433	9300
370.516	23837
370.599	28838
370.682	7185
370.765	16755
370.848	20553
370.931	38664
371.014	16284
371.097	3783
371.180	3526
371.263	1775
371.346	1359
371.429	2426
371.511	1639
371.594	3575
371.677	6666
371.760	9118
371.843	7162
371.926	29703
372.009	70005
372.091	25129
372.174	13613
372.257	36545
372.340	14689
372.423	10854
372.505	14242
372.588	5858
372.671	10712
372.754	37351
372.836	20420
372.919	15804
373.002	34963
373.085	9655
373.167	6491
373.250	14340
373.332	35377
373.415	45268
373.498	94017
373.580	36031
373.663	40448
373.746	57429
373.828	14322
373.911	6503
373.993	6579
374.076	31570
374.159	30913
374.241	10609
374.324	31974
374.406	22513
374.489	25653
374.571	77075
374.654	32897
374.736	14478
374.819	45445
374.901	66863
374.983	69698
375.066	13357
375.148	4883
375.231	24183
375.313	51896
375.395	18460
375.478	4703
375.560	3132
375.643	3778
375.725	12801
375.807	58601
375.890	45494
375.972	16083
376.054	9040
376.136	12873
376.219	6032
376.301	16043
376.383	52273
376.465	20939
376.548	10485
376.630	12357
376.712	44302
376.794	21853
376.877	2932
376.959	1707
377.041	2887
377.123	6396
377.205	8677
377.287	2237
377.369	2028
377.452	1983
377.534	1566
377.616	1704
377.698	2090
377.780	1365
377.862	2217
377.944	2704
378.026	671
378.108	1838
378.190	1422
378.272	698
378.354	1514
378.436	1605
378.518	2573
378.600	12731
378.682	10747
378.764	22866
378.846	18892
378.928	4359
379.010	6500
379.091	4937
379.173	1824
379.255	1649
379.337	2135
379.419	9139
379.501	32109
379.583	12670
379.664	2707
379.746	6039
379.828	22418
379.910	30494
379.991	28116
380.073	4444
380.155	2486
380.237	2274
380.318	1609
380.400	1824
380.482	3752
380.564	7146
380.645	6003
380.727	5771
380.809	3988
380.890	2188
380.972	1127
381.053	2842
381.135	2488
381.217	5984
381.298	23258
381.380	12246
381.461	7528
381.543	40537
381.624	55214
381.706	9680
381.787	4311
381.869	5381
381.951	16552
382.032	70573
382.113	46687
382.195	8439
382.276	6770
382.358	12332
382.439	37447
382.521	42228
382.602	67956
382.684	28260
382.765	51484
382.846	46267
382.928	42636
383.009	23084
383.090	15472
383.172	58985
383.253	96530
383.334	39800
383.416	56068
383.497	30673
383.578	8934
383.659	14650
383.741	51012
383.822	146317
383.903	77344
383.984	33444
384.066	72323
384.147	46160
384.228	9846
384.309	5607
384.390	4404
384.471	3098
384.553	3484
384.634	4054
384.715	5034
384.796	3075
384.877	3553
384.958	18634
385.039	25540
385.120	8931
385.201	4203
385.282	4500
385.363	4882
385.444	3503
385.525	7331
385.606	30524
385.687	27420
385.768	6773
385.849	6506
385.930	31731
386.011	58204
386.092	16415
386.173	4260
386.254	3709
386.335	3547
386.416	3707
386.496	13376
386.577	23086
386.658	8319
386.739	4443
386.820	5087
386.901	3987
386.981	4225
387.062	1761
387.143	4313
387.224	21319
387.304	22245
387.385	7743
387.466	3543
387.547	6913
387.627	2928
387.708	7682
387.789	37393
387.869	47672
387.950	13447
388.031	2258
388.111	1630
388.192	7762
388.273	12055
388.353	6284
388.434	3442
388.514	6922
388.595	34031
388.676	45351
388.756	23444
388.837	19469
388.917	13698
388.998	2205
389.078	2798
389.159	2109
389.239	1140
389.320	5231
389.400	3035
389.480	8686
389.561	24616
389.641	13551
389.722	4051
389.802	5842
389.883	9362
389.963	28006
390.043	18491
390.124	5335
390.204	8254
390.284	25558
390.365	16591
390.445	20198
390.525	52452
390.605	46887
390.686	15025
390.766	6490
390.846	3723
390.927	1576
391.007	1345
391.087	3422
391.167	2674
391.247	2325
391.328	4077
391.408	7161
391.488	5347
391.568	737
391.648	1955
391.728	4858
391.808	4627
391.888	4158
391.969	13274
392.049	22228
392.129	9314
392.209	9701
392.289	28674
392.369	16537
392.449	14189
392.529	7725
392.609	6102
392.689	7558
392.769	25083
392.849	22344
392.929	14864
393.009	37619
393.089	26453
393.169	14792
393.248	46002
393.328	228439
393.408	260836
393.488	58724
393.568	14558
393.648	7228
393.728	5220
393.807	4502
393.887	5204
393.967	5184
394.047	6438
394.127	8822
394.206	15854
394.286	54600
394.366	230125
394.446	261180
394.525	73296
394.605	18981
394.685	12458
394.764	22011
394.844	35609
394.924	26099
395.003	7173
395.083	5613
395.163	4404
395.242	5109
395.322	5065
395.402	2965
395.481	5982
395.561	13915
395.640	38360
395.720	30119
395.799	44744
395.879	40207
395.958	26526
396.038	83129
396.117	295007
396.197	340275
396.276	121886
396.356	37915
396.435	23276
396.515	14166
396.594	11368
396.673	16700
396.753	58738
396.832	221225
396.912	171417
396.991	38917
397.070	11044
397.150	4728
397.229	4931
397.308	5895
397.388	9443
397.467	5812
397.546	2335
397.625	1090
397.705	4219
397.784	4166
397.863	2326
397.942	2200
398.022	1939
398.101	10221
398.180	37941
398.259	19981
398.338	5409
398.417	3107
398.497	1310
398.576	3198
398.655	1461
398.734	1946
398.813	1831
398.892	10180
398.971	41886
399.050	21174
399.129	2261
399.208	1690
399.287	1944
399.366	896
399.445	1841
399.524	1880
399.603	236
399.682	3562
399.761	9915
399.840	41682
399.919	34681
399.998	5381
400.077	740
400.156	-507
400.235	3171
400.313	586
400.392	1148
400.471	10873
400.550	19447
400.629	4916
400.708	1508
400.786	2506
400.865	8061
400.944	9039
401.023	4614
401.102	720
401.180	849
401.259	79
401.338	824
401.416	2218
401.495	1131
401.574	1625
401.652	1257
401.731	2917
401.810	1416
401.888	1347
401.967	150
402.046	1511
402.124	1983
402.203	2575
402.281	2519
402.360	3067
402.438	10087
402.517	7570
402.596	2157
402.674	2616
402.753	1032
402.831	1348
402.910	2392
402.988	7390
403.066	31446
403.145	19592
403.223	9260
403.302	27020
403.380	21209
403.459	20369
403.537	8109
403.615	2409
403.694	-399
403.772	1252
403.850	164
403.929	1654
404.007	644
404.085	3985
404.164	3702
404.242	1808
404.320	6168
404.398	23412
404.477	25672
404.555	56996
404.633	54052
404.711	20975
404.789	11766
404.868	2229
404.946	1186
405.024	229
405.102	801
405.180	28
405.258	-871
405.336	1351
405.415	-130
405.493	3260
405.571	3347
405.649	570
405.727	4
405.805	3130
405.883	1860
405.961	2137
406.039	2647
406.117	791
406.195	2180
406.273	9651
406.351	46732
406.429	30986
406.507	5096
406.585	1618
406.663	1803
406.740	1968
406.818	1284
406.896	121
406.974	1294
407.052	2917
407.130	26244
407.208	40860
407.285	8428
407.363	1187
407.441	958
407.519	1334
407.596	1824
407.674	4996
407.752	16387
407.830	17858
407.907	6785
407.985	1153
408.063	1401
408.141	773
408.218	2113
408.296	2513
408.373	1355
408.451	1555
408.529	1134
408.606	-3
408.684	-342
408.762	426
408.839	441
408.917	-229
408.994	799
409.072	370
409.149	-154
409.227	2453
409.304	1967
409.382	1343
409.459	525
409.537	2661
409.614	2391
409.692	1667
409.769	1547
409.846	1813
409.924	3624
410.001	1385
410.079	1610
410.156	2217
410.233	1171
410.311	1669
410.388	677
410.465	1341
410.543	1684
410.620	1270
410.697	1273
410.775	1518
410.852	-683
410.929	1923
411.006	2421
411.083	480
411.161	2808
411.238	5059
411.315	2498
411.392	1147
411.469	1952
411.547	3265
411.624	-489
411.701	1371
411.778	765
411.855	2834
411.932	584
412.009	432
412.086	798
412.163	845
412.240	373
412.317	2012
412.394	1296
412.471	1409
412.548	-179
412.625	325
412.702	815
412.779	3268
412.856	2477
412.933	565
413.010	278
413.087	1218
413.164	10395
413.241	16292
413.318	3188
413.395	1794
413.471	2888
413.548	1646
413.625	1145
413.702	1044
413.779	1016
413.855	150
413.932	-139
414.009	-295
414.086	763
414.162	379
414.239	1613
414.316	8870
414.393	23322
414.469	7784
414.546	1236
414.623	427
414.699	906
414.776	844
414.853	332
414.929	1507
415.006	806
415.082	1110
415.159	692
415.236	1127
415.312	509
415.389	1879
415.465	2102
415.542	896
415.618	281
415.695	1968
415.771	1057
415.848	965
415.924	754
416.000	836
416.077	1015
416.153	-270
416.230	-662
416.306	-154
416.383	84
416.459	921
416.535	305
416.612	-276
416.688	518
416.764	415
416.841	273
416.917	584
416.993	381
417.069	1744
417.146	1121
417.222	3788
417.298	1190
417.374	533
417.451	749
417.527	627
417.603	1222
417.679	1026
417.755	1468
417.831	-101
417.908	226
417.984	26
418.060	-324
418.136	1976
418.212	2677
418.288	1263
418.364	941
418.440	717
418.516	705
418.592	1717
418.668	4230
418.744	6532
418.820	4697
418.896	624
418.972	106
419.048	173
419.124	3131
419.200	1594
419.276	467
419.352	-204
419.428	-323
419.504	650
419.579	1620
419.655	805
419.731	979
419.807	3703
419.883	6643
419.959	5206
420.034	1157
420.110	2093
420.186	13606
420.262	12559
420.337	2173
420.413	1508
420.489	506
420.565	1417
420.640	394
420.716	971
420.792	-481
420.867	793
420.943	-274
421.019	1752
421.094	1631
421.170	1376
421.245	536
421.321	533
421.397	327
421.472	3144
421.548	8702
421.623	7632
421.699	2756
421.774	2425
421.850	1110
421.925	3247
422.001	2690
422.076	2493
422.152	2561
422.227	4661
422.302	5924
422.378	8204
422.453	14312
422.529	38350
422.604	124401
422.679	232980
422.755	150744
422.830	46445
422.905	17414
422.981	9009
423.056	6011
423.131	4659
423.207	3121
423.282	2676
423.357	5416
423.432	2808
423.508	3092
423.583	6036
423.658	5821
423.733	1846
423.808	1760
423.883	2596
423.959	2323
424.034	890
424.109	1199
424.184	-77
424.259	1117
424.334	883
424.409	154
424.484	133
424.559	542
424.634	410
424.709	1344
424.784	1840
424.859	1126
424.934	838
425.009	9015
425.084	16664
425.159	7134
425.234	1299
425.309	587
425.384	4799
425.459	9272
425.534	3926
425.609	619
425.683	331
425.758	645
425.833	1833
425.908	2259
425.983	4127
426.058	16203
426.132	7839
426.207	1453
426.282	3401
426.357	1589
426.431	671
426.506	824
426.581	1315
426.655	1005
426.730	503
426.805	218
426.879	1295
426.954	871
427.029	2994
427.103	13957
427.178	42118
427.253	20232
427.327	2526
427.402	3481
427.476	9723
427.551	5212
427.625	2435
427.700	2248
427.774	187
427.849	1286
427.923	89
427.998	-434
428.072	709
428.147	2885
428.221	10339
428.296	35256
428.370	20890
428.444	3247
428.519	3593
428.593	6900
428.667	7169
428.742	9014
428.816	7988
428.890	23266
428.965	39722
429.039	14617
429.113	9922
429.188	3810
429.262	1243
429.336	2005
429.410	8050
429.485	5789
429.559	7230
429.633	5745
429.707	2156
429.781	3672
429.855	25156
429.930	39861
430.004	22272
430.078	36466
430.152	33434
430.226	51678
430.300	55569
430.374	9243
430.448	2751
430.522	10275
430.596	35521
430.670	23051
430.744	39293
430.818	63900
430.892	14335
430.966	2013
431.040	1541
431.114	-188
431.188	586
431.262	661
431.336	82
431.410	2856
431.484	9150
431.557	6735
431.631	1501
431.705	944
431.779	5376
431.853	30240
431.927	23070
432.000	3143
432.074	1742
432.148	1332
432.222	1655
432.295	548
432.369	753
432.443	951
432.516	14597
432.590	42690
432.664	17714
432.737	1521
432.811	408
432.885	446
432.958	821
433.032	448
433.106	66
433.179	-103
433.253	478
433.326	-200
433.400	-904
433.473	695
433.547	-283
433.620	537
433.694	749
433.767	1460
433.841	117
433.914	16
433.988	526
434.061	596
434.134	856
434.208	305
434.281	-250
434.355	-60
434.428	379
434.501	242
434.575	47
434.648	-542
434.721	-179
434.795	174
434.868	-751
434.941	-52
435.014	-104
435.088	-611
435.161	690
435.234	907
435.307	1533
435.381	455
435.454	515
435.527	713
435.600	313
435.673	1127
435.746	-15
435.819	-507
435.892	375
435.966	-162
436.039	39
436.112	1054
436.185	-72
436.258	-189
436.331	-796
436.404	11
436.477	-412
436.550	-347
436.623	55
436.696	-38
436.769	413
436.842	3
436.915	495
436.987	-13
437.060	405
437.133	4
437.206	-567
437.279	72
437.352	1091
437.425	-32
437.498	183
437.570	1619
437.643	2803
437.716	755
437.789	43
437.861	1584
437.934	6407
438.007	3655
438.080	466
438.152	949
438.225	2397
438.298	18614
438.370	61167
438.443	28902
438.516	7238
438.588	1120
438.661	531
438.734	-463
438.806	213
438.879	1079
438.951	1028
439.024	3461
439.096	1070
439.169	160
439.241	-244
439.314	292
439.386	1173
439.459	1607
439.531	3507
439.604	876
439.676	1271
439.749	132
439.821	159
439.893	840
439.966	295
440.038	619
440.110	743
440.183	233
440.255	472
440.327	989
440.400	7340
440.472	37078
440.544	28608
440.617	3878
440.689	2982
440.761	3300
440.833	5046
440.905	3528
440.978	1020
441.050	-111
441.122	206
441.194	-93
441.266	-83
441.338	-453
441.411	1564
441.483	10711
441.555	17992
441.627	4942
441.699	2460
441.771	2332
441.843	954
441.915	-88
441.987	578
442.059	-358
442.131	68
442.203	1306
442.275	1931
442.347	1954
442.419	2189
442.491	10854
442.563	33467
442.635	17017
442.706	9759
442.778	10023
442.850	1765
442.922	-143
442.994	1298
443.066	1654
443.137	1490
443.209	524
443.281	1518
443.353	3576
443.425	16417
443.496	61420
443.568	63725
443.640	24024
443.711	5427
443.783	964
443.855	888
443.926	1176
443.998	706
444.070	1457
444.141	1278
444.213	2064
444.285	2692
444.356	1308
444.428	1217
444.499	218
444.571	18
444.642	437
444.714	450
444.785	1604
444.857	2525
444.928	6334
445.000	5238
445.071	4386
445.143	5174
445.214	3301
445.285	4446
445.357	15017
445.428	40743
445.500	106617
445.571	70051
445.642	33207
445.714	13703
445.785	14264
445.856	4848
445.928	2538
445.999	2498
446.070	2190
446.141	2129
446.213	3110
446.284	1489
446.355	1370
446.426	435
446.497	328
446.569	2335
446.640	3029
446.711	2309
446.782	561
446.853	1093
446.924	917
446.995	1041
447.066	1167
447.138	2413
447.209	1462
447.280	123
447.351	-239
447.422	290
447.493	599
447.564	2065
447.635	1902
447.706	1124
447.777	552
447.847	666
447.918	-575
447.989	1456
448.060	1093
448.131	4428
448.202	5078
448.273	2728
448.344	1958
448.414	1039
448.485	472
448.556	579
448.627	738
448.698	1255
448.768	849
448.839	725
448.910	1606
448.981	2911
449.051	1098
449.122	1109
449.193	712
449.263	-148
449.334	1101
449.405	1991
449.475	3703
449.546	2997
449.616	3133
449.687	3450
449.758	1862
449.828	644
449.899	296
449.969	700
450.040	618
450.110	1482
450.181	1437
450.251	1356
450.322	1200
450.392	1042
450.463	949
450.533	1017
450.604	1089
450.674	596
450.744	1085
450.815	493
450.885	1150
450.955	1028
451.026	383
451.096	809
451.166	1162
451.237	2604
451.307	8161
451.377	5306
451.447	58
451.518	729
451.588	-16
451.658	1341
451.728	1769
451.799	8679
451.869	12266
451.939	3930
452.009	871
452.079	494
452.149	439
452.219	2154
452.289	9242
452.360	9799
452.430	2830
452.500	1224
452.570	1530
452.640	2202
452.710	6334
452.780	11458
452.850	7530
452.920	6579
452.990	2564
453.060	1377
453.129	1716
453.199	2872
453.269	9152
453.339	28156
453.409	47203
453.479	37726
453.549	58150
453.619	64977
453.688	32037
453.758	5522
453.828	1930
453.898	2029
453.968	1304
454.037	789
454.087	495
454.107	368
454.168	399
454.177	395
454.247	546
454.249	565
454.316	898
454.330	894
454.386	864
454.411	2266
454.456	4514
454.492	7146
454.525	9493
454.574	5422
454.595	3689
454.655	953
454.665	498
454.734	1351
454.736	1398
454.804	2845
454.817	3992
454.873	8371
454.898	9868
454.943	12557
454.979	8429
455.013	4731
455.060	2893
455.082	2166
455.141	2068
455.152	2023
455.221	5705
455.222	5829
455.291	13989
455.303	13795
455.360	12491
455.384	16904
455.430	24633
455.465	19893
455.499	15383
455.546	11650
455.569	9841
455.627	7748
455.638	7418
455.707	1846
455.708	1844
455.777	48
455.789	242
455.846	1097
455.869	872
455.916	555
455.950	1046
455.985	1443
456.031	1390
456.054	1396
456.112	1504
456.124	1497
456.193	157
456.193	147
456.262	1017
456.274	1105
456.332	1310
456.355	1336
456.401	1267
456.436	693
456.470	126
456.516	366
456.540	522
456.597	389
456.609	369
456.678	764
456.678	759
456.747	-92
456.759	46
456.817	753
456.840	605
456.886	261
456.920	381
456.955	523
457.001	809
457.024	983
457.082	778
457.093	736
457.162	1515
457.163	1525
457.232	1651
457.243	1666
457.301	1569
457.324	1216
457.370	810
457.405	960
457.439	919
457.485	806
457.508	804
457.566	291
457.577	185
457.646	1202
457.647	1208
457.715	1987
457.727	2099
457.784	2702
457.808	3357
457.853	4332
457.889	5435
457.922	5832
457.969	4072
457.991	3872
458.050	4787
458.060	4921
458.129	6847
458.130	6935
458.198	8396
458.211	7816
458.267	5032
458.292	3577
458.336	2042
458.372	1816
458.405	2063
458.453	2624
458.474	3170
458.533	6143
458.543	6470
458.611	11202
458.614	11330
458.680	9379
458.694	7801
458.749	4250
458.775	3123
458.818	1514
458.855	1034
458.887	817
458.936	1035
458.955	1059
459.016	781
459.024	764
459.093	1422
459.097	1407
459.162	960
459.177	1119
459.230	1670
459.257	1642
459.299	1709
459.338	1865
459.368	1802
459.418	1820
459.437	1862
459.499	1815
459.505	1805
459.574	1297
459.579	1304
459.643	1272
459.659	1227
459.711	999
459.740	1059
459.780	1408
459.820	1564
459.849	1583
459.900	1525
459.917	1559
459.981	1939
459.986	1910
460.054	1458
460.061	1405
460.123	1315
460.141	1239
460.191	1321
460.222	1698
460.260	2341
460.302	2663
460.328	2450
460.382	2186
460.397	2195
460.462	1818
460.465	1839
460.534	3320
460.543	3398
460.602	9931
460.623	12693
460.671	19803
460.703	27860
460.739	28824
460.783	27639
460.808	24876
460.864	6835
460.876	5057
460.944	2266
460.945	2230
461.013	2146
461.024	2091
461.081	1623
461.104	1597
461.150	1498
461.184	1346
461.218	1532
461.264	1512
461.286	1279
461.345	943
461.355	1033
461.423	1656
461.425	1678
461.491	1483
461.505	1404
461.559	2739
461.585	3444
461.628	5409
461.665	7424
461.696	8727
461.745	12680
461.764	11808
461.825	5334
461.832	5251
461.901	2393
461.905	2358
461.969	1384
461.985	1352
462.037	2262
462.065	2503
462.105	1844
462.145	1418
462.173	2514
462.225	4582
462.241	4838
462.305	6624
462.310	6544
462.378	5264
462.385	4902
462.446	2763
462.465	2084
462.514	1767
462.545	2041
462.582	2128
462.625	2267
462.650	2361
462.705	2311
462.718	2193
462.785	1860
462.786	1883
462.854	3022
462.865	3243
462.922	3579
462.945	3937
462.990	3258
463.025	2104
463.058	1853
463.104	1475
463.126	1450
463.184	1774
463.194	1744
463.262	1393
463.264	1393
463.330	1923
463.344	1953
463.398	2167
463.424	2227
463.466	2141
463.504	2296
463.533	2326
463.583	2178
463.601	2146
463.663	2158
463.669	2213
463.737	2805
463.743	2870
463.805	4483
463.823	4952
463.873	7962
463.903	9909
463.940	11015
463.982	12716
464.008	10698
464.062	5044
464.076	4731
464.142	2551
464.144	2524
464.211	2267
464.221	2272
464.279	2060
464.301	2023
464.347	2192
464.381	2375
464.414	2644
464.461	3001
464.482	3276
464.540	3863
464.550	3691
464.617	2662
464.620	2614
464.685	3047
464.699	3145
464.753	4312
464.779	4973
464.820	5518
464.859	6076
464.888	6066
464.938	5808
464.956	5712
465.018	5502
465.023	5440
465.091	4404
465.098	4300
465.158	3967
465.177	3840
465.226	4500
465.257	4998
465.293	5010
465.336	4918
465.361	5266
465.416	5956
465.428	6134
465.495	7417
465.496	7455
465.563	11673
465.575	12496
465.631	15519
465.654	16924
465.698	12040
465.734	7358
465.765	6214
465.813	4228
465.833	4211
465.893	4745
465.900	4715
465.968	4463
465.972	4439
466.035	4641
466.052	4737
466.102	5165
466.131	5288
466.170	5005
466.210	4760
466.237	4699
466.290	4548
466.304	4839
466.369	6116
466.372	6115
466.439	5868
466.449	5829
466.506	6642
466.528	6938
466.573	8435
466.607	9551
466.641	13014
466.687	17777
466.708	19400
466.766	24049
466.775	22553
466.842	11067
466.845	10501
466.909	8210
466.925	7720
466.977	7592
467.004	7556
467.044	7464
467.083	7394
467.111	7924
467.163	8891
467.178	9088
467.242	9868
467.245	9821
467.312	8646
467.321	8484
467.379	8246
467.400	8143
467.446	8798
467.480	9255
467.559	7561
467.638	7031
467.717	6180
467.796	7091
467.875	6441
467.955	6573
468.034	9229
468.113	19866
468.192	28738
468.271	10750
468.350	5637
468.429	5864
468.508	7416
468.588	6552
468.667	5866
468.746	6153
468.825	5186
468.904	5606
468.983	6404
469.062	8113
469.141	10206
469.220	6185
469.299	5554
469.378	6273
469.456	9144
469.535	8114
469.614	6739
469.693	6711
469.772	8109
469.851	9535
469.930	7442
470.009	5435
470.088	5462
470.166	6196
470.245	6497
470.324	6329
470.403	5107
470.482	5595
470.560	5109
470.639	5768
470.718	5730
470.797	6019
470.875	5737
470.954	7221
471.033	7732
471.111	5243
471.190	5148
471.269	4512
471.347	3505
471.426	5833
471.505	5728
471.583	7160
471.662	6680
471.740	5510
471.819	5092
471.898	6060
471.976	4685
472.055	5411
472.133	5352
472.212	7462
472.290	6871
472.369	5297
472.447	4432
472.526	4884
472.604	5348
472.683	4119
472.761	4816
472.839	5246
472.918	4806
472.996	4528
473.075	5403
473.153	5693
473.231	3801
473.310	5291
473.388	4166
473.466	4648
473.545	6073
473.623	6464
473.701	6026
473.780	5273
473.858	3627
473.936	6275
474.014	4407
474.093	6105
474.171	7383
474.249	9069
474.327	5370
474.405	4005
474.484	3987
474.562	4622
474.640	4064
474.718	4514
474.796	4600
474.874	5487
474.952	3438
475.030	4018
475.108	3968
475.187	5021
475.265	5379
475.343	7672
475.421	7065
475.499	5354
475.577	4064
475.655	6269
475.733	10597
475.811	17100
475.889	15161
475.966	11010
476.044	4294
476.122	5276
476.200	5945
476.278	5306
476.356	4044
476.434	4501
476.512	5785
476.590	6431
476.667	5609
476.745	4130
476.823	4740
476.901	5227
476.979	4468
477.056	5184
477.134	4573
477.212	4637
477.290	4595
477.367	4018
477.445	3248
477.523	3480
477.601	3379
477.678	3895
477.756	4629
477.834	5661
477.911	3586
477.989	4266
478.066	3121
478.144	4058
478.222	4530
478.299	6273
478.377	6327
478.454	4649
478.532	2702
478.609	3426
478.687	4451
478.764	3390
478.842	3381
478.919	3617
478.997	3714
479.074	3417
479.152	4094
479.229	5399
479.307	3242
479.384	4003
479.461	3006
479.539	3168
479.616	4230
479.694	3065
479.771	2693
479.848	4314
479.926	4259
480.003	6056
480.080	3916
480.157	3673
480.235	2236
480.312	3537
480.389	3367
480.467	5452
480.544	6656
480.621	3982
480.698	4125
480.775	3572
480.853	3760
480.930	4493
481.007	3428
481.084	4619
481.161	5710
481.238	4602
481.315	3744
481.392	3259
481.470	2606
481.547	4052
481.624	3007
481.701	2889
481.778	2701
481.855	3820
481.932	5395
482.009	9749
482.086	7779
482.163	2906
482.240	4660
482.317	7225
482.393	6910
482.470	4066
482.547	4019
482.624	3812
482.701	3697
482.778	2793
482.855	2874
482.932	2904
483.009	2760
483.085	3695
483.162	4105
483.239	3942
483.316	2485
483.393	3799
483.469	3444
483.546	3607
483.623	4153
483.699	3400
483.776	3438
483.853	4637
483.930	5522
484.006	13642
484.083	25791
484.160	17516
484.236	26893
484.313	22372
484.389	15978
484.466	13554
484.543	12729
484.619	13045
484.696	13122
484.772	13347
484.849	13278
484.925	12014
485.002	10911
485.078	13262
485.155	12207
485.231	11510
485.308	10607
485.384	12096
485.461	12504
485.537	17176
485.614	21447
485.690	11448
485.766	9857
485.843	12008
485.919	12220
485.995	12613
486.072	10249
486.148	9549
486.224	10268
486.301	10405
486.377	10619
486.453	10832
486.530	11808
486.606	14838
486.682	16897
486.758	18490
486.835	18816
486.911	15767
486.987	21942
487.063	21513
487.139	21429
487.215	16987
487.292	12738
487.368	11804
487.444	11046
487.520	13191
487.596	12701
487.672	15592
487.748	28624
487.824	41237
487.900	18954
487.976	11918
488.052	10393
488.128	12824
488.204	10736
488.280	10265
488.356	11048
488.432	18092
488.508	28155
488.584	12266
488.660	8399
488.736	9709
488.812	9073
488.888	12325
488.964	13420
489.039	18085
489.115	27348
489.191	18879
489.267	10010
489.343	9250
489.418	7568
489.494	8420
489.570	7621
489.646	9898
489.722	7661
489.797	8456
489.873	10241
489.949	19804
490.024	19817
490.100	7782
490.176	8133
490.251	8660
490.327	8956
490.403	8114
490.478	7418
490.554	5868
490.629	7020
490.705	6896
490.781	7094
490.856	6929
490.932	7576
491.007	7436
491.083	7420
491.158	6418
491.234	8156
491.309	15668
491.385	16448
491.460	6791
491.536	7214
491.611	7077
491.686	6494
491.762	8599
491.837	11002
491.913	19277
491.988	23959
492.063	30985
492.139	12419
492.214	8976
492.289	4941
492.365	5090
492.440	5929
492.515	5899
492.590	5771
492.666	4896
492.741	6726
492.816	8948
492.891	5945
492.967	5802
493.042	4025
493.117	5229
493.192	5713
493.267	9219
493.342	25642
493.418	40783
493.493	10706
493.568	4751
493.643	4159
493.718	5159
493.793	6027
493.868	8137
493.943	4885
494.018	4845
494.093	4510
494.168	4504
494.243	3214
494.318	4327
494.393	3882
494.468	4683
494.543	3656
494.618	4202
494.693	3546
494.768	4818
494.842	3874
494.917	3824
494.992	3672
495.067	3490
495.142	3828
495.217	4135
495.292	4037
495.366	4931
495.441	4871
495.516	7680
495.591	7751
495.665	20730
495.740	47612
495.815	25031
495.890	5840
495.964	4569
496.039	5811
496.114	4755
496.188	5990
496.263	6982
496.338	5440
496.412	5782
496.487	7183
496.561	7110
496.636	6861
496.710	6122
496.785	5699
496.860	6933
496.934	5472
497.009	6377
497.083	5355
497.158	6567
497.232	7127
497.307	8507
497.381	7549
497.455	9522
497.530	11263
497.604	10069
497.679	9893
497.753	15053
497.827	20856
497.902	21413
497.976	22528
498.050	38670
498.125	130712
498.199	162044
498.273	33110
498.348	24473
498.422	19270
498.496	16602
498.570	13377
498.645	11748
498.719	9615
498.793	12383
498.867	15833
498.941	18518
499.016	48823
499.090	144375
499.164	67371
499.238	8734
499.312	6018
499.386	7042
499.460	6802
499.534	6248
499.609	7750
499.683	10904
499.757	12428
499.831	20968
499.905	89185
499.979	103343
500.053	15111
500.127	12926
500.201	7845
500.275	6056
500.349	5892
500.422	6756
500.496	8578
500.570	16789
500.644	45795
500.718	99168
500.792	30174
500.866	6777
500.940	8320
501.013	6997
501.087	6747
501.161	9682
501.235	13001
501.309	27350
501.382	79829
501.456	85328
501.530	16412
501.603	26787
501.677	12904
501.751	4671
501.825	6223
501.898	10419
501.972	31741
502.046	25079
502.119	6069
502.193	13799
502.266	33262
502.340	21160
502.413	14030
502.487	29992
502.561	18035
502.634	7527
502.708	4109
502.781	3638
502.855	4299
502.928	3841
503.002	2754
503.075	3487
503.149	3191
503.222	4126
503.295	3779
503.369	5925
503.442	6115
503.516	20959
503.589	58013
503.662	42526
503.736	12795
503.809	26788
503.882	24510
503.956	32559
504.029	34736
504.102	16086
504.175	21868
504.249	8119
504.322	5204
504.395	5693
504.468	3637
504.542	4030
504.615	2363
504.688	3416
504.761	1749
504.834	4546
504.907	4503
504.980	6396
505.053	3492
505.127	2874
505.200	7345
505.273	5307
505.346	3463
505.419	2581
505.492	3167
505.565	1738
505.638	3049
505.711	2536
505.784	1512
505.857	2139
505.930	3231
506.003	2241
506.076	4077
506.149	3116
506.221	3923
506.294	5219
506.367	10232
506.440	44825
506.513	30048
506.586	5955
506.659	2735
506.731	3425
506.804	2960
506.877	3103
506.950	3672
507.022	3240
507.095	2355
507.168	4561
507.241	2259
507.313	1445
507.386	1495
507.459	3912
507.531	2110
507.604	1953
507.677	2543
507.749	1759
507.822	3687
507.894	7284
507.967	10311
508.040	7238
508.112	5122
508.185	5437
508.257	3579
508.330	7951
508.402	4232
508.475	4582
508.547	4522
508.620	4372
508.692	6801
508.765	4733
508.837	2726
508.909	3724
508.982	3381
509.054	5075
509.127	3124
509.199	3044
509.271	3026
509.344	3681
509.416	3439
509.488	3801
509.560	3627
509.633	3851
509.705	3943
509.777	3428
509.849	5022
509.922	3905
509.994	3820
510.066	4197
510.138	3022
510.210	10632
510.283	10022
510.355	7413
510.427	6257
510.499	6329
510.571	5995
510.643	4827
510.715	6697
510.787	5807
510.859	5582
510.931	6119
511.003	7150
511.076	7999
511.148	4433
511.219	4098
511.291	6787
511.363	8953
511.435	4416
511.507	3444
511.579	5155
511.651	4353
511.723	4562
511.795	3816
511.867	3798
511.939	4889
512.010	7952
512.082	8115
512.154	4247
512.226	5074
512.298	7575
512.369	11064
512.441	9232
512.513	8126
512.585	5110
512.656	6539
512.728	6653
512.800	6130
512.871	5609
512.943	5538
513.015	4093
513.086	5179
513.158	4523
513.230	4587
513.301	5871
513.373	7897
513.444	4464
513.516	4327
513.588	3707
513.659	4819
513.731	5031
513.802	4196
513.874	7955
513.945	11953
514.016	5663
514.088	3815
514.159	3687
514.231	6563
514.302	8878
514.374	8254
514.445	6347
514.516	12039
514.588	9176
514.659	6250
514.730	10098
514.802	9422
514.873	6889
514.944	10680
515.016	6390
515.087	6594
515.158	8031
515.229	11747
515.301	8111
515.372	13753
515.443	8343
515.514	5290
515.585	3704
515.656	6072
515.728	4781
515.799	4616
515.870	4742
515.941	4891
516.012	4505
516.083	6983
516.154	5653
516.225	7717
516.296	7490
516.367	6364
516.438	5222
516.509	7056
516.580	8335
516.651	19315
516.722	60744
516.793	41277
516.864	9610
516.935	10020
517.006	10647
517.077	12273
517.148	21338
517.219	57581
517.289	107764
517.360	55516
517.431	25733
517.502	6310
517.573	7336
517.643	6235
517.714	7007
517.785	7276
517.856	5872
517.926	8333
517.997	8824
518.068	8980
518.138	11556
518.209	13315
518.280	36537
518.350	152114
518.421	77622
518.492	10800
518.562	7055
518.633	8089
518.703	6417
518.774	11780
518.845	22964
518.915	26628
518.986	10567
519.056	8840
519.127	11119
519.197	17932
519.268	46108
519.338	39682
519.408	8876
519.479	9032
519.549	6571
519.620	6498
519.690	4902
519.760	5207
519.831	3850
519.901	5560
519.971	4628
520.042	4435
520.112	4256
520.182	5493
520.253	5588
520.323	5705
520.393	6448
520.463	10819
520.534	4240
520.604	12932
520.674	7270
520.744	6219
520.814	12135
520.885	12787
520.955	14661
521.025	59124
521.095	29786
521.165	6980
521.235	3771
521.305	4802
521.375	4117
521.445	4778
521.515	3656
521.585	6115
521.655	3935
521.725	5583
521.795	5232
521.865	2345
521.935	7396
522.005	4907
522.075	2944
522.145	4102
522.215	4178
522.285	6265
522.355	7226
522.424	14043
522.494	12561
522.564	7017
522.634	8780
522.704	25863
522.774	12670
522.843	5076
522.913	3730
522.983	4343
523.053	3243
523.122	4538
523.192	4804
523.262	10937
523.331	13308
523.401	5142
523.471	3638
523.540	3891
523.610	2040
523.680	2690
523.749	3748
523.819	4571
523.888	3919
523.958	2691
524.027	3089
524.097	3703
524.166	3110
524.236	2438
524.305	3412
524.375	2336
524.444	2638
524.514	4631
524.583	3436
524.653	4026
524.722	5000
524.791	2496
524.861	2727
524.930	2984
524.999	1876
525.069	5205
525.138	3591
525.207	4468
525.277	4058
525.346	3459
525.415	3378
525.484	2807
525.554	3371
525.623	4452
525.692	3442
525.761	4955
525.830	3672
525.900	4006
525.969	6391
526.038	9189
526.107	13299
526.176	44242
526.245	41762
526.314	15832
526.383	22602
526.452	33304
526.522	51939
526.591	68272
526.660	18784
526.729	11274
526.797	11388
526.867	18732
526.935	81455
527.004	142315
527.073	93179
527.142	10228
527.211	4506
527.280	5092
527.349	3831
527.418	2190
527.487	3999
527.555	2041
527.624	2274
527.693	2085
527.762	3392
527.831	1333
527.899	1989
527.968	2972
528.037	996
528.106	4212
528.174	5375
528.243	4915
528.312	5137
528.380	7102
528.449	2022
528.518	3823
528.586	366
528.655	2503
528.723	2700
528.792	1729
528.861	1646
528.929	1482
528.998	3766
529.066	1744
529.135	2611
529.203	1956
529.272	1540
529.340	3357
529.409	4331
529.477	2000
529.545	2596
529.614	5475
529.682	2648
529.751	5123
529.819	6162
529.887	3931
529.956	3468
530.024	3856
530.092	2613
530.161	3739
530.229	3948
530.297	2691
530.365	3472
530.434	3328
530.502	1716
530.570	3188
530.638	1532
530.707	3056
530.775	3769
530.843	1762
530.911	2316
530.979	2804
531.047	2406
531.115	3406
531.183	2771
531.252	3737
531.320	2262
531.388	3197
531.456	2160
531.524	1656
531.592	2975
531.660	4675
531.728	2375
531.796	3304
531.864	3238
531.932	3546
532.000	2284
532.067	3514
532.135	2469
532.203	4572
532.271	3818
532.339	6350
532.407	11141
532.475	9017
532.542	4395
532.610	5694
532.678	5240
532.746	18157
532.814	57985
532.881	19794
532.949	4826
533.017	4644
533.084	3359
533.152	3477
533.220	2960
533.287	3143
533.355	3352
533.423	3581
533.490	2939
533.558	2794
533.625	2942
533.693	4160
533.761	4231
533.828	4297
533.896	2938
533.963	5597
534.031	7170
534.098	9201
534.166	4748
534.233	3130
534.300	4712
534.368	3982
534.435	3754
534.503	3745
534.570	4106
534.637	3289
534.705	3555
534.772	4474
534.840	5444
534.907	18941
534.974	30957
535.041	6144
535.109	4314
535.176	3435
535.243	3370
535.310	3317
535.378	2603
535.445	3204
535.512	2876
535.579	3347
535.646	2400
535.714	3320
535.781	4534
535.848	4684
535.915	4325
535.982	4043
536.049	3489
536.116	5239
536.183	3753
536.250	3640
536.317	2878
536.384	4266
536.451	4184
536.518	5658
536.585	1754
536.652	5298
536.719	5927
536.786	4477
536.853	4145
536.920	5450
536.987	7480
537.053	6672
537.120	25813
537.187	29480
537.254	4694
537.321	2942
537.388	3706
537.454	2587
537.521	3284
537.588	2664
537.654	3901
537.721	4481
537.788	4762
537.855	3451
537.921	3393
537.988	4214
538.055	4401
538.121	3412
538.188	4056
538.254	4433
538.321	7144
538.388	5859
538.454	3128
538.521	3657
538.587	3052
538.654	3006
538.720	3301
538.787	3367
538.853	2665
538.920	4727
538.986	3587
539.053	3804
539.119	4133
539.185	3271
539.252	4585
539.318	5166
539.385	5707
539.451	4622
539.517	5485
539.583	4843
539.650	7871
539.716	21348
539.782	9067
539.849	3249
539.915	3962
539.981	3677
540.047	3882
540.114	3958
540.180	4093
540.246	3699
540.312	4576
540.378	7448
540.444	8603
540.510	7765
540.576	23267
540.643	10628
540.709	3220
540.775	3437
540.841	3779
540.907	5347
540.973	7494
541.039	5752
541.105	5720
541.171	3965
541.237	2889
541.303	4002
541.369	5913
541.435	4624
541.500	7118
541.566	5414
541.632	3229
541.698	3491
541.764	4043
541.830	3501
541.896	2871
541.961	4183
542.027	3738
542.093	4057
542.159	4164
542.224	3042
542.290	5094
542.356	6795
542.421	8862
542.487	5105
542.553	3916
542.618	5021
542.684	4670
542.750	4034
542.815	4795
542.881	6921
542.947	19439
543.012	18309
543.078	3138
543.143	4093
543.209	4586
543.274	3856
543.340	4923
543.405	8010
543.471	13780
543.536	4654
543.602	3360
543.667	3172
543.732	4376
543.798	3747
543.863	4129
543.928	3687
543.994	2664
544.059	4225
544.124	3544
544.190	3210
544.255	4331
544.320	4283
544.386	2648
544.451	5296
544.516	4854
544.581	6432
544.646	12294
544.712	23720
544.777	7443
544.842	5694
544.907	5067
544.972	5313
545.037	4647
545.102	5792
545.168	5155
545.233	5599
545.298	6046
545.363	6247
545.428	6288
545.493	9708
545.558	16942
545.623	10712
545.688	5015
545.753	5713
545.818	5161
545.883	6235
545.947	4816
546.012	5692
546.077	5789
546.142	6938
546.207	4518
546.272	6226
546.337	6266
546.401	7452
546.466	5944
546.531	5353
546.596	6191
546.661	6296
546.725	6445
546.790	5688
546.855	6240
546.919	6172
546.984	6638
547.049	7446
547.113	9242
547.178	8517
547.243	9018
547.307	10472
547.372	11040
547.436	11121
547.501	10825
547.565	11202
547.630	11497
547.695	11009
547.759	11827
547.823	10732
547.888	9829
547.952	11443
548.017	10980
548.081	12114
548.146	12993
548.210	13455
548.274	11649
548.339	11563
548.403	11587
548.468	9736
548.532	9703
548.596	9897
548.660	9959
548.725	11814
548.789	11196
548.853	13269
548.917	11450
548.982	12730
549.046	12527
549.110	9588
549.174	10010
549.238	9681
549.303	10063
549.367	12566
549.431	11211
549.495	10587
549.559	9877
549.623	13031
549.687	13332
549.751	14814
549.815	15227
549.879	16141
549.943	14091
550.007	15570
550.071	14838
550.135	14827
550.199	12924
550.263	14000
550.327	13441
550.391	14486
550.455	14389
550.519	14686
550.582	15733
550.646	17512
550.710	17804
550.774	17448
550.838	16087
550.901	16562
550.965	18214
551.029	18188
551.093	20856
551.156	22407
551.220	29335
551.284	35713
551.347	23408
551.411	28645
551.475	32794
551.538	19582
551.602	16877
551.666	15808
551.729	14183
551.793	15152
551.856	14518
551.920	15013
551.983	15064
552.047	14327
552.110	14337
552.174	14077
552.237	14076
552.301	13880
552.364	13383
552.428	13651
552.491	12505
552.554	13965
552.618	13596
552.681	14611
552.745	12704
552.808	15252
552.871	16108
552.934	15460
552.998	14057
553.061	13928
553.124	13510
553.187	14525
553.251	14051
553.314	15902
553.377	14801
553.440	19033
553.503	34639
553.567	62447
553.630	23318
553.693	14847
553.756	14561
553.819	14033
553.882	13230
553.945	14324
554.008	13390
554.071	13142
554.134	14042
554.197	12546
554.260	13358
554.323	14218
554.386	13286
554.449	13540
554.512	13941
554.575	13312
554.638	13122
554.701	13232
554.764	12221
554.827	13338
554.889	11790
554.952	11184
555.015	11102
555.078	10812
555.141	11943
555.203	11551
555.266	10968
555.329	12051
555.391	11020
555.454	11294
555.517	10731
555.580	9942
555.642	9911
555.705	9422
555.768	9991
555.830	9856
555.893	9158
555.955	9036
556.018	9487
556.080	8863
556.143	9514
556.206	8378
556.268	8527
556.330	9011
556.393	9089
556.455	8992
556.518	10504
556.580	10795
556.643	7951
556.705	8728
556.767	7120
556.830	8696
556.892	7587
556.955	9176
557.017	7866
557.079	8455
557.142	7722
557.204	7907
557.266	10649
557.328	10719
557.391	6310
557.453	6287
557.515	7111
557.577	7665
557.639	7537
557.701	7191
557.764	6682
557.826	6973
557.888	7802
557.950	6474
558.012	7860
558.074	8190
558.136	14600
558.198	38465
558.260	19322
558.322	7914
558.384	9257
558.446	9222
558.508	10381
558.570	12957
558.632	16211
558.694	22471
558.756	24130
558.818	63308
558.880	195749
558.942	75941
559.003	40687
559.065	25648
559.127	11020
559.189	11444
559.251	11332
559.312	13942
559.374	28766
559.436	110844
559.498	72123
559.559	12957
559.621	10565
559.683	11598
559.744	16399
559.806	46512
559.868	87602
559.929	22068
559.991	10944
560.052	13890
560.114	34048
560.176	29065
560.237	19665
560.299	36327
560.360	12666
560.422	6415
560.483	5710
560.545	6345
560.606	5217
560.667	6400
560.729	5335
560.790	5854
560.852	4718
560.913	4381
560.974	4478
561.036	5451
561.097	5891
561.158	5735
561.220	5727
561.281	4515
561.342	4211
561.403	6540
561.465	5705
561.526	11075
561.587	14250
561.648	7059
561.709	5924
561.771	5866
561.832	4930
561.893	6109
561.954	5135
562.015	5432
562.076	5315
562.137	5747
562.198	5135
562.259	5462
562.320	4889
562.381	4817
562.442	5727
562.503	6221
562.564	5849
562.625	6318
562.686	4665
562.747	5319
562.808	5599
562.869	5342
562.930	5893
562.991	6536
563.051	5800
563.112	6040
563.173	5412
563.234	5091
563.294	5762
563.355	6268
563.416	5305
563.477	5484
563.537	6050
563.598	5673
563.659	5719
563.720	4836
563.780	4450
563.841	5388
563.901	5819
563.962	5449
564.023	6021
564.083	5406
564.144	5330
564.204	5903
564.265	5831
564.325	6287
564.386	9171
564.446	10391
564.507	5339
564.567	5277
564.628	5299
564.688	5450
564.749	5221
564.809	6060
564.869	6339
564.930	5876
564.990	5708
565.050	4882
565.111	5850
565.171	5339
565.231	5522
565.292	5931
565.352	4068
565.412	5839
565.472	4792
565.532	5388
565.593	6128
565.653	6287
565.713	5683
565.773	6156
565.833	6125
565.893	7808
565.953	6161
566.013	6035
566.074	6483
566.134	7507
566.194	10320
566.254	11317
566.314	7657
566.374	6743
566.434	6441
566.494	7591
566.554	6723
566.614	7883
566.673	7808
566.733	7317
566.793	7654
566.853	8610
566.913	9122
566.973	9481
567.033	9210
567.092	9190
567.152	8883
567.212	9229
567.272	8934
567.331	10518
567.391	9726
567.451	10424
567.511	12410
567.570	12330
567.630	9991
567.690	10755
567.749	10089
567.809	10542
567.868	12751
567.928	14514
567.988	15812
568.047	18610
568.107	22542
568.166	31898
568.226	51406
568.285	78173
568.345	67751
568.404	50280
568.464	39681
568.523	35515
568.582	36709
568.642	39773
568.701	49494
568.761	74498
568.820	127089
568.879	135238
568.939	93486
568.998	64229
569.057	46392
569.116	35679
569.176	28925
569.235	22987
569.294	19483
569.353	16455
569.413	14437
569.472	13788
569.531	12531
569.590	11105
569.649	10886
569.708	10638
569.767	9235
569.827	9982
569.886	8082
569.945	8114
570.004	8000
570.063	7665
570.122	7443
570.181	7552
570.240	7951
570.299	7616
570.358	8187
570.417	7105
570.475	5913
570.534	7141
570.593	6411
570.652	6730
570.711	6405
570.770	6333
570.829	7153
570.887	6550
570.946	6133
571.005	5089
571.064	4845
571.122	5440
571.181	5663
571.240	6407
571.299	4973
571.357	6109
571.416	5532
571.475	6068
571.533	6555
571.592	5581
571.650	4918
571.709	5664
571.768	4730
571.826	5074
571.885	4995
571.943	5005
572.002	4123
572.060	5278
572.119	4144
572.177	5605
572.236	4421
572.294	4300
572.352	4032
572.411	4293
572.469	4205
572.528	4284
572.586	3452
572.644	4598
572.703	6790
572.761	5083
572.819	5219
572.877	5115
572.936	3861
572.994	4353
573.052	4152
573.110	5232
573.169	4540
573.227	4119
573.285	3596
573.343	3735
573.401	4590
573.459	4838
573.517	4072
573.576	4242
573.634	4948
573.692	4052
573.750	3576
573.808	4546
573.866	4184
573.924	5323
573.982	5813
574.040	4945
574.098	4842
574.155	4719
574.213	3837
574.271	4490
574.329	4318
574.387	4291
574.445	3540
574.503	3915
574.560	3251
574.618	3283
574.676	3394
574.734	3194
574.792	2958
574.849	4168
574.907	3455
574.965	4710
575.022	2445
575.080	3908
575.138	4093
575.195	4545
575.253	4516
575.311	4329
575.368	3760
575.426	3736
575.483	3651
575.541	4020
575.598	2950
575.656	4844
575.713	3801
575.771	4883
575.828	3689
575.886	4483
575.943	3862
576.001	5087
576.058	4192
576.115	4974
576.173	4076
576.230	4332
576.287	5174
576.345	5391
576.402	3812
576.459	3904
576.517	4015
576.574	4400
576.631	5218
576.688	4370
576.746	4271
576.803	4598
576.860	3303
576.917	5623
576.974	4394
577.031	3963
577.089	4194
577.146	4510
577.203	4188
577.260	4872
577.317	4994
577.374	4894
577.431	4166
577.488	4164
577.545	3693
577.602	4777
577.659	5131
577.716	4644
577.773	5147
577.830	5344
577.886	4071
577.943	4559
578.000	3852
578.057	4470
578.114	5414
578.171	5704
578.227	5987
578.284	5872
578.341	4172
578.398	5394
578.454	4694
578.511	5462
578.568	6305
578.625	5490
578.681	4167
578.738	5330
578.794	4442
578.851	6045
578.908	5002
578.964	4995
579.021	5409
579.077	4999
579.134	5586
579.190	4688
579.247	4457
579.303	5017
579.360	3502
579.416	5218
579.473	4038
579.529	4226
579.586	4321
579.642	5337
579.698	5037
579.755	4966
579.811	5350
579.867	5760
579.924	4892
579.980	4935
580.036	6561
580.093	6136
580.149	7653
580.205	8813
580.261	6455
580.317	6249
580.374	6170
580.430	6267
580.486	6807
580.542	5243
580.598	5655
580.619	5555
580.654	5382
580.692	5206
580.710	5121
580.765	6217
580.767	6252
580.823	5930
580.838	5936
580.879	5964
580.911	5311
580.935	4838
580.984	4960
580.991	4974
581.047	5666
581.057	5754
581.103	6142
581.130	6085
581.159	6037
581.203	6647
581.215	6800
581.270	6301
581.276	6360
581.326	6892
581.349	6244
581.382	5300
581.422	5496
581.438	5590
581.494	6073
581.494	6078
581.550	6342
581.567	5985
581.606	5172
581.640	5845
581.661	6291
581.713	6853
581.717	6883
581.773	6484
581.786	6567
581.829	6984
581.859	6792
581.885	6575
581.932	6586
581.940	6605
581.996	6986
582.004	7057
582.052	7271
582.077	7051
582.107	6858
582.150	6574
582.163	6460
582.219	7104
582.223	7140
582.274	7634
582.296	7622
582.330	7558
582.368	7194
582.386	7104
582.441	7761
582.441	7758
582.497	7739
582.514	7823
582.552	8370
582.587	8255
582.608	8041
582.659	7767
582.663	7755
582.719	8258
582.732	8202
582.774	8019
582.805	8256
582.830	8505
582.877	8994
582.885	9035
582.941	8166
582.950	8129
582.996	8153
583.023	8805
583.052	9433
583.095	9270
583.107	9319
583.162	10722
583.168	10865
583.218	11602
583.240	10763
583.273	9616
583.313	9684
583.328	9692
583.384	9362
583.385	9364
583.439	9516
583.458	9219
583.494	8591
583.531	9042
583.549	9403
583.603	9737
583.605	9739
583.660	10025
583.676	9792
583.715	9370
583.748	9839
583.770	10108
583.820	10110
583.825	10119
583.881	10819
583.893	10642
583.936	10122
583.965	10587
583.991	10851
584.038	11088
584.046	11148
584.101	11539
584.110	11444
584.156	11303
584.183	11564
584.211	11663
584.255	11561
584.266	11605
584.321	11931
584.328	12001
584.376	12283
584.400	12328
584.431	12650
584.472	12884
584.486	12889
584.541	13398
584.545	13349
584.596	12978
584.617	13352
584.651	13855
584.689	13874
584.706	13994
584.761	14824
584.762	14813
584.816	14489
584.834	14613
584.871	15324
584.906	15867
584.926	15939
584.978	15835
584.980	15863
585.035	16160
585.051	16566
585.090	17780
585.123	17710
585.145	17656
585.195	18576
585.200	18691
585.254	19874
585.267	19957
585.309	20530
585.340	21637
585.364	22261
585.412	22773
585.419	22874
585.473	23472
585.484	23422
585.528	23790
585.556	25316
585.583	28101
585.628	33511
585.637	35633
585.692	53942
585.700	57865
585.747	76434
585.772	71244
585.801	54190
585.845	32593
585.856	29813
585.910	26329
585.917	25996
585.965	26392
585.989	26206
586.019	26073
586.061	26236
586.074	26414
586.128	27472
586.133	27483
586.183	28294
586.205	28668
586.237	29236
586.277	29406
586.292	29591
586.346	30741
586.349	30757
586.401	31696
586.421	31829
586.455	32923
586.493	34405
586.509	35301
586.564	37981
586.565	38030
586.618	45916
586.637	47354
586.672	45040
586.709	41401
586.727	40510
586.781	39930
586.781	40011
586.835	40968
586.853	41414
586.889	42539
586.925	42700
586.944	43089
586.996	45107
586.998	45272
587.052	47614
587.068	48145
587.106	49473
587.140	50796
587.161	52038
587.212	54198
587.215	54415
587.269	56919
587.284	57498
587.323	60119
587.356	61960
587.377	63512
587.427	66991
587.431	67413
587.485	71978
587.499	72652
587.539	75226
587.571	77902
587.593	80720
587.643	85664
587.648	86318
587.702	92398
587.715	93436
587.755	99615
587.786	104695
587.810	108337
587.858	114402
587.864	115757
587.917	127302
587.930	129812
587.971	140465
588.001	148015
588.025	155017
588.073	167151
588.079	169564
588.133	189855
588.145	193788
588.187	212558
588.217	225775
588.241	240082
588.288	267188
588.295	272200
588.348	310580
588.360	318176
588.402	356535
588.431	383022
588.456	413292
588.503	470079
588.510	482409
588.564	577386
588.575	596042
588.617	698623
588.646	769886
588.671	856477
588.718	1020269
588.725	1051563
588.778	1282594
588.789	1325581
588.832	1419684
588.861	1470566
588.886	1377341
588.932	1147405
588.939	1125364
588.993	923992
589.004	900552
589.047	1239433
589.075	1451166
589.100	1494538
589.147	1519176
589.154	1499844
589.207	1309921
589.218	1269002
589.261	1174403
589.290	1111616
589.314	1124782
589.361	1151716
589.368	1171743
589.421	1322033
589.433	1350885
589.475	1404944
589.504	1427773
589.528	1324176
589.576	1069314
589.582	1088457
589.635	1291131
589.647	1329141
589.689	1364988
589.718	1361641
589.742	1231702
589.790	960846
589.795	941056
589.849	735519
589.861	687136
589.902	592743
589.932	521166
589.955	485328
590.004	406817
590.009	402818
590.062	347808
590.075	333409
590.115	303397
590.146	279065
590.168	268048
590.218	241183
590.222	240178
590.275	217514
590.289	210915
590.328	199055
590.360	188666
590.381	183413
590.431	168661
590.435	168415
590.488	155375
590.503	151195
590.541	145363
590.574	139554
590.594	136981
590.645	128606
590.647	128782
590.700	122263
590.716	119853
590.753	116136
590.787	112158
590.806	110737
590.859	105108
590.859	105391
590.912	100556
590.930	98658
590.965	96771
591.001	94317
591.018	93396
591.071	89478
591.072	89124
591.124	87118
591.143	85916
591.177	84318
591.214	82014
591.230	81731
591.283	79927
591.285	79565
591.336	76662
591.356	75095
591.389	74558
591.427	73379
591.442	73161
591.495	71283
591.498	70890
591.547	69113
591.569	67928
591.600	66935
591.640	64959
591.653	64935
591.706	63927
591.711	63589
591.759	63739
591.782	63409
591.811	63820
591.853	63909
591.864	63554
591.917	60458
591.924	59784
591.969	59243
591.995	58597
592.022	58367
592.066	57461
592.075	57712
592.127	57850
592.137	57678
592.180	59013
592.208	59454
592.233	57816
592.279	54112
592.285	54175
592.338	53002
592.350	52539
592.390	51709
592.421	50743
592.443	50727
592.491	50097
592.495	50301
592.548	50548
592.562	50428
592.600	49411
592.633	48186
592.653	48146
592.704	47314
592.705	47581
592.775	47194
592.846	46121
592.916	46855
592.987	46842
593.058	46786
593.128	42607
593.199	42861
593.270	42015
593.341	41321
593.411	40055
593.482	40898
593.553	40159
593.623	39441
593.694	39073
593.764	40825
593.835	39070
593.906	38712
593.976	37790
594.047	39255
594.117	39755
594.188	39420
594.258	36517
594.329	35374
594.399	35709
594.470	34574
594.540	35073
594.611	35084
594.681	33133
594.751	33872
594.822	35188
594.892	35925
594.963	35719
595.033	35040
595.103	34281
595.174	35839
595.244	39730
595.314	44941
595.384	34712
595.455	33342
595.525	34032
595.595	33550
595.665	33636
595.736	34645
595.806	33669
595.876	33408
595.946	33132
596.016	33184
596.087	33844
596.157	33278
596.227	32604
596.297	33738
596.367	35139
596.437	36273
596.507	39180
596.577	44465
596.647	35969
596.717	34691
596.787	35067
596.857	35079
596.927	34176
596.997	35545
597.067	34088
597.137	37965
597.207	36805
597.277	34742
597.347	34932
597.417	34041
597.487	34984
597.557	35394
597.626	34215
597.696	36699
597.766	38575
597.836	41811
597.906	35896
597.975	33066
598.045	31831
598.115	33015
598.185	33913
598.254	35282
598.324	37343
598.394	37985
598.464	36286
598.533	36833
598.603	34578
598.672	35350
598.742	35525
598.812	34015
598.881	34318
598.951	34801
599.020	34257
599.090	34549
599.159	35553
599.229	34820
599.299	33540
599.368	34361
599.437	33846
599.507	33038
599.576	32845
599.646	34682
599.715	35478
599.785	33446
599.854	32707
599.924	34179
599.993	32891
600.062	32463
600.132	31972
600.201	33571
600.270	36867
600.340	36608
600.409	36423
600.478	37231
600.547	36105
600.617	36352
600.686	32883
600.755	32600
600.824	30838
600.894	31461
600.963	30173
601.032	30271
601.101	30555
601.170	30153
601.239	29295
601.308	30692
601.378	30304
601.447	31472
601.516	30402
601.585	32225
601.654	30906
601.723	32255
601.792	31265
601.861	33947
601.930	35409
601.999	34575
602.068	33028
602.137	34498
602.206	34677
602.275	33962
602.343	34607
602.412	36339
602.481	34014
602.550	34262
602.619	34117
602.688	35565
602.756	34673
602.825	35684
602.894	35794
602.963	34506
603.032	35605
603.100	34646
603.169	34613
603.238	35754
603.307	34891
603.375	35004
603.444	35959
603.513	34075
603.581	34328
603.650	35782
603.719	33777
603.787	32901
603.856	32526
603.924	34065
603.993	34791
604.061	35360
604.130	35173
604.198	36584
604.267	36528
604.335	36970
604.404	37404
604.472	37990
604.541	37914
604.609	38133
604.678	39114
604.746	38938
604.815	39496
604.883	40306
604.951	39894
605.020	39845
605.088	38681
605.156	38186
605.225	38565
605.293	37510
605.361	37891
605.429	39247
605.498	39369
605.566	39551
605.634	40725
605.702	41862
605.771	41235
605.839	43288
605.907	40903
605.975	40761
606.043	39787
606.111	39834
606.180	41231
606.248	42313
606.316	41964
606.384	40405
606.452	41411
606.520	37416
606.588	36304
606.656	35195
606.724	34217
606.792	33620
606.860	31324
606.928	28017
606.996	28808
607.064	27251
607.132	27479
607.200	29782
607.267	29989
607.335	29772
607.403	31308
607.471	30941
607.539	29356
607.607	30350
607.674	27397
607.742	28309
607.810	27531
607.878	26433
607.946	27501
608.013	28201
608.081	28528
608.149	28839
608.216	28064
608.284	30017
608.352	29974
608.419	29865
608.487	33741
608.555	29750
608.622	29953
608.690	29797
608.757	32127
608.825	33684
608.893	32205
608.960	32903
609.028	34393
609.095	34927
609.163	30237
609.230	28664
609.298	27018
609.365	26935
609.432	28743
609.500	30743
609.567	32682
609.635	38013
609.702	38944
609.769	37820
609.837	33480
609.904	28766
609.971	28073
610.039	33103
610.106	37805
610.173	61823
610.241	128966
610.308	117952
610.375	63677
610.442	33897
610.509	28986
610.577	29357
610.644	28453
610.711	29976
610.778	29914
610.845	31657
610.912	32434
610.980	34764
611.047	39002
611.114	37347
611.181	31816
611.248	29425
611.315	32266
611.382	32893
611.449	33660
611.516	34988
611.583	34514
611.650	33531
611.717	34814
611.784	35384
611.851	36379
611.918	39524
611.984	43737
612.051	58171
612.118	110841
612.185	262241
612.252	205004
612.319	54367
612.386	42697
612.452	40233
612.519	39538
612.586	42408
612.653	39471
612.719	39000
612.786	37588
612.853	34266
612.919	33462
612.986	35053
613.053	33288
613.120	31276
613.186	29953
613.253	32895
613.319	30451
613.386	31765
613.453	32114
613.519	33219
613.586	35284
613.652	39437
613.719	35602
613.785	35299
613.852	32663
613.918	31754
613.985	34226
614.051	39192
614.118	55063
614.184	60437
614.250	34081
614.317	32968
614.383	30805
614.449	32132
614.516	32545
614.582	32269
614.648	33051
614.715	31402
614.781	31602
614.847	31933
614.914	31822
614.980	32701
615.046	33092
615.112	32500
615.179	33526
615.245	38092
615.311	48197
615.377	80137
615.443	94476
615.509	54112
615.575	40418
615.642	37842
615.708	37524
615.774	40496
615.840	45861
615.906	56728
615.972	87760
616.038	170293
616.104	251340
616.170	370998
616.236	358294
616.302	87623
616.368	54699
616.434	45952
616.500	41998
616.565	41223
616.631	47480
616.697	43823
616.763	42376
616.829	52732
616.895	79989
616.961	83474
617.026	47830
617.092	35855
617.158	34823
617.224	33097
617.289	32434
617.355	30833
617.421	31381
617.487	33027
617.552	30485
617.618	29019
617.684	28716
617.749	32024
617.815	28866
617.880	28767
617.946	27970
618.012	29883
618.077	29509
618.143	28742
618.208	28908
618.274	30395
618.339	31511
618.405	27479
618.470	27947
618.536	28299
618.601	29086
618.667	28134
618.732	26304
618.798	25935
618.863	25383
618.928	26438
618.994	27683
619.059	27999
619.124	31570
619.190	28876
619.255	25236
619.320	26446
619.386	25761
619.451	25406
619.516	24923
619.581	25961
619.647	25352
619.712	26289
619.777	24856
619.842	27056
619.907	25503
619.972	25807
620.038	25636
620.103	26588
620.168	24030
620.233	25514
620.298	24224
620.363	26363
620.428	25409
620.493	26419
620.558	25153
620.623	26036
620.688	25478
620.753	26197
620.818	26188
620.883	27169
620.948	26162
621.013	26725
621.078	26135
621.143	25057
621.207	27792
621.272	27061
621.337	27363
621.402	28302
621.467	31789
621.532	32966
621.596	29442
621.661	29059
621.726	27417
621.791	27838
621.855	28048
621.920	28574
621.985	28863
622.049	31046
622.114	30080
622.179	28765
622.243	30495
622.308	30356
622.373	31416
622.437	30734
622.502	29265
622.566	30320
622.631	29684
622.695	29771
622.760	30313
622.824	29791
622.889	28915
622.953	31036
623.018	35725
623.082	36649
623.147	29834
623.211	30249
623.276	30344
623.340	28664
623.404	28250
623.469	28561
623.533	28791
623.597	27197
623.662	27716
623.726	27279
623.790	25708
623.854	26594
623.919	26172
623.983	25703
624.047	26339
624.111	26933
624.176	25758
624.240	28424
624.304	29335
624.368	26846
624.432	25967
624.496	27401
624.560	28419
624.625	28119
624.689	27804
624.753	27497
624.817	26946
624.881	26694
624.945	24970
625.009	23562
625.073	25020
625.137	25083
625.201	28170
625.265	28823
625.329	25970
625.393	26276
625.456	25332
625.520	25802
625.584	27222
625.648	30258
625.712	36757
625.776	62629
625.839	73290
625.903	39923
625.967	25162
626.031	33589
626.095	47152
626.158	27519
626.222	20410
626.286	21537
626.349	19046
626.413	19011
626.477	21211
626.540	19344
626.604	18521
626.668	19968
626.731	18860
626.795	18739
626.858	19480
626.922	18449
626.986	18877
627.049	18085
627.113	19086
627.176	18248
627.240	17713
627.303	18715
627.366	18686
627.430	18212
627.493	18822
627.557	18694
627.620	19408
627.684	17966
627.747	18300
627.810	16896
627.874	17025
627.937	15757
628.000	18461
628.064	17560
628.127	14663
628.190	16351
628.253	16355
628.317	15278
628.380	14977
628.443	15136
628.506	14766
628.569	14888
628.632	12987
628.696	14424
628.759	14351
628.822	13944
628.885	13598
628.948	14839
629.011	13667
629.074	13355
629.137	12875
629.200	13589
629.263	14860
629.326	13004
629.389	13446
629.452	13604
629.515	13187
629.578	13121
629.641	13510
629.704	13926
629.767	13647
629.830	13188
629.892	12783
629.955	11374
630.018	13480
630.081	13105
630.144	15326
630.207	12282
630.269	13943
630.332	13601
630.395	13224
630.458	12562
630.520	11689
630.583	12771
630.646	11446
630.708	11940
630.771	12080
630.834	12565
630.896	10846
630.959	12550
631.021	11399
631.084	11568
631.146	12205
631.209	12809
631.272	11362
631.334	11100
631.397	10255
631.459	10913
631.522	10873
631.584	11779
631.646	12109
631.709	11916
631.771	13493
631.834	12534
631.896	11569
631.958	9918
632.021	10771
632.083	11122
632.145	11870
632.208	10752
632.270	11609
632.332	9947
632.395	9879
632.457	11771
632.519	10410
632.581	10867
632.643	9591
632.706	11152
632.768	9615
632.830	10814
632.892	10598
632.954	9747
633.016	11677
633.078	9880
633.141	9289
633.203	9240
633.265	10484
633.327	10246
633.389	9230
633.451	12372
633.513	11329
633.575	11296
633.637	11566
633.698	11428
633.760	11006
633.822	9967
633.884	10112
633.946	10035
634.008	10071
634.070	10361
634.132	12503
634.193	11812
634.255	10243
634.317	9559
634.379	10584
634.441	10685
634.502	10153
634.564	10548
634.626	9793
634.687	9912
634.749	9421
634.811	9383
634.873	8886
634.934	9559
634.996	9905
635.057	8272
635.119	8093
635.181	9778
635.242	10143
635.304	7458
635.365	10849
635.427	9002
635.488	8155
635.550	8624
635.611	9649
635.673	8115
635.734	11455
635.796	9971
635.857	9969
635.918	8775
635.980	10085
636.041	9494
636.102	9908
636.164	10225
636.225	9873
636.286	8549
636.348	10239
636.409	9253
636.470	8499
636.531	9588
636.593	9236
636.654	9132
636.715	7930
636.776	8456
636.838	7328
636.899	9042
636.960	7260
637.021	8165
637.082	6966
637.143	8161
637.204	7673
637.265	7185
637.326	7911
637.387	7984
637.448	7388
637.509	8151
637.570	7240
637.631	8224
637.692	6675
637.753	7309
637.814	7349
637.875	7552
637.936	8222
637.997	6844
638.058	6959
638.119	8725
638.179	7209
638.240	8023
638.301	7073
638.362	6948
638.423	6769
638.483	8626
638.544	6529
638.605	7164
638.666	6433
638.726	7742
638.787	8086
638.848	7727
638.908	7087
638.969	6667
639.030	7441
639.090	6750
639.151	6588
639.211	7006
639.272	8362
639.332	10808
639.393	8580
639.453	6522
639.514	6910
639.574	6717
639.635	6039
639.695	7530
639.756	6313
639.816	7116
639.877	7074
639.937	10310
639.997	11524
640.058	6948
640.118	5891
640.178	6483
640.239	6028
640.299	6014
640.359	6165
640.420	6890
640.480	6708
640.540	5898
640.600	6571
640.661	7409
640.721	6233
640.781	9409
640.841	6627
640.901	7616
640.961	6524
641.021	7237
641.082	6453
641.142	8044
641.202	7455
641.262	5590
641.322	6583
641.382	5303
641.442	6466
641.502	6472
641.562	6551
641.622	5102
641.682	5971
641.742	6017
641.802	6861
641.861	7384
641.921	5408
641.981	7604
642.041	7272
642.101	7855
642.161	6217
642.221	5748
642.280	5374
642.340	5193
642.400	4456
642.460	6399
642.519	5173
642.579	7060
642.639	6138
642.698	3045
642.758	7935
642.818	5308
642.877	4975
642.937	6353
642.997	6386
643.056	8613
643.116	5754
643.175	7596
643.235	5808
643.294	6770
643.354	6429
643.414	6582
643.473	6598
643.532	6971
643.592	8356
643.651	13929
643.711	23215
643.770	42142
643.830	94051
643.889	232367
643.948	70732
644.008	11407
644.067	7406
644.126	6413
644.186	6715
644.245	6193
644.304	4743
644.363	6655
644.423	4332
644.482	5251
644.541	5804
644.600	3589
644.659	6396
644.719	6147
644.778	8225
644.837	10687
644.896	19795
644.955	43952
645.014	20695
645.073	8337
645.132	6201
645.191	6497
645.250	4833
645.309	7325
645.368	5272
645.427	6424
645.486	6945
645.545	10920
645.604	6041
645.663	6111
645.722	5210
645.781	6785
645.840	5794
645.898	6554
645.957	10024
646.016	10654
646.075	20345
646.134	37718
646.192	89275
646.251	161164
646.310	29681
646.369	9239
646.427	7654
646.486	5029
646.545	5705
646.603	5155
646.662	5340
646.721	5662
646.779	4795
646.838	4611
646.896	5484
646.955	5617
647.014	8071
647.072	10499
647.131	26768
647.189	17841
647.248	5580
647.306	5539
647.365	5096
647.423	3499
647.481	5342
647.540	3792
647.598	4306
647.657	4141
647.715	4717
647.773	3875
647.832	5203
647.890	3936
647.948	2724
648.007	5432
648.065	2953
648.123	3786
648.181	4955
648.240	5881
648.298	4757
648.356	3828
648.414	4478
648.472	4481
648.531	4630
648.589	3558
648.647	3992
648.705	3648
648.763	3270
648.821	3617
648.879	3014
648.937	4312
648.995	4508
649.053	4520
649.111	6595
649.169	10340
649.227	14676
649.285	26674
649.343	77062
649.401	50041
649.459	14730
649.516	11185
649.574	7618
649.632	14908
649.690	19882
649.748	9491
649.806	9155
649.863	17181
649.921	20608
649.979	16111
650.037	5123
650.094	3624
650.152	3765
650.210	2885
650.268	4450
650.325	4109
650.383	3792
650.440	2987
650.498	3581
650.556	3726
650.613	3763
650.671	4224
650.728	3883
650.786	3870
650.843	3656
650.901	2853
650.958	3960
651.016	3436
651.073	2866
651.131	2242
651.188	2364
651.246	3895
651.303	2465
651.360	3679
651.418	2953
651.475	3257
651.532	2493
651.590	3613
651.647	2322
651.704	2754
651.762	2573
651.819	2925
651.876	3257
651.933	3992
651.990	3586
652.048	2578
652.105	2437
652.162	3701
652.219	2793
652.276	3059
652.333	3634
652.390	2413
652.448	2545
652.505	2838
652.562	3080
652.619	3902
652.676	5107
652.733	6449
652.790	2577
652.847	2037
652.904	3168
652.961	1494
653.017	1727
653.074	3182
653.131	2522
653.188	1874
653.245	2640
653.302	2464
653.359	1920
653.415	3490
653.472	2188
653.529	3541
653.586	2310
653.642	2145
653.699	3545
653.756	2505
653.813	2536
653.869	3690
653.926	1804
653.983	1968
654.039	2838
654.096	2703
654.152	2762
654.209	1198
654.266	3387
654.322	2423
654.379	3379
654.435	4418
654.492	3189
654.548	3757
654.605	5263
654.661	4807
654.717	2819
654.774	3372
654.830	3207
654.887	3070
654.943	3295
655.000	3434
655.056	3250
655.112	2984
655.168	1848
655.225	2491
655.281	3799
655.337	3704
655.394	5929
655.450	4745
655.506	3967
655.562	5510
655.618	5982
655.675	2570
655.731	2597
655.787	2629
655.843	2876
655.899	2005
655.955	2305
656.011	3266
656.067	2053
656.123	2576
656.179	3316
656.235	4120
656.291	2025
656.347	3970
656.403	2467
656.459	3090
656.515	2428
656.571	3633
656.627	2729
656.683	2561
656.739	3858
656.795	3014
656.850	2884
656.906	2890
656.962	3702
657.018	2754
657.074	2385
657.129	2639
657.185	3553
657.241	4737
657.297	3223
657.352	3156
657.408	2101
657.464	3516
657.519	3010
657.575	2215
657.630	2710
657.686	2082
657.742	2409
657.797	3013
657.853	2642
657.908	3732
657.964	1334
658.019	2946
658.075	2644
658.130	3955
658.186	1645
658.241	3605
658.297	1788
658.352	2944
658.407	2666
658.463	2473
658.518	2889
658.573	3228
658.629	1575
658.684	2326
658.739	3003
658.795	2561
658.850	2299
658.905	2485
658.960	2925
659.016	1950
659.071	3005
659.126	3118
659.181	2332
659.236	4743
659.291	4723
659.346	2966
659.401	3316
659.457	4556
659.512	4272
659.567	4246
659.622	1574
659.677	2706
659.732	1750
659.787	2461
659.842	2941
659.897	4294
659.952	2896
660.007	3071
660.061	2410
660.116	2177
660.171	2541
660.226	2230
660.281	2727
660.336	2074
660.391	2777
660.445	2221
660.500	2688
660.555	2715
660.610	1822
660.664	3044
660.719	2255
660.774	3419
660.828	2181
660.883	3233
660.938	2589
660.992	1612
661.047	2048
661.101	1643
661.156	2292
661.211	2189
661.265	2099
661.320	2370
661.374	1859
661.429	2511
661.483	2369
661.538	1708
661.592	2018
661.647	1833
661.701	2903
661.755	2341
661.810	2536
661.864	2433
661.919	1483
661.973	3052
662.027	1774
662.081	1547
662.136	2701
662.190	3064
662.244	2410
662.299	2641
662.353	1997
662.407	2460
662.461	1867
662.515	2559
662.569	2963
662.624	3647
662.678	1652
662.732	2702
662.786	2144
662.840	2785
662.894	2132
662.948	2526
663.002	2012
663.056	2433
663.110	2065
663.164	1667
663.218	2540
663.272	2299
663.326	2900
663.380	2753
663.434	3148
663.488	1935
663.542	2580
663.595	3133
663.649	1671
663.703	3165
663.757	2332
663.811	1337
663.864	2126
663.918	3130
663.972	2160
664.026	2376
664.079	2251
664.133	3013
664.187	1980
664.240	1852
664.294	1834
664.348	2806
664.401	2098
664.455	2375
664.508	1580
664.562	2478
664.615	2380
664.669	2242
664.722	2144
664.776	2202
664.829	1903
664.883	2752
664.936	1738
664.990	2613
665.043	2072
665.097	2997
665.150	3494
665.203	2227
665.257	2334
665.310	2970
665.363	2599
665.417	3030
665.470	2844
665.523	2863
665.576	1523
665.630	2278
665.683	1601
665.736	2745
665.789	2676
665.842	1937
665.895	2165
665.949	3827
666.002	2556
666.055	2655
666.108	2809
666.161	2571
666.214	2705
666.267	2516
666.320	3350
666.373	2554
666.426	2760
666.479	2327
666.532	2105
666.585	3415
666.638	3255
666.691	2925
666.744	3306
666.796	2649
666.849	2763
666.902	2643
666.955	1809
667.008	2347
667.060	1679
667.113	2066
667.166	1738
667.219	2867
667.271	2827
667.324	3050
667.377	2511
667.430	2828
667.482	2744
667.535	3440
667.587	1869
667.640	3122
667.693	2414
667.745	3746
667.798	4703
667.850	2353
667.903	1682
667.955	2899
668.008	2001
668.060	3380
668.113	2563
668.165	3537
668.218	3265
668.270	2506
668.322	2666
668.375	2599
668.427	2196
668.479	2909
668.532	2685
668.584	2516
668.636	2479
668.689	2790
668.741	2344
668.793	3173
668.845	2009
668.898	3300
668.950	2330
669.002	2638
669.054	2429
669.106	2217
669.158	2733
669.211	3447
669.263	2351
669.315	3755
669.367	3674
669.419	3664
669.471	3768
669.523	3565
669.575	4773
669.627	4292
669.679	2987
669.731	3505
669.783	3573
669.835	4016
669.886	2589
669.938	2937
669.990	2814
670.042	2905
670.094	3582
670.146	3726
670.197	3688
670.249	4368
670.301	5032
670.353	6443
670.404	9441
670.456	11913
670.508	19808
670.560	33892
670.611	60770
670.663	108832
670.715	242752
670.766	441909
670.818	152767
670.869	25019
670.921	12040
670.972	8952
671.024	6179
671.075	5159
671.127	4591
671.178	3773
671.230	3854
671.281	3819
671.333	2744
671.384	2597
671.436	3541
671.487	4148
671.538	4074
671.590	4170
671.641	5698
671.692	6872
671.744	11352
671.795	10605
671.846	4703
671.897	4436
671.949	2992
672.000	2998
672.051	3034
672.102	3566
672.153	2201
672.204	3552
672.256	1986
672.307	2747
672.358	2306
672.409	2699
672.460	2662
672.511	2290
672.562	1913
672.613	2939
672.664	2438
672.715	2310
672.766	2397
672.817	2501
672.868	1485
672.919	1948
672.970	1844
673.021	2115
673.071	1960
673.122	2478
673.173	2419
673.224	2169
673.275	2356
673.326	2643
673.376	2133
673.427	1687
673.478	2105
673.528	3014
673.579	1054
673.630	1775
673.680	1433
673.731	2076
673.782	2677
673.832	2474
673.883	2689
673.934	2026
673.984	1862
674.035	2142
674.085	1148
674.136	2795
674.186	1861
674.237	2415
674.287	3137
674.338	3518
674.388	1543
674.438	1735
674.489	1777
674.539	2388
674.589	1729
674.640	2616
674.690	1538
674.740	1719
674.791	3128
674.841	2661
674.891	2033
674.942	2242
674.992	2020
675.042	2424
675.092	1827
675.142	1446
675.193	1029
675.243	902
675.293	1818
675.343	2444
675.393	1651
675.443	3306
675.493	1725
675.543	1395
675.593	1358
675.643	1730
675.693	1709
675.743	1890
675.793	2087
675.843	1547
675.893	1951
675.943	2054
675.993	1041
676.043	2361
676.093	2334
676.142	1426
676.192	1204
676.242	1695
676.292	2046
676.341	1304
676.391	995
676.441	1404
676.491	1290
676.540	741
676.590	1448
676.640	2397
676.689	1809
676.739	1290
676.789	949
676.838	2253
676.888	2148
676.937	1397
676.987	1040
677.037	1308
677.086	523
677.136	2853
677.185	711
677.235	1490
677.284	1546
677.333	1856
677.383	967
677.432	1355
677.482	1045
677.531	1521
677.580	1363
677.630	1475
677.679	1097
677.728	1240
677.778	1547
677.827	1541
677.876	1009
677.925	1435
677.975	1131
678.024	519
678.073	1838
678.122	1385
678.171	873
678.220	1446
678.269	1474
678.319	1622
678.368	1032
678.417	92
678.466	1522
678.515	1898
678.564	1732
678.613	2145
678.662	1597
678.711	2357
678.760	1555
678.809	2130
678.857	1441
678.906	1895
678.955	1906
679.004	1335
679.053	1185
679.102	1755
679.151	918
679.199	1849
679.248	833
679.297	1261
679.346	1582
679.394	1168
679.443	1019
679.492	2145
679.540	1319
679.589	1373
679.638	899
679.686	816
679.735	1146
679.784	2056
679.832	1621
679.881	820
679.929	1743
679.978	911
680.026	1533
680.075	681
680.123	497
680.172	986
680.220	-230
680.268	1067
680.317	775
680.365	1860
680.414	4
680.462	1764
680.510	1645
680.559	1278
680.607	946
680.655	1105
680.703	323
680.752	1172
680.800	780
680.848	1150
680.896	1234
680.945	877
680.993	1016
681.041	869
681.089	860
681.137	389
681.185	921
681.233	1804
681.258	1289
681.281	776
681.329	726
681.377	762
681.380	829
681.425	1602
681.473	1116
681.502	1301
681.521	1383
681.569	1992
681.617	564
681.624	767
681.665	1885
681.713	1881
681.745	1633
681.761	1469
681.809	1866
681.857	1316
681.867	1510
681.904	2101
681.952	1572
681.989	1581
682.000	1561
682.048	1615
682.096	1694
682.111	1869
682.143	2138
682.191	1510
682.233	1887
682.239	1919
682.286	2056
682.334	2105
682.354	1958
682.382	1711
682.430	2129
682.476	2166
682.477	2145
682.525	1919
682.572	1640
682.598	1735
682.620	1782
682.667	2517
682.715	2735
682.720	2735
682.763	2508
682.810	2579
682.841	2673
682.857	2681
682.905	2498
682.952	2275
682.963	2341
683.000	2475
683.047	2693
683.085	3350
683.095	3510
683.142	2960
683.190	2853
683.206	2724
683.237	2387
683.284	3048
683.328	2717
683.332	2680
683.379	2674
683.426	2725
683.449	2678
683.473	2546
683.521	2893
683.568	2888
683.571	2944
683.615	3482
683.662	3406
683.693	3322
683.709	3238
683.757	3483
683.804	3239
683.814	3267
683.851	3280
683.898	3899
683.936	3586
683.945	3493
683.992	3768
684.039	3555
684.057	3436
684.086	3290
684.133	3523
684.179	4233
684.180	4234
684.227	3586
684.274	4413
684.300	4225
684.321	4098
684.368	3678
684.415	3879
684.422	3854
684.462	3496
684.509	3645
684.543	4162
684.556	4366
684.603	3783
684.649	3821
684.665	3981
684.696	4296
684.743	3873
684.786	4780
684.790	4843
684.837	3900
684.883	4997
684.908	5006
684.930	4962
684.977	4990
685.023	5230
685.029	5176
685.070	4598
685.117	5120
685.150	4790
685.164	4715
685.210	5732
685.257	5534
685.272	5668
685.303	5687
685.350	5449
685.393	5643
685.396	5670
685.443	5030
685.490	6264
685.514	5947
685.536	5569
685.583	5694
685.629	6369
685.636	6295
685.675	5698
685.722	5972
685.757	5324
685.768	5175
685.815	5872
685.861	5375
685.878	5542
685.908	5774
685.954	5996
686.000	6586
686.000	6591
686.047	6375
686.093	7118
686.121	7272
686.139	7202
686.185	6435
686.232	6342
686.242	6185
686.278	5713
686.324	6376
686.363	6144
686.370	6078
686.416	5951
686.463	6225
686.484	6041
686.509	6104
686.555	6246
686.601	6065
686.606	6160
686.647	6521
686.693	6334
686.727	6111
686.739	6097
686.785	6205
686.831	5915
686.848	6295
686.877	6841
686.923	5701
686.969	6190
686.969	6193
687.015	6379
687.061	6321
687.090	6431
687.107	6393
687.153	6763
687.199	6355
687.211	6430
687.245	6792
687.291	6648
687.332	6859
687.336	6871
687.382	7525
687.428	7101
687.453	7192
687.474	7157
687.520	6408
687.565	6030
687.574	5989
687.611	6153
687.657	6413
687.695	6787
687.702	6886
687.748	7157
687.794	8218
687.816	7991
687.839	7396
687.885	7467
687.931	6761
687.937	6771
687.976	7207
688.022	6574
688.058	7124
688.067	7256
688.113	7537
688.158	7113
688.179	7095
688.204	7130
688.249	7642
688.295	7646
688.300	7704
688.340	8109
688.386	7847
688.421	7861
688.431	7835
688.477	7231
688.522	7619
688.542	7553
688.567	7570
688.613	7630
688.658	7306
688.663	7359
688.703	7835
688.749	7796
688.784	7912
688.794	7943
688.839	8051
688.884	7980
688.905	7839
688.930	7642
688.975	7874
689.020	7124
689.026	7215
689.065	8138
689.110	7819
689.146	8130
689.155	8182
689.201	7995
689.246	8559
689.267	8374
689.291	8179
689.336	8525
689.381	8145
689.388	8161
689.426	8412
689.471	8299
689.509	8696
689.516	8730
689.561	8344
689.606	7715
689.630	7826
689.651	8173
689.696	8382
689.741	8792
689.750	8848
689.785	8830
689.830	8840
689.871	8922
689.875	8929
689.920	8441
689.965	8273
689.992	7858
690.010	7685
690.054	8283
690.099	8141
690.112	8175
690.144	8427
690.189	8322
690.233	8351
690.233	8364
690.278	8836
690.323	8690
690.354	8535
690.367	8507
690.412	9314
690.457	9227
690.474	9384
690.501	9589
690.546	9028
690.590	9407
690.595	9355
690.635	9432
690.680	10130
690.716	10588
690.724	10719
690.769	11070
690.813	12088
690.836	12043
690.857	12692
690.902	14827
690.946	17210
690.957	17692
690.991	21943
691.035	28312
691.077	33880
691.080	34012
691.124	34398
691.168	34296
691.198	34725
691.213	32827
691.257	26988
691.301	21388
691.318	19097
691.346	17728
691.390	15489
691.434	13367
691.439	13112
691.478	12544
691.522	11920
691.559	11149
691.567	11146
691.611	11394
691.655	11522
691.680	11291
691.699	11005
691.743	10810
691.787	10500
691.800	10406
691.831	10456
691.875	10095
691.919	10456
691.921	10421
691.964	10148
692.008	10829
692.041	10853
692.052	10882
692.096	11075
692.139	11082
692.162	11187
692.183	11125
692.227	10582
692.271	10483
692.282	10448
692.315	10906
692.359	11024
692.402	11294
692.403	11316
692.447	11309
692.490	11218
692.523	11021
692.534	11018
692.578	11289
692.622	11274
692.643	11056
692.666	10701
692.709	11024
692.753	10423
692.763	10389
692.797	10741
692.840	10650
692.884	11252
692.884	11280
692.928	11096
692.971	11430
693.004	11390
693.015	11412
693.059	11592
693.102	11807
693.124	11917
693.146	11959
693.189	11704
693.233	11960
693.245	11921
693.276	12506
693.320	13283
693.363	13646
693.365	13646
693.407	14220
693.450	14682
693.485	15204
693.493	15628
693.537	17408
693.580	19143
693.605	20380
693.624	22391
693.667	26283
693.710	31101
693.725	32767
693.753	41508
693.797	55071
693.840	69040
693.845	70382
693.883	70534
693.926	70496
693.966	70909
693.970	69700
694.013	55840
694.056	41703
694.086	32209
694.099	30904
694.142	26348
694.185	21957
694.206	19657
694.229	18867
694.272	17521
694.315	16193
694.326	15780
694.358	15332
694.401	14458
694.444	14281
694.446	14211
694.487	13896
694.530	13760
694.566	13334
694.573	13251
694.616	12934
694.659	12300
694.686	12070
694.702	12182
694.745	12064
694.787	12346
694.806	12293
694.830	12093
694.873	11832
694.916	11358
694.926	11285
694.959	11578
695.002	11665
695.044	11948
695.046	11925
695.087	11822
695.130	11882
695.166	11704
695.172	11752
695.215	11982
695.258	12185
695.286	12233
695.301	12191
695.343	12100
695.386	12039
695.406	11834
695.428	11768
695.471	11979
695.514	11804
695.526	11830
695.556	11903
695.599	11804
695.641	11732
695.646	11682
695.684	11782
695.726	12005
695.766	12021
695.769	12049
695.811	12177
695.854	12337
695.886	12271
695.896	12259
695.938	12078
695.981	12164
696.005	12069
696.023	12163
696.065	12269
696.108	12383
696.125	12506
696.150	12753
696.192	12643
696.235	13018
696.245	13040
696.277	12819
696.319	12355
696.361	11904
696.365	11851
696.404	12500
696.446	12917
696.485	13375
696.488	13397
696.530	13276
696.572	13028
696.604	12823
696.614	12809
696.656	12665
696.698	12580
696.724	12360
696.740	12442
696.783	12644
696.825	13057
696.844	13063
696.867	12806
696.909	12470
696.951	11981
696.964	11860
696.992	11961
697.034	11809
697.076	11795
697.083	11777
697.118	12197
697.160	12534
697.202	12871
697.203	12846
697.244	12764
697.286	12543
697.323	12383
697.327	12430
697.369	12500
697.411	12632
697.442	12661
697.453	12689
697.494	12626
697.536	12577
697.562	12575
697.578	12592
697.620	12404
697.661	12293
697.682	12186
697.703	12211
697.744	12281
697.786	12263
697.801	12222
697.828	12686
697.869	13406
697.911	14070
697.921	14216
697.952	14075
697.994	13737
698.035	13430
698.040	13350
698.077	12797
698.118	12163
698.160	11575
698.160	11538
698.201	11948
698.243	12354
698.279	12656
698.284	12709
698.325	12882
698.367	13083
698.399	13148
698.408	13135
698.449	12931
698.491	12743
698.518	12579
698.532	12594
698.573	12531
698.614	12438
698.638	12366
698.656	12507
698.697	12739
698.738	12984
698.757	13063
698.779	13232
698.820	13479
698.862	13704
698.877	13763
698.903	13910
698.944	14060
698.985	14220
698.996	14225
699.026	14092
699.067	13855
699.116	13534
699.235	12597
699.354	12578
699.474	12877
699.593	13637
699.713	13907
699.832	13380
699.951	12770
700.070	12989
700.190	12756
700.309	12136
700.428	12407
700.547	12573
700.667	13192
700.786	13037
700.905	12018
701.024	12626
701.143	12192
701.262	12262
701.381	11469
701.500	12947
701.619	11761
701.738	11241
701.857	11523
701.976	11559
702.095	10957
702.214	12304
702.333	11805
702.452	11041
702.571	11193
702.690	12376
702.809	10556
702.928	10820
703.047	11078
703.165	10415
703.284	11064
703.403	10718
703.522	11433
703.640	11354
703.759	12665
703.878	15450
703.997	11509
704.115	11081
704.234	10093
704.353	11022
704.471	10530
704.590	10902
704.708	10348
704.827	11081
704.946	10496
705.064	11032
705.183	11005
705.301	11737
705.420	15967
705.538	14159
705.656	14342
705.775	13149
705.893	20142
706.012	26296
706.130	13628
706.249	13656
706.367	12923
706.485	13879
706.604	13463
706.722	13568
706.840	14211
706.958	16153
707.077	13359
707.195	12815
707.313	11922
707.431	12307
707.549	11968
707.668	11766
707.786	12442
707.904	12549
708.022	11369
708.140	12064
708.258	10757
708.376	12304
708.494	12119
708.612	12076
708.730	16309
708.848	17574
708.966	14383
709.084	13955
709.202	14915
709.320	14327
709.438	14236
709.556	14584
709.674	14731
709.791	14650
709.909	13467
710.027	14068
710.145	13595
710.263	13854
710.380	12299
710.498	14117
710.616	13063
710.733	13652
710.851	13764
710.969	13695
711.086	12367
711.204	12785
711.322	12737
711.439	14013
711.557	12939
711.674	13268
711.792	12709
711.909	13016
712.027	14625
712.144	13155
712.262	12548
712.379	14168
712.497	17213
712.614	18439
712.732	15723
712.849	14425
712.966	15129
713.084	15884
713.201	15235
713.318	15881
713.436	14223
713.553	15048
713.670	14913
713.787	15669
713.905	15886
714.022	14734
714.139	14826
714.256	15271
714.373	15282
714.490	19493
714.608	27903
714.725	88660
714.842	113332
714.959	18983
715.076	14216
715.193	14087
715.310	13733
715.427	13804
715.544	12676
715.661	14261
715.778	12652
715.895	13284
716.011	14499
716.128	14353
716.245	13150
716.362	13876
716.479	13142
716.596	13323
716.713	13171
716.829	11941
716.946	12228
717.063	11591
717.180	12094
717.296	10476
717.413	12099
717.530	11830
717.646	11736
717.763	11223
717.880	9950
717.996	11460
718.113	10935
718.229	11642
718.346	10390
718.462	10650
718.579	12376
718.695	15487
718.812	14818
718.928	13863
719.045	11243
719.161	11161
719.277	10509
719.394	10849
719.510	10741
719.626	10358
719.743	12277
719.859	12008
719.975	13490
720.092	27876
720.208	59884
720.324	17588
720.440	11500
720.557	12026
720.673	14006
720.789	17292
720.905	34734
721.021	17555
721.137	9782
721.253	11751
721.369	10758
721.486	11607
721.602	14432
721.718	10229
721.834	8366
721.950	9728
722.066	8772
722.181	9149
722.297	9606
722.413	9683
722.529	9564
722.645	9543
722.761	8868
722.877	9742
722.993	8016
723.108	10252
723.224	8716
723.340	9090
723.456	8790
723.571	8759
723.687	8558
723.803	9023
723.918	8555
724.034	8909
724.150	8755
724.265	9061
724.381	13383
724.497	19808
724.612	8747
724.728	8237
724.843	8396
724.959	9451
725.074	14191
725.190	17375
725.305	8647
725.421	8982
725.536	8007
725.651	7908
725.767	7442
725.882	7588
725.997	7682
726.113	8147
726.228	7122
726.343	7843
726.459	7390
726.574	7731
726.689	6412
726.804	8112
726.920	7610
727.035	8165
727.150	8252
727.265	7892
727.380	7586
727.495	7990
727.610	6620
727.725	8149
727.841	7574
727.956	11975
728.071	11430
728.186	7821
728.301	6862
728.416	7985
728.531	7364
728.645	7197
728.760	7176
728.875	7233
728.990	7161
729.105	6593
729.220	7157
729.335	7826
729.449	6485
729.564	6233
729.679	7848
729.794	6644
729.908	6183
730.023	7466
730.138	5528
730.253	6363
730.367	6118
730.482	6403
730.596	5771
730.711	6965
730.826	6543
730.940	6977
731.055	6793
731.169	7441
731.284	6757
731.398	6035
731.513	6612
731.627	6879
731.742	7592
731.856	7873
731.970	6194
732.085	6996
732.199	7216
732.313	8557
732.428	11760
732.542	26882
732.656	19590
732.771	7942
732.885	6964
732.999	7095
733.113	6684
733.227	7279
733.342	6304
733.456	5974
733.570	5642
733.684	6090
733.798	6428
733.912	6426
734.026	5519
734.140	6552
734.254	7017
734.368	9089
734.482	11647
734.596	6390
734.710	5753
734.824	6163
734.938	5776
735.052	5860
735.166	6849
735.280	6118
735.393	5930
735.507	5793
735.621	6684
735.735	11135
735.849	6565
735.962	6844
736.076	6507
736.190	6082
736.303	6736
736.417	9598
736.531	5165
736.644	5902
736.758	5117
736.872	5314
736.985	5487
737.099	5399
737.212	5436
737.326	6166
737.439	4842
737.553	5755
737.666	4838
737.780	4844
737.893	5330
738.007	5352
738.120	4534
738.233	5201
738.347	4926
738.460	5586
738.573	5486
738.687	5099
738.800	5626
738.913	5697
739.026	4985
739.140	5736
739.253	5961
739.366	5479
739.479	4557
739.592	4632
739.705	4850
739.818	4945
739.932	5075
740.045	5513
740.158	4860
740.271	5100
740.384	4163
740.497	4766
740.610	5030
740.723	5597
740.836	5218
740.949	5132
741.062	6097
741.174	5957
741.287	5498
741.400	5397
741.513	4144
741.626	5132
741.739	4566
741.851	5416
741.964	4565
742.077	4973
742.189	4427
742.302	5446
742.415	4685
742.527	5047
742.640	5129
742.753	4987
742.865	4602
742.978	4828
743.090	4484
743.203	4888
743.316	4450
743.428	4858
743.541	4716
743.653	4567
743.766	3354
743.878	4048
743.990	4465
744.103	5458
744.215	4395
744.327	4376
744.440	4675
744.552	6795
744.664	4465
744.777	4443
744.889	3668
745.001	5726
745.113	3281
745.226	5058
745.338	4311
745.450	4503
745.562	4003
745.674	5040
745.786	4114
745.898	4904
746.010	3984
746.122	4839
746.234	4490
746.347	4648
746.459	4092
746.570	3772
746.682	4159
746.794	4755
746.906	3821
747.018	4908
747.130	3867
747.242	3906
747.354	3575
747.466	4497
747.577	4274
747.689	4974
747.801	3541
747.913	4706
748.024	4399
748.136	4253
748.248	4039
748.359	4503
748.471	4198
748.583	4973
748.694	5122
748.806	5072
748.918	4593
749.029	4864
749.141	4297
749.252	4481
749.364	4263
749.475	6339
749.587	5208
749.698	4515
749.809	4341
749.921	4204
750.032	3456
750.144	3709
750.255	3056
750.366	3952
750.478	3891
750.589	4556
750.700	4513
750.811	4094
750.923	4993
751.034	6324
751.145	6995
751.256	4552
751.367	3466
751.479	4586
751.590	3453
751.701	4624
751.812	3601
751.923	4174
752.034	4327
752.145	4068
752.256	4024
752.367	3576
752.478	3021
752.589	4500
752.700	4076
752.811	4410
752.922	2940
753.032	3964
753.143	4153
753.254	4553
753.365	3637
753.476	4621
753.586	3667
753.697	3621
753.808	4142
753.919	3199
754.029	3117
754.140	3958
754.251	4585
754.361	3939
754.472	3555
754.582	4715
754.693	3884
754.804	3999
754.914	3333
755.025	4342
755.135	3832
755.246	3969
755.356	3154
755.466	5216
755.577	3877
755.687	3819
755.798	3427
755.908	4532
756.018	3626
756.129	3900
756.239	3981
756.349	3718
756.460	3750
756.570	4572
756.680	3980
756.790	4544
756.900	4469
757.011	3998
757.121	3475
757.231	3642
757.341	4490
757.451	4366
757.561	3089
757.671	4308
757.781	3162
757.891	5028
758.001	4362
758.111	4529
758.221	4087
758.331	4141
758.441	4531
758.551	4695
758.661	4601
758.771	4786
758.880	4532
758.990	5067
759.100	4520
759.210	5482
759.320	4867
759.429	5448
759.539	4493
759.649	4641
759.758	3892
759.868	4713
759.978	4433
760.087	5538
760.197	4736
760.307	5771
760.416	4736
760.526	5029
760.635	5525
760.745	5701
760.854	5082
760.964	5810
761.073	4548
761.182	6249
761.292	4875
761.401	6366
761.511	6438
761.620	6684
761.729	5764
761.839	6068
761.948	5965
762.057	6432
762.166	6368
762.276	6374
762.385	7218
762.494	6580
762.603	6017
762.712	6304
762.822	8348
762.931	7751
763.040	7428
763.149	8253
763.258	7061
763.367	8849
763.476	9003
763.585	8859
763.694	9487
763.803	10420
763.912	11007
764.021	10385
764.130	9978
764.238	12090
764.347	12367
764.456	12988
764.565	15376
764.674	16001
764.783	16848
764.891	18766
765.000	20665
765.109	22992
765.217	25868
765.326	31622
765.435	36960
765.543	43871
765.652	53062
765.761	71027
765.869	96900
765.978	140094
766.086	214856
766.195	361223
766.303	621142
766.412	777996
766.520	664788
766.629	574399
766.737	339122
766.846	208062
766.954	139094
767.062	100052
767.171	75138
767.279	57650
767.387	45678
767.496	38930
767.604	33760
767.712	29347
767.820	25732
767.928	24723
768.037	22584
768.145	21949
768.253	21509
768.361	20016
768.469	19563
768.577	20451
768.685	20652
768.793	22816
768.901	23975
769.009	28461
769.117	32214
769.225	43708
769.333	59337
769.441	88812
769.549	151406
769.657	289274
769.765	574930
769.873	661738
769.981	516482
770.088	269325
770.196	142362
770.304	89919
770.412	62329
770.519	48243
770.627	37630
770.735	30858
770.842	25760
770.950	23316
771.058	19918
771.165	17957
771.273	15116
771.380	14479
771.488	13466
771.595	12561
771.703	10866
771.810	11522
771.918	9852
772.025	10393
772.133	8928
772.240	9194
772.348	9598
772.455	8577
772.562	7272
772.670	8443
772.777	7832
772.884	7723
772.991	6605
773.099	7069
773.206	6783
773.313	7246
773.420	6054
773.528	6333
773.635	5692
773.742	6041
773.849	5973
773.956	6299
774.063	5669
774.170	5752
774.277	5537
774.384	5505
774.491	4520
774.598	5714
774.705	4875
774.812	5871
774.919	5636
775.026	5733
775.133	5073
775.239	5325
775.346	5340
775.453	4417
775.560	4974
775.667	4733
775.773	4427
775.880	5230
775.987	3980
776.093	4591
776.200	4636
776.307	4339
776.413	4146
776.520	5049
776.627	4822
776.733	5220
776.840	3394
776.946	5381
777.053	4060
777.159	4255
777.266	2624
777.372	4624
777.478	4388
777.585	4383
777.691	3473
777.798	4562
777.904	4281
778.010	4987
778.117	5056
778.223	4466
778.329	3463
778.435	3672
778.542	4374
778.648	3569
778.754	3189
778.860	4039
778.966	3437
779.072	3718
779.178	2867
779.284	4057
779.391	3094
779.497	3697
779.603	5643
779.708	6988
779.815	15707
779.920	50205
780.026	107295
780.132	21068
780.238	4798
780.344	4436
780.450	3790
780.556	4601
780.661	2992
780.767	3292
780.873	2380
780.979	3256
781.085	2823
781.190	3487
781.296	2770
781.402	2887
781.507	2258
781.613	3534
781.719	2284
781.824	2732
781.930	3662
782.035	2988
782.141	2510
782.246	2918
782.352	2775
782.457	3597
782.563	2853
782.668	2471
782.773	3694
782.879	2329
782.984	3048
783.090	3984
783.195	4201
783.300	3544
783.405	2825
783.511	3153
783.616	3130
783.721	3600
783.826	2291
783.932	3906
784.037	1621
784.142	2846
784.247	2326
784.352	2518
784.457	2684
784.562	2950
784.667	3039
784.772	2897
784.877	1479
784.982	2450
785.087	2681
785.192	2916
785.297	2145
785.402	2754
785.507	2564
785.611	2286
785.716	3169
785.821	1814
785.926	2362
786.031	2473
786.135	2388
786.240	2870
786.345	1055
786.450	2569
786.554	1620
786.659	1481
786.763	1300
786.868	3168
786.973	2575
787.077	2477
787.182	1771
787.286	2085
787.391	2002
787.495	2041
787.600	1941
787.704	1303
787.809	2222
787.913	1343
788.017	2231
788.122	2540
788.226	1142
788.330	2018
788.435	1048
788.539	2410
788.643	1432
788.747	1981
788.852	1806
788.956	2038
789.060	2589
789.164	1710
789.268	1042
789.372	2283
789.476	1541
789.580	1446
789.684	1417
789.788	2448
789.892	1590
789.996	2093
790.100	1287
790.204	2854
790.308	1678
790.412	1748
790.516	1937
790.620	2503
790.724	1774
790.828	1962
790.931	1064
791.035	3481
791.139	2030
791.242	1338
791.346	1622
791.450	1802
791.554	1054
791.657	1286
791.761	2517
791.864	2602
791.968	2096
792.072	2461
792.175	1854
792.279	2080
792.382	1715
792.486	2262
792.589	1705
792.693	1951
792.796	997
792.899	2571
793.003	2182
793.106	1709
793.209	1195
793.313	3195
793.416	472
793.519	2320
793.623	2703
793.726	3544
793.829	1510
793.932	1718
794.035	661
794.138	2282
794.242	2178
794.345	2952
794.448	3602
794.551	7720
794.654	25570
794.757	56942
794.860	12869
794.963	4030
795.066	1097
795.169	3288
795.272	1315
795.375	1812
795.477	1868
795.580	1973
795.683	1435
795.786	1603
795.889	828
795.991	2332
796.094	2632
796.197	1163
796.300	2223
796.402	714
796.505	590
796.608	1633
796.710	1992
796.813	2808
796.915	612
797.018	1840
797.120	1305
797.223	1014
797.326	2593
797.428	2245
797.530	987
797.633	2403
797.735	2422
797.838	1492
797.940	3221
798.042	1583
798.145	545
798.247	2531
798.349	301
798.452	2235
798.554	935
798.656	538
798.758	2581
798.860	1634
798.962	1060
799.065	1176
799.167	255
799.269	2776
799.371	1649
799.473	1492
799.575	1257
799.677	1884
799.779	2979
799.881	1066
799.983	1969
800.085	1563
800.187	1070
800.289	505
800.390	683
800.492	1752
800.594	1498
800.696	1738
800.798	1106
800.899	1307
801.001	994
801.103	1789
801.205	868
801.306	1123
801.408	1035
801.509	1682
801.611	1623
801.713	1695
801.814	-253
801.916	1431
802.017	245
802.119	383
802.220	1419
802.322	60
802.423	2410
802.525	960
802.626	592
802.727	1142
802.829	1879
802.930	247
803.031	2074
803.133	1225
803.234	940
803.335	1703
803.436	373
803.538	2003
803.639	618
803.740	1626
803.841	1418
803.942	1694
804.043	993
804.144	736
804.245	1022
804.346	1142
804.447	612
804.548	1475
804.649	1715
804.750	1495
804.851	668
804.952	638
805.053	1137
805.154	715
805.255	1052
805.355	1156
805.456	895
805.557	551
805.658	228
805.758	1309
805.859	239
805.960	1201
806.061	97
806.161	1132
806.262	1105
806.362	1336
806.463	896
806.564	1905
806.664	1594
806.765	2543
806.865	887
806.966	1073
807.066	211
807.166	2005
807.267	1658
807.367	901
807.468	1352
807.568	519
807.668	1322
807.769	2329
807.869	636
807.969	1110
808.069	822
808.170	1521
808.270	1132
808.370	1391
808.470	1088
808.570	945
808.670	654
808.770	704
808.870	514
808.970	1113
809.070	158
809.170	-335
809.271	952
809.370	584
809.470	1127
809.570	850
809.670	465
809.770	713
809.870	1547
809.970	1239
810.070	1135
810.169	1032
810.269	-745
810.369	2065
810.469	344
810.568	1233
810.668	491
810.768	935
810.867	815
810.967	540
811.066	897
811.166	251
811.265	1954
811.365	525
811.464	615
811.564	1632
811.663	1392
811.763	-366
811.862	1101
811.962	1466
812.061	379
812.160	1472
812.260	1202
812.359	1561
812.458	110
812.557	2220
812.657	3438
812.756	3380
812.855	1176
812.954	1707
813.053	1388
813.153	1543
813.252	758
813.351	1384
813.450	1180
813.549	1156
813.648	1156
813.747	1346
813.846	651
813.945	1157
814.044	825
814.143	1612
814.242	2063
814.341	1407
814.439	1626
814.538	1728
814.637	1342
814.736	2046
814.835	1399
814.933	1326
815.032	1624
815.131	2487
815.229	1622
815.328	2063
815.427	1791
815.525	3046
815.624	2503
815.722	2820
815.821	1706
815.919	2730
816.018	1941
816.116	4049
816.215	3071
816.313	3669
816.412	3178
816.510	3446
816.609	4692
816.707	4035
816.805	3989
816.904	5266
817.002	4977
817.100	6096
817.198	6348
817.296	7188
817.395	8318
817.493	10351
817.591	11820
817.689	16432
817.787	21796
817.885	33993
817.983	54302
818.081	101367
818.179	202985
818.277	393553
818.375	391485
818.473	199864
818.571	97443
818.669	62137
818.767	49597
818.865	47765
818.963	53003
819.061	69216
819.158	102986
819.256	179947
819.354	324892
819.452	503439
819.549	417190
819.647	245339
819.745	132430
819.842	80398
819.940	53803
820.038	38491
820.135	29954
820.233	24651
820.330	17794
820.428	15599
820.525	13114
820.623	11977
820.720	9314
820.818	9316
820.915	8313
821.012	7514
821.110	5412
821.207	6515
821.304	4281
821.402	5432
821.499	5270
821.596	4675
821.693	4317
821.791	4571
821.888	3507
821.985	4968
822.082	3852
822.179	4225
822.276	3348
822.373	2874
822.470	1993
822.567	2507
822.664	1739
822.761	2583
822.858	1967
822.955	2638
823.052	2120
823.149	2326
823.246	1572
823.343	1904
823.440	1289
823.536	1316
823.633	1265
823.730	1464
823.827	1593
823.923	1723
824.020	3012
824.117	1453
824.213	1381
824.310	2214
824.407	1480
824.503	1644
824.600	1850
824.696	1217
824.793	1579
824.889	400
824.986	1428
825.082	451
825.179	837
825.275	1187
825.371	1032
825.468	2152
825.564	559
825.660	1348
825.757	981
825.853	1817
825.949	-339
826.045	1750
826.142	250
826.238	814
826.334	898
826.430	296
826.526	1203
826.622	487
826.718	784
826.814	641
826.910	1415
827.006	648
827.102	57
827.198	810
827.294	-155
827.390	563
827.486	479
827.582	-345
827.678	-106
827.774	922
827.869	-459
827.965	1480
828.061	233
828.157	403
828.252	1289
828.348	13
828.444	802
828.539	-530
828.635	231
828.731	913
828.826	-236
828.922	852
829.017	214
829.113	1504
829.208	0
829.304	237
829.399	1033
829.495	732
829.590	297
829.685	306
829.781	-179
829.876	877
829.971	310
830.066	1290
830.162	889
830.257	1316
830.352	405
830.447	1498
830.543	687
830.638	181
830.733	2116
830.828	711
830.923	204
831.018	341
831.113	-255
831.208	114
831.303	626
831.398	221
831.493	-137
831.588	768
831.683	-936
831.778	471
831.873	65
831.967	714
832.062	-90
832.157	-509
832.252	924
832.346	-290
832.441	803
832.536	873
832.631	2063
832.725	1508
832.820	-774
832.914	876
833.009	-115
833.104	903
833.198	890
833.293	1060
833.387	165
833.482	928
833.576	-675
833.670	1412
833.765	213
833.859	-62
833.954	573
834.048	788
834.142	359
834.237	-330
834.331	210
834.425	694
834.519	-660
834.613	813
834.708	-631
834.802	627
834.896	-273
834.990	-163
835.084	337
835.178	673
835.272	-248
835.366	123
835.460	796
835.554	-400
835.648	105
835.742	141
835.836	389
835.930	-579
836.024	-257
836.117	729
836.211	-181
836.305	1053
836.399	808
836.493	-65
836.586	482
836.680	-601
836.774	-1337
836.867	897
836.961	66
837.055	-36
837.148	-436
837.242	784
837.335	-461
837.429	-386
837.522	-641
837.616	564
837.709	1306
837.803	1401
837.896	1005
837.989	250
838.083	1184
838.176	1808
838.269	1720
838.363	1332
838.456	89
838.549	746
838.642	197
838.735	2919
838.829	1210
838.922	91
839.015	-299
839.108	19
839.201	263
839.294	408
839.387	637
839.480	172
839.573	-133
839.666	1567
839.759	-570
839.852	86
839.945	-235
840.038	-302
840.131	-405
840.223	331
840.316	784
840.409	438
840.502	-1525
840.594	1522
840.687	-1179
840.780	810
840.873	-1160
840.965	536
841.058	-296
841.150	1565
841.243	762
841.336	1235
841.428	-322
841.521	9
841.613	-675
841.706	762
841.798	-76
841.890	501
841.983	48
842.075	562
842.167	213
842.260	406
842.352	352
842.444	473
842.537	1392
842.629	3574
842.721	907
842.813	-91
842.905	-1214
842.997	259
843.090	-342
843.182	581
843.274	598
843.366	4513
843.458	8811
843.550	7883
843.642	416
843.734	652
843.826	197
843.918	506
844.009	920
844.101	-762
844.193	-94
844.285	260
844.377	220
844.469	1226
844.560	-256
844.652	310
844.744	-386
844.835	753
844.927	424
845.019	868
845.110	275
845.202	853
845.293	-409
845.385	-653
845.476	-152
845.568	1379
845.659	-293
845.751	847
845.842	-610
845.934	98
846.025	-406
846.116	179
846.208	-536
846.299	-112
846.390	-8
846.482	162
846.573	254
846.664	490
846.755	528
846.846	1101
846.937	-224
847.029	-52
847.120	-372
847.211	511
847.302	45
847.393	-318
847.484	-507
847.575	422
847.666	-444
847.757	-39
847.847	-1107
847.938	681
848.029	-253
848.120	-739
848.211	-220
848.302	40
848.392	-399
848.483	510
848.574	-776
848.664	322
848.755	-86
848.846	-135
848.936	-390
849.027	-136
849.118	-5
849.208	-43
849.299	-599
849.389	870
849.480	78
849.570	365
849.661	1584
849.751	3220
849.841	1053
849.932	455
850.022	-802
850.112	612
850.203	-209
850.293	119
850.383	-292
850.474	-734
850.564	-294
850.654	-401
850.744	66
850.834	529
850.924	-138
851.014	-156
851.104	-606
851.194	-559
851.284	79
851.374	483
851.464	-459
851.554	380
851.644	-460
851.734	634
851.824	1006
851.914	467
852.004	974
852.094	1521
852.183	114
852.273	343
852.363	-496
852.452	127
852.542	-839
852.632	-175
852.721	216
852.811	-1113
852.901	-153
852.990	298
853.080	-409
853.169	-237
853.259	-707
853.348	-49
853.438	-260
853.527	241
853.617	-153
853.706	1027
853.795	1506
853.885	4093
853.974	8076
854.063	14011
854.152	23959
854.242	10729
854.331	869
854.420	1077
854.509	-320
854.598	111
854.687	-233
854.777	694
854.866	-434
854.955	808
855.044	-880
855.133	134
855.222	233
855.311	-1062
855.400	-645
855.488	-978
855.577	-1018
855.666	-269
855.755	553
855.844	384
855.933	43
856.021	283
856.110	256
856.199	385
856.288	-1176
856.376	-100
856.465	-93
856.554	-158
856.642	-1084
856.731	698
856.819	-297
856.908	-73
856.996	-828
857.085	-186
857.173	-349
857.262	-58
857.350	-417
857.438	639
857.527	-126
857.615	-212
857.703	-495
857.792	-374
857.880	-664
857.968	-648
858.056	-312
858.145	-628
858.233	-635
858.321	-408
858.409	278
858.497	-78
858.585	-1198
858.673	607
858.761	-713
858.849	53
858.937	-996
859.025	-363
859.113	-246
859.201	-692
859.289	-3
859.377	-368
859.465	-358
859.552	-855
859.640	-954
859.728	32
859.816	-1050
859.903	787
859.991	-1226
860.079	-672
860.166	-991
860.254	-838
860.342	42
860.429	-727
860.517	-944
860.604	-357
860.692	-421
860.779	-173
860.867	-845
860.954	-474
861.042	-149
861.129	392
861.216	-584
861.304	-372
861.391	-262
861.478	-384
861.565	-764
861.653	274
861.740	-397
861.827	-345
861.914	-112
862.001	-300
862.089	-174
862.176	120
862.263	-1114
862.350	-48
862.437	-1422
862.524	127
862.611	-406
862.698	-475
862.785	-1086
862.871	517
862.958	-266
863.045	-915
863.132	-696
863.219	-575
863.306	-932
863.392	92
863.479	-400
863.566	-682
863.652	-525
863.739	63
863.826	-368
863.912	357
863.999	-505
864.086	98
864.172	-1250
864.259	-742
864.345	-1022
864.432	-487
864.518	-636
864.604	199
864.691	-335
864.777	59
864.863	-135
864.950	297
865.036	-939
865.122	325
865.209	383
865.295	14
865.381	-123
865.467	-32
865.553	113
865.639	89
865.726	868
865.812	1764
865.898	3440
865.984	6390
866.070	10063
866.156	13439
866.242	3090
866.328	1097
866.414	-966
866.499	513
866.585	-302
866.671	-265
866.757	-214
866.843	-2
866.928	-906
867.014	418
867.100	380
867.186	359
867.271	-1010
867.357	1087
867.442	617
867.528	850
867.614	-654
867.699	-185
867.785	-79
867.870	-938
867.956	-83
868.041	105
868.127	464
868.212	-24
868.297	-529
868.383	481
868.468	-341
868.553	665
868.639	1529
868.724	2530
868.809	3027
868.894	1014
868.979	-66
869.065	151
869.150	-1358
869.235	-325
869.320	-784
869.405	-80
869.490	-721
869.575	-1026
869.660	-375
869.745	-194
869.830	-808
869.915	250
870.000	-758
870.085	-395
870.169	-884
870.254	-163
870.339	-599
870.424	-970
870.509	-228
870.593	159
870.678	-286
870.763	-413
870.847	-1202
870.932	-122
871.016	-696
871.101	-259
871.186	-819
871.270	-298
871.355	-772
871.439	132
871.523	-447
871.608	-469
871.692	-672
871.777	-359
871.861	-716
871.945	-711
872.030	-684
872.114	-139
872.198	-1070
872.282	-596
872.367	-1457
872.451	-620
872.535	-470
872.619	329
872.703	-897
872.787	54
872.871	-725
872.955	19
873.039	-959
873.123	-526
873.207	-1365
873.291	-623
873.375	-749
873.459	-65
873.543	-768
873.627	-962
873.711	-817
873.794	-51
873.878	-827
873.962	215
874.045	-997
874.129	-618
874.137	-657
874.213	-1049
874.245	-756
874.296	-273
874.352	-700
874.380	-913
874.460	-585
874.464	-573
874.547	-1100
874.568	-707
874.631	455
874.676	-197
874.714	-740
874.784	-218
874.798	-118
874.881	-303
874.892	-380
874.965	-870
874.999	-794
875.048	-728
875.107	-459
875.131	-342
875.215	-667
875.215	-667
875.298	-369
875.323	-665
875.381	-1395
875.430	-905
875.465	-584
875.538	-518
875.548	-505
875.631	-584
875.646	-752
875.714	-1598
875.753	-998
875.798	-274
875.861	-1063
875.881	-1295
875.964	-45
875.968	-74
876.047	-672
876.076	-519
876.130	-287
876.183	-637
876.213	-765
876.291	87
876.296	138
876.379	-610
876.398	-496
876.462	-159
876.506	-37
876.545	90
876.613	99
876.628	126
876.711	-758
876.721	-641
876.794	89
876.828	-323
876.877	-842
876.935	-418
876.960	-258
877.043	-335
877.043	-333
877.125	221
877.150	214
877.208	183
877.258	74
877.291	12
877.365	-719
877.374	-808
877.456	206
877.472	132
877.539	-111
877.579	-94
877.622	-54
877.687	120
877.704	121
877.787	-602
877.794	-608
877.869	-405
877.901	-53
877.952	305
878.008	-192
878.034	-316
878.115	81
878.117	87
878.199	-442
878.222	-413
878.282	-287
878.329	-442
878.364	-689
878.437	-56
878.447	88
878.529	-108
878.544	-28
878.611	171
878.651	-181
878.694	-548
878.758	611
878.776	947
878.858	157
878.865	170
878.941	160
878.972	-113
879.023	-409
879.078	-247
879.105	-268
879.185	-464
879.187	-456
879.269	166
879.292	255
879.351	171
879.399	360
879.433	475
879.506	-615
879.516	-722
879.598	-243
879.613	-332
879.680	-866
879.720	-597
879.762	-323
879.827	-414
879.844	-425
879.926	12
879.933	7
880.007	113
880.040	136
880.089	20
880.147	-495
880.171	-606
880.253	586
880.254	582
880.335	-399
880.360	-79
880.417	811
880.467	622
880.499	586
880.574	1545
880.580	1587
880.662	527
880.680	382
880.744	96
880.787	-12
880.825	-92
880.893	131
880.907	130
880.989	-154
881.000	-167
881.070	148
881.106	77
881.152	-178
881.213	108
881.233	206
881.315	-376
881.319	-374
881.396	-69
881.426	-146
881.478	-366
881.532	52
881.559	253
881.639	-340
881.641	-355
881.722	127
881.745	-91
881.803	-404
881.852	-75
881.885	149
881.958	358
881.966	375
882.047	755
882.064	573
882.129	-432
882.171	-238
882.210	204
882.277	405
882.291	398
882.372	324
882.383	204
882.454	-379
882.489	-222
882.535	-68
882.596	-103
882.616	-118
882.697	-109
882.702	-125
882.778	-5
882.808	306
882.859	509
882.914	344
882.940	315
883.020	201
883.021	201
883.102	-177
883.127	-228
883.183	21
883.233	235
883.264	195
883.339	53
883.345	57
883.426	-79
883.445	-70
883.507	85
883.551	21
883.587	-339
883.657	-486
883.668	-377
883.749	178
883.763	259
883.830	279
883.869	91
883.910	-21
883.975	156
883.991	173
884.072	-73
884.081	-57
884.152	182
884.187	56
884.233	-13
884.292	334
884.314	413
884.394	245
884.398	250
884.475	217
884.504	118
884.555	281
884.610	512
884.636	491
884.716	133
884.716	135
884.797	15
884.821	-35
884.877	-74
884.927	-119
884.958	-87
885.033	306
885.038	338
885.118	267
885.139	326
885.199	273
885.244	218
885.279	518
885.350	938
885.359	897
885.439	715
885.456	607
885.520	273
885.561	281
885.600	215
885.667	-46
885.680	39
885.760	522
885.773	581
885.840	123
885.878	-108
885.920	59
885.984	218
886.000	266
886.080	748
886.089	734
886.160	379
886.195	513
886.240	642
886.300	486
886.320	450
886.400	335
886.406	325
886.480	105
886.511	7
886.560	274
886.616	621
886.640	487
886.720	6
886.722	-8
886.800	-16
886.827	-25
886.879	502
886.932	901
886.959	842
887.038	1046
887.039	1049
887.119	469
887.143	412
887.198	430
887.248	304
887.278	397
887.354	652
887.358	659
887.437	681
887.459	688
887.517	481
887.564	342
887.596	381
887.669	473
887.676	487
887.755	418
887.774	456
887.835	434
887.880	318
887.914	145
887.985	-207
887.994	-167
888.073	220
888.090	319
888.153	463
888.195	471
888.232	402
888.300	329
888.311	350
888.391	334
888.405	364
888.470	328
888.510	225
888.549	280
888.615	470
888.628	540
888.708	771
888.720	837
888.787	593
888.825	360
888.866	232
888.930	73
888.945	122
889.024	383
889.035	414
889.103	451
889.140	446
889.182	357
889.245	289
889.261	210
889.340	-226
889.349	-275
889.419	224
889.454	471
889.498	588
889.559	781
889.577	684
889.656	221
889.664	178
889.735	782
889.768	1066
889.814	1045
889.873	1010
889.978	1033
890.083	566
890.187	659
890.292	188
890.397	1418
890.501	585
890.606	793
890.710	915
890.815	804
890.919	1008
891.024	260
891.128	-5
891.233	470
891.337	325
891.442	600
891.546	90
891.650	-122
891.755	-58
891.859	1044
891.963	1080
892.068	627
892.172	1312
892.276	493
892.380	-304
892.484	539
892.589	452
892.693	78
892.797	219
892.901	1157
893.005	610
893.109	277
893.213	636
893.317	407
893.421	482
893.525	1418
893.629	584
893.733	993
893.837	599
893.941	567
894.045	1211
894.148	-448
894.252	1035
894.356	841
894.460	1799
894.564	-259
894.667	336
894.771	83
894.875	506
894.978	998
895.082	749
895.186	285
895.289	1737
895.393	1336
895.496	986
895.600	-285
895.703	800
895.807	830
895.910	1486
896.014	599
896.117	570
896.221	819
896.324	621
896.427	645
896.531	451
896.634	326
896.737	1324
896.840	222
896.944	690
897.047	414
897.150	332
897.253	460
897.356	1737
897.460	1213
897.563	198
897.666	985
897.769	1812
897.872	164
897.975	131
898.078	888
898.181	698
898.284	331
898.387	1089
898.490	289
898.593	733
898.695	517
898.798	-23
898.901	969
899.004	1102
899.107	-91
899.209	657
899.312	1034
899.415	1189
899.518	138
899.620	1154
899.723	965
899.826	653
899.928	368
900.031	926
900.133	264
900.236	757
900.338	854
900.441	519
900.543	230
900.646	530
900.748	155
900.851	-291
900.953	876
901.055	419
901.158	300
901.260	-300
901.362	862
901.465	-187
901.567	708
901.669	587
901.771	639
901.873	215
901.976	-156
902.078	576
902.180	850
902.282	958
902.384	293
902.486	408
902.588	494
902.690	1226
902.792	1001
902.894	1333
902.996	308
903.098	92
903.200	186
903.302	1061
903.404	785
903.505	723
903.607	529
903.709	-130
903.811	1158
903.913	394
904.014	-356
904.116	-14
904.218	397
904.319	414
904.421	245
904.523	989
904.624	-5
904.726	183
904.827	742
904.929	1126
905.030	153
905.132	-314
905.233	-170
905.335	616
905.436	647
905.537	-508
905.639	1767
905.740	428
905.841	198
905.943	124
906.044	287
906.145	90
906.247	364
906.348	-185
906.449	313
906.550	37
906.651	507
906.752	729
906.854	-849
906.955	839
907.056	577
907.157	-340
907.258	740
907.359	-47
907.460	366
907.561	324
907.662	287
907.762	523
907.863	359
907.964	194
908.065	544
908.166	466
908.267	157
908.367	-207
908.468	910
908.569	-441
908.670	253
908.770	1084
908.871	894
908.971	1165
909.072	190
909.173	279
909.273	366
909.374	584
909.474	-599
909.575	975
909.675	232
909.776	639
909.876	-26
909.977	-236
910.077	35
910.177	218
910.278	589
910.378	916
910.478	269
910.579	106
910.679	400
910.779	121
910.879	354
910.980	-117
911.080	-273
911.180	315
911.280	218
911.380	-222
911.480	195
911.580	561
911.680	466
911.780	396
911.880	134
911.980	601
912.080	9
912.180	19
912.280	-44
912.380	-253
912.480	115
912.580	278
912.679	849
912.779	244
912.879	116
912.979	149
913.078	220
913.178	648
913.278	-16
913.377	-80
913.477	-885
913.577	390
913.676	42
913.776	520
913.875	76
913.975	-466
914.074	-253
914.174	736
914.273	13
914.373	290
914.472	311
914.572	-121
914.671	400
914.770	763
914.870	436
914.969	572
915.068	-424
915.167	407
915.267	-208
915.366	-1041
915.465	243
915.564	211
915.663	367
915.763	485
915.862	110
915.961	586
916.060	-98
916.159	-457
916.258	-245
916.357	-557
916.456	509
916.555	456
916.654	233
916.752	523
916.851	-12
916.950	463
917.049	-325
917.148	-391
917.247	659
917.345	452
917.444	446
917.543	668
917.642	4
917.740	-326
917.839	-568
917.937	75
918.036	657
918.135	776
918.233	63
918.332	-468
918.430	-251
918.529	26
918.627	380
918.726	274
918.824	-228
918.923	253
919.021	-456
919.119	377
919.218	324
919.316	522
919.414	-308
919.512	-126
919.611	425
919.709	2
919.807	-138
919.905	465
920.003	-180
920.102	-788
920.200	269
920.298	-7
920.396	628
920.494	-784
920.592	-513
920.690	-494
920.788	-400
920.886	606
920.984	922
921.082	126
921.180	1160
921.277	280
921.375	703
921.473	41
921.571	247
921.669	129
921.766	-147
921.864	387
921.962	106
922.060	235
922.157	296
922.255	-51
922.352	994
922.450	710
922.548	696
922.645	210
922.743	430
922.840	767
922.938	720
923.035	220
923.133	560
923.230	739
923.327	1020
923.425	877
923.522	589
923.619	946
923.717	1225
923.814	1037
923.911	-44
924.008	1575
924.106	1041
924.203	637
924.300	551
924.397	1108
924.494	1285
924.591	1101
924.688	839
924.786	697
924.883	606
924.979	966
925.077	578
925.173	1489
925.270	981
925.367	748
925.464	332
925.561	1536
925.658	768
925.755	783
925.852	280
925.948	729
926.045	622
926.142	1195
926.239	906
926.335	546
926.432	132
926.529	170
926.625	1064
926.722	781
926.818	639
926.915	1371
927.011	895
927.108	590
927.204	1189
927.301	524
927.397	493
927.494	749
927.590	785
927.687	-308
927.783	714
927.879	904
927.976	590
928.072	354
928.168	659
928.264	738
928.361	-63
928.457	399
928.553	263
928.649	953
928.745	1260
928.841	410
928.937	79
929.033	1136
929.129	568
929.225	954
929.321	270
929.417	214
929.513	-365
929.609	75
929.705	-239
929.801	602
929.897	317
929.993	118
930.089	178
930.184	-181
930.280	-469
930.376	253
930.471	693
930.567	373
930.663	1013
930.758	701
930.854	-295
930.950	422
931.045	554
931.141	291
931.236	134
931.332	272
931.427	-136
931.523	1011
931.618	1577
931.714	138
931.809	37
931.905	400
932.000	94
932.095	544
932.191	234
932.286	813
932.381	599
932.476	1180
932.572	-64
932.667	351
932.762	350
932.857	683
932.952	486
933.047	246
933.142	343
933.237	517
933.332	-62
933.427	813
933.522	643
933.617	-200
933.712	681
933.807	733
933.902	888
933.997	778
934.092	-218
934.187	210
934.282	242
934.376	414
934.471	43
934.566	335
934.661	399
934.755	657
934.850	804
934.945	608
935.039	-665
935.134	665
935.228	442
935.323	228
935.417	1158
935.512	639
935.606	-238
935.701	7
935.795	240
935.890	495
935.984	480
936.079	90
936.173	-191
936.267	1465
936.362	-332
936.456	761
936.550	1217
936.644	482
936.738	27
936.833	717
936.927	-99
937.021	-108
937.115	1046
937.209	-1042
937.303	500
937.397	830
937.491	713
937.585	514
937.679	98
937.773	172
937.867	119
937.961	362
938.055	689
938.149	121
938.243	620
938.337	458
938.430	12
938.524	141
938.618	-86
938.712	615
938.805	-52
938.899	773
938.993	59
939.086	96
939.180	957
939.274	846
939.367	426
939.461	67
939.554	445
939.648	-219
939.741	-184
939.835	230
939.928	885
940.022	191
940.115	237
940.208	109
940.302	330
940.395	1112
940.488	-347
940.582	286
940.675	222
940.768	202
940.861	123
940.954	300
941.048	404
941.141	401
941.234	456
941.327	-2
941.420	644
941.513	935
941.606	513
941.699	394
941.792	477
941.885	972
941.978	314
942.071	432
942.164	-59
942.257	339
942.349	-159
942.442	-802
942.535	-160
942.628	-145
942.721	-184
942.813	-658
942.906	299
942.999	-27
943.091	692
943.184	183
943.277	-158
943.369	-133
943.462	615
943.554	608
943.647	-515
943.739	315
943.832	500
943.924	-506
944.017	10
944.109	-410
944.201	-151
944.294	-206
944.386	-185
944.478	192
944.571	543
944.663	89
944.755	-52
944.847	-461
944.940	628
945.032	-106
945.124	-472
945.216	703
945.308	265
945.400	228
945.492	-290
945.584	97
945.676	446
945.768	437
945.860	70
945.952	-642
946.044	75
946.136	-571
946.228	827
946.320	-545
946.412	-207
946.503	-1002
946.595	949
946.687	103
946.779	-210
946.870	-43
946.962	-47
947.054	-95
947.145	687
947.237	344
947.329	-779
947.420	749
947.512	467
947.603	153
947.695	-586
947.786	-360
947.878	-179
947.969	535
948.061	-372
948.152	-690
948.243	-191
948.335	-355
948.426	-1090
948.517	410
948.609	102
948.700	-319
948.791	-322
948.882	277
948.973	-106
949.065	-638
949.156	-414
949.247	-358
949.338	380
949.429	-509
949.520	-171
949.611	-841
949.702	53
949.793	-38
949.884	-272
949.975	-166
950.066	-328
950.157	-674
950.247	-56
950.338	-90
950.429	-52
950.520	64
950.611	-205
950.701	-948
950.792	-308
950.883	562
950.973	129
951.064	-27
951.155	131
951.245	-341
951.336	-608
951.427	-1194
951.517	-307
951.608	-4
951.698	-802
951.788	126
951.879	-333
951.969	-280
952.060	198
952.150	95
952.240	-16
952.331	-1005
952.421	126
952.511	-151
952.602	-205
952.692	-1017
952.782	-624
952.872	-398
952.962	-583
953.052	-698
953.143	-503
953.233	329
953.323	-357
953.413	-242
953.503	146
953.593	-471
953.683	2
953.773	-274
953.863	-533
953.953	-417
954.042	-1032
954.132	-639
954.222	108
954.312	-396
954.402	-313
954.492	-572
954.581	-238
954.671	-342
954.761	-1077
954.850	368
954.940	-540
955.030	-111
955.119	-213
955.209	-571
955.298	-119
955.388	-302
955.477	-161
955.567	-309
955.656	-300
955.746	-325
955.835	-34
955.925	-716
956.014	-378
956.103	-373
956.193	-1263
956.282	-427
956.371	320
956.461	-759
956.550	-1042
956.639	-752
956.728	-993
956.817	-289
956.906	-778
956.995	29
957.085	-1089
957.174	-92
957.263	-70
957.352	-364
957.441	-488
957.530	-503
957.619	-630
957.708	-537
957.796	-391
957.885	-577
957.974	-635
958.063	-328
958.152	-1145
958.241	-524
958.329	153
958.418	-255
958.507	-1583
958.596	-687
958.684	-1002
958.773	426
958.861	-154
958.950	-843
959.039	-242
959.127	-113
959.216	-53
959.304	272
959.393	-792
959.481	148
959.570	62
959.658	-24
959.746	-44
959.835	-90
959.923	-506
960.011	-862
960.100	356
960.188	-400
960.276	-1385
960.365	-461
960.453	-961
960.541	-359
960.629	-271
960.717	-144
960.805	-1329
960.893	4
960.981	-802
961.069	536
961.158	-156
961.245	-289
961.333	-861
961.421	-958
961.509	-688
961.597	-97
961.685	-794
961.773	-47
961.861	-934
961.949	467
962.036	-646
962.124	25
962.212	-1395
962.299	-418
962.387	-941
962.475	-575
962.562	-1062
962.650	124
962.738	-522
962.825	10
962.913	-1050
963.000	-730
963.088	278
963.175	-722
963.263	-1303
963.350	-1163
963.438	-73
963.525	-965
963.612	8
963.700	274
963.787	2479
963.874	448
963.962	-705
964.049	-1076
964.136	-1254
964.223	-487
964.310	-582
964.398	-111
964.485	-240
964.572	-142
964.659	13
964.746	373
964.833	-1082
964.920	-615
965.007	-172
965.094	7
965.181	-357
965.268	-314
965.355	-45
965.441	-799
965.528	-1021
965.615	406
965.702	-840
965.789	-193
965.875	-951
965.962	-762
966.049	-1140
966.136	-311
966.222	-604
966.309	-102
966.395	-957
966.482	-529
966.569	-506
966.655	-870
966.742	-466
966.828	-413
966.915	-1035
967.001	-972
967.087	-560
967.174	-271
967.260	-142
967.347	-225
967.433	-631
967.519	1364
967.605	15
967.692	-617
967.778	-463
967.864	-779
967.950	-1255
968.036	-1273
968.123	-320
968.209	-877
968.295	-2316
968.381	-612
968.467	-1130
968.553	-1042
968.639	109
968.725	-1038
968.811	233
968.897	-339
968.983	-875
969.069	-783
969.154	-54
969.240	-222
969.326	-834
969.412	-331
969.497	-1008
969.583	-1129
969.669	-339
969.755	-31
969.840	-806
969.926	-577
970.012	-725
970.097	147
970.183	-331
970.268	-535
970.354	-597
970.439	-1737
970.525	569
970.610	-909
970.696	247
970.781	239
970.866	-915
970.952	121
971.037	-1199
971.122	-956
971.208	-625
971.293	-76
971.378	-1044
971.463	-572
971.549	-456
971.634	-646
971.719	13
971.804	-923
971.889	-798
971.974	-670
972.059	-780
972.144	-913
972.229	-892
972.314	-697
972.399	-178
972.484	-441
972.569	4
972.654	-1303
972.739	210
972.824	221
972.908	-266
972.993	-726
973.078	-420
973.163	-732
973.247	-496
973.332	-2246
973.417	-196
973.501	-1647
973.586	639
973.671	-784
973.755	-592
973.840	-648
973.924	-311
974.009	-180
974.093	-528
974.178	724
974.262	-67
974.346	-494
974.431	-593
974.515	-782
974.600	-667
974.684	-362
974.768	-865
974.852	737
974.937	-579
975.021	-885
975.105	-468
975.189	-161
975.273	496
975.358	-982
975.442	-1311
975.526	35
975.610	-343
975.694	-918
975.778	-199
975.862	-1091
975.946	-2286
976.030	-368
976.114	-457
976.198	-1055
976.281	-345
976.365	314
976.449	-983
976.533	-496
976.617	-385
976.700	575
976.784	-615
976.868	-1081
976.951	-479
977.035	-105
977.119	-1137
977.202	-465
977.286	-916
977.369	10
977.453	173
977.536	-1074
977.620	-1230
977.703	55
977.787	-754
977.870	522
977.953	-456
978.037	-906
978.120	147
978.203	-126
978.287	-934
978.370	-292
978.453	-1057
978.536	-499
978.620	253
978.703	-377
978.786	470
978.869	-563
978.952	-1016
979.035	403
979.118	-803
979.201	-172
979.284	-902
979.367	-829
979.450	-614
979.533	-1195
979.616	-992
979.699	-997
979.782	-1063
979.865	-1045
979.948	-461
980.030	-1051
980.113	-256
980.196	-938
980.279	-295
980.361	-1204
980.444	-587
980.526	-883
980.609	-665
980.692	-835
980.774	233
980.857	-1116
980.939	294
981.022	-349
981.104	-815
981.187	-655
981.269	310
981.352	-604
981.434	-1477
981.516	-1152
981.599	-406
981.681	-1098
981.763	-924
981.846	-1425
981.928	-717
982.010	-72
982.092	-412
982.174	-897
982.256	-1315
982.339	-911
982.421	-1127
982.503	-37
982.585	-1334
982.667	-538
982.749	-1181
982.831	261
982.913	-1089
982.995	-234
983.077	-1003
983.158	-104
983.240	-770
983.322	-175
983.404	-542
983.486	-1362
983.568	-50
983.649	-1040
983.731	163
983.813	53
983.894	-719
983.976	-1601
984.058	-1553
984.139	-386
984.221	-1106
984.302	-357
984.384	-359
984.465	-1316
984.547	-1760
984.628	-1670
984.710	-9
984.791	-850
984.872	-710
984.954	-970
985.035	230
985.116	-647
985.198	-1210
985.279	-459
985.360	-1165
985.441	-727
985.522	-845
985.604	-1078
985.685	-2215
985.766	963
985.847	420
985.928	-1742
986.009	-1125
986.090	-867
986.171	-1297
986.252	-779
986.333	-879
986.414	-848
986.495	-879
986.576	-465
986.656	-154
986.737	-442
986.818	-904
986.899	-992
986.980	-1220
987.060	-182
987.141	-1312
987.222	-976
987.302	-704
987.383	-492
987.464	-1138
987.544	-635
987.625	-718
987.705	-472
987.786	-390
987.866	-520
987.947	-871
988.027	-401
988.108	-936
988.188	-886
988.268	-946
988.349	-663
988.429	-1062
988.509	-472
988.589	-1087
988.670	-2201
988.750	34
988.830	-1031
988.910	-168
988.990	-831
989.070	-884
989.151	-1725
989.231	-1286
989.311	-416
989.391	-544
989.471	-1321
989.551	-949
989.631	-423
989.711	-581
989.791	-1356
989.870	-736
989.950	192
990.030	-1263
990.110	-724
990.190	-916
990.269	-797
990.349	-1778
990.429	-1212
990.509	-1122
990.588	-1557
990.668	-953
990.747	-1096
990.827	-899
990.907	-504
990.986	-1577
991.066	-931
991.145	-809
991.225	-1116
991.304	-1251
991.383	-682
991.463	-1128
991.542	-530
991.622	-547
991.701	-772
991.780	-1293
991.859	-967
991.939	-1614
992.018	-1479
992.097	-860
992.176	-321
992.256	-1319
992.335	-1718
992.414	-1235
992.493	-1647
992.572	-704
992.651	2
992.730	-1035
992.809	-1057
992.888	-1477
992.967	-1772
993.046	-1302
993.125	-1332
993.203	-1266
993.282	-1320
993.361	-1427
993.440	-1579
993.519	-1367
993.597	-2053
993.676	-1592
993.755	-313
993.834	-1325
993.912	-2102
993.991	-1186
994.069	-593
994.148	-2298
994.226	-1269
994.305	-1488
994.384	-2026
994.462	-4
994.540	-1688
994.619	-1435
994.697	-1762
994.776	-1243
994.854	-1396
994.932	-1856
995.011	-1185
995.089	-1671
995.167	-1140
995.245	-1249
995.324	-2217
995.402	-311
995.480	-1429
995.558	-1362
995.636	-2195
995.714	-1549
995.792	-541
995.870	-2050
995.948	-1304
996.026	-509
996.104	-2131
996.182	-1009
996.260	-2117
996.338	-839
996.416	-2177
996.494	-1697
996.572	-208
996.649	-1486
996.727	-2091
996.805	-1367
996.883	-2465
996.960	-1818
997.038	-1315
997.116	-621
997.193	-1687
997.271	-623
997.348	-1485
997.426	-1644
997.504	-2426
997.581	-931
997.658	-950
997.736	-2320
997.813	-1590
997.891	-1431
997.968	-1577
998.046	-1104
998.123	-1375
998.200	-872
998.277	-1956
998.355	-543
998.432	-1583
998.509	-1791
998.586	-1606
998.663	-1899
998.741	-1359
998.818	-1870
998.895	-1434
998.972	-1178
999.049	-1121
999.126	-2015
999.203	-864
999.280	-1680
999.357	-1249
999.434	-1738
999.511	-1288
999.587	-1425
999.664	-1662
999.741	-1518
999.818	-707
999.895	-1647
999.971	-1245
1000.048	-1644
1000.125	-744
1000.202	-1135
1000.278	-1150
1000.355	-1200
1000.431	-1215
1000.508	-2754
1000.584	-2166
1000.661	-1091
1000.738	-2148
1000.814	-1771
1000.890	-2339
1000.967	-2561
1001.043	-1329
1001.120	-2858
1001.196	-1601
1001.272	-2564
1001.349	-989
1001.425	-1796
1001.501	-1055
1001.577	-2299
1001.654	-1776
1001.730	-1309
1001.806	-1160
1001.882	-1942
1001.958	-1079
1002.034	-1452
1002.110	-1985
1002.186	-1324
1002.262	-1909
1002.338	-2976
1002.414	-1723
1002.490	-1289
1002.566	-1809
1002.642	-2015
1002.718	-1449
1002.794	-1509
1002.870	-2133
1002.945	-1137
1003.021	-2360
1003.097	-1829
1003.173	-836
1003.248	-1480
1003.324	-1929
1003.400	-1534
1003.475	-2032
1003.551	-1110
1003.626	-1211
1003.702	-1556
1003.777	-1244
1003.853	-1759
1003.928	-2466
1004.004	-1635
1004.079	-1048
1004.155	-1968
1004.230	-1720
1004.305	-1062
1004.381	-1563
1004.456	-1462
1004.531	-2113
1004.607	-1738
1004.682	-1624
1004.757	-978
1004.832	-1340
1004.907	-1946
1004.982	-1603
1005.057	-1982
1005.133	-2277
1005.208	-1391
1005.283	-1748
1005.358	-1542
1005.433	-1229
1005.508	-1048
1005.583	-2221
1005.657	-2349
1005.732	-1286
1005.807	-2350
1005.882	-1720
1005.957	-1202
1006.032	-1204
1006.106	-1186
1006.181	-1772
1006.256	-1669
1006.331	-2039
1006.405	-1913
1006.480	-1135
1006.554	-1532
1006.629	-1354
1006.704	-1416
1006.778	-1442
1006.853	-628
1006.927	-1273
1007.002	-1755
1007.076	-323
1007.150	-1354
1007.225	-1500
1007.299	-2148
1007.373	-1565
1007.448	-1629
1007.522	-1278
1007.596	-1946
1007.671	-1961
1007.745	-554
1007.819	-2275
1007.893	-1329
1007.967	-954
1008.041	-3195
1008.115	-509
1008.190	-2675
1008.264	-1422
1008.338	-2193
1008.412	-1977
1008.486	-2016
1008.560	-1298
1008.633	-1499
1008.707	-1424
1008.781	-1375
1008.855	-1776
1008.929	-1435
1009.003	-1722
1009.076	-1791
1009.150	-1791
1009.224	-1177
1009.298	-1193
1009.371	-2058
1009.445	-1228
1009.519	-2108
1009.592	-1663
1009.666	-1520
1009.739	-2009
1009.813	-1755
1009.886	-1026
1009.960	-2578
1010.033	-1635
1010.107	-2090
1010.180	-1498
1010.253	-1520
1010.327	-1929
1010.400	-1831
1010.473	-1846
1010.547	-361
1010.620	-1510
1010.693	-1017
1010.766	-2261
1010.840	-909
1010.913	-1253
1010.986	-1609
1011.059	-1652
1011.132	-1467
1011.205	-724
1011.278	-2036
1011.351	-1844
1011.424	-1288
1011.497	-1989
1011.570	-1895
1011.643	-677
1011.716	-1686
1011.789	-1931
1011.862	-1829
1011.934	-822
1012.007	-2275
1012.080	-1191
1012.153	-2286
1012.225	-1160
1012.298	-1817
1012.371	-1411
1012.443	-1523
1012.516	-2207
1012.588	-1424
1012.661	-1758
1012.733	-2076
1012.806	-1344
1012.879	-1408
1012.951	-818
1013.023	-1308
1013.096	-1346
1013.168	-2035
1013.241	-782
1013.313	-2115
1013.385	-1047
1013.458	-2350
1013.530	-435
1013.602	-3078
1013.674	-1487
1013.746	-2148
1013.819	-1922
1013.891	-1034
1013.963	-1242
1014.035	-1249
1014.107	-1837
1014.179	-1581
1014.251	-1522
1014.323	-833
1014.395	-1627
1014.467	-2114
1014.539	-1843
1014.611	-2228
1014.683	-1819
1014.754	-2157
1014.826	-1971
1014.898	-927
1014.970	-1501
1015.042	-972
1015.113	-1313
1015.185	-1841
1015.257	-2330
1015.328	-1869
1015.400	-2067
1015.471	-1121
1015.543	-1845
1015.615	-1421
1015.686	-2128
1015.757	-1667
1015.829	-1326
1015.901	-1596
1015.972	-1315
1016.043	-1604
1016.115	-1721
1016.186	-1991
1016.257	-2048
1016.328	-986
1016.400	-1168
1016.471	-2522
1016.542	-1687
1016.613	-1555
1016.685	-1201
1016.756	-1346
1016.827	-1743
1016.898	-1726
1016.969	-295
1017.040	-2031
1017.111	-1703
1017.182	-1554
1017.253	-2332
1017.324	-2278
1017.395	-1862
1017.466	-1908
1017.537	-1685
1017.608	-1882
1017.678	-1624
1017.749	-2150
1017.820	-1241
1017.891	-1521
1017.961	-1774
1018.032	-1682
1018.103	-1676
1018.173	-1775
1018.244	-2440
1018.315	-2269
1018.385	-975
1018.456	-2235
1018.526	-1952
1018.597	-2272
1018.667	-2130
1018.738	-705
1018.808	-1080
1018.878	-907
1018.949	-1559
1019.019	-1166
1019.089	-1556
1019.160	-1642
1019.230	-2521
1019.300	-2313
1019.371	-2160
1019.441	-2105
1019.511	-1981
1019.581	-2021
1019.651	-1526
1019.721	-2133
1019.791	-1219
1019.861	-1681
1019.931	-1699
1020.001	-2273
1020.071	-1462
1020.141	-1845
1020.211	-1586
1020.281	-2429
1020.351	-1877
1020.421	-1369
1020.491	-1571
1020.560	-2236
1020.630	-1730
1020.700	-2265
1020.770	-1820
1020.839	-2577
1020.909	-2197
1020.979	-2326
1021.048	-2185
1021.118	-1969
1021.187	-1422
1021.257	-2184
1021.326	-1053
1021.396	-1315
1021.465	-1099
1021.535	-1702
1021.604	-2714
1021.674	-1738
1021.743	-1476
1021.812	-1499
1021.882	-1469
1021.951	-501
1022.020	-1481
1022.089	-2055
1022.159	-2110
1022.228	-1996
1022.297	-1761
1022.366	-1765
1022.435	-2229
1022.504	-1434
1022.573	-1829
1022.642	-1856
1022.711	-1919
1022.781	-1691
1022.849	-869
1022.918	-2313
1022.987	-1796
1023.056	-1385
1023.125	-1576
1023.194	-2051
1023.263	-1915
1023.331	-1915
1023.400	-2454
1023.469	-2177
1023.538	-1015
1023.606	-2052
1023.675	-1736
1023.744	-1985
1023.812	-2443
1023.881	-1475
1023.949	-1654
1024.018	-2227
1024.086	-1911
1024.155	-2799
1024.223	-2576
1024.292	-2094
1024.360	-1910
1024.429	-1720
1024.497	-2202
1024.565	-1602
1024.634	-3048
1024.702	-1297
1024.770	-1825
1024.838	-2015
1024.907	-1754
1024.975	-2378
1025.043	-1687
1025.111	-2312
1025.179	-1552
1025.247	-2160
1025.315	-2200
1025.383	-1761
1025.451	-2122
1025.519	-2208
1025.587	-1851
1025.655	-1827
1025.723	-1344
1025.791	-1869
1025.859	-1822
1025.927	-1546
1025.995	-1635
1026.062	-2468
1026.130	-1951
1026.198	-2245
1026.266	-1788
1026.333	-1989
1026.401	-916
1026.469	-1935
1026.536	-2411
1026.604	-2452
1026.671	-2077
1026.739	-2001
1026.806	-2855
1026.874	-1273
1026.941	-1513
1027.009	-2512
1027.076	-2019
1027.144	-1621
1027.211	-2001
1027.278	-1744
1027.345	-2224
1027.413	-1346
1027.480	-1967
1027.547	-2060
1027.614	-2070
1027.682	-1660
1027.749	-2195
1027.816	-2532
1027.883	-1962
1027.950	-1691
1028.017	-2387
1028.084	-1334
1028.151	-1863
1028.218	-1978
1028.285	-1924
1028.352	-2130
1028.419	-1847
1028.486	-1531
1028.553	-2015
1028.619	-2572
1028.686	-2454
1028.753	-2329
1028.820	-2570
1028.886	-2379
1028.953	-1982
1029.020	-1878
1029.086	-1837
1029.153	-1645
1029.220	-1270
1029.286	-2358
1029.353	-2453
1029.419	-2602
1029.486	-2358
1029.552	-1602
1029.619	-2299
1029.685	-2329
1029.751	-2273
1029.818	-1681
1029.884	-1616
1029.951	-1337
1030.017	-2180
1030.083	-2383
1030.149	-1850
1030.216	-2662
1030.282	-1963
1030.348	-2491
1030.414	-2416
1030.480	-2990
1030.546	-1671
1030.612	-2371
1030.678	-2659
1030.744	-2207
1030.810	-2181
1030.876	-2432
1030.942	-2633
1031.008	-2113
1031.074	-2058
1031.140	-1453
1031.206	-912
1031.272	-2708
1031.337	-1682
1031.403	-1744
1031.469	-2174
1031.534	-2087
1031.600	-1820
1031.666	-2662
1031.731	-1645
1031.797	-1615
1031.863	-2543
1031.928	-2043
1031.994	-2001
1032.059	-2165
1032.125	-2266
1032.190	-1394
1032.256	-2485
1032.321	-2729
1032.386	-1769
1032.452	-2052
1032.517	-2077
1032.582	-2100
1032.647	-2746
1032.713	-1744
1032.778	-2088
1032.843	-2100
1032.908	-2735
1032.974	-1791
1033.039	-2207
1033.104	-1892
1033.169	-2897
1033.234	-2233
1033.299	-1696
1033.364	-1866
1033.429	-3023
1033.494	-2298
1033.559	-2572
1033.624	-2219
1033.688	-2167
1033.753	-3149
1033.818	-1406
1033.883	-2135
1033.948	-2007
1034.013	-2339
1034.077	-1649
1034.142	-1485
1034.207	-3043
1034.271	-970
1034.336	-1692
1034.400	-2245
1034.465	-1786
1034.530	-3021
1034.594	-2009
1034.658	-1786
1034.723	-2837
1034.787	-1709
1034.852	-2193
1034.916	-2424
1034.981	-3005
1035.045	-1792
1035.109	-2248
1035.173	-1827
1035.238	-3092
1035.302	-1838
1035.366	-2013
1035.430	-2131
1035.495	-2563
1035.559	-1756
1035.623	-2325
1035.687	-2725
1035.751	-1546
1035.815	-2072
1035.879	-2783
1035.943	-2941
1036.007	-1923
1036.071	-2182
1036.135	-2279
1036.198	-2150
1036.262	-2654
1036.326	-2315
1036.390	-2159
1036.454	-1613
1036.517	-1791
1036.581	-3056
1036.645	-1859
1036.709	-2346
1036.772	-2221
1036.836	-2255
1036.900	-2256
1036.963	-2341
1037.026	-2013
1037.090	-1772
1037.154	-2023
1037.217	-2397
1037.280	-2369
1037.344	-2273
1037.407	-2512
1037.471	-1425
1037.534	-2037
1037.597	-2353
1037.661	-2617
1037.724	-2486
1037.787	-2454
1037.850	-2557
1037.913	-1667
1037.977	-1435
1038.040	-1801
1038.103	-2251
1038.166	-2826
1038.229	-2662
1038.292	-2883
1038.355	-2200
1038.418	-2385
1038.481	-1226
1038.544	-1723
1038.607	-1990
1038.670	-2258
1038.732	-1838
1038.795	-1998
1038.858	-1800
1038.921	-2113
1038.984	-1755
1039.046	-2025
1039.109	-1985
1039.172	-2132
1039.234	-2184
1039.297	-2098
1039.360	-1887
1039.422	-1647
1039.485	-2218
1039.547	-2368
1039.610	-1891
1039.672	-1699
1039.734	-1568
1039.797	-2140
1039.859	-1755
1039.922	-2406
1039.984	-1951
1040.046	-2279
1040.109	-1981
1040.171	-1979
1040.233	-2346
1040.295	-1926
1040.358	-1915
1040.420	-2016
1040.482	-2482
1040.544	-2306
1040.606	-2451
1040.668	-2092
1040.730	-2773
1040.792	-1872
1040.854	-2560
1040.916	-1844
1040.978	-1660
1041.040	-1450
1041.102	-2438
1041.164	-2070
1041.225	-1896
1041.287	-1989
1041.349	-2353
1041.411	-2125
1041.472	-2745
1041.534	-2455
1041.596	-2745
1041.657	-1944
1041.719	-1682
1041.781	-2169
1041.842	-2182
1041.904	-1530
1041.965	-1687
1042.027	-2435
1042.088	-407
1042.150	-1352
1042.211	-2638
1042.272	-1552
1042.334	-1914
1042.395	-2135
1042.456	-1704
1042.518	-1977
1042.579	-1874
1042.640	-2330
1042.701	-2857
1042.763	-2594
1042.824	-1626
1042.885	-2155
1042.946	-1844
1043.007	-1196
1043.068	-2075
1043.129	-1949
1043.190	-2304
1043.251	-1893
1043.312	-1810
1043.373	-1970
1043.434	-1407
1043.495	-1684
1043.556	-1473
1043.616	-2300
1043.677	-2368
1043.738	-2500
1043.799	-2020
1043.859	-2444
1043.920	-3379
1043.981	-1851
1044.041	-2244
1044.102	-2113
1044.162	-1666
1044.223	-2289
1044.284	-1802
1044.344	-2309
1044.405	-1802
1044.465	-2000
1044.525	-1862
1044.586	-1821
1044.646	-1793
1044.707	-2199
1044.767	-1480
1044.827	-2313
1044.887	-2227
1044.948	-1342
1045.008	-1708
1045.068	-964
1045.128	-1438
1045.188	-1641
1045.249	-1999
1045.309	-1916
1045.369	-918
1045.429	-2341
1045.489	-1997
1045.549	-1856
1045.609	-1853
1045.669	-1802
1045.729	-1619
1045.789	-1387
1045.848	-2253
1045.908	-1434
1045.968	-1779
1046.028	-1318
1046.088	-1751
1046.147	-1443
1046.207	-2672
1046.267	-1551
1046.326	-1691
1046.386	-1426
1046.446	-1718
1046.505	-1510
1046.565	-1237
1046.624	-1859
1046.684	-653
1046.743	-1075
1046.803	-1441
1046.862	-589
1046.922	0
