'Start Wavelength	183.907
'End Wavelength	1046.922
'Gate Delay	5.000
'Gate Width (ms)	1.050
'Laser Output Level	0.000
'X Position	0.000
'Y Position	0.000
'Z Position	0.000
'Grid Point Number	1.000
'Shot Number	100.000
183.907	1049.000
183.977	-351.000
184.047	315
184.116	221
184.186	781
184.256	323
184.325	-262
184.395	-358
184.465	970
184.534	-130
184.604	210
184.674	351
184.743	73
184.813	383
184.883	202
184.952	-231
185.022	721
185.092	187
185.161	570
185.231	127
185.301	836
185.370	52
185.440	-111
185.509	345
185.579	633
185.649	308
185.718	866
185.788	-258
185.857	147
185.927	505
185.996	-103
186.066	74
186.136	174
186.205	333
186.275	807
186.344	17
186.414	-139
186.483	-680
186.553	726
186.622	1449
186.692	-243
186.761	-64
186.831	317
186.900	-370
186.970	634
187.039	565
187.109	1551
187.178	739
187.248	787
187.317	1063
187.387	1419
187.456	475
187.526	2431
187.595	891
187.664	747
187.734	1062
187.803	695
187.873	835
187.942	1252
188.012	597
188.081	993
188.150	532
188.220	1069
188.289	816
188.358	1188
188.428	63
188.497	0
188.567	1298
188.636	877
188.705	459
188.775	92
188.844	338
188.913	856
188.983	-68
189.052	268
189.121	126
189.191	1370
189.260	2097
189.329	2696
189.399	1938
189.468	1342
189.537	1470
189.606	1464
189.676	996
189.745	1642
189.814	1539
189.883	942
189.953	1502
190.022	3118
190.091	9196
190.161	11606
190.230	3881
190.299	2516
190.368	1505
190.437	1199
190.507	872
190.576	1384
190.645	1042
190.714	1040
190.783	931
190.853	1752
190.922	862
190.991	1107
191.060	1668
191.129	1722
191.198	1174
191.268	848
191.337	147
191.406	1640
191.475	968
191.544	829
191.613	604
191.682	726
191.752	-327
191.821	1070
191.890	677
191.959	1876
192.028	764
192.097	1163
192.166	1563
192.235	686
192.304	1173
192.373	1472
192.442	614
192.511	702
192.580	390
192.650	620
192.719	1847
192.788	778
192.857	1435
192.926	896
192.995	1490
193.064	2592
193.133	2684
193.202	2458
193.271	2546
193.340	2532
193.409	2239
193.478	3339
193.547	3230
193.615	5550
193.684	3909
193.753	2432
193.822	2258
193.891	1675
193.960	1828
194.029	1673
194.098	1060
194.167	1482
194.236	1119
194.305	1560
194.374	1803
194.443	1393
194.512	1294
194.580	1127
194.649	1286
194.718	1888
194.787	1228
194.856	938
194.925	1627
194.994	1557
195.062	1460
195.131	1699
195.200	1150
195.269	2362
195.338	1294
195.407	1804
195.475	1232
195.544	2687
195.613	1777
195.682	1200
195.751	1658
195.819	1974
195.888	1061
195.957	1786
196.026	1522
196.094	2682
196.163	1603
196.232	1644
196.301	1001
196.369	2380
196.438	1351
196.507	1215
196.576	1028
196.644	2020
196.713	745
196.782	1882
196.850	1201
196.919	1056
196.988	1158
197.056	1429
197.125	807
197.194	2206
197.262	637
197.331	1527
197.400	2049
197.468	1560
197.537	1946
197.606	2741
197.674	4293
197.743	11480
197.812	4415
197.880	10389
197.949	6405
198.017	9654
198.086	6416
198.155	2851
198.223	4878
198.292	12730
198.360	4713
198.429	3431
198.497	3244
198.566	7574
198.635	10815
198.703	4260
198.772	4768
198.840	14100
198.909	13711
198.977	4223
199.046	3279
199.114	2776
199.183	2959
199.251	2980
199.320	1896
199.388	1378
199.457	1623
199.525	1411
199.594	1717
199.662	1590
199.731	1106
199.799	1876
199.867	2184
199.936	1449
200.004	1468
200.073	2099
200.141	1962
200.210	1834
200.278	950
200.346	1679
200.415	1149
200.483	2751
200.552	2071
200.620	1635
200.688	2278
200.757	1775
200.825	1706
200.893	1845
200.962	1969
201.030	2315
201.098	1583
201.167	2909
201.235	1533
201.303	1861
201.372	1666
201.440	1121
201.508	1802
201.577	1667
201.645	1679
201.713	1344
201.781	1763
201.850	2255
201.918	595
201.986	2003
202.055	1906
202.123	1490
202.191	1983
202.259	2088
202.327	1955
202.396	1817
202.464	1494
202.532	2529
202.600	6690
202.669	3756
202.737	2076
202.805	1550
202.873	1659
202.941	1936
203.009	2269
203.078	1951
203.146	2152
203.214	1860
203.282	1226
203.350	2260
203.418	2177
203.487	2538
203.555	2667
203.623	2147
203.691	2472
203.759	2038
203.827	2165
203.895	2906
203.963	2448
204.031	2108
204.099	2709
204.168	1702
204.236	2527
204.304	2598
204.372	1853
204.440	2412
204.508	2291
204.576	2818
204.644	2456
204.712	2613
204.780	1635
204.848	2786
204.916	2225
204.984	2802
205.052	3469
205.120	2922
205.188	2574
205.256	2329
205.324	2828
205.392	1938
205.460	3332
205.528	4601
205.596	3281
205.664	3040
205.732	5023
205.799	15517
205.867	24705
205.935	7059
206.003	4009
206.071	3987
206.139	4840
206.207	3766
206.275	3079
206.343	2774
206.411	3160
206.478	2843
206.546	2921
206.614	3319
206.682	3502
206.750	2850
206.818	2566
206.885	3172
206.953	1741
207.021	3085
207.089	2937
207.157	2096
207.225	3026
207.292	3018
207.360	2603
207.428	3454
207.496	3248
207.563	2882
207.631	3083
207.699	1897
207.767	2858
207.834	2940
207.902	3016
207.970	2656
208.038	2515
208.105	3719
208.173	3775
208.241	6819
208.309	5433
208.376	4728
208.444	9601
208.512	6639
208.579	2811
208.647	3895
208.715	3635
208.782	4175
208.850	3865
208.918	5162
208.985	5626
209.053	3947
209.120	3335
209.188	3045
209.256	3176
209.323	3681
209.391	5251
209.459	4718
209.526	3149
209.594	3577
209.661	3385
209.729	4046
209.796	3422
209.864	3215
209.932	3152
209.999	4402
210.067	3751
210.134	3324
210.202	4058
210.269	4334
210.337	4422
210.404	3927
210.472	3771
210.539	4072
210.607	3127
210.674	4543
210.742	4401
210.809	4042
210.877	4584
210.944	4778
211.012	3656
211.079	4848
211.146	4157
211.214	4013
211.281	4581
211.349	4016
211.416	3944
211.484	5086
211.551	4216
211.618	4568
211.686	3832
211.753	4635
211.821	4430
211.888	3823
211.955	4577
212.023	5942
212.090	5506
212.157	6530
212.225	7071
212.292	15945
212.359	32151
212.427	71193
212.494	32954
212.561	13116
212.629	9063
212.696	6851
212.763	6871
212.831	5681
212.898	5387
212.965	4685
213.032	4580
213.100	5880
213.167	4790
213.234	6195
213.301	4584
213.369	4627
213.436	4154
213.503	4646
213.570	5319
213.638	5439
213.705	4129
213.772	3809
213.839	5455
213.906	5902
213.973	5725
214.041	4777
214.108	4340
214.175	4951
214.242	4351
214.309	4346
214.376	4518
214.444	5100
214.511	6061
214.578	5709
214.645	4827
214.712	4497
214.779	5506
214.846	5353
214.913	5915
214.980	6462
215.048	7352
215.115	6827
215.182	6245
215.249	5158
215.316	4234
215.383	5113
215.450	5142
215.517	4770
215.584	4272
215.651	3952
215.718	4404
215.785	6268
215.852	5411
215.919	5613
215.986	4795
216.053	4417
216.120	4127
216.187	4796
216.254	5509
216.321	5114
216.388	5776
216.455	6230
216.522	5219
216.589	6270
216.656	9723
216.722	9950
216.789	7273
216.856	8380
216.923	6690
216.990	6256
217.057	6361
217.124	7930
217.191	6940
217.258	7822
217.324	9597
217.391	10673
217.458	8499
217.525	7018
217.592	6728
217.659	7055
217.725	7128
217.792	9787
217.859	8110
217.926	5837
217.993	4603
218.059	5338
218.126	4121
218.193	4013
218.260	3837
218.327	3683
218.393	4488
218.460	4405
218.527	4519
218.594	5556
218.660	8986
218.727	9885
218.794	4881
218.860	5395
218.927	3843
218.994	4337
219.061	4255
219.127	5144
219.194	7688
219.261	4905
219.327	4405
219.394	4177
219.461	3280
219.527	3410
219.594	7666
219.661	6072
219.727	3883
219.794	5688
219.860	4601
219.927	5044
219.994	6080
220.060	9918
220.127	6875
220.193	6116
220.260	6733
220.326	8323
220.393	13034
220.460	17082
220.526	11044
220.593	8709
220.659	8359
220.726	11650
220.792	31047
220.859	21607
220.925	21811
220.992	30111
221.058	37339
221.125	42036
221.191	32813
221.258	13120
221.324	8379
221.391	7589
221.457	6096
221.524	7607
221.590	11399
221.657	44322
221.723	29967
221.789	27110
221.856	23316
221.922	14149
221.989	8097
222.055	7111
222.121	5845
222.188	7272
222.254	5532
222.321	6120
222.387	4005
222.453	5206
222.520	4612
222.586	4917
222.652	5410
222.719	5473
222.785	4637
222.851	4848
222.918	4560
222.984	4818
223.050	6626
223.116	5018
223.183	5182
223.249	3599
223.315	3546
223.382	4902
223.448	3585
223.514	4299
223.580	3636
223.647	4071
223.713	4213
223.779	3811
223.845	4719
223.911	5728
223.978	3884
224.044	4680
224.110	4058
224.176	4813
224.242	3828
224.309	3726
224.375	3601
224.441	4523
224.507	3416
224.573	3896
224.639	4528
224.705	4211
224.772	4056
224.838	4324
224.904	4614
224.970	4739
225.036	3996
225.102	4516
225.168	3904
225.234	4695
225.300	4586
225.366	3901
225.432	4059
225.499	4527
225.565	3652
225.631	6263
225.697	5808
225.763	7058
225.829	7402
225.895	8257
225.961	12732
226.027	10273
226.093	8867
226.159	10877
226.225	12566
226.291	27960
226.357	44685
226.423	23039
226.489	12686
226.554	9746
226.620	9617
226.686	12143
226.752	15940
226.818	25517
226.884	62592
226.950	50603
227.016	19303
227.082	12378
227.148	9635
227.214	9244
227.279	9365
227.345	9383
227.411	6208
227.477	5591
227.543	7236
227.609	9575
227.674	9265
227.740	6735
227.806	6932
227.872	7657
227.938	6704
228.003	11323
228.069	5924
228.135	5463
228.201	4648
228.267	5942
228.332	5453
228.398	6977
228.464	5190
228.530	4418
228.595	4222
228.661	5193
228.727	7187
228.792	6376
228.858	5196
228.924	6428
228.990	9569
229.055	7243
229.121	9022
229.187	5055
229.252	4867
229.318	5608
229.384	5307
229.449	6411
229.515	3511
229.581	2825
229.646	5599
229.712	5280
229.777	11136
229.843	12593
229.909	9650
229.974	11321
230.040	10453
230.105	9087
230.171	9637
230.236	16816
230.302	27381
230.368	15705
230.433	10349
230.499	8729
230.564	12042
230.630	8696
230.695	6372
230.761	7682
230.826	5452
230.892	9166
230.957	6417
231.023	5922
231.088	6110
231.154	6617
231.219	6109
231.284	8206
231.350	8294
231.415	6687
231.481	5838
231.546	4853
231.612	5108
231.677	5061
231.742	4672
231.808	5884
231.873	4791
231.939	4644
232.004	9257
232.069	9087
232.135	5339
232.200	5872
232.265	5646
232.331	4956
232.396	3757
232.461	4232
232.527	4568
232.592	5344
232.657	5057
232.723	8374
232.788	6679
232.853	4816
232.918	4400
232.984	4863
233.049	3667
233.114	8063
233.179	7501
233.245	12700
233.310	14214
233.375	5992
233.440	6169
233.506	4800
233.571	4889
233.636	4367
233.701	5421
233.766	9203
233.832	10485
233.897	6162
233.962	5932
234.027	5961
234.092	5075
234.157	5518
234.222	5807
234.288	9787
234.353	30536
234.418	22012
234.483	13297
234.548	10235
234.613	7738
234.678	8955
234.743	10173
234.808	27841
234.873	17635
234.938	8976
235.004	8063
235.069	7002
235.134	6743
235.199	7498
235.264	6136
235.329	5901
235.394	7477
235.459	8844
235.524	7337
235.589	7192
235.654	6408
235.719	5886
235.784	7046
235.849	8041
235.913	14304
235.978	15593
236.043	15564
236.108	7974
236.173	7734
236.238	8701
236.303	6534
236.368	7319
236.433	11402
236.498	18519
236.563	11529
236.627	24061
236.692	83360
236.757	62100
236.822	24977
236.887	19598
236.952	15856
237.017	13839
237.081	14038
237.146	17195
237.211	32612
237.276	84815
237.341	135744
237.405	56673
237.470	24589
237.535	18864
237.600	12747
237.664	11037
237.729	9694
237.794	11827
237.859	19331
237.923	15393
237.988	9364
238.053	13827
238.118	14445
238.182	43583
238.247	34704
238.312	15650
238.376	10812
238.441	9774
238.506	10270
238.570	6327
238.635	7151
238.700	6517
238.764	6841
238.829	18861
238.893	20382
238.958	10356
239.023	8700
239.087	7140
239.152	7970
239.216	6162
239.281	6866
239.346	6559
239.410	6693
239.475	9484
239.539	40246
239.604	30161
239.668	9651
239.733	6449
239.797	7901
239.862	11034
239.926	25366
239.991	12627
240.055	6421
240.120	6453
240.184	6606
240.249	5840
240.313	5433
240.378	7183
240.442	21777
240.507	36960
240.571	12808
240.635	17028
240.700	19198
240.764	7703
240.829	6485
240.893	4874
240.957	6477
241.022	22168
241.086	32917
241.151	14969
241.215	7002
241.279	10785
241.344	17057
241.408	10710
241.472	9321
241.537	9927
241.601	9085
241.665	8659
241.730	7444
241.794	9759
241.858	8983
241.922	8809
241.987	8257
242.051	8287
242.115	8364
242.179	8523
242.244	7697
242.308	8694
242.372	9742
242.436	12533
242.501	8813
242.565	7022
242.629	7270
242.693	7714
242.757	7168
242.822	9130
242.886	8742
242.950	9044
243.014	8223
243.078	9200
243.142	9207
243.206	9218
243.271	10660
243.335	13999
243.399	24214
243.463	95556
243.527	211341
243.591	65102
243.655	23464
243.719	15960
243.783	16021
243.847	27966
243.911	34169
243.975	23314
244.040	14763
244.104	12561
244.168	9210
244.232	12048
244.296	20798
244.360	29390
244.424	11607
244.488	9950
244.552	9639
244.615	7415
244.679	7970
244.743	8984
244.807	8204
244.871	5764
244.935	6070
244.999	5418
245.063	7100
245.127	9391
245.191	22249
245.255	19772
245.319	10719
245.383	7833
245.446	8139
245.510	6312
245.574	6964
245.638	7249
245.702	7353
245.766	17088
245.829	10451
245.893	8982
245.957	7423
246.021	9582
246.085	7754
246.149	10061
246.212	21595
246.276	34332
246.340	14368
246.404	10810
246.467	11676
246.531	15855
246.595	11327
246.659	10142
246.722	8862
246.786	11426
246.850	12205
246.913	14625
246.977	7727
247.041	7664
247.104	8539
247.168	8974
247.232	20598
247.295	46961
247.359	19827
247.423	11355
247.486	17334
247.550	10808
247.614	8013
247.677	10322
247.741	8229
247.804	8645
247.868	10754
247.932	19171
247.995	42411
248.059	14870
248.122	7719
248.186	11631
248.249	17911
248.313	72907
248.376	65437
248.440	44269
248.503	16024
248.567	14515
248.630	17004
248.694	23194
248.757	31149
248.821	77455
248.884	37741
248.948	41353
249.011	57900
249.075	90272
249.138	71055
249.202	27018
249.265	19720
249.328	26006
249.392	17206
249.455	15216
249.519	13632
249.582	15992
249.645	32541
249.709	36738
249.772	47676
249.835	28324
249.899	19433
249.962	17230
250.025	14333
250.089	35294
250.152	38456
250.215	20479
250.279	16349
250.342	17594
250.405	17971
250.468	18791
250.532	25480
250.595	48818
250.658	205090
250.721	298609
250.785	96594
250.848	47978
250.911	31904
250.974	28382
251.038	35151
251.101	57158
251.164	32068
251.227	32065
251.290	35353
251.354	68932
251.417	275409
251.480	255681
251.543	200708
251.606	481992
251.669	347199
251.732	134376
251.795	109326
251.859	126580
251.922	302920
251.985	160717
252.048	61129
252.111	43593
252.174	36178
252.237	52102
252.300	106519
252.363	162724
252.426	349963
252.489	140332
252.552	72046
252.615	48052
252.678	44677
252.741	91832
252.804	171408
252.867	375056
252.930	179730
252.993	86457
253.056	48978
253.119	44114
253.182	38392
253.245	78707
253.308	45376
253.371	29955
253.434	27397
253.497	28863
253.559	47155
253.622	30319
253.685	29412
253.748	27094
253.811	16289
253.874	22009
253.937	19194
254.000	15561
254.062	29457
254.125	45180
254.188	40404
254.251	29421
254.314	15378
254.376	24767
254.439	24646
254.502	20564
254.565	29583
254.628	47405
254.690	22284
254.753	14123
254.816	12290
254.878	14263
254.941	32214
255.004	32528
255.067	14255
255.129	11477
255.192	8308
255.255	7677
255.317	8066
255.380	6880
255.443	6604
255.505	6376
255.568	7281
255.631	8988
255.693	7816
255.756	6089
255.819	6179
255.881	6270
255.944	5928
256.006	6459
256.069	7290
256.132	7608
256.194	9693
256.257	26821
256.319	19687
256.382	17152
256.444	12224
256.507	9669
256.569	8542
256.632	9806
256.694	16961
256.757	43670
256.819	116931
256.882	48006
256.944	20275
257.007	15414
257.069	15746
257.132	14028
257.194	10429
257.257	9806
257.319	8965
257.381	12402
257.444	30654
257.506	146048
257.569	129084
257.631	47909
257.693	29033
257.756	19479
257.818	15813
257.880	11054
257.943	9862
258.005	8988
258.067	8548
258.130	10056
258.192	10599
258.254	18119
258.317	11461
258.379	10787
258.441	24160
258.503	22909
258.566	39097
258.628	45676
258.690	12921
258.753	12467
258.815	17130
258.877	12081
258.939	8630
259.001	10793
259.064	9439
259.126	11543
259.188	14444
259.250	10579
259.312	11979
259.375	23575
259.437	14938
259.499	10306
259.561	8607
259.623	10645
259.685	11117
259.747	12284
259.809	38003
259.872	65820
259.934	107626
259.996	87336
260.058	24784
260.120	13582
260.182	10836
260.244	10218
260.306	8035
260.368	9051
260.430	8536
260.492	23117
260.554	34569
260.616	18508
260.678	43804
260.740	60819
260.802	15891
260.864	12435
260.926	9138
260.988	10169
261.050	11505
261.112	38275
261.174	86774
261.236	53431
261.298	16994
261.359	30661
261.421	36938
261.483	12256
261.545	10300
261.607	8062
261.669	9241
261.731	18699
261.793	34222
261.854	14138
261.916	11002
261.978	13816
262.040	14971
262.102	10198
262.164	15717
262.225	12315
262.287	8583
262.349	17202
262.411	13456
262.472	9203
262.534	19163
262.596	37194
262.658	12321
262.719	8955
262.781	12905
262.843	36790
262.904	16727
262.966	13916
263.028	24585
263.090	130053
263.151	303600
263.213	87443
263.275	38925
263.336	20222
263.398	14721
263.459	10854
263.521	9849
263.583	17214
263.644	11995
263.706	6979
263.767	5947
263.829	6420
263.891	5369
263.952	5706
264.014	6414
264.075	18864
264.137	41457
264.198	13945
264.260	6478
264.321	8813
264.383	21565
264.444	58358
264.506	18204
264.567	12026
264.629	27312
264.690	56710
264.752	17396
264.813	10899
264.875	7557
264.936	10089
264.998	7379
265.059	6858
265.120	7561
265.182	11673
265.243	55984
265.305	47271
265.366	12968
265.427	9095
265.489	8135
265.550	5637
265.611	7368
265.673	6846
265.734	7612
265.795	5620
265.857	5435
265.918	6623
265.979	17914
266.040	97344
266.102	66358
266.163	19611
266.224	18199
266.286	10113
266.347	6504
266.408	7613
266.469	6614
266.530	6026
266.592	5980
266.653	10516
266.714	13587
266.775	5649
266.836	5452
266.898	6439
266.959	13251
267.020	9221
267.081	6857
267.142	5764
267.203	5321
267.264	4859
267.326	6646
267.387	5237
267.448	5033
267.509	6187
267.570	5475
267.631	5369
267.692	4473
267.753	5964
267.814	5165
267.875	11176
267.936	21437
267.997	18098
268.058	12677
268.119	6989
268.180	6318
268.241	5806
268.302	5460
268.363	5053
268.424	6094
268.485	7775
268.546	5534
268.607	3902
268.668	4064
268.729	4052
268.790	6044
268.851	7731
268.912	16326
268.972	14724
269.033	7702
269.094	5113
269.155	5308
269.216	5287
269.277	5525
269.338	5009
269.398	5139
269.459	6006
269.520	7198
269.581	9711
269.642	9067
269.702	7677
269.763	6028
269.824	6387
269.885	7751
269.945	9282
270.006	5933
270.067	5512
270.128	6440
270.188	4527
270.249	5232
270.310	5210
270.370	6259
270.431	5869
270.492	4512
270.553	6553
270.613	10122
270.674	18049
270.734	8984
270.795	5611
270.856	7405
270.916	6706
270.977	4935
271.038	6441
271.098	5871
271.159	10424
271.219	10038
271.280	5946
271.340	5620
271.401	7995
271.462	16856
271.522	8952
271.583	6158
271.643	7642
271.704	7132
271.764	7799
271.825	16340
271.885	59224
271.946	77539
272.006	22293
272.066	39281
272.127	66591
272.187	17554
272.248	11252
272.308	14002
272.369	49558
272.429	23603
272.489	17473
272.550	16287
272.610	15033
272.671	11322
272.731	16365
272.791	21960
272.852	10050
272.912	8941
272.972	6750
273.033	7060
273.093	10753
273.153	11922
273.214	9846
273.274	10690
273.334	43457
273.394	63925
273.455	20572
273.515	23571
273.575	49643
273.635	19683
273.696	30870
273.756	63433
273.816	22141
273.876	14025
273.936	37714
273.997	61767
274.057	16462
274.117	11851
274.177	19146
274.237	82558
274.297	67768
274.358	42520
274.418	47998
274.478	30960
274.538	13974
274.598	14495
274.658	51047
274.718	56409
274.778	20240
274.838	12108
274.898	34698
274.958	84535
275.018	72577
275.078	39834
275.138	15146
275.198	10667
275.258	9211
275.318	10058
275.378	14421
275.438	13323
275.498	11893
275.558	42832
275.618	76565
275.678	38436
275.738	21814
275.798	22236
275.858	16694
275.918	7803
275.978	8399
276.038	6979
276.098	6421
276.157	12945
276.217	28259
276.277	13559
276.337	10131
276.397	6650
276.457	7843
276.517	7162
276.576	5643
276.636	4798
276.696	8892
276.756	19344
276.815	13405
276.875	7039
276.935	7634
276.995	6177
277.055	5092
277.114	5705
277.174	8882
277.234	24321
277.293	10481
277.353	6215
277.413	5582
277.472	5238
277.532	6244
277.592	7060
277.651	18190
277.711	28355
277.771	12082
277.830	37257
277.890	28137
277.950	28147
278.009	81012
278.069	26661
278.128	23361
278.188	28727
278.248	15474
278.307	31990
278.367	20583
278.426	9513
278.486	7647
278.545	5929
278.605	5882
278.664	5933
278.724	8531
278.783	26941
278.843	65259
278.902	17438
278.962	10432
279.021	9715
279.081	13388
279.140	11561
279.199	9520
279.259	10377
279.318	11137
279.378	14300
279.437	27662
279.496	94941
279.556	333139
279.615	224477
279.675	52626
279.734	31381
279.793	42251
279.853	58560
279.912	22881
279.971	13600
280.031	11954
280.090	23133
280.149	40000
280.208	45699
280.268	250491
280.327	212434
280.386	45066
280.445	32257
280.505	27983
280.564	18663
280.623	15454
280.682	18504
280.742	23295
280.801	9110
280.860	7589
280.919	7725
280.978	7761
281.037	8026
281.097	6612
281.156	6048
281.215	6384
281.274	9375
281.333	39256
281.392	26212
281.451	8222
281.510	6343
281.569	6616
281.628	5676
281.688	6129
281.747	6840
281.806	8375
281.865	6231
281.924	4351
281.983	4793
282.042	4504
282.101	4750
282.160	4977
282.219	4124
282.278	6093
282.337	15953
282.396	10523
282.454	5811
282.513	7170
282.572	22011
282.631	12030
282.690	5334
282.749	5235
282.808	7129
282.867	7938
282.926	5918
282.985	5050
283.043	4082
283.102	5141
283.161	7752
283.220	20551
283.279	32478
283.338	10349
283.396	6369
283.455	6270
283.514	6122
283.573	9313
283.631	7450
283.690	5835
283.749	5528
283.808	10813
283.866	10512
283.925	5235
283.984	5560
284.043	6890
284.101	7519
284.160	7926
284.219	17947
284.277	10011
284.336	10406
284.395	32377
284.453	25356
284.512	8961
284.570	10471
284.629	8819
284.688	7468
284.746	7368
284.805	8211
284.863	9884
284.922	10314
284.981	12279
285.039	17165
285.098	35751
285.156	103687
285.215	353591
285.273	297395
285.332	100284
285.390	47736
285.449	32490
285.507	22639
285.566	18508
285.624	13570
285.683	11368
285.741	8773
285.799	7603
285.858	8410
285.916	7043
285.975	5937
286.033	6319
286.091	6006
286.150	5680
286.208	7522
286.267	10606
286.325	7371
286.383	9699
286.442	7382
286.500	6022
286.558	5914
286.616	5645
286.675	7225
286.733	6077
286.791	6571
286.850	8110
286.908	10002
286.966	12185
287.024	7633
287.083	6317
287.141	5718
287.199	7096
287.257	9062
287.315	7577
287.374	8551
287.432	15597
287.490	10515
287.548	9452
287.606	9203
287.664	9499
287.723	14242
287.781	20769
287.839	13443
287.897	16631
287.955	23851
288.013	46275
288.071	113752
288.129	396341
288.187	844423
288.245	396440
288.303	139285
288.361	81953
288.419	65167
288.477	45373
288.535	30629
288.593	23707
288.651	16255
288.709	12575
288.767	11854
288.825	9189
288.883	9548
288.941	10642
288.999	7562
289.057	8112
289.115	9614
289.173	9129
289.231	7746
289.289	7756
289.346	7583
289.404	7226
289.462	8632
289.520	9244
289.578	5484
289.636	5102
289.694	4739
289.751	5074
289.809	5158
289.867	5168
289.925	6142
289.983	6982
290.040	5383
290.098	5060
290.156	6031
290.214	6518
290.271	3617
290.329	4286
290.387	3640
290.444	4375
290.502	3804
290.560	5116
290.617	6030
290.675	5488
290.733	4694
290.790	4751
290.848	4732
290.906	5980
290.963	4735
291.021	5960
291.078	5778
291.136	7103
291.194	25078
291.251	46436
291.309	12941
291.366	6084
291.424	5381
291.481	5379
291.539	4337
291.596	5025
291.654	2530
291.711	3434
291.769	5182
291.826	8350
291.884	4755
291.941	3954
291.999	4342
292.056	5485
292.114	4472
292.171	4232
292.228	4094
292.286	5490
292.343	9096
292.401	13116
292.458	8412
292.515	6478
292.573	5876
292.630	6128
292.687	6549
292.745	6474
292.802	12583
292.859	33354
292.917	33305
292.974	17075
293.031	6149
293.089	5990
293.146	6009
293.203	5284
293.260	4084
293.318	7350
293.375	15544
293.432	8198
293.489	4533
293.546	6208
293.604	9842
293.661	26184
293.718	67580
293.775	31622
293.832	13344
293.889	9410
293.947	8785
294.004	7020
294.061	8405
294.118	16719
294.175	42007
294.232	69370
294.289	23235
294.346	10937
294.403	10060
294.460	9699
294.517	8040
294.574	6771
294.631	7022
294.688	10284
294.745	23873
294.802	90152
294.859	102262
294.916	32913
294.973	16214
295.030	12706
295.087	11088
295.144	8636
295.201	7941
295.258	8092
295.315	10169
295.372	27888
295.429	50911
295.486	21679
295.542	17916
295.599	54708
295.656	87582
295.713	48446
295.770	46669
295.827	19185
295.883	10917
295.940	10982
295.997	14786
296.054	12928
296.111	7054
296.167	6506
296.224	4936
296.281	4908
296.338	4739
296.394	6310
296.451	7997
296.508	23238
296.564	40175
296.621	30533
296.678	60955
296.734	84740
296.791	29472
296.848	16215
296.904	15267
296.961	27148
297.018	51737
297.074	42051
297.131	17305
297.187	13003
297.244	19071
297.301	63419
297.357	105618
297.414	32134
297.470	14132
297.527	12046
297.583	9605
297.640	9018
297.696	7429
297.753	5657
297.809	5547
297.866	4778
297.922	4991
297.979	4785
298.035	5599
298.092	10020
298.148	27673
298.204	24338
298.261	14290
298.317	31500
298.374	79649
298.430	40488
298.486	18208
298.543	13894
298.599	12869
298.656	17083
298.712	30815
298.768	102872
298.824	77215
298.881	23256
298.937	12939
298.993	10944
299.050	11035
299.106	10543
299.162	7470
299.218	7400
299.275	6381
299.331	8911
299.387	17398
299.443	61327
299.500	54046
299.556	17075
299.612	10175
299.668	9116
299.724	6644
299.780	7167
299.837	7577
299.893	12609
299.949	38455
300.005	42191
300.061	44670
300.117	88753
300.173	38213
300.229	16945
300.285	17081
300.341	16936
300.397	9326
300.453	6973
300.510	6582
300.566	6257
300.622	6690
300.678	11486
300.734	24831
300.790	36695
300.845	54436
300.901	26242
300.957	30859
301.013	24292
301.069	10409
301.125	9035
301.181	8948
301.237	7622
301.293	6245
301.349	4796
301.405	4230
301.461	5509
301.516	6694
301.572	6613
301.628	9245
301.684	11116
301.740	19740
301.796	24739
301.851	16059
301.907	26804
301.963	31468
302.019	62139
302.074	171912
302.130	155985
302.186	61898
302.242	25644
302.297	17809
302.353	18594
302.409	28220
302.464	25323
302.520	21462
302.576	52264
302.631	55852
302.687	26586
302.743	12556
302.798	9101
302.854	7912
302.910	8774
302.965	10851
303.021	16798
303.076	13145
303.132	14612
303.187	15515
303.243	9892
303.299	6758
303.354	5463
303.410	5813
303.465	5564
303.521	5610
303.576	6676
303.632	9702
303.687	18668
303.743	56168
303.798	43334
303.853	16723
303.909	9654
303.964	7838
304.020	10891
304.075	13618
304.130	12442
304.186	19702
304.241	19474
304.297	15413
304.352	9997
304.358	9692
304.407	7216
304.449	7599
304.463	7732
304.518	6809
304.539	7303
304.573	8117
304.629	10191
304.630	10377
304.684	19269
304.720	35430
304.739	43470
304.794	62563
304.811	52424
304.850	27927
304.902	14435
304.905	13607
304.960	10082
304.992	10521
305.015	10830
305.071	10044
305.083	9395
305.126	7021
305.173	5823
305.181	5639
305.236	5191
305.264	5942
305.292	6743
305.347	7556
305.354	7582
305.402	7743
305.445	8412
305.457	8584
305.512	9926
305.535	10053
305.567	10421
305.622	12438
305.626	13020
305.678	25685
305.716	48570
305.733	56774
305.788	62380
305.807	55042
305.843	42926
305.897	57891
305.898	58032
305.953	56738
305.988	37913
306.008	27653
306.063	16919
306.078	15057
306.118	11284
306.168	8698
306.173	8481
306.228	7625
306.259	7051
306.283	6786
306.338	7457
306.349	7655
306.393	8523
306.440	10411
306.448	10818
306.503	12861
306.530	15747
306.558	22966
306.613	56710
306.620	59866
306.668	69940
306.711	59673
306.723	55840
306.778	36652
306.801	27823
306.833	18550
306.888	11937
306.892	11628
306.943	9532
306.982	9406
306.997	9570
307.052	9986
307.072	10912
307.107	14812
307.162	24182
307.163	24377
307.217	45596
307.253	55640
307.272	57030
307.327	59693
307.343	52754
307.381	37328
307.434	29640
307.436	30185
307.491	60054
307.524	85672
307.546	90491
307.600	59647
307.614	50742
307.655	30121
307.704	19887
307.710	20186
307.765	30455
307.795	41682
307.819	53328
307.874	97019
307.885	96006
307.929	64709
307.975	33103
307.984	31385
308.038	35892
308.065	44332
308.093	78197
308.148	163916
308.156	185070
308.202	288949
308.246	339964
308.257	328119
308.312	156586
308.336	98711
308.366	69998
308.421	42961
308.426	40797
308.475	28180
308.517	22107
308.530	21216
308.585	18677
308.607	18532
308.639	21551
308.694	28753
308.697	29616
308.748	69929
308.787	114354
308.803	115475
308.857	80180
308.877	63174
308.912	44368
308.967	31322
308.967	31177
309.021	33534
309.058	37908
309.076	48632
309.130	90742
309.148	108066
309.185	225922
309.238	434991
309.239	436099
309.293	468812
309.328	403675
309.348	334327
309.402	137160
309.418	91177
309.457	59700
309.508	35312
309.511	34620
309.566	29280
309.598	27058
309.620	28543
309.674	34417
309.688	36221
309.729	33661
309.778	26489
309.783	25885
309.837	20177
309.868	17748
309.892	21680
309.946	33669
309.959	37425
310.001	50710
310.049	62544
310.055	60606
310.109	36900
310.139	23777
310.163	19922
310.218	14700
310.229	13856
310.272	13335
310.319	13036
310.326	13093
310.381	14331
310.409	14568
310.435	14354
310.489	13909
310.499	13873
310.543	15695
310.589	18139
310.598	18091
310.652	17556
310.679	16652
310.706	14339
310.760	9464
310.769	8809
310.814	7313
310.859	6017
310.868	6115
310.923	6889
310.948	7341
310.977	8732
311.031	11466
311.038	11844
311.085	11046
311.128	9859
311.139	9679
311.193	8938
311.218	8659
311.247	8036
311.301	6509
311.308	6358
311.356	7366
311.398	8381
311.410	8257
311.464	7424
311.488	7053
311.518	6786
311.572	6311
311.578	6276
311.626	8431
311.668	10293
311.680	11286
311.734	15753
311.758	17757
311.788	17702
311.842	17303
311.847	17242
311.896	21726
311.937	25848
311.950	25267
312.004	22431
312.027	21060
312.058	17158
312.112	10336
312.117	9651
312.165	9363
312.207	9119
312.297	17359
312.386	14075
312.476	10078
312.566	15544
312.656	9332
312.745	8236
312.835	9031
312.925	10518
313.015	12888
313.104	16519
313.194	7071
313.284	7792
313.374	8919
313.463	8513
313.553	7246
313.643	7192
313.732	5881
313.822	6612
313.912	8162
314.001	9200
314.091	11313
314.180	18336
314.270	12268
314.360	16978
314.449	11309
314.539	7350
314.628	7493
314.718	11701
314.808	17553
314.897	7723
314.987	6874
315.076	8763
315.166	14441
315.255	17809
315.345	12410
315.434	18623
315.524	15494
315.613	14544
315.703	11468
315.792	12591
315.881	17906
315.971	13760
316.060	30215
316.150	74007
316.239	79264
316.328	25900
316.418	9159
316.507	7641
316.597	10163
316.686	11433
316.775	32777
316.865	84825
316.954	14665
317.043	7009
317.133	6470
317.222	6404
317.311	6101
317.400	4643
317.490	8063
317.579	7883
317.668	6065
317.757	8294
317.847	12636
317.936	26943
318.025	19392
318.114	11170
318.203	11748
318.293	18966
318.382	35898
318.471	27956
318.560	53697
318.649	130257
318.738	27384
318.828	14589
318.917	16964
319.006	31287
319.095	85011
319.184	155822
319.273	64666
319.362	21446
319.451	10095
319.540	9631
319.629	16498
319.718	27850
319.807	23307
319.896	50913
319.985	182832
320.074	55515
320.163	22641
320.252	48649
320.341	30498
320.430	22341
320.519	15669
320.608	11282
320.697	10502
320.786	10897
320.875	10251
320.964	12886
321.053	16948
321.142	23003
321.230	25559
321.319	26046
321.408	56025
321.497	31258
321.586	26842
321.675	63994
321.764	54482
321.852	30208
321.941	29600
322.030	20581
322.119	30106
322.207	66038
322.296	99427
322.385	41801
322.474	28862
322.562	54945
322.651	39819
322.740	28783
322.829	57349
322.917	103057
323.006	37045
323.095	24069
323.183	30973
323.272	44679
323.361	91370
323.449	288208
323.538	104492
323.626	212818
323.715	128568
323.804	57571
323.892	192926
323.981	90968
324.069	33764
324.158	118999
324.246	101810
324.335	19268
324.424	18490
324.512	10203
324.601	10606
324.689	14636
324.778	31542
324.866	70067
324.954	19406
325.043	15691
325.131	43916
325.220	92559
325.308	104667
325.397	65600
325.485	36133
325.574	9369
325.662	7274
325.750	7482
325.839	7272
325.927	8411
326.015	14311
326.104	39566
326.192	55734
326.280	11807
326.369	9569
326.457	9564
326.545	12630
326.634	7523
326.722	6849
326.810	6748
326.898	6068
326.987	8332
327.075	17981
327.163	33636
327.251	19240
327.340	9641
327.428	9218
327.516	6413
327.604	9064
327.692	13410
327.781	19961
327.869	39396
327.957	18393
328.045	10545
328.133	8191
328.221	17395
328.309	9993
328.397	6329
328.485	8033
328.574	10889
328.662	28165
328.750	37977
328.838	20825
328.926	8338
329.014	6591
329.102	11713
329.190	34378
329.278	18211
329.366	5930
329.454	6626
329.542	7379
329.630	5519
329.718	6662
329.806	7283
329.893	9993
329.981	11029
330.069	14289
330.157	54445
330.245	153708
330.333	78887
330.421	13318
330.509	11675
330.597	31034
330.684	27459
330.772	17414
330.860	33796
330.948	39892
331.036	14399
331.123	5988
331.211	6979
331.299	13131
331.387	30847
331.475	54870
331.562	19006
331.650	8060
331.738	13925
331.825	23588
331.913	7766
332.001	7404
332.089	16069
332.176	45933
332.264	118731
332.352	80355
332.439	16196
332.527	12205
332.614	13956
332.702	21701
332.790	13495
332.877	47609
332.965	98782
333.052	16888
333.140	16734
333.228	32572
333.315	10698
333.403	15919
333.490	67408
333.578	44071
333.665	15854
333.753	11020
333.840	9229
333.928	18785
334.015	68736
334.103	95985
334.190	245190
334.278	58052
334.365	23466
334.452	12934
334.540	9758
334.627	20117
334.715	32485
334.802	74873
334.889	392696
334.977	327349
335.064	32252
335.151	13244
335.239	15203
335.326	24819
335.413	108469
335.501	132771
335.588	16608
335.675	10886
335.762	16423
335.850	30697
335.937	22487
336.024	82842
336.111	339560
336.199	117946
336.286	16994
336.373	8540
336.460	6409
336.547	8553
336.635	11960
336.722	9177
336.809	10202
336.896	16628
336.983	61822
337.070	157534
337.157	231685
337.245	242885
337.332	165400
337.419	20860
337.506	11588
337.593	15701
337.680	56879
337.767	150611
337.854	42158
337.941	53329
338.028	82580
338.115	27413
338.202	27763
338.289	72088
338.376	236898
338.463	69653
338.550	95961
338.637	95266
338.724	51730
338.811	82362
338.898	15394
338.984	8068
339.071	12246
339.158	11825
339.245	21589
339.332	19679
339.419	53632
339.506	48789
339.593	7258
339.679	5365
339.766	5222
339.853	7958
339.940	12014
340.027	6259
340.113	5273
340.200	8620
340.287	7564
340.374	6734
340.460	10764
340.547	6140
340.634	9386
340.720	30805
340.807	18119
340.894	5540
340.980	7607
341.067	4729
341.154	5846
341.240	8217
341.327	14262
341.414	6208
341.500	6558
341.587	6331
341.674	5730
341.760	9914
341.847	11956
341.933	4273
342.020	3214
342.106	3098
342.193	4894
342.279	8547
342.366	6601
342.452	10600
342.539	6283
342.625	13241
342.712	30774
342.798	12802
342.885	6405
342.971	3286
343.058	3547
343.144	3952
343.230	3984
343.317	3968
343.403	4340
343.490	3625
343.576	4441
343.662	4456
343.749	5832
343.835	9949
343.921	19561
344.008	110004
344.094	227648
344.180	47019
344.267	16172
344.353	55256
344.439	75911
344.525	21390
344.612	8657
344.698	6695
344.784	4591
344.870	3588
344.957	3992
345.043	6389
345.129	4679
345.215	10405
345.301	7107
345.387	5083
345.474	3410
345.560	6396
345.646	11486
345.732	6772
345.818	5662
345.904	5630
345.990	7378
346.076	14292
346.162	33883
346.249	9714
346.335	5655
346.421	5946
346.507	22974
346.593	73218
346.679	18420
346.765	7001
346.851	4244
346.937	3858
347.023	3632
347.108	4847
347.194	4121
347.280	4850
347.366	5528
347.452	22205
347.538	95166
347.624	62338
347.710	61211
347.796	14864
347.882	7277
347.967	6164
348.053	13010
348.139	8054
348.225	3932
348.311	3779
348.397	4107
348.482	4405
348.568	6327
348.654	3175
348.740	3407
348.825	3056
348.911	10286
348.997	47983
349.083	97952
349.168	20600
349.254	5878
349.340	5820
349.425	3977
349.511	5792
349.597	9013
349.682	12816
349.768	39078
349.854	19433
349.939	7543
350.025	4963
350.110	3087
350.196	2973
350.282	2522
350.367	5585
350.453	23463
350.538	21538
350.624	8405
350.709	7531
350.795	4096
350.880	3828
350.966	6507
351.051	19682
351.137	15980
351.222	5396
351.308	10880
351.393	29606
351.479	9006
351.564	3691
351.649	4511
351.735	4160
351.820	3140
351.906	3967
351.991	9247
352.076	23468
352.162	29570
352.247	6322
352.332	5699
352.418	8984
352.503	13083
352.588	41230
352.673	32329
352.759	8255
352.844	4409
352.929	4690
353.014	5481
353.100	4393
353.185	5501
353.270	10602
353.355	11071
353.441	5727
353.526	11232
353.611	12424
353.696	11792
353.781	7292
353.866	4038
353.952	3816
354.037	9564
354.122	21197
354.207	18076
354.292	7392
354.377	3750
354.462	3699
354.547	5566
354.632	6170
354.717	9192
354.802	7243
354.887	3471
354.972	3076
355.057	3246
355.142	2629
355.227	4687
355.312	6894
355.397	14345
355.482	33391
355.567	17112
355.652	13594
355.737	15001
355.822	48332
355.907	38675
355.991	6747
356.076	4129
356.161	4560
356.246	4254
356.331	5167
356.416	16533
356.501	107000
356.585	105838
356.670	14033
356.755	8702
356.840	14022
356.924	71368
357.009	258694
357.094	88100
357.179	15188
357.263	11113
357.348	11948
357.433	12211
357.517	7955
357.602	6729
357.687	5908
357.771	8630
357.856	27042
357.941	21214
358.025	66975
358.110	278374
358.195	114130
358.279	14218
358.364	9024
358.448	29018
358.533	78706
358.617	56441
358.702	58142
358.787	20558
358.871	10488
358.956	9775
359.040	3716
359.125	3118
359.209	3914
359.294	12302
359.378	19414
359.462	9102
359.547	9331
359.631	11416
359.716	4331
359.800	6183
359.885	12875
359.969	4761
360.053	3754
360.138	4854
360.222	5872
360.306	10903
360.391	9396
360.475	16492
360.559	32818
360.644	30183
360.728	25013
360.812	57180
360.896	160358
360.981	64959
361.065	33371
361.149	8109
361.233	6688
361.318	6089
361.402	7363
361.486	6199
361.570	3715
361.654	6855
361.739	19655
361.823	103561
361.907	162043
361.991	25294
362.075	9803
362.159	20172
362.243	13642
362.327	9751
362.411	10755
362.495	11898
362.580	6837
362.664	4853
362.748	3067
362.832	3749
362.916	4823
363.000	16192
363.084	92565
363.168	180339
363.252	37756
363.336	14076
363.420	28224
363.503	144431
363.587	159630
363.671	20613
363.755	10834
363.839	13452
363.923	6966
364.007	12320
364.091	22642
364.175	59771
364.258	216709
364.342	91623
364.426	21492
364.510	13899
364.594	18027
364.677	32949
364.761	138412
364.845	95438
364.929	21010
365.013	15597
365.096	13400
365.180	20320
365.264	66607
365.347	231850
365.431	94912
365.515	21040
365.598	6567
365.682	7181
365.766	22987
365.849	28441
365.933	11700
366.017	18034
366.100	14653
366.184	7212
366.267	8225
366.351	4341
366.435	3430
366.518	3016
366.602	3051
366.685	4378
366.769	5203
366.852	16430
366.936	24096
367.019	8719
367.103	15548
367.186	32169
367.270	7300
367.353	1574
367.436	3313
367.520	2424
367.603	4685
367.687	6381
367.770	12351
367.853	8874
367.937	32350
368.020	52407
368.104	11889
368.187	9703
368.270	13376
368.353	15372
368.437	56770
368.520	175857
368.603	68841
368.687	39074
368.770	64410
368.853	16743
368.936	20022
369.020	26940
369.103	7305
369.186	4961
369.269	4770
369.352	9105
369.436	15771
369.519	9279
369.602	4751
369.685	6154
369.768	5897
369.851	6525
369.934	3871
370.018	5810
370.101	11011
370.184	11550
370.267	9809
370.350	14672
370.433	25551
370.516	63759
370.599	72861
370.682	18707
370.765	30206
370.848	42755
370.931	89726
371.014	40346
371.097	7662
371.180	5103
371.263	3494
371.346	2144
371.429	3656
371.511	4414
371.594	8456
371.677	19741
371.760	30431
371.843	18748
371.926	96896
372.009	215000
372.091	59487
372.174	44376
372.257	104231
372.340	39411
372.423	38387
372.505	51281
372.588	17261
372.671	25711
372.754	81667
372.836	44373
372.919	67447
373.002	130996
373.085	30442
373.167	13487
373.250	33597
373.332	85851
373.415	145546
373.498	305652
373.580	98325
373.663	132439
373.746	178985
373.828	35166
373.911	16247
373.993	27889
374.076	135803
374.159	126599
374.241	34265
374.324	66793
374.406	45984
374.489	86001
374.571	230640
374.654	83585
374.736	44648
374.819	151208
374.901	216499
374.983	220559
375.066	35979
375.148	20962
375.231	111589
375.313	200284
375.395	63960
375.478	11908
375.560	6739
375.643	11168
375.725	50088
375.807	206117
375.890	220031
375.972	141117
376.054	68614
376.136	143465
376.219	51643
376.301	51143
376.383	145481
376.465	50066
376.548	22897
376.630	36401
376.712	108550
376.794	48696
376.877	6769
376.959	4422
377.041	7252
377.123	27382
377.205	32450
377.287	5282
377.369	3579
377.452	3259
377.534	2874
377.616	4647
377.698	3241
377.780	2992
377.862	4131
377.944	3797
378.026	2232
378.108	3252
378.190	2736
378.272	3480
378.354	2020
378.436	3771
378.518	12798
378.600	47934
378.682	29294
378.764	41961
378.846	33718
378.928	12998
379.010	11956
379.091	7279
379.173	3623
379.255	2654
379.337	5600
379.419	20701
379.501	63008
379.583	27521
379.664	7636
379.746	14051
379.828	39344
379.910	54590
379.991	48983
380.073	9599
380.155	6750
380.237	3946
380.318	3526
380.400	3885
380.482	8579
380.564	14294
380.645	11282
380.727	10415
380.809	6719
380.890	5404
380.972	3231
381.053	4195
381.135	5513
381.217	13955
381.298	42882
381.380	23228
381.461	24303
381.543	114288
381.624	136113
381.706	23461
381.787	13576
381.869	16144
381.951	62530
382.032	241878
382.113	130487
382.195	23646
382.276	14369
382.358	31339
382.439	98929
382.521	125961
382.602	206441
382.684	77887
382.765	124902
382.846	102085
382.928	82509
383.009	43751
383.090	29171
383.172	120682
383.253	191238
383.334	90389
383.416	150967
383.497	70627
383.578	18876
383.659	32556
383.741	110613
383.822	305897
383.903	151439
383.984	77029
384.066	157451
384.147	92659
384.228	17303
384.309	10547
384.390	7676
384.471	6425
384.553	8007
384.634	12923
384.715	11230
384.796	6738
384.877	8686
384.958	35996
385.039	43785
385.120	14261
385.201	8187
385.282	14352
385.363	18677
385.444	11458
385.525	22456
385.606	80830
385.687	69415
385.768	20831
385.849	25874
385.930	105217
386.011	182660
386.092	44089
386.173	10465
386.254	11125
386.335	10656
386.416	9414
386.496	26593
386.577	44580
386.658	24935
386.739	15105
386.820	19251
386.901	16094
386.981	11859
387.062	6014
387.143	10152
387.224	38722
387.304	41086
387.385	16308
387.466	13817
387.547	20582
387.627	8970
387.708	17525
387.789	79897
387.869	103178
387.950	27990
388.031	6512
388.111	9823
388.192	37256
388.273	56862
388.353	27291
388.434	9843
388.514	21759
388.595	102581
388.676	117214
388.756	43154
388.837	35716
388.917	21672
388.998	6636
389.078	5920
389.159	5387
389.239	3927
389.320	8535
389.400	6554
389.480	22203
389.561	51719
389.641	24257
389.722	8623
389.802	13432
389.883	23191
389.963	67311
390.043	62118
390.124	28303
390.204	18979
390.284	47546
390.365	42292
390.445	124042
390.525	371985
390.605	274944
390.686	46204
390.766	12859
390.846	6836
390.927	4390
391.007	3891
391.087	8368
391.167	8131
391.247	9157
391.328	26494
391.408	34488
391.488	20360
391.568	5118
391.648	5014
391.728	6961
391.808	7094
391.888	8361
391.969	23704
392.049	40195
392.129	25667
392.209	23822
392.289	53293
392.369	37475
392.449	53532
392.529	26585
392.609	13736
392.689	16447
392.769	52212
392.849	44531
392.929	41249
393.009	96111
393.089	52984
393.169	23054
393.248	97563
393.328	502105
393.408	510170
393.488	84864
393.568	18008
393.648	10318
393.728	7287
393.807	7026
393.887	7726
393.967	6531
394.047	10602
394.127	13637
394.206	27932
394.286	144377
394.366	633327
394.446	599108
394.525	109875
394.605	25028
394.685	25848
394.764	76862
394.844	136235
394.924	84096
395.003	15902
395.083	9066
395.163	8510
395.242	7318
395.322	8279
395.402	6779
395.481	13703
395.561	53409
395.640	133782
395.720	86137
395.799	163380
395.879	121482
395.958	50145
396.038	206096
396.117	826126
396.197	803473
396.276	197914
396.356	65648
396.435	51118
396.515	24640
396.594	16359
396.673	26611
396.753	125516
396.832	460534
396.912	305194
396.991	57497
397.070	14057
397.150	7666
397.229	5549
397.308	5485
397.388	5881
397.467	4749
397.546	4033
397.625	2717
397.705	6538
397.784	6481
397.863	3880
397.942	3983
398.022	7744
398.101	53739
398.180	153087
398.259	75033
398.338	14359
398.417	7434
398.497	5530
398.576	6368
398.655	3549
398.734	3964
398.813	7925
398.892	52737
398.971	168652
399.050	76185
399.129	7883
399.208	4079
399.287	3868
399.366	3303
399.445	3647
399.524	3757
399.603	2751
399.682	9290
399.761	42659
399.840	175702
399.919	127404
399.998	16128
400.077	2624
400.156	2316
400.235	6531
400.313	5842
400.392	6755
400.471	20397
400.550	32485
400.629	9843
400.708	6404
400.786	10085
400.865	35862
400.944	34764
401.023	11063
401.102	2169
401.180	2414
401.259	5386
401.338	6860
401.416	6998
401.495	6062
401.574	7350
401.652	4632
401.731	8104
401.810	6064
401.888	2701
401.967	1395
402.046	2729
402.124	6761
402.203	9627
402.281	4937
402.360	11673
402.438	42255
402.517	30471
402.596	9473
402.674	9347
402.753	5408
402.831	4516
402.910	4338
402.988	12012
403.066	33223
403.145	18023
403.223	10250
403.302	20819
403.380	15358
403.459	12927
403.537	6964
403.615	4398
403.694	971
403.772	1844
403.850	964
403.929	1961
404.007	1124
404.085	4861
404.164	2504
404.242	1367
404.320	6168
404.398	15571
404.477	34633
404.555	148742
404.633	124757
404.711	21769
404.789	6197
404.868	2696
404.946	1114
405.024	1135
405.102	1567
405.180	1196
405.258	813
405.336	2795
405.415	3570
405.493	10469
405.571	6540
405.649	747
405.727	2130
405.805	6332
405.883	4141
405.961	6670
406.039	12773
406.117	3522
406.195	5264
406.273	28515
406.351	110364
406.429	68373
406.507	16941
406.585	5916
406.663	2889
406.740	4343
406.818	3275
406.896	3401
406.974	3334
407.052	8979
407.130	58952
407.208	82831
407.285	16193
407.363	2414
407.441	2531
407.519	1223
407.596	2534
407.674	9273
407.752	26667
407.830	40046
407.907	19804
407.985	4371
408.063	2292
408.141	2094
408.218	10138
408.296	8091
408.373	2458
408.451	2961
408.529	2491
408.606	1017
408.684	671
408.762	501
408.839	-71
408.917	18
408.994	352
409.072	821
409.149	-102
409.227	2085
409.304	1802
409.382	717
409.459	492
409.537	2045
409.614	1653
409.692	1049
409.769	636
409.846	2743
409.924	5003
410.001	2912
410.079	2020
410.156	1776
410.233	3392
410.311	4892
410.388	2082
410.465	2445
410.543	2556
410.620	1190
410.697	811
410.775	2777
410.852	-42
410.929	3064
411.006	3923
411.083	1776
411.161	8517
411.238	11954
411.315	8058
411.392	2458
411.469	3279
411.547	4155
411.624	1164
411.701	2209
411.778	2839
411.855	5588
411.932	2968
412.009	1571
412.086	1364
412.163	4850
412.240	5952
412.317	8113
412.394	6174
412.471	1968
412.548	862
412.625	1932
412.702	4836
412.779	9265
412.856	5675
412.933	2032
413.010	1088
413.087	3764
413.164	18399
413.241	24472
413.318	5602
413.395	4247
413.471	4360
413.548	2899
413.625	2329
413.702	4311
413.779	4342
413.855	981
413.932	129
414.009	-194
414.086	62
414.162	1151
414.239	4859
414.316	19701
414.393	40916
414.469	13654
414.546	1439
414.623	1073
414.699	1253
414.776	1878
414.853	1373
414.929	2827
415.006	2722
415.082	6101
415.159	3298
415.236	1438
415.312	868
415.389	3360
415.465	3673
415.542	2361
415.618	1238
415.695	3891
415.771	2177
415.848	2579
415.924	3061
416.000	3600
416.077	2079
416.153	782
416.230	-770
416.306	1250
416.383	3979
416.459	1716
416.535	956
416.612	1607
416.688	1542
416.764	313
416.841	-85
416.917	1091
416.993	1437
417.069	2563
417.146	4953
417.222	6408
417.298	3098
417.374	1851
417.451	1274
417.527	1472
417.603	2562
417.679	856
417.755	1234
417.831	-500
417.908	622
417.984	690
418.060	441
418.136	3977
418.212	5438
418.288	2625
418.364	1398
418.440	652
418.516	3990
418.592	10644
418.668	12864
418.744	10877
418.820	7494
418.896	2530
418.972	47
419.048	965
419.124	4130
419.200	2685
419.276	289
419.352	-781
419.428	558
419.504	1267
419.579	1146
419.655	321
419.731	697
419.807	6788
419.883	12846
419.959	8815
420.034	3229
420.110	5887
420.186	23309
420.262	19211
420.337	3772
420.413	2338
420.489	730
420.565	1565
420.640	124
420.716	978
420.792	-390
420.867	1157
420.943	-100
421.019	2376
421.094	2101
421.170	877
421.245	-843
421.321	382
421.397	150
421.472	3841
421.548	8897
421.623	6499
421.699	1347
421.774	1412
421.850	1014
421.925	3295
422.001	2383
422.076	1276
422.152	865
422.227	2932
422.302	2746
422.378	3429
422.453	6849
422.529	18432
422.604	110090
422.679	265987
422.755	112726
422.830	17510
422.905	5203
422.981	2176
423.056	1365
423.131	797
423.207	741
423.282	1586
423.357	5150
423.432	3446
423.508	3707
423.583	9041
423.658	7211
423.733	4005
423.808	4948
423.883	3270
423.959	2338
424.034	421
424.109	963
424.184	-145
424.259	-333
424.334	-17
424.409	430
424.484	553
424.559	1150
424.634	663
424.709	1299
424.784	3343
424.859	1607
424.934	3984
425.009	16117
425.084	25884
425.159	9763
425.234	2130
425.309	51
425.384	5501
425.459	7687
425.534	3772
425.609	2995
425.683	2492
425.758	721
425.833	2164
425.908	2712
425.983	8819
426.058	26997
426.132	12395
426.207	5247
426.282	11714
426.357	11126
426.431	2270
426.506	1688
426.581	2316
426.655	2308
426.730	1364
426.805	257
426.879	1920
426.954	2109
427.029	6903
427.103	31373
427.178	84722
427.253	38666
427.327	6076
427.402	9275
427.476	21544
427.551	8678
427.625	5575
427.700	4477
427.774	2234
427.849	5108
427.923	2102
427.998	1803
428.072	1914
428.147	7172
428.221	13241
428.296	25008
428.370	9921
428.444	5543
428.519	14149
428.593	33089
428.667	27679
428.742	33197
428.816	24564
428.890	42227
428.965	45248
429.039	29701
429.113	38253
429.188	11692
429.262	2173
429.336	5461
429.410	17361
429.485	13171
429.559	27400
429.633	19963
429.707	4593
429.781	14704
429.855	63755
429.930	73714
430.004	85576
430.078	159960
430.152	105498
430.226	38778
430.300	29417
430.374	5794
430.448	8048
430.522	51618
430.596	150610
430.670	68101
430.744	57473
430.818	89682
430.892	21329
430.966	3698
431.040	1734
431.114	410
431.188	1710
431.262	2816
431.336	3729
431.410	13650
431.484	39067
431.557	20043
431.631	2071
431.705	713
431.779	3777
431.853	18506
431.927	12740
432.000	1500
432.074	1861
432.148	6291
432.222	4513
432.295	1461
432.369	1588
432.443	4822
432.516	38745
432.590	90757
432.664	34623
432.737	3591
432.811	189
432.885	-410
432.958	548
433.032	480
433.106	752
433.179	-48
433.253	484
433.326	-50
433.400	-121
433.473	509
433.547	162
433.620	-15
433.694	1682
433.767	4829
433.841	3202
433.914	832
433.988	322
434.061	477
434.134	1215
434.208	-533
434.281	-882
434.355	-514
434.428	871
434.501	447
434.575	912
434.648	961
434.721	-627
434.795	-730
434.868	-743
434.941	-290
435.014	-342
435.088	-1235
435.161	379
435.234	1604
435.307	2558
435.381	1205
435.454	348
435.527	1092
435.600	-18
435.673	187
435.746	-514
435.819	-347
435.892	-208
435.966	-617
436.039	321
436.112	979
436.185	617
436.258	-1144
436.331	-761
436.404	-888
436.477	-927
436.550	-877
436.623	-391
436.696	-532
436.769	94
436.842	934
436.915	2030
436.987	2844
437.060	469
437.133	-352
437.206	-150
437.279	1411
437.352	-261
437.425	-289
437.498	1650
437.570	1665
437.643	1499
437.716	219
437.789	-441
437.861	3509
437.934	10913
438.007	4303
438.080	464
438.152	1002
438.225	5630
438.298	52099
438.370	145196
438.443	55163
438.516	10303
438.588	2042
438.661	628
438.734	830
438.806	1527
438.879	2178
438.951	1960
439.024	4697
439.096	1196
439.169	1258
439.241	1157
439.314	987
439.386	5965
439.459	12416
439.531	17859
439.604	4404
439.676	1058
439.749	-113
439.821	-406
439.893	1165
439.966	1521
440.038	2723
440.110	2161
440.183	502
440.255	-216
440.327	2565
440.400	20530
440.472	76468
440.544	45979
440.617	5590
440.689	4039
440.761	4924
440.833	7703
440.905	3855
440.978	62
441.050	-229
441.122	279
441.194	-975
441.266	-113
441.338	-756
441.411	1947
441.483	16259
441.555	23807
441.627	6297
441.699	7497
441.771	9071
441.843	2950
441.915	266
441.987	157
442.059	-398
442.131	2383
442.203	4544
442.275	4706
442.347	3231
442.419	966
442.491	3372
442.563	11803
442.635	15292
442.706	31783
442.778	21315
442.850	1635
442.922	207
442.994	1859
443.066	3952
443.137	2770
443.209	228
443.281	1345
443.353	4334
443.425	12084
443.496	19973
443.568	17103
443.640	7148
443.711	2830
443.783	953
443.855	1191
443.926	54
443.998	1767
444.070	4522
444.141	3267
444.213	2356
444.285	3480
444.356	7724
444.428	9310
444.499	1850
444.571	61
444.642	39
444.714	-38
444.785	2737
444.857	8884
444.928	27942
445.000	13681
445.071	15578
445.143	17266
445.214	3800
445.285	11524
445.357	36516
445.428	30390
445.500	51690
445.571	47613
445.642	15501
445.714	26270
445.785	39669
445.856	7127
445.928	2359
445.999	2885
446.070	2248
446.141	1656
446.213	2975
446.284	2149
446.355	5260
446.426	3098
446.497	1492
446.569	7601
446.640	7480
446.711	3169
446.782	1867
446.853	9735
446.924	6912
446.995	1719
447.066	2920
447.138	9022
447.209	4459
447.280	-127
447.351	-904
447.422	-171
447.493	2573
447.564	2953
447.635	2339
447.706	-44
447.777	-322
447.847	516
447.918	56
447.989	3290
448.060	6103
448.131	18006
448.202	11708
448.273	4962
448.344	2528
448.414	364
448.485	535
448.556	973
448.627	-661
448.698	285
448.768	36
448.839	1132
448.910	8508
448.981	5653
449.051	1524
449.122	190
449.193	-552
449.263	1514
449.334	701
449.405	1110
449.475	4116
449.546	3609
449.616	10011
449.687	6877
449.758	1448
449.828	402
449.899	496
449.969	-31
450.040	307
450.110	5502
450.181	6855
450.251	711
450.322	641
450.392	872
450.463	815
450.533	-80
450.604	494
450.674	781
450.744	933
450.815	-145
450.885	309
450.955	-275
451.026	-274
451.096	345
451.166	1839
451.237	10564
451.307	29127
451.377	8364
451.447	223
451.518	274
451.588	1137
451.658	1673
451.728	4362
451.799	32227
451.869	30999
451.939	5490
452.009	1424
452.079	392
452.149	650
452.219	8021
452.289	35947
452.360	22444
452.430	3192
452.500	1829
452.570	807
452.640	3417
452.710	16020
452.780	27383
452.850	9424
452.920	6078
452.990	2715
453.060	2366
453.129	3881
453.199	7681
453.269	40902
453.339	81147
453.409	121434
453.479	132567
453.549	182541
453.619	192112
453.688	64316
453.758	9124
453.828	2569
453.898	2915
453.968	1789
454.037	1209
454.087	1302
454.107	1319
454.168	578
454.177	448
454.247	410
454.249	466
454.316	1473
454.330	1786
454.386	2860
454.411	8755
454.456	17894
454.492	21163
454.525	24031
454.574	10915
454.595	5291
454.655	2400
454.665	2019
454.734	3020
454.736	3254
454.804	9724
454.817	14660
454.873	33127
454.898	35771
454.943	38651
454.979	27645
455.013	18015
455.060	8750
455.082	5383
455.141	7041
455.152	7096
455.221	24426
455.222	24829
455.291	41400
455.303	37683
455.360	20479
455.384	22082
455.430	24940
455.465	22120
455.499	18739
455.546	27019
455.569	29845
455.627	16326
455.638	14160
455.707	2680
455.708	2693
455.777	1379
455.789	1432
455.846	1468
455.869	1246
455.916	874
455.950	1406
455.985	1799
456.031	1898
456.054	1866
456.112	800
456.124	685
456.193	1307
456.193	1284
456.262	3203
456.274	3899
456.332	6703
456.355	8304
456.401	9448
456.436	6867
456.470	4419
456.516	1994
456.540	1180
456.597	113
456.609	-80
456.678	1008
456.678	993
456.747	-280
456.759	-183
456.817	684
456.840	872
456.886	875
456.920	749
456.955	989
457.001	1473
457.024	2389
457.082	5851
457.093	6580
457.162	12421
457.163	12519
457.232	16844
457.243	15690
457.301	6678
457.324	3845
457.370	1338
457.405	776
457.439	749
457.485	1204
457.508	1214
457.566	1061
457.577	1087
457.646	1631
457.647	1649
457.715	1897
457.727	1948
457.784	2146
457.808	2190
457.853	2314
457.889	2326
457.922	2195
457.969	2147
457.991	2191
458.050	2743
458.060	2809
458.129	3377
458.130	3410
458.198	3397
458.211	3124
458.267	2268
458.292	2139
458.336	1785
458.372	1272
458.405	1390
458.453	2203
458.474	2478
458.533	3926
458.543	4151
458.611	5952
458.614	6026
458.680	5032
458.694	4314
458.749	2359
458.775	2096
458.818	1881
458.855	1682
458.887	1881
458.936	2304
458.955	2273
459.016	2716
459.024	2744
459.093	2641
459.097	2648
459.162	2763
459.177	2760
459.230	2801
459.257	3052
459.299	3439
459.338	3402
459.368	3312
459.418	3914
459.437	3799
459.499	2618
459.505	2591
459.574	2078
459.579	2110
459.643	2372
459.659	2379
459.711	2662
459.740	2901
459.780	3235
459.820	3312
459.849	3313
459.900	4176
459.917	4308
459.981	4337
459.986	4282
460.054	2761
460.061	2701
460.123	2617
460.141	2505
460.191	3086
460.222	3693
460.260	3931
460.302	3997
460.328	3854
460.382	3222
460.397	3137
460.462	2943
460.465	2974
460.534	4304
460.543	4433
460.602	8443
460.623	10221
460.671	16435
460.703	22037
460.739	21650
460.783	18637
460.808	15586
460.864	5575
460.876	4892
460.944	3896
460.945	3882
461.013	3887
461.024	3839
461.081	3067
461.104	2992
461.150	3365
461.184	3448
461.218	3555
461.264	3431
461.286	3507
461.345	4151
461.355	4121
461.423	3888
461.425	3896
461.491	5713
461.505	5989
461.559	12994
461.585	16481
461.628	30665
461.665	44632
461.696	52271
461.745	69366
461.764	60334
461.825	15374
461.832	14178
461.901	6127
461.905	5901
461.969	5585
461.985	5451
462.037	5132
462.065	5122
462.105	6297
462.145	7722
462.173	13178
462.225	23198
462.241	26133
462.305	41396
462.310	40311
462.378	21049
462.385	18195
462.446	7327
462.465	4806
462.514	3872
462.545	3972
462.582	4634
462.625	5451
462.650	5353
462.705	4689
462.718	5014
462.785	6977
462.786	7070
462.854	12724
462.865	13699
462.922	18308
462.945	20371
462.990	14285
463.025	7810
463.058	6229
463.104	5119
463.126	4856
463.184	4432
463.194	4483
463.262	4765
463.264	4774
463.330	5142
463.344	5214
463.398	7382
463.424	8414
463.466	8120
463.504	8122
463.533	8231
463.583	7954
463.601	8225
463.663	9221
463.669	9536
463.737	13179
463.743	13538
463.805	24041
463.823	27020
463.873	44039
463.903	55078
463.940	61147
463.982	69199
464.008	55644
464.062	21369
464.076	18854
464.142	6557
464.144	6481
464.211	6208
464.221	6204
464.279	5374
464.301	5192
464.347	7342
464.381	8681
464.414	10044
464.461	12110
464.482	13180
464.540	16444
464.550	15492
464.617	7796
464.620	7518
464.685	7729
464.699	7860
464.753	8856
464.779	9198
464.820	10487
464.859	12007
464.888	12851
464.938	13876
464.956	14317
465.018	16337
465.023	15966
465.091	10159
465.098	9557
465.158	9034
465.177	8898
465.226	8539
465.257	8299
465.293	9135
465.336	10176
465.361	10816
465.416	12068
465.428	13723
465.495	22632
465.496	22836
465.563	49009
465.575	53588
465.631	70835
465.654	78418
465.698	47669
465.734	20103
465.765	15206
465.813	8523
465.833	8397
465.893	8895
465.900	8889
465.968	8731
465.972	8693
466.035	8087
466.052	7963
466.102	9122
466.131	9690
466.170	9581
466.210	9493
466.237	9918
466.290	10682
466.304	10766
466.369	10949
466.372	11039
466.439	13218
466.449	13496
466.506	15247
466.528	15890
466.573	23666
466.607	29445
466.641	47302
466.687	72056
466.708	82253
466.766	110626
466.775	101961
466.842	34784
466.845	31524
466.909	18886
466.925	16002
466.977	15371
467.004	15061
467.044	15271
467.083	15429
467.111	15665
467.163	16033
467.178	16346
467.242	17508
467.245	17496
467.312	16588
467.321	16437
467.379	16764
467.400	16837
467.446	19183
467.480	20818
467.559	19282
467.638	13233
467.717	14421
467.796	15191
467.875	17544
467.955	16865
468.034	31149
468.113	85769
468.192	140139
468.271	36149
468.350	12038
468.429	11543
468.508	13303
468.588	11646
468.667	13533
468.746	13907
468.825	14742
468.904	12939
468.983	16395
469.062	29232
469.141	40774
469.220	14367
469.299	13222
469.378	12770
469.456	13578
469.535	12986
469.614	13984
469.693	14163
469.772	23861
469.851	35544
469.930	26903
470.009	11711
470.088	10782
470.166	10621
470.245	12595
470.324	14373
470.403	12953
470.482	11003
470.560	10913
470.639	12079
470.718	12675
470.797	11983
470.875	15604
470.954	24667
471.033	32747
471.111	11631
471.190	9940
471.269	9477
471.347	10977
471.426	10810
471.505	13678
471.583	12915
471.662	11351
471.740	10737
471.819	10819
471.898	10325
471.976	11659
472.055	10428
472.133	13461
472.212	20259
472.290	24777
472.369	13557
472.447	10521
472.526	9103
472.604	10164
472.683	10019
472.761	10907
472.839	9934
472.918	10818
472.996	10169
473.075	14857
473.153	15097
473.231	10968
473.310	13463
473.388	13874
473.466	11686
473.545	11427
473.623	12591
473.701	12477
473.780	10034
473.858	9771
473.936	12117
474.014	11048
474.093	12203
474.171	24269
474.249	39959
474.327	28884
474.405	8975
474.484	9419
474.562	8529
474.640	9444
474.718	11255
474.796	13834
474.874	9414
474.952	8530
475.030	8077
475.108	10156
475.187	11199
475.265	11555
475.343	11886
475.421	13354
475.499	10780
475.577	12189
475.655	18783
475.733	49041
475.811	96927
475.889	89695
475.966	65074
476.044	11486
476.122	11111
476.200	14477
476.278	13432
476.356	12892
476.434	11803
476.512	12692
476.590	14965
476.667	15330
476.745	10608
476.823	11821
476.901	11970
476.979	13653
477.056	12319
477.134	13114
477.212	11282
477.290	11884
477.367	9744
477.445	10854
477.523	9919
477.601	10471
477.678	10730
477.756	17218
477.834	19851
477.911	12740
477.989	12405
478.066	11864
478.144	13579
478.222	12939
478.299	11946
478.377	12394
478.454	9997
478.532	9567
478.609	8779
478.687	11416
478.764	8651
478.842	10643
478.919	10060
478.997	11884
479.074	9665
479.152	15787
479.229	22038
479.307	15752
479.384	8835
479.461	8724
479.539	10947
479.616	15605
479.694	11862
479.771	14458
479.848	15838
479.926	23463
480.003	27831
480.080	11474
480.157	10201
480.235	9872
480.312	9818
480.389	14716
480.467	29893
480.544	41749
480.621	16541
480.698	13144
480.775	15045
480.853	18716
480.930	12959
481.007	13194
481.084	14787
481.161	17599
481.238	16622
481.315	11213
481.392	9927
481.470	11824
481.547	11868
481.624	11394
481.701	10544
481.778	11929
481.855	14245
481.932	25220
482.009	47287
482.086	38660
482.163	11050
482.240	11624
482.317	13550
482.393	14758
482.470	11099
482.547	13990
482.624	10358
482.701	12300
482.778	11160
482.855	9421
482.932	8625
483.009	9441
483.085	10315
483.162	12003
483.239	12166
483.316	9380
483.393	9027
483.469	10458
483.546	13612
483.623	17551
483.699	11421
483.776	12206
483.853	13953
483.930	21368
484.006	70733
484.083	136045
484.160	55196
484.236	40903
484.313	33945
484.389	27760
484.466	22685
484.543	21268
484.619	20760
484.696	24222
484.772	27447
484.849	34517
484.925	23432
485.002	21790
485.078	23419
485.155	24627
485.231	20931
485.308	20887
485.384	22670
485.461	31791
485.537	68175
485.614	97836
485.690	28990
485.766	21281
485.843	20413
485.919	24441
485.995	25637
486.072	18739
486.148	18151
486.224	19730
486.301	20101
486.377	26056
486.453	25630
486.530	23010
486.606	26663
486.682	33218
486.758	51743
486.835	73462
486.911	47332
486.987	86217
487.063	69560
487.139	44255
487.215	34339
487.292	23451
487.368	20620
487.444	23111
487.520	24918
487.596	21328
487.672	20451
487.748	26939
487.824	32851
487.900	22348
487.976	18719
488.052	23962
488.128	28521
488.204	25082
488.280	23590
488.356	29013
488.432	80008
488.508	150344
488.584	47675
488.660	18891
488.736	17077
488.812	18204
488.888	21641
488.964	23498
489.039	39242
489.115	59707
489.191	44958
489.267	21581
489.343	21057
489.418	17130
489.494	15536
489.570	15910
489.646	17115
489.722	16890
489.797	18888
489.873	35466
489.949	99247
490.024	103737
490.100	19863
490.176	16055
490.251	18393
490.327	20604
490.403	15734
490.478	14452
490.554	12069
490.629	13284
490.705	12841
490.781	15675
490.856	15437
490.932	17342
491.007	15775
491.083	18627
491.158	17890
491.234	26036
491.309	71816
491.385	93645
491.460	22027
491.536	19738
491.611	14100
491.686	15598
491.762	17058
491.837	28245
491.913	51719
491.988	74598
492.063	82520
492.139	49558
492.214	37104
492.289	13687
492.365	11342
492.440	15581
492.515	18406
492.590	19346
492.666	12993
492.741	21033
492.816	42911
492.891	25102
492.967	11496
493.042	11274
493.117	11312
493.192	12601
493.267	17110
493.342	48732
493.418	75983
493.493	19508
493.568	10578
493.643	11275
493.718	15268
493.793	30012
493.868	26761
493.943	13126
494.018	11011
494.093	12636
494.168	13482
494.243	10265
494.318	9921
494.393	9582
494.468	8492
494.543	8562
494.618	9432
494.693	11332
494.768	10865
494.842	12066
494.917	8665
494.992	9489
495.067	8341
495.142	8787
495.217	8651
495.292	10509
495.366	10693
495.441	15315
495.516	18829
495.591	21631
495.665	48236
495.740	118242
495.815	72255
495.890	20191
495.964	15220
496.039	17625
496.114	15358
496.188	15212
496.263	15031
496.338	16695
496.412	19702
496.487	24543
496.561	18346
496.636	19783
496.710	17870
496.785	20717
496.860	27067
496.934	19023
497.009	16557
497.083	17075
497.158	17507
497.232	22919
497.307	30086
497.381	24304
497.455	30425
497.530	48282
497.604	32019
497.679	31399
497.753	52720
497.827	77557
497.902	67371
497.976	72592
498.050	155847
498.125	675785
498.199	888748
498.273	122602
498.348	60130
498.422	46018
498.496	38825
498.570	35670
498.645	31063
498.719	33517
498.793	42001
498.867	69601
498.941	96176
499.016	254014
499.090	805039
499.164	403429
499.238	31070
499.312	21183
499.386	22741
499.460	25761
499.534	24969
499.609	32313
499.683	54735
499.757	59405
499.831	107671
499.905	490798
499.979	618268
500.053	91621
500.127	66914
500.201	31835
500.275	24336
500.349	24761
500.422	28020
500.496	37751
500.570	62956
500.644	232248
500.718	583671
500.792	180888
500.866	28079
500.940	36779
501.013	33615
501.087	28858
501.161	37829
501.235	59487
501.309	151957
501.382	465323
501.456	519133
501.530	92694
501.603	158704
501.677	79357
501.751	21655
501.825	27938
501.898	53328
501.972	186424
502.046	156060
502.119	31938
502.193	65114
502.266	204929
502.340	130331
502.413	79141
502.487	188688
502.561	124099
502.634	34352
502.708	16478
502.781	14185
502.855	13731
502.928	11572
503.002	13735
503.075	14211
503.149	16768
503.222	17058
503.295	20963
503.369	26134
503.442	35859
503.516	120794
503.589	376342
503.662	292323
503.736	74805
503.809	156797
503.882	152588
503.956	167342
504.029	189488
504.102	36782
504.175	25309
504.249	15202
504.322	20401
504.395	22459
504.468	14486
504.542	14911
504.615	11569
504.688	10183
504.761	10313
504.834	14666
504.907	12871
504.980	16383
505.053	13822
505.127	11330
505.200	19455
505.273	28101
505.346	19424
505.419	12638
505.492	11524
505.565	9424
505.638	9610
505.711	10033
505.784	11252
505.857	10095
505.930	11726
506.003	10179
506.076	13057
506.149	19225
506.221	29649
506.294	23424
506.367	58391
506.440	240010
506.513	173419
506.586	29171
506.659	17163
506.731	10552
506.804	12097
506.877	17354
506.950	16459
507.022	10714
507.095	16194
507.168	23629
507.241	11865
507.313	7070
507.386	8749
507.459	11982
507.531	7838
507.604	7380
507.677	8743
507.749	6870
507.822	9875
507.894	14928
507.967	19471
508.040	11894
508.112	10618
508.185	11137
508.257	9066
508.330	11716
508.402	11023
508.475	12602
508.547	15322
508.620	12464
508.692	28121
508.765	18175
508.837	8962
508.909	7635
508.982	9739
509.054	9768
509.127	8845
509.199	7458
509.271	8384
509.344	7433
509.416	8156
509.488	8894
509.560	9270
509.633	7600
509.705	10997
509.777	9443
509.849	12219
509.922	9065
509.994	9125
510.066	7753
510.138	8639
510.210	16342
510.283	16558
510.355	13454
510.427	11181
510.499	10719
510.571	11505
510.643	9189
510.715	13403
510.787	11026
510.859	12583
510.931	14529
511.003	13999
511.076	14253
511.148	10958
511.219	10795
511.291	23598
511.363	36830
511.435	12260
511.507	8659
511.579	10155
511.651	9887
511.723	9337
511.795	9734
511.867	10854
511.939	13902
512.010	43030
512.082	41108
512.154	11134
512.226	10405
512.298	12961
512.369	17978
512.441	16893
512.513	13151
512.585	12100
512.656	12123
512.728	15582
512.800	10831
512.871	12814
512.943	13357
513.015	9198
513.086	9254
513.158	10602
513.230	9276
513.301	14209
513.373	16082
513.444	11450
513.516	8984
513.588	9473
513.659	8365
513.731	11505
513.802	10278
513.874	17156
513.945	26079
514.016	15285
514.088	9089
514.159	9597
514.231	12007
514.302	17290
514.374	14456
514.445	16190
514.516	43524
514.588	41014
514.659	16275
514.730	40030
514.802	31971
514.873	16142
514.944	17553
515.016	13747
515.087	11730
515.158	22512
515.229	42778
515.301	21412
515.372	23952
515.443	16088
515.514	10791
515.585	9168
515.656	9506
515.728	9689
515.799	8827
515.870	9916
515.941	9822
516.012	10130
516.083	11749
516.154	13089
516.225	15498
516.296	15131
516.367	11470
516.438	12780
516.509	14460
516.580	19543
516.651	41415
516.722	145938
516.793	102690
516.864	28007
516.935	28597
517.006	30637
517.077	34516
517.148	55827
517.219	155345
517.289	321967
517.360	264150
517.431	132501
517.502	20730
517.573	19230
517.643	16670
517.714	17960
517.785	19329
517.856	17883
517.926	20534
517.997	22881
518.068	25178
518.138	30406
518.209	35910
518.280	99803
518.350	420104
518.421	231937
518.492	30714
518.562	23118
518.633	24508
518.703	18277
518.774	21019
518.845	34004
518.915	35174
518.986	24061
519.056	24302
519.127	34567
519.197	61144
519.268	226097
519.338	222364
519.408	38100
519.479	24057
519.549	19713
519.620	14738
519.690	12855
519.760	13100
519.831	14192
519.901	13537
519.971	12158
520.042	14118
520.112	19585
520.182	16422
520.253	16078
520.323	13912
520.393	15281
520.463	20078
520.534	17951
520.604	34945
520.674	25002
520.744	23358
520.814	35922
520.885	38546
520.955	69507
521.025	317785
521.095	183472
521.165	22391
521.235	18409
521.305	15178
521.375	11699
521.445	12083
521.515	13019
521.585	14559
521.655	13727
521.725	13411
521.795	15139
521.865	12436
521.935	22860
522.005	24555
522.075	13258
522.145	13073
522.215	17453
522.285	27936
522.355	38300
522.424	85319
522.494	81104
522.564	26956
522.634	26977
522.704	57883
522.774	31849
522.843	13115
522.913	11889
522.983	11993
523.053	11676
523.122	10513
523.192	11991
523.262	27289
523.331	38599
523.401	13404
523.471	9372
523.540	10239
523.610	7955
523.680	8774
523.749	10581
523.819	14149
523.888	17922
523.958	9363
524.027	10553
524.097	12417
524.166	10397
524.236	9292
524.305	12662
524.375	8741
524.444	9235
524.514	12187
524.583	12920
524.653	17379
524.722	21751
524.791	12876
524.861	11881
524.930	9044
524.999	8726
525.069	13479
525.138	15092
525.207	19061
525.277	13345
525.346	10681
525.415	10363
525.484	9039
525.554	14511
525.623	15244
525.692	9377
525.761	10284
525.830	9824
525.900	8639
525.969	14208
526.038	14822
526.107	12384
526.176	24243
526.245	23491
526.314	18311
526.383	25443
526.452	21076
526.522	33015
526.591	57823
526.660	39437
526.729	19608
526.797	16875
526.867	29022
526.935	120993
527.004	140951
527.073	63167
527.142	13198
527.211	11187
527.280	8896
527.349	10831
527.418	6835
527.487	9153
527.555	6915
527.624	7888
527.693	6284
527.762	7370
527.831	5866
527.899	9111
527.968	8516
528.037	6791
528.106	8683
528.174	15846
528.243	18214
528.312	24067
528.380	31850
528.449	12772
528.518	8743
528.586	5984
528.655	7314
528.723	7259
528.792	6044
528.861	8920
528.929	8205
528.998	8330
529.066	5745
529.135	6378
529.203	5552
529.272	5784
529.340	7797
529.409	8148
529.477	6463
529.545	11744
529.614	15967
529.682	15343
529.751	23066
529.819	18311
529.887	13703
529.956	7331
530.024	8115
530.092	5951
530.161	6443
530.229	10037
530.297	7301
530.365	6949
530.434	4753
530.502	5111
530.570	5654
530.638	5604
530.707	5937
530.775	8894
530.843	5450
530.911	7033
530.979	6258
531.047	5718
531.115	6492
531.183	6601
531.252	7313
531.320	7571
531.388	6847
531.456	6254
531.524	4177
531.592	6745
531.660	7613
531.728	6657
531.796	5507
531.864	6105
531.932	6485
532.000	6673
532.067	5902
532.135	6876
532.203	7647
532.271	7553
532.339	10153
532.407	26307
532.475	20697
532.542	10729
532.610	10510
532.678	10516
532.746	31232
532.814	105788
532.881	39491
532.949	9578
533.017	7873
533.084	7431
533.152	7258
533.220	6977
533.287	6093
533.355	6101
533.423	6237
533.490	5901
533.558	6238
533.625	8434
533.693	10999
533.761	9130
533.828	8398
533.896	6269
533.963	10529
534.031	14217
534.098	16684
534.166	11480
534.233	7038
534.300	8785
534.368	7308
534.435	6753
534.503	6804
534.570	6875
534.637	6211
534.705	6343
534.772	6485
534.840	7078
534.907	12101
534.974	17135
535.041	9044
535.109	15178
535.176	9071
535.243	6715
535.310	5629
535.378	6655
535.445	5506
535.512	6140
535.579	5898
535.646	7212
535.714	6662
535.781	8766
535.848	8165
535.915	9150
535.982	7638
536.049	7744
536.116	9233
536.183	7714
536.250	7303
536.317	7512
536.384	8333
536.451	11873
536.518	12631
536.585	9182
536.652	12393
536.719	14840
536.786	12932
536.853	11557
536.920	13982
536.987	25248
537.053	16072
537.120	43675
537.187	55295
537.254	10311
537.321	7108
537.388	9081
537.454	6481
537.521	6846
537.588	5480
537.654	8857
537.721	9714
537.788	8886
537.855	7156
537.921	7779
537.988	7554
538.055	8574
538.121	8409
538.188	8236
538.254	10283
538.321	19849
538.388	15819
538.454	8105
538.521	8008
538.587	8076
538.654	6650
538.720	6840
538.787	6388
538.853	7727
538.920	11735
538.986	14071
539.053	11312
539.119	10733
539.185	8915
539.252	9621
539.318	10688
539.385	11744
539.451	8713
539.517	9351
539.583	9759
539.650	16849
539.716	44202
539.782	20677
539.849	8018
539.915	9133
539.981	8206
540.047	9482
540.114	9276
540.180	10713
540.246	7467
540.312	9948
540.378	19196
540.444	23570
540.510	15690
540.576	42049
540.643	22625
540.709	8418
540.775	7328
540.841	9412
540.907	13417
540.973	24630
541.039	14838
541.105	14519
541.171	9388
541.237	8151
541.303	10514
541.369	11010
541.435	9430
541.500	17353
541.566	14248
541.632	9090
541.698	7656
541.764	8333
541.830	8172
541.896	8330
541.961	8027
542.027	8424
542.093	7710
542.159	8997
542.224	7888
542.290	12862
542.356	15286
542.421	23915
542.487	12247
542.553	9751
542.618	12081
542.684	9810
542.750	9130
542.815	10807
542.881	14736
542.947	38806
543.012	35639
543.078	8881
543.143	7118
543.209	9904
543.274	8163
543.340	9015
543.405	14065
543.471	25077
543.536	10663
543.602	8527
543.667	8511
543.732	9911
543.798	7010
543.863	9790
543.928	6884
543.994	7258
544.059	7315
544.124	8014
544.190	6272
544.255	7533
544.320	8369
544.386	7969
544.451	10335
544.516	12684
544.581	10569
544.646	23174
544.712	43321
544.777	16556
544.842	13054
544.907	16577
544.972	13047
545.037	12327
545.102	12685
545.168	13381
545.233	14030
545.298	15156
545.363	17026
545.428	17739
545.493	18928
545.558	35269
545.623	23391
545.688	15135
545.753	12410
545.818	13544
545.883	12511
545.947	13102
546.012	15137
546.077	17850
546.142	14076
546.207	12896
546.272	14393
546.337	16217
546.401	14408
546.466	13890
546.531	12073
546.596	15241
546.661	13526
546.725	13424
546.790	12018
546.855	13080
546.919	10167
546.984	12226
547.049	12539
547.113	18914
547.178	15122
547.243	15714
547.307	16321
547.372	20025
547.436	25086
547.501	16326
547.565	13015
547.630	15576
547.695	17218
547.759	26612
547.823	22609
547.888	13672
547.952	12777
548.017	13908
548.081	16451
548.146	30850
548.210	26692
548.274	14217
548.339	12122
548.403	12669
548.468	10670
548.532	12080
548.596	12743
548.660	13366
548.725	14088
548.789	19158
548.853	22547
548.917	15716
548.982	23945
549.046	34037
549.110	14879
549.174	14166
549.238	13114
549.303	10847
549.367	12470
549.431	12978
549.495	11652
549.559	11650
549.623	12229
549.687	13393
549.751	16943
549.815	16144
549.879	15316
549.943	12291
550.007	13687
550.071	15271
550.135	15273
550.199	15368
550.263	13968
550.327	17751
550.391	30436
550.455	20153
550.519	14350
550.582	14962
550.646	14762
550.710	18779
550.774	15341
550.838	15699
550.901	15688
550.965	16659
551.029	17524
551.093	20776
551.156	27152
551.220	63950
551.284	88598
551.347	34053
551.411	80732
551.475	127706
551.538	26781
551.602	14832
551.666	13726
551.729	12087
551.793	12783
551.856	13750
551.920	12228
551.983	13569
552.047	11836
552.110	13310
552.174	11996
552.237	12636
552.301	11590
552.364	11477
552.428	12408
552.491	12033
552.554	11922
552.618	12319
552.681	12769
552.745	14110
552.808	17591
552.871	23099
552.934	16157
552.998	13853
553.061	16273
553.124	15663
553.187	11944
553.251	12793
553.314	15184
553.377	14455
553.440	14667
553.503	26633
553.567	42252
553.630	17413
553.693	12827
553.756	13330
553.819	11411
553.882	13254
553.945	12266
554.008	12486
554.071	10111
554.134	11767
554.197	9985
554.260	10891
554.323	11772
554.386	11855
554.449	10975
554.512	11615
554.575	9830
554.638	12739
554.701	11716
554.764	10514
554.827	11681
554.889	11136
554.952	9840
555.015	10225
555.078	10427
555.141	10831
555.203	9879
555.266	11560
555.329	11703
555.391	10786
555.454	9522
555.517	11744
555.580	10350
555.642	10127
555.705	9522
555.768	11771
555.830	11381
555.893	10918
555.955	10280
556.018	10711
556.080	10260
556.143	10111
556.206	9947
556.268	12515
556.330	11437
556.393	11219
556.455	11600
556.518	22372
556.580	28357
556.643	11760
556.705	10263
556.767	9120
556.830	10801
556.892	11244
556.955	14017
557.017	13926
557.079	11075
557.142	10736
557.204	9585
557.266	17109
557.328	18122
557.391	11183
557.453	10043
557.515	10622
557.577	12801
557.639	12810
557.701	9551
557.764	9327
557.826	9222
557.888	12374
557.950	10547
558.012	9323
558.074	10072
558.136	12982
558.198	19730
558.260	16256
558.322	11302
558.384	11380
558.446	11922
558.508	12272
558.570	15784
558.632	19783
558.694	28967
558.756	19357
558.818	30199
558.880	85221
558.942	36245
559.003	20704
559.065	15664
559.127	11229
559.189	10917
559.251	11814
559.312	11711
559.374	17636
559.436	47537
559.498	35764
559.559	11002
559.621	11579
559.683	12393
559.744	20229
559.806	36841
559.868	48589
559.929	21183
559.991	17226
560.052	16836
560.114	23186
560.176	20109
560.237	17469
560.299	24185
560.360	16158
560.422	13378
560.483	14085
560.545	13102
560.606	14175
560.667	13581
560.729	13146
560.790	12616
560.852	13082
560.913	13711
560.974	12813
561.036	12418
561.097	12418
561.158	12581
561.220	13835
561.281	12661
561.342	14046
561.403	14280
561.465	16122
561.526	24272
561.587	38330
561.648	15956
561.709	13356
561.771	12608
561.832	12955
561.893	11991
561.954	12008
562.015	11373
562.076	12367
562.137	12044
562.198	13692
562.259	12458
562.320	12562
562.381	11887
562.442	15808
562.503	15135
562.564	12962
562.625	11750
562.686	12466
562.747	11694
562.808	12248
562.869	12805
562.930	19049
562.991	17783
563.051	16285
563.112	14753
563.173	14424
563.234	12500
563.294	13661
563.355	11963
563.416	14145
563.477	13107
563.537	14196
563.598	15518
563.659	14381
563.720	14466
563.780	14955
563.841	14110
563.901	14178
563.962	12983
564.023	15124
564.083	14217
564.144	15327
564.204	14848
564.265	17342
564.325	17986
564.386	40209
564.446	46651
564.507	16176
564.567	12944
564.628	14247
564.688	13078
564.749	13388
564.809	16663
564.869	23508
564.930	15314
564.990	13551
565.050	11949
565.111	11966
565.171	11840
565.231	12203
565.292	12301
565.352	10845
565.412	13040
565.472	13181
565.532	13323
565.593	12894
565.653	11030
565.713	12416
565.773	12462
565.833	13923
565.893	16258
565.953	13367
566.013	11657
566.074	15307
566.134	19785
566.194	37997
566.254	40825
566.314	24293
566.374	15108
566.434	15415
566.494	14114
566.554	15689
566.614	14722
566.673	14476
566.733	15162
566.793	17099
566.853	15897
566.913	16657
566.973	16280
567.033	16816
567.092	16843
567.152	17414
567.212	16953
567.272	18180
567.331	19895
567.391	18826
567.451	20125
567.511	30245
567.570	34183
567.630	19567
567.690	16730
567.749	17909
567.809	17926
567.868	20082
567.928	23116
567.988	28199
568.047	28994
568.107	33618
568.166	44910
568.226	76824
568.285	123314
568.345	101424
568.404	68821
568.464	55035
568.523	47924
568.582	47116
568.642	51450
568.701	67416
568.761	106590
568.820	201481
568.879	207098
568.939	135505
568.998	84492
569.057	56687
569.116	42278
569.176	32383
569.235	27494
569.294	23016
569.353	20169
569.413	20039
569.472	19042
569.531	17397
569.590	15443
569.649	16277
569.708	13440
569.767	15648
569.827	15835
569.886	16120
569.945	12522
570.004	13853
570.063	13511
570.122	13840
570.181	14169
570.240	17588
570.299	17310
570.358	15382
570.417	13036
570.475	11522
570.534	11414
570.593	11813
570.652	11853
570.711	13026
570.770	12441
570.829	18097
570.887	14111
570.946	12570
571.005	10558
571.064	11088
571.122	12003
571.181	15187
571.240	12145
571.299	10655
571.357	13254
571.416	14745
571.475	15723
571.533	18098
571.592	12255
571.650	13884
571.709	10673
571.768	9867
571.826	9511
571.885	8624
571.943	9030
572.002	10755
572.060	11195
572.119	9743
572.177	9016
572.236	9510
572.294	8110
572.352	8430
572.411	8582
572.469	8912
572.528	8368
572.586	9217
572.644	9652
572.703	13291
572.761	9739
572.819	10211
572.877	8919
572.936	8626
572.994	8870
573.052	9257
573.110	7990
573.169	10152
573.227	7722
573.285	8197
573.343	8636
573.401	9654
573.459	8386
573.517	8682
573.576	7724
573.634	9715
573.692	9707
573.750	9251
573.808	8863
573.866	10556
573.924	14981
573.982	16616
574.040	10875
574.098	9422
574.155	8895
574.213	7640
574.271	6854
574.329	7927
574.387	7333
574.445	8503
574.503	7702
574.560	7042
574.618	6437
574.676	7347
574.734	6910
574.792	7541
574.849	7095
574.907	6926
574.965	6770
575.022	6876
575.080	7529
575.138	7074
575.195	7513
575.253	8316
575.311	7876
575.368	7888
575.426	6368
575.483	8476
575.541	6979
575.598	7709
575.656	7510
575.713	8376
575.771	6378
575.828	8228
575.886	7321
575.943	10082
576.001	9285
576.058	9825
576.115	10433
576.173	12127
576.230	14892
576.287	13738
576.345	10706
576.402	9813
576.459	9840
576.517	10198
576.574	12285
576.631	14780
576.688	10319
576.746	9281
576.803	9836
576.860	8848
576.917	8325
576.974	9866
577.031	8474
577.089	10179
577.146	8194
577.203	9727
577.260	11166
577.317	12381
577.374	14262
577.431	13919
577.488	9856
577.545	8326
577.602	8472
577.659	8900
577.716	8997
577.773	7903
577.830	8155
577.886	9221
577.943	7404
578.000	8843
578.057	9439
578.114	9734
578.171	8515
578.227	9483
578.284	8675
578.341	8641
578.398	8749
578.454	9820
578.511	11458
578.568	16444
578.625	13268
578.681	9964
578.738	7504
578.794	8275
578.851	7546
578.908	8191
578.964	7318
579.021	9272
579.077	7776
579.134	8139
579.190	7104
579.247	7785
579.303	7627
579.360	8035
579.416	7149
579.473	6739
579.529	5974
579.586	8157
579.642	7421
579.698	9004
579.755	9200
579.811	8354
579.867	8077
579.924	7601
579.980	6435
580.036	7644
580.093	8507
580.149	9108
580.205	9970
580.261	8807
580.317	8648
580.374	11102
580.430	12867
580.486	13388
580.542	9157
580.598	8764
580.619	8434
580.654	7868
580.692	8359
580.710	8615
580.765	7848
580.767	7831
580.823	8623
580.838	8614
580.879	8616
580.911	8244
580.935	7979
580.984	7169
580.991	7068
581.047	8324
581.057	8383
581.103	8664
581.130	8900
581.159	9153
581.203	8508
581.215	8342
581.270	10198
581.276	10080
581.326	9029
581.349	9231
581.382	9523
581.422	9037
581.438	8850
581.494	10251
581.494	10236
581.550	9134
581.567	9483
581.606	10234
581.640	9332
581.661	8788
581.713	9236
581.717	9283
581.773	9227
581.786	9227
581.829	9156
581.859	9084
581.885	9061
581.932	9029
581.940	9030
581.996	8626
582.004	8748
582.052	9265
582.077	8866
582.107	8559
582.150	9199
582.163	9353
582.219	9209
582.223	9235
582.274	9578
582.296	8904
582.330	7896
582.368	9615
582.386	10380
582.441	8520
582.441	8519
582.497	8893
582.514	8752
582.552	8562
582.587	8952
582.608	9115
582.659	8763
582.663	8748
582.719	9240
582.732	9096
582.774	8620
582.805	9228
582.830	9739
582.877	8916
582.885	8778
582.941	9643
582.950	9444
582.996	8346
583.023	8879
583.052	9509
583.095	8908
583.107	8800
583.162	11109
583.168	11089
583.218	10674
583.240	10470
583.273	10074
583.313	9759
583.328	9673
583.384	9359
583.385	9329
583.439	8531
583.458	8953
583.494	9669
583.531	9201
583.549	9045
583.603	9880
583.605	9907
583.660	9058
583.676	9289
583.715	9739
583.748	10067
583.770	10339
583.820	10783
583.825	10796
583.881	9817
583.893	9825
583.936	10259
583.965	10220
583.991	9988
584.038	10183
584.046	10276
584.101	10612
584.110	10648
584.156	10452
584.183	9985
584.211	9608
584.255	9639
584.266	9679
584.321	9923
584.328	10005
584.376	10487
584.400	10040
584.431	9576
584.472	10052
584.486	10127
584.541	9849
584.545	9857
584.596	10345
584.617	10389
584.651	10559
584.689	11583
584.706	11880
584.761	10858
584.762	10857
584.816	11590
584.834	11572
584.871	11271
584.906	11832
584.926	12154
584.978	11128
584.980	11107
585.035	12412
585.051	12420
585.090	12143
585.123	12624
585.145	12943
585.195	13116
585.200	13187
585.254	14151
585.267	14173
585.309	14111
585.340	15084
585.364	15669
585.412	15016
585.419	14889
585.473	14153
585.484	14009
585.528	14659
585.556	16065
585.583	17176
585.628	18025
585.637	18606
585.692	25077
585.700	26344
585.747	31711
585.772	29617
585.801	24310
585.845	17475
585.856	16518
585.910	16171
585.917	16014
585.965	15459
585.989	15602
586.019	16238
586.061	16602
586.074	16501
586.128	16488
586.133	16490
586.183	17687
586.205	18376
586.237	19042
586.277	18878
586.292	18788
586.346	19817
586.349	19796
586.401	19744
586.421	20037
586.455	21063
586.493	22776
586.509	24510
586.564	32135
586.565	32486
586.618	52313
586.637	54386
586.672	47294
586.709	32335
586.727	26508
586.781	21422
586.781	21434
586.835	21283
586.853	21472
586.889	21719
586.925	21099
586.944	21106
586.996	22936
586.998	22997
587.052	23078
587.068	23424
587.106	24334
587.140	24178
587.161	24189
587.212	25321
587.215	25442
587.269	26786
587.284	27299
587.323	27787
587.356	28057
587.377	28798
587.427	30454
587.431	30584
587.485	31651
587.499	31946
587.539	33223
587.571	34357
587.593	35423
587.643	37440
587.648	37649
587.702	39548
587.715	40152
587.755	43078
587.786	44662
587.810	45639
587.858	48392
587.864	48964
587.917	53340
587.930	54513
587.971	59598
588.001	63618
588.025	66651
588.073	71401
588.079	72458
588.133	82096
588.145	84393
588.187	93893
588.217	100586
588.241	107772
588.288	122642
588.295	125196
588.348	146202
588.360	150904
588.402	171793
588.431	186666
588.456	203059
588.503	236647
588.510	242629
588.564	291429
588.575	302188
588.617	360174
588.646	402589
588.671	458166
588.718	574053
588.725	605261
588.778	866118
588.789	925952
588.832	1334228
588.861	1634898
588.886	1909496
588.932	2411073
588.939	2419626
588.993	2250540
589.004	2234046
589.047	2175677
589.075	2048422
589.100	1732584
589.147	1117203
589.154	1069345
589.207	753970
589.218	694625
589.261	622685
589.290	582754
589.314	598650
589.361	643123
589.368	670091
589.421	910181
589.433	968178
589.475	1407066
589.504	1736755
589.528	1941800
589.576	2241068
589.582	2218743
589.635	1926655
589.647	1839341
589.689	1265202
589.718	866608
589.742	699812
589.790	411261
589.795	398187
589.849	287966
589.861	264185
589.902	227678
589.932	200198
589.955	182300
590.004	143606
590.009	141499
590.062	120388
590.075	115185
590.115	104175
590.146	95619
590.168	91929
590.218	83425
590.222	82963
590.275	75447
590.289	73400
590.328	70500
590.360	67807
590.381	65633
590.431	60557
590.435	60475
590.488	56900
590.503	55868
590.541	53741
590.574	51732
590.594	50793
590.645	48121
590.647	48116
590.700	45360
590.716	44472
590.753	43056
590.787	41643
590.806	41439
590.859	40664
590.859	40727
590.912	39389
590.930	38992
590.965	38126
591.001	36934
591.018	36594
591.071	35533
591.072	35447
591.124	33715
591.143	33045
591.177	33519
591.214	33776
591.230	33817
591.283	33901
591.285	33827
591.336	33580
591.356	33445
591.389	33301
591.427	32786
591.442	32282
591.495	30232
591.498	30015
591.547	29304
591.569	28932
591.600	28712
591.640	28179
591.653	28422
591.706	29346
591.711	29378
591.759	29679
591.782	29772
591.811	31305
591.853	33424
591.864	32806
591.917	28944
591.924	28348
591.969	27594
591.995	27131
592.022	27181
592.066	27052
592.075	27681
592.127	31297
592.137	31925
592.180	34487
592.208	35936
592.233	33448
592.279	28375
592.285	28108
592.338	25554
592.350	24915
592.390	24803
592.421	24689
592.443	24606
592.491	24227
592.495	24268
592.548	24219
592.562	24159
592.600	24519
592.633	24741
592.653	24651
592.704	24151
592.705	24269
592.775	23200
592.846	24444
592.916	22870
592.987	24602
593.058	24293
593.128	23409
593.199	22124
593.270	21892
593.341	21526
593.411	21157
593.482	20724
593.553	21442
593.623	20627
593.694	20623
593.764	23273
593.835	21021
593.906	20899
593.976	20746
594.047	21400
594.117	25660
594.188	27209
594.258	19601
594.329	19496
594.399	19472
594.470	19501
594.540	18594
594.611	19806
594.681	19363
594.751	21041
594.822	22695
594.892	23082
594.963	22959
595.033	21307
595.103	21328
595.174	22149
595.244	32527
595.314	43708
595.384	23570
595.455	19111
595.525	20223
595.595	19518
595.665	19847
595.736	20220
595.806	20069
595.876	19107
595.946	18767
596.016	18559
596.087	18832
596.157	18673
596.227	19132
596.297	19600
596.367	20343
596.437	22422
596.507	29408
596.577	40313
596.647	23906
596.717	19551
596.787	18828
596.857	18169
596.927	18899
596.997	18165
597.067	19049
597.137	19597
597.207	20002
597.277	17934
597.347	19545
597.417	18883
597.487	18147
597.557	19399
597.626	19239
597.696	21077
597.766	26001
597.836	36469
597.906	25108
597.975	18429
598.045	18384
598.115	18311
598.185	18440
598.254	19170
598.324	19583
598.394	18622
598.464	19716
598.533	17854
598.603	16870
598.672	18125
598.742	18631
598.812	17434
598.881	17874
598.951	17590
599.020	16403
599.090	17449
599.159	18260
599.229	17153
599.299	16908
599.368	16207
599.437	16035
599.507	16483
599.576	18129
599.646	16850
599.715	18479
599.785	17183
599.854	18786
599.924	21637
599.993	19822
600.062	16614
600.132	17384
600.201	17158
600.270	18739
600.340	17853
600.409	17055
600.478	17274
600.547	17363
600.617	18700
600.686	16354
600.755	16165
600.824	16603
600.894	17164
600.963	16316
601.032	15032
601.101	15448
601.170	15738
601.239	15006
601.308	16379
601.378	15422
601.447	15009
601.516	14425
601.585	14569
601.654	15449
601.723	15827
601.792	14377
601.861	15550
601.930	15583
601.999	16312
602.068	14518
602.137	14778
602.206	15094
602.275	14369
602.343	16441
602.412	16659
602.481	14947
602.550	14250
602.619	14056
602.688	14669
602.756	14836
602.825	14208
602.894	13566
602.963	14050
603.032	14158
603.100	14102
603.169	13618
603.238	13991
603.307	14474
603.375	13252
603.444	13776
603.513	14670
603.581	14020
603.650	13800
603.719	13338
603.787	13372
603.856	14479
603.924	14150
603.993	14932
604.061	13428
604.130	14395
604.198	13915
604.267	14644
604.335	13727
604.404	14369
604.472	13839
604.541	14828
604.609	13227
604.678	13428
604.746	13850
604.815	14112
604.883	13635
604.951	13863
605.020	14003
605.088	15500
605.156	14893
605.225	14080
605.293	14457
605.361	14707
605.429	14663
605.498	15114
605.566	15106
605.634	14919
605.702	15056
605.771	15490
605.839	14677
605.907	14818
605.975	15198
606.043	14685
606.111	14321
606.180	13693
606.248	14591
606.316	16701
606.384	15250
606.452	20381
606.520	18358
606.588	15757
606.656	14277
606.724	15353
606.792	14180
606.860	12986
606.928	12392
606.996	13435
607.064	12416
607.132	12700
607.200	12445
607.267	13642
607.335	13449
607.403	13934
607.471	13793
607.539	13194
607.607	12994
607.674	13033
607.742	13367
607.810	13132
607.878	13012
607.946	13004
608.013	12372
608.081	13769
608.149	13433
608.216	12105
608.284	14138
608.352	12621
608.419	13998
608.487	21437
608.555	17095
608.622	12182
608.690	13117
608.757	12776
608.825	13668
608.893	14105
608.960	16136
609.028	20041
609.095	23787
609.163	16742
609.230	14178
609.298	14392
609.365	11322
609.432	11639
609.500	13373
609.567	13465
609.635	14498
609.702	14539
609.769	15140
609.837	15566
609.904	13846
609.971	11595
610.039	13925
610.106	14566
610.173	20947
610.241	41917
610.308	39287
610.375	25212
610.442	13843
610.509	12007
610.577	12039
610.644	12304
610.711	11790
610.778	12629
610.845	12031
610.912	12113
610.980	13466
611.047	14983
611.114	13424
611.181	12672
611.248	12250
611.315	13492
611.382	12594
611.449	12723
611.516	13124
611.583	13540
611.650	13755
611.717	13256
611.784	13476
611.851	14237
611.918	15193
611.984	16688
612.051	20892
612.118	35135
612.185	79772
612.252	62290
612.319	17128
612.386	14947
612.452	15084
612.519	17084
612.586	24106
612.653	20824
612.719	14562
612.786	13238
612.853	13087
612.919	11961
612.986	12691
613.053	12062
613.120	11979
613.186	11366
613.253	12699
613.319	12044
613.386	11588
613.453	12498
613.519	13758
613.586	14538
613.652	18797
613.719	16056
613.785	15648
613.852	13211
613.918	12155
613.985	12462
614.051	14644
614.118	22382
614.184	23435
614.250	12312
614.317	13034
614.383	11665
614.449	11378
614.516	13179
614.582	13455
614.648	12169
614.715	11688
614.781	12733
614.847	13487
614.914	14615
614.980	13323
615.046	13144
615.112	11976
615.179	13776
615.245	15839
615.311	21266
615.377	38578
615.443	43234
615.509	21260
615.575	16769
615.642	15056
615.708	16622
615.774	18451
615.840	21402
615.906	27183
615.972	40361
616.038	81885
616.104	101891
616.170	120138
616.236	113934
616.302	31055
616.368	22599
616.434	18079
616.500	19065
616.565	18242
616.631	19781
616.697	16922
616.763	18138
616.829	20277
616.895	29579
616.961	29233
617.026	19205
617.092	14847
617.158	15378
617.224	14763
617.289	14532
617.355	15150
617.421	16480
617.487	16622
617.552	15180
617.618	13500
617.684	14227
617.749	16207
617.815	13753
617.880	13698
617.946	13258
618.012	13642
618.077	13708
618.143	14200
618.208	14292
618.274	14563
618.339	16015
618.405	14330
618.470	15100
618.536	15435
618.601	17671
618.667	16639
618.732	14853
618.798	15091
618.863	15161
618.928	14037
618.994	15296
619.059	17045
619.124	19491
619.190	16678
619.255	15657
619.320	15020
619.386	15735
619.451	14190
619.516	13800
619.581	15023
619.647	15508
619.712	14694
619.777	14921
619.842	14443
619.907	15449
619.972	14737
620.038	15083
620.103	14864
620.168	13920
620.233	14507
620.298	13588
620.363	13865
620.428	14577
620.493	15057
620.558	13662
620.623	13783
620.688	13902
620.753	13666
620.818	13591
620.883	14138
620.948	14744
621.013	14055
621.078	14482
621.143	14693
621.207	17602
621.272	16010
621.337	17137
621.402	18701
621.467	25456
621.532	27760
621.596	20863
621.661	18619
621.726	17204
621.791	17656
621.855	16412
621.920	19142
621.985	20887
622.049	24437
622.114	22261
622.179	20059
622.243	21610
622.308	20173
622.373	20404
622.437	19723
622.502	18864
622.566	18906
622.631	18917
622.695	20341
622.760	20000
622.824	18292
622.889	18794
622.953	19764
623.018	23332
623.082	23848
623.147	18798
623.211	17972
623.276	18113
623.340	17553
623.404	17005
623.469	17014
623.533	18205
623.597	16807
623.662	18475
623.726	16679
623.790	16297
623.854	16324
623.919	18515
623.983	16865
624.047	16928
624.111	16626
624.176	17694
624.240	17910
624.304	20617
624.368	17685
624.432	17262
624.496	17693
624.560	17324
624.625	17679
624.689	17505
624.753	16126
624.817	16401
624.881	15112
624.945	15856
625.009	15985
625.073	15891
625.137	15965
625.201	18018
625.265	17616
625.329	16172
625.393	16349
625.456	16632
625.520	17488
625.584	20085
625.648	25285
625.712	38333
625.776	88664
625.839	112932
625.903	50967
625.967	21747
626.031	34162
626.095	61824
626.158	24433
626.222	14970
626.286	14228
626.349	12648
626.413	12443
626.477	14437
626.540	14038
626.604	13699
626.668	13740
626.731	13067
626.795	13686
626.858	14322
626.922	13419
626.986	13366
627.049	11600
627.113	12711
627.176	13236
627.240	12453
627.303	12641
627.366	13107
627.430	13001
627.493	12483
627.557	13869
627.620	13928
627.684	12665
627.747	12795
627.810	11474
627.874	12515
627.937	11229
628.000	14008
628.064	12572
628.127	10739
628.190	12216
628.253	12080
628.317	11929
628.380	11904
628.443	11749
628.506	11900
628.569	11441
628.632	11441
628.696	11963
628.759	11643
628.822	10147
628.885	9994
628.948	10901
629.011	10509
629.074	9897
629.137	9984
629.200	10523
629.263	12490
629.326	10039
629.389	10698
629.452	9848
629.515	11458
629.578	11481
629.641	11562
629.704	10943
629.767	10538
629.830	10150
629.892	10095
629.955	9080
630.018	11806
630.081	9924
630.144	11908
630.207	9445
630.269	11037
630.332	12145
630.395	12232
630.458	9408
630.520	8715
630.583	10093
630.646	9269
630.708	8632
630.771	8907
630.834	10053
630.896	9107
630.959	8226
631.021	8598
631.084	8690
631.146	10497
631.209	12101
631.272	9452
631.334	8597
631.397	8428
631.459	8140
631.522	8718
631.584	8070
631.646	9123
631.709	8476
631.771	10263
631.834	10004
631.896	9006
631.958	7206
632.021	8719
632.083	7424
632.145	9012
632.208	7949
632.270	9305
632.332	7398
632.395	7353
632.457	9964
632.519	8113
632.581	8432
632.643	7058
632.706	8355
632.768	7193
632.830	8423
632.892	8067
632.954	7525
633.016	8119
633.078	7721
633.141	7733
633.203	7216
633.265	8506
633.327	7334
633.389	7421
633.451	8463
633.513	9322
633.575	10665
633.637	9681
633.698	8119
633.760	8806
633.822	7120
633.884	7683
633.946	7300
634.008	7506
634.070	7303
634.132	8375
634.193	6946
634.255	7668
634.317	6683
634.379	7344
634.441	7165
634.502	7444
634.564	8370
634.626	9045
634.687	10576
634.749	9051
634.811	7760
634.873	5942
634.934	6367
634.996	7416
635.057	6588
635.119	5603
635.181	6808
635.242	7312
635.304	6249
635.365	8812
635.427	6173
635.488	5863
635.550	6649
635.611	7593
635.673	5745
635.734	8426
635.796	6854
635.857	8357
635.918	5463
635.980	7298
636.041	6237
636.102	7141
636.164	6892
636.225	7806
636.286	6159
636.348	7298
636.409	6371
636.470	6278
636.531	6097
636.593	8148
636.654	8531
636.715	5822
636.776	6298
636.838	6398
636.899	6304
636.960	6782
637.021	5763
637.082	6463
637.143	7434
637.204	5150
637.265	4866
637.326	5990
637.387	5391
637.448	4888
637.509	5779
637.570	6203
637.631	5807
637.692	4910
637.753	3776
637.814	6049
637.875	4760
637.936	6321
637.997	4840
638.058	6029
638.119	7299
638.179	5289
638.240	5223
638.301	5296
638.362	4900
638.423	5505
638.483	6341
638.544	4485
638.605	5072
638.666	4234
638.726	6586
638.787	5934
638.848	4838
638.908	5328
638.969	5340
639.030	6305
639.090	4274
639.151	4812
639.211	5835
639.272	5561
639.332	8776
639.393	7097
639.453	4477
639.514	4791
639.574	5825
639.635	4575
639.695	5930
639.756	4836
639.816	5664
639.877	5367
639.937	7136
639.997	10017
640.058	4730
640.118	4350
640.178	5215
640.239	4808
640.299	4653
640.359	5427
640.420	5119
640.480	5614
640.540	4627
640.600	5133
640.661	5081
640.721	3602
640.781	7243
640.841	3541
640.901	6029
640.961	5770
641.021	4746
641.082	4681
641.142	6712
641.202	5921
641.262	3079
641.322	5603
641.382	3872
641.442	5360
641.502	4977
641.562	4724
641.622	3588
641.682	4984
641.742	4622
641.802	5265
641.861	5567
641.921	5678
641.981	6076
642.041	5129
642.101	5585
642.161	5014
642.221	4010
642.280	4181
642.340	3964
642.400	3286
642.460	5035
642.519	4319
642.579	4493
642.639	5281
642.698	1986
642.758	6281
642.818	4535
642.877	3856
642.937	4881
642.997	4619
643.056	5647
643.116	3577
643.175	5266
643.235	4352
643.294	3994
643.354	4252
643.414	3564
643.473	4912
643.532	4466
643.592	5280
643.651	7283
643.711	10086
643.770	15955
643.830	31467
643.889	79318
643.948	27594
644.008	6358
644.067	4132
644.126	3653
644.186	4162
644.245	4259
644.304	2450
644.363	5372
644.423	2916
644.482	4502
644.541	4569
644.600	2530
644.659	4746
644.719	4049
644.778	5256
644.837	5637
644.896	7718
644.955	15022
645.014	8568
645.073	4960
645.132	4466
645.191	4481
645.250	3885
645.309	5856
645.368	3758
645.427	5202
645.486	3410
645.545	5956
645.604	3647
645.663	4037
645.722	4133
645.781	3977
645.840	3905
645.898	4111
645.957	5470
646.016	3881
646.075	8670
646.134	11798
646.192	28607
646.251	53755
646.310	11737
646.369	4313
646.427	3972
646.486	2396
646.545	4119
646.603	3387
646.662	4293
646.721	3204
646.779	3114
646.838	2363
646.896	4165
646.955	3530
647.014	4671
647.072	4799
647.131	8604
647.189	6915
647.248	3351
647.306	3243
647.365	4173
647.423	2359
647.481	4344
647.540	1816
647.598	3803
647.657	2879
647.715	4305
647.773	2184
647.832	4228
647.890	2278
647.948	2907
648.007	4756
648.065	3625
648.123	3601
648.181	5295
648.240	3723
648.298	3330
648.356	3049
648.414	4790
648.472	4167
648.531	4668
648.589	4628
648.647	3878
648.705	3711
648.763	4109
648.821	3424
648.879	3778
648.937	4160
648.995	4713
649.053	3814
649.111	4767
649.169	5690
649.227	6335
649.285	9799
649.343	24507
649.401	18337
649.459	10501
649.516	8247
649.574	4321
649.632	8121
649.690	10621
649.748	5862
649.806	3371
649.863	6571
649.921	7257
649.979	6066
650.037	3801
650.094	1067
650.152	3975
650.210	2116
650.268	3967
650.325	2229
650.383	2857
650.440	2650
650.498	3853
650.556	3419
650.613	2071
650.671	3167
650.728	3290
650.786	3021
650.843	3396
650.901	1351
650.958	3080
651.016	2530
651.073	3256
651.131	1943
651.188	1329
651.246	3030
651.303	2184
651.360	2901
651.418	3095
651.475	3348
651.532	1746
651.590	2603
651.647	2337
651.704	2696
651.762	3046
651.819	2621
651.876	2077
651.933	2295
651.990	3059
652.048	2095
652.105	2167
652.162	3450
652.219	2723
652.276	3041
652.333	3007
652.390	1500
652.448	2869
652.505	2371
652.562	2501
652.619	1447
652.676	3515
652.733	3169
652.790	2251
652.847	1347
652.904	2245
652.961	819
653.017	1437
653.074	3295
653.131	2881
653.188	2296
653.245	2602
653.302	2241
653.359	1998
653.415	1996
653.472	2116
653.529	2993
653.586	1947
653.642	1926
653.699	2206
653.756	1909
653.813	2051
653.869	2373
653.926	1244
653.983	1419
654.039	2738
654.096	1347
654.152	3194
654.209	1413
654.266	3538
654.322	1653
654.379	3052
654.435	3262
654.492	3363
654.548	4413
654.605	7134
654.661	5049
654.717	2391
654.774	3300
654.830	3166
654.887	3059
654.943	2731
655.000	3049
655.056	2807
655.112	3412
655.168	3257
655.225	3413
655.281	4823
655.337	5288
655.394	8687
655.450	8460
655.506	7805
655.562	8714
655.618	11091
655.675	3443
655.731	4516
655.787	3314
655.843	5422
655.899	3367
655.955	6214
656.011	5637
656.067	5004
656.123	7917
656.179	7507
656.235	9499
656.291	7504
656.347	8076
656.403	7442
656.459	6191
656.515	6545
656.571	5404
656.627	5140
656.683	4036
656.739	3951
656.795	3712
656.850	3149
656.906	4925
656.962	3830
657.018	2806
657.074	2815
657.129	3168
657.185	3312
657.241	2504
657.297	1983
657.352	3060
657.408	2218
657.464	3752
657.519	2307
657.575	1986
657.630	3135
657.686	1954
657.742	1865
657.797	1803
657.853	1939
657.908	3014
657.964	1945
658.019	2459
658.075	2093
658.130	3295
658.186	1234
658.241	1896
658.297	1894
658.352	1619
658.407	3290
658.463	1854
658.518	2845
658.573	2143
658.629	1606
658.684	2394
658.739	2729
658.795	1085
658.850	2739
658.905	2110
658.960	2063
659.016	1165
659.071	2533
659.126	2510
659.181	2114
659.236	4179
659.291	4317
659.346	1835
659.401	2723
659.457	2576
659.512	2287
659.567	3830
659.622	1840
659.677	1749
659.732	1472
659.787	2648
659.842	3354
659.897	4162
659.952	3492
660.007	2574
660.061	1939
660.116	2050
660.171	2158
660.226	2147
660.281	2911
660.336	1670
660.391	2611
660.445	923
660.500	2123
660.555	2282
660.610	1546
660.664	2328
660.719	1764
660.774	2076
660.828	3002
660.883	1911
660.938	2758
660.992	2477
661.047	3287
661.101	1231
661.156	1898
661.211	1735
661.265	1745
661.320	807
661.374	2426
661.429	2005
661.483	3137
661.538	2077
661.592	2014
661.647	2431
661.701	2433
661.755	2700
661.810	2875
661.864	1374
661.919	1780
661.973	1755
662.027	2214
662.081	1322
662.136	918
662.190	2164
662.244	3126
662.299	2506
662.353	2563
662.407	2031
662.461	2372
662.515	2992
662.569	2547
662.624	2579
662.678	2028
662.732	2428
662.786	2387
662.840	2527
662.894	1946
662.948	2543
663.002	2196
663.056	2400
663.110	1708
663.164	1991
663.218	2696
663.272	2305
663.326	2531
663.380	1823
663.434	2680
663.488	1383
663.542	2863
663.595	3296
663.649	2554
663.703	2456
663.757	2176
663.811	1850
663.864	2248
663.918	2852
663.972	2386
664.026	2920
664.079	1344
664.133	2073
664.187	3141
664.240	1739
664.294	2269
664.348	2806
664.401	2072
664.455	1892
664.508	2130
664.562	2860
664.615	2327
664.669	1529
664.722	3034
664.776	1549
664.829	2605
664.883	2214
664.936	2014
664.990	3447
665.043	3954
665.097	2727
665.150	4586
665.203	2773
665.257	2626
665.310	3444
665.363	2557
665.417	4116
665.470	2068
665.523	2980
665.576	2753
665.630	2854
665.683	2982
665.736	2743
665.789	3461
665.842	2526
665.895	2628
665.949	2653
666.002	2144
666.055	2461
666.108	3583
666.161	2783
666.214	3248
666.267	3350
666.320	2839
666.373	2890
666.426	2751
666.479	3237
666.532	3208
666.585	4209
666.638	4550
666.691	4188
666.744	5529
666.796	3917
666.849	3756
666.902	3049
666.955	3139
667.008	2527
667.060	2071
667.113	1891
667.166	2742
667.219	1040
667.271	2868
667.324	2456
667.377	2655
667.430	2976
667.482	2106
667.535	2347
667.587	3367
667.640	2433
667.693	3460
667.745	3707
667.798	5411
667.850	3017
667.903	2766
667.955	2368
668.008	3214
668.060	3563
668.113	3672
668.165	2842
668.218	3746
668.270	3599
668.322	2397
668.375	3300
668.427	4269
668.479	2211
668.532	3821
668.584	3515
668.636	2710
668.689	2929
668.741	3131
668.793	3852
668.845	2531
668.898	4245
668.950	2854
669.002	3218
669.054	3001
669.106	2396
669.158	4163
669.211	3208
669.263	3748
669.315	3603
669.367	3471
669.419	4014
669.471	4169
669.523	3955
669.575	5706
669.627	4147
669.679	4729
669.731	2573
669.783	3269
669.835	4395
669.886	4742
669.938	3369
669.990	3554
670.042	2653
670.094	3416
670.146	2922
670.197	3752
670.249	3649
670.301	4011
670.353	5582
670.404	7668
670.456	9669
670.508	14407
670.560	22489
670.611	36114
670.663	59749
670.715	127002
670.766	268065
670.818	112658
670.869	16170
670.921	8152
670.972	5669
671.024	4995
671.075	4339
671.127	3683
671.178	3040
671.230	3317
671.281	3871
671.333	3835
671.384	2890
671.436	4431
671.487	3901
671.538	4313
671.590	4015
671.641	5617
671.692	5550
671.744	6599
671.795	7291
671.846	4631
671.897	3980
671.949	3713
672.000	3441
672.051	3965
672.102	4358
672.153	3115
672.204	2878
672.256	3326
672.307	3592
672.358	3618
672.409	4795
672.460	3761
672.511	3328
672.562	3302
672.613	2733
672.664	4161
672.715	3223
672.766	3990
672.817	2626
672.868	3292
672.919	3429
672.970	3733
673.021	3072
673.071	3340
673.122	3357
673.173	3669
673.224	3352
673.275	3714
673.326	2494
673.376	3102
673.427	2506
673.478	3118
673.528	3958
673.579	2105
673.630	3133
673.680	3735
673.731	2499
673.782	2541
673.832	3402
673.883	3487
673.934	2708
673.984	3533
674.035	2918
674.085	2983
674.136	3081
674.186	4107
674.237	3807
674.287	6593
674.338	5379
674.388	2929
674.438	2928
674.489	2796
674.539	3551
674.589	3448
674.640	3181
674.690	2465
674.740	3334
674.791	3671
674.841	3417
674.891	3052
674.942	3440
674.992	2948
675.042	2594
675.092	3105
675.142	2522
675.193	3467
675.243	3083
675.293	3571
675.343	2989
675.393	3130
675.443	4077
675.493	2290
675.543	1936
675.593	3195
675.643	2635
675.693	3348
675.743	2630
675.793	3010
675.843	2089
675.893	3226
675.943	2561
675.993	2254
676.043	2456
676.093	3205
676.142	2381
676.192	2825
676.242	2571
676.292	2385
676.341	2903
676.391	3539
676.441	2105
676.491	2291
676.540	2273
676.590	1795
676.640	2207
676.689	2774
676.739	2022
676.789	2674
676.838	2582
676.888	2951
676.937	2350
676.987	2282
677.037	1948
677.086	1729
677.136	2429
677.185	2714
677.235	1664
677.284	1807
677.333	1629
677.383	2300
677.432	1763
677.482	1660
677.531	2311
677.580	3024
677.630	2511
677.679	3000
677.728	2401
677.778	2023
677.827	2868
677.876	2437
677.925	1373
677.975	1461
678.024	2283
678.073	2438
678.122	1436
678.171	3089
678.220	2128
678.269	2914
678.319	2586
678.368	1726
678.417	2264
678.466	3348
678.515	3507
678.564	2797
678.613	3618
678.662	2631
678.711	2078
678.760	2817
678.809	1996
678.857	1672
678.906	2533
678.955	2132
679.004	3133
679.053	2581
679.102	1971
679.151	2513
679.199	2878
679.248	2010
679.297	2799
679.346	2064
679.394	1978
679.443	2382
679.492	2279
679.540	2138
679.589	2448
679.638	2903
679.686	2705
679.735	2728
679.784	1884
679.832	2453
679.881	1564
679.929	2012
679.978	2195
680.026	1908
680.075	2380
680.123	1492
680.172	2028
680.220	2276
680.268	1772
680.317	1819
680.365	2723
680.414	1990
680.462	1575
680.510	2211
680.559	1516
680.607	1464
680.655	2271
680.703	1658
680.752	1522
680.800	1894
680.848	1454
680.896	1826
680.945	1921
680.993	1872
681.041	1895
681.089	2142
681.137	1079
681.185	1261
681.233	2493
681.258	2113
681.281	1741
681.329	1909
681.377	2182
681.380	2172
681.425	1743
681.473	2637
681.502	2458
681.521	2303
681.569	2778
681.617	2228
681.624	2220
681.665	2070
681.713	2715
681.745	2185
681.761	1909
681.809	1921
681.857	2572
681.867	2503
681.904	2205
681.952	2906
681.989	2349
682.000	2165
682.048	1938
682.096	1697
682.111	1677
682.143	1591
682.191	2021
682.233	1993
682.239	1975
682.286	1865
682.334	1799
682.354	2014
682.382	2269
682.430	2423
682.476	2262
682.477	2245
682.525	1957
682.572	1446
682.598	1797
682.620	2109
682.667	1931
682.715	3132
682.720	3097
682.763	2580
682.810	2302
682.841	2053
682.857	1931
682.905	1629
682.952	2703
682.963	2670
683.000	2421
683.047	2154
683.085	3177
683.095	3441
683.142	2502
683.190	2647
683.206	2627
683.237	2617
683.284	2901
683.328	2632
683.332	2592
683.379	2244
683.426	2339
683.449	2419
683.473	2494
683.521	2611
683.568	2351
683.571	2334
683.615	1977
683.662	2467
683.693	2390
683.709	2311
683.757	2577
683.804	2405
683.814	2462
683.851	2640
683.898	3000
683.936	3017
683.945	3028
683.992	3417
684.039	2771
684.057	2678
684.086	2443
684.133	3554
684.179	2410
684.180	2365
684.227	3179
684.274	2330
684.300	2647
684.321	2897
684.368	2793
684.415	3116
684.422	3162
684.462	3426
684.509	2767
684.543	3238
684.556	3366
684.603	3380
684.649	2528
684.665	2871
684.696	3631
684.743	3211
684.786	2803
684.790	2761
684.837	3666
684.883	3691
684.908	3902
684.930	4082
684.977	4337
685.023	3980
685.029	3940
685.070	3422
685.117	3338
685.150	3454
685.164	3555
685.210	3993
685.257	4843
685.272	4614
685.303	4000
685.350	4034
685.393	4093
685.396	4104
685.443	4624
685.490	4219
685.514	4054
685.536	3848
685.583	4288
685.629	5023
685.636	4919
685.675	4170
685.722	4827
685.757	3756
685.768	3450
685.815	4023
685.861	4362
685.878	4524
685.908	4816
685.954	4686
686.000	4589
686.000	4585
686.047	5462
686.093	5759
686.121	5613
686.139	5368
686.185	4769
686.232	4893
686.242	4807
686.278	4476
686.324	5098
686.363	4478
686.370	4396
686.416	4154
686.463	4784
686.484	4558
686.509	4315
686.555	4192
686.601	4663
686.606	4655
686.647	4528
686.693	4425
686.727	4193
686.739	4112
686.785	4164
686.831	4286
686.848	4332
686.877	4360
686.923	4405
686.969	4146
686.969	4144
687.015	3854
687.061	4391
687.090	4421
687.107	4487
687.153	4796
687.199	5215
687.211	5093
687.245	4568
687.291	4412
687.332	4322
687.336	4350
687.382	5479
687.428	4540
687.453	5145
687.474	5387
687.520	4591
687.565	4108
687.574	4069
687.611	4159
687.657	4495
687.695	4434
687.702	4443
687.748	4861
687.794	4703
687.816	4663
687.839	4487
687.885	4466
687.931	3968
687.937	4064
687.976	4816
688.022	4733
688.058	4787
688.067	4789
688.113	4543
688.158	4541
688.179	4626
688.204	4726
688.249	4422
688.295	5358
688.300	5319
688.340	5124
688.386	5414
688.421	5273
688.431	5186
688.477	5172
688.522	4720
688.542	4732
688.567	4885
688.613	4795
688.658	5231
688.663	5185
688.703	4869
688.749	4982
688.784	5400
688.794	5487
688.839	5049
688.884	4936
688.905	5025
688.930	5133
688.975	4911
689.020	5038
689.026	4959
689.065	4590
689.110	5369
689.146	5167
689.155	5113
689.201	4999
689.246	4705
689.267	4843
689.291	4989
689.336	5115
689.381	5106
689.388	5151
689.426	5444
689.471	5401
689.509	5002
689.516	4924
689.561	5199
689.606	5163
689.630	5040
689.651	4924
689.696	4487
689.741	4958
689.750	4915
689.785	5009
689.830	5470
689.871	4805
689.875	4706
689.920	5185
689.965	4786
689.992	4443
690.010	4443
690.054	4976
690.099	5394
690.112	5349
690.144	4974
690.189	5208
690.233	4569
690.233	4574
690.278	4998
690.323	5052
690.354	5162
690.367	5163
690.412	5060
690.457	5247
690.474	5059
690.501	4803
690.546	5093
690.590	4812
690.595	4792
690.635	4777
690.680	5003
690.716	4975
690.724	5045
690.769	5496
690.813	6395
690.836	6166
690.857	5804
690.902	6088
690.946	5819
690.957	5961
690.991	6957
691.035	7447
691.077	8534
691.080	8564
691.124	7946
691.168	7955
691.198	7569
691.213	7311
691.257	7347
691.301	6379
691.318	6278
691.346	6124
691.390	5715
691.434	5259
691.439	5169
691.478	5111
691.522	5542
691.559	5771
691.567	5803
691.611	5757
691.655	5672
691.680	5538
691.699	5371
691.743	5530
691.787	5206
691.800	5123
691.831	5180
691.875	5712
691.919	6085
691.921	6066
691.964	5787
692.008	6366
692.041	6155
692.052	6134
692.096	6396
692.139	6906
692.162	6810
692.183	6502
692.227	6290
692.271	6179
692.282	6102
692.315	6245
692.359	6350
692.402	6674
692.403	6689
692.447	6558
692.490	6607
692.523	6590
692.534	6639
692.578	7228
692.622	6909
692.643	6909
692.666	6741
692.709	6559
692.753	6367
692.763	6267
692.797	6144
692.840	6419
692.884	6411
692.884	6424
692.928	6023
692.971	6060
693.004	6038
693.015	6110
693.059	6072
693.102	6359
693.124	6416
693.146	6463
693.189	6556
693.233	6705
693.245	6771
693.276	7045
693.320	7211
693.363	7121
693.365	7118
693.407	7005
693.450	6792
693.485	6120
693.493	6117
693.537	6730
693.580	6986
693.605	7379
693.624	7714
693.667	7948
693.710	8403
693.725	8488
693.753	9615
693.797	11805
693.840	14115
693.845	14310
693.883	13607
693.926	12359
693.966	11530
693.970	11371
694.013	9283
694.056	7766
694.086	6434
694.099	6452
694.142	6753
694.185	6753
694.206	6745
694.229	6813
694.272	7013
694.315	7163
694.326	7200
694.358	7027
694.401	6840
694.444	6277
694.446	6261
694.487	6996
694.530	7329
694.566	7671
694.573	7618
694.616	7112
694.659	6677
694.686	6427
694.702	6352
694.745	6093
694.787	5690
694.806	5576
694.830	5800
694.873	6199
694.916	6193
694.926	6287
694.959	6424
695.002	6358
695.044	6376
695.046	6360
695.087	6403
695.130	6269
695.166	6201
695.172	6249
695.215	6562
695.258	6808
695.286	7001
695.301	7064
695.343	7125
695.386	7064
695.406	7141
695.428	7059
695.471	6713
695.514	6335
695.526	6166
695.556	6004
695.599	6118
695.641	5958
695.646	5956
695.684	6057
695.726	5921
695.766	5598
695.769	5614
695.811	5998
695.854	6145
695.886	6324
695.896	6371
695.938	6333
695.981	6384
696.005	6384
696.023	6417
696.065	6478
696.108	6633
696.125	6579
696.150	6628
696.192	6959
696.235	7084
696.245	7123
696.277	7084
696.319	6833
696.361	6676
696.365	6653
696.404	6582
696.446	6343
696.485	6127
696.488	6175
696.530	6608
696.572	6940
696.604	7247
696.614	7209
696.656	6825
696.698	6595
696.724	6424
696.740	6402
696.783	6181
696.825	6075
696.844	6003
696.867	6157
696.909	6343
696.951	6471
696.964	6539
696.992	6422
697.034	6155
697.076	5877
697.083	5808
697.118	6103
697.160	6486
697.202	6843
697.203	6831
697.244	6756
697.286	6792
697.323	6620
697.327	6624
697.369	6620
697.411	6484
697.442	6416
697.453	6455
697.494	6646
697.536	6738
697.562	6758
697.578	6810
697.620	6883
697.661	6996
697.682	6990
697.703	7093
697.744	7336
697.786	7646
697.801	7699
697.828	7670
697.869	7640
697.911	7551
697.921	7518
697.952	7197
697.994	6690
698.035	6273
698.040	6192
698.077	6418
698.118	6738
698.160	6986
698.160	6965
698.201	6983
698.243	7012
698.279	7029
698.284	7034
698.325	6851
698.367	6680
698.399	6529
698.408	6569
698.449	6646
698.491	6725
698.518	6777
698.532	6769
698.573	6663
698.614	6555
698.638	6482
698.656	6603
698.697	6826
698.738	7066
698.757	7157
698.779	7224
698.820	7304
698.862	7377
698.877	7390
698.903	7689
698.944	8119
698.985	8549
698.996	8646
699.026	8445
699.067	8132
699.116	7738
699.235	6578
699.354	6978
699.474	7335
699.593	8469
699.713	8166
699.832	7713
699.951	8057
700.070	7754
700.190	7728
700.309	8059
700.428	8783
700.547	8220
700.667	7252
700.786	8471
700.905	7275
701.024	7204
701.143	7822
701.262	5673
701.381	6265
701.500	6514
701.619	6323
701.738	6088
701.857	6663
701.976	5582
702.095	6524
702.214	5916
702.333	5817
702.452	5983
702.571	6323
702.690	5935
702.809	5618
702.928	5769
703.047	6166
703.165	6185
703.284	5716
703.403	6047
703.522	7352
703.640	7661
703.759	7124
703.878	11277
703.997	5930
704.115	5071
704.234	5557
704.353	5716
704.471	5386
704.590	5008
704.708	5227
704.827	5612
704.946	5994
705.064	6064
705.183	5202
705.301	7141
705.420	12596
705.538	10391
705.656	7598
705.775	7018
705.893	9564
706.012	10846
706.130	9560
706.249	8444
706.367	8702
706.485	9730
706.604	9236
706.722	9416
706.840	10235
706.958	10365
707.077	8796
707.195	7888
707.313	7202
707.431	8465
707.549	7543
707.668	7154
707.786	9041
707.904	7928
708.022	6817
708.140	7912
708.258	7226
708.376	7561
708.494	7732
708.612	8421
708.730	13221
708.848	12593
708.966	11421
709.084	9979
709.202	9917
709.320	10431
709.438	11056
709.556	10100
709.674	9243
709.791	10330
709.909	10580
710.027	9818
710.145	9540
710.263	10341
710.380	9741
710.498	10142
710.616	9532
710.733	10218
710.851	10371
710.969	9939
711.086	9107
711.204	9206
711.322	9265
711.439	9902
711.557	10411
711.674	9193
711.792	8913
711.909	8825
712.027	9314
712.144	8518
712.262	10485
712.379	10403
712.497	16281
712.614	16548
712.732	12991
712.849	11568
712.966	13070
713.084	14219
713.201	13378
713.318	12400
713.436	12370
713.553	13012
713.670	12742
713.787	14090
713.905	13905
714.022	11926
714.139	12618
714.256	13081
714.373	12572
714.490	12739
714.608	16188
714.725	39986
714.842	50765
714.959	13522
715.076	11170
715.193	10598
715.310	10333
715.427	11448
715.544	10535
715.661	10619
715.778	10125
715.895	12271
716.011	11900
716.128	9883
716.245	11207
716.362	10713
716.479	12056
716.596	11119
716.713	10919
716.829	10533
716.946	10385
717.063	9188
717.180	9808
717.296	9897
717.413	9401
717.530	8983
717.646	9391
717.763	8634
717.880	8994
717.996	8723
718.113	8732
718.229	9111
718.346	7984
718.462	8953
718.579	9714
718.695	12057
718.812	12029
718.928	12210
719.045	9856
719.161	8061
719.277	8437
719.394	8518
719.510	9347
719.626	8822
719.743	10058
719.859	9689
719.975	9206
720.092	13986
720.208	25929
720.324	11640
720.440	9146
720.557	9489
720.673	11855
720.789	18078
720.905	40524
721.021	17680
721.137	8792
721.253	8408
721.369	8501
721.486	9371
721.602	13220
721.718	8503
721.834	7348
721.950	7111
722.066	6543
722.181	7406
722.297	7677
722.413	7497
722.529	7729
722.645	7275
722.761	7187
722.877	6115
722.993	6247
723.108	6437
723.224	6334
723.340	7539
723.456	6760
723.571	7404
723.687	6711
723.803	6969
723.918	5998
724.034	6616
724.150	7267
724.265	7321
724.381	14934
724.497	20406
724.612	6779
724.728	5967
724.843	6397
724.959	7667
725.074	15446
725.190	18629
725.305	7129
725.421	6467
725.536	5477
725.651	6351
725.767	6026
725.882	5807
725.997	5236
726.113	5935
726.228	5447
726.343	5152
726.459	4921
726.574	6168
726.689	5625
726.804	4652
726.920	5521
727.035	5114
727.150	5289
727.265	6238
727.380	6288
727.495	5931
727.610	5138
727.725	4889
727.841	5627
727.956	5738
728.071	6509
728.186	5245
728.301	4552
728.416	4769
728.531	4852
728.645	5324
728.760	6743
728.875	7671
728.990	6711
729.105	5758
729.220	5234
729.335	4882
729.449	4404
729.564	3808
729.679	3690
729.794	4082
729.908	5033
730.023	4403
730.138	3087
730.253	3834
730.367	4013
730.482	3829
730.596	3741
730.711	3941
730.826	4411
730.940	3573
731.055	4248
731.169	4581
731.284	3925
731.398	3780
731.513	4590
731.627	3894
731.742	5320
731.856	4850
731.970	2939
732.085	2947
732.199	3747
732.313	3643
732.428	4984
732.542	10838
732.656	9212
732.771	2884
732.885	3075
732.999	4561
733.113	4414
733.227	3851
733.342	2507
733.456	3703
733.570	2702
733.684	3197
733.798	3323
733.912	3311
734.026	3082
734.140	2698
734.254	4153
734.368	8019
734.482	10070
734.596	2878
734.710	3322
734.824	2957
734.938	2652
735.052	2754
735.166	4188
735.280	3371
735.393	3440
735.507	3756
735.621	4845
735.735	9675
735.849	4177
735.962	3414
736.076	4374
736.190	3707
736.303	5211
736.417	7556
736.531	3292
736.644	3808
736.758	2287
736.872	3382
736.985	3071
737.099	3274
737.212	2626
737.326	3360
737.439	3339
737.553	3255
737.666	2908
737.780	2260
737.893	2899
738.007	2137
738.120	2825
738.233	2222
738.347	2678
738.460	3058
738.573	2864
738.687	2239
738.800	2654
738.913	3129
739.026	2852
739.140	2368
739.253	2496
739.366	2547
739.479	1352
739.592	2016
739.705	2215
739.818	2364
739.932	1768
740.045	2066
740.158	2475
740.271	2774
740.384	2533
740.497	3630
740.610	5026
740.723	3606
740.836	4034
740.949	4348
741.062	3509
741.174	3148
741.287	2515
741.400	3032
741.513	3798
741.626	5865
741.739	3194
741.851	2436
741.964	3359
742.077	2643
742.189	4045
742.302	8737
742.415	7361
742.527	3218
742.640	2810
742.753	2123
742.865	1980
742.978	2018
743.090	2719
743.203	2540
743.316	1539
743.428	1773
743.541	2600
743.653	1791
743.766	1532
743.878	2706
743.990	3901
744.103	6953
744.215	10201
744.327	3451
744.440	3227
744.552	3074
744.664	2246
744.777	1793
744.889	1457
745.001	1980
745.113	982
745.226	773
745.338	1753
745.450	2171
745.562	1401
745.674	1605
745.786	2010
745.898	1561
746.010	1485
746.122	1561
746.234	1212
746.347	2693
746.459	2275
746.570	2796
746.682	5712
746.794	14145
746.906	5323
747.018	2046
747.130	2152
747.242	2007
747.354	2002
747.466	2253
747.577	1294
747.689	1995
747.801	1264
747.913	1500
748.024	847
748.136	839
748.248	1218
748.359	1215
748.471	1269
748.583	1924
748.694	1852
748.806	1499
748.918	3043
749.029	1393
749.141	2068
749.252	1633
749.364	1486
749.475	3303
749.587	2740
749.698	1415
749.809	1703
749.921	1624
750.032	892
750.144	328
750.255	1364
750.366	1175
750.478	1721
750.589	1652
750.700	1809
750.811	1703
750.923	2923
751.034	2957
751.145	2872
751.256	1227
751.367	1896
751.479	648
751.590	890
751.701	1111
751.812	664
751.923	1414
752.034	1752
752.145	954
752.256	1459
752.367	1293
752.478	1362
752.589	1014
752.700	1119
752.811	1622
752.922	916
753.032	1017
753.143	1761
753.254	575
753.365	1080
753.476	425
753.586	944
753.697	1085
753.808	2060
753.919	717
754.029	1110
754.140	1898
754.251	1417
754.361	1565
754.472	1548
754.582	1419
754.693	1440
754.804	1708
754.914	1175
755.025	1082
755.135	789
755.246	1399
755.356	1269
755.466	953
755.577	1344
755.687	2140
755.798	820
755.908	1829
756.018	1148
756.129	1098
756.239	1704
756.349	1514
756.460	552
756.570	641
756.680	1185
756.790	802
756.900	1227
757.011	1931
757.121	1442
757.231	1239
757.341	1099
757.451	1759
757.561	536
757.671	933
757.781	580
757.891	1327
758.001	1330
758.111	1512
758.221	1172
758.331	1360
758.441	1069
758.551	1949
758.661	1568
758.771	1229
758.880	1575
758.990	1450
759.100	890
759.210	2203
759.320	1411
759.429	801
759.539	1215
759.649	731
759.758	1675
759.868	1988
759.978	1484
760.087	1879
760.197	1360
760.307	1430
760.416	1122
760.526	1081
760.635	1722
760.745	1505
760.854	1298
760.964	1842
761.073	1737
761.182	1133
761.292	1589
761.401	1477
761.511	1934
761.620	1659
761.729	1056
761.839	1656
761.948	1753
762.057	1631
762.166	1819
762.276	1158
762.385	2460
762.494	1597
762.603	2355
762.712	2597
762.822	1866
762.931	1766
763.040	2225
763.149	2414
763.258	2078
763.367	2197
763.476	1879
763.585	2078
763.694	2442
763.803	2073
763.912	3152
764.021	2059
764.130	2404
764.238	2621
764.347	1967
764.456	1934
764.565	1692
764.674	2562
764.783	2752
764.891	2653
765.000	3458
765.109	3724
765.217	3580
765.326	4382
765.435	5157
765.543	5659
765.652	6649
765.761	8545
765.869	12940
765.978	21689
766.086	38766
766.195	84149
766.303	227487
766.412	640770
766.520	545820
766.629	135872
766.737	46237
766.846	26127
766.954	17588
767.062	13470
767.171	10717
767.279	7556
767.387	6233
767.496	6163
767.604	5878
767.712	4617
767.820	5468
767.928	4908
768.037	4022
768.145	4759
768.253	4328
768.361	3081
768.469	4416
768.577	4584
768.685	4203
768.793	4447
768.901	4474
769.009	5188
769.117	5554
769.225	6520
769.333	10335
769.441	14956
769.549	33111
769.657	81331
769.765	268390
769.873	559743
769.981	188485
770.088	38253
770.196	17876
770.304	12019
770.412	8892
770.519	6842
770.627	5429
770.735	3942
770.842	4754
770.950	3315
771.058	2933
771.165	2970
771.273	4093
771.380	3294
771.488	2886
771.595	3115
771.703	2864
771.810	3677
771.918	1414
772.025	2493
772.133	1721
772.240	1597
772.348	1501
772.455	2756
772.562	2076
772.670	1805
772.777	2018
772.884	2365
772.991	1723
773.099	1899
773.206	2111
773.313	761
773.420	1862
773.528	1773
773.635	1475
773.742	1984
773.849	1971
773.956	1293
774.063	1873
774.170	1374
774.277	2280
774.384	1564
774.491	1289
774.598	2084
774.705	2453
774.812	2728
774.919	2662
775.026	2421
775.133	1799
775.239	2604
775.346	1859
775.453	2384
775.560	835
775.667	1383
775.773	1896
775.880	1041
775.987	2445
776.093	1219
776.200	1709
776.307	1295
776.413	2144
776.520	1068
776.627	2664
776.733	2148
776.840	2228
776.946	5749
777.053	10982
777.159	27160
777.266	14365
777.372	22613
777.478	17572
777.585	7805
777.691	2609
777.798	2366
777.904	2690
778.010	2603
778.117	2621
778.223	2423
778.329	1707
778.435	1766
778.542	1945
778.648	1477
778.754	1228
778.860	1952
778.966	2012
779.072	1465
779.178	1589
779.284	1326
779.391	905
779.497	291
779.603	2859
779.708	892
779.815	4105
779.920	10663
780.026	18419
780.132	3089
780.238	952
780.344	1639
780.450	1958
780.556	1554
780.661	1293
780.767	1314
780.873	843
780.979	1439
781.085	1187
781.190	1360
781.296	1104
781.402	1122
781.507	982
781.613	687
781.719	1859
781.824	771
781.930	784
782.035	1330
782.141	1343
782.246	1185
782.352	1616
782.457	1103
782.563	928
782.668	621
782.773	1224
782.879	1119
782.984	873
783.090	2573
783.195	2168
783.300	1299
783.405	1962
783.511	492
783.616	2186
783.721	1682
783.826	1249
783.932	1056
784.037	876
784.142	1602
784.247	922
784.352	1444
784.457	1339
784.562	636
784.667	845
784.772	1045
784.877	420
784.982	944
785.087	610
785.192	1354
785.297	1297
785.402	658
785.507	870
785.611	1069
785.716	1166
785.821	775
785.926	832
786.031	2115
786.135	1354
786.240	1277
786.345	61
786.450	1578
786.554	533
786.659	711
786.763	194
786.868	1295
786.973	1840
787.077	203
787.182	527
787.286	1280
787.391	394
787.495	113
787.600	1084
787.704	1223
787.809	203
787.913	-85
788.017	805
788.122	826
788.226	648
788.330	402
788.435	216
788.539	918
788.643	889
788.747	-37
788.852	15
788.956	117
789.060	871
789.164	901
789.268	336
789.372	584
789.476	1237
789.580	317
789.684	224
789.788	445
789.892	737
789.996	528
790.100	1007
790.204	766
790.308	1113
790.412	472
790.516	24
790.620	430
790.724	1539
790.828	503
790.931	-2
791.035	1722
791.139	448
791.242	-233
791.346	2287
791.450	813
791.554	216
791.657	-76
791.761	1323
791.864	2272
791.968	313
792.072	377
792.175	43
792.279	749
792.382	1383
792.486	1366
792.589	434
792.693	1156
792.796	-167
792.899	1586
793.003	908
793.106	428
793.209	427
793.313	1318
793.416	-330
793.519	1546
793.623	1094
793.726	1240
793.829	8
793.932	1442
794.035	-303
794.138	831
794.242	1614
794.345	1965
794.448	2172
794.551	1273
794.654	6177
794.757	8924
794.860	2736
794.963	2078
795.066	584
795.169	1143
795.272	-57
795.375	738
795.477	-86
795.580	1043
795.683	-485
795.786	504
795.889	-381
795.991	977
796.094	1369
796.197	-711
796.300	246
796.402	268
796.505	-455
796.608	399
796.710	1024
796.813	476
796.915	157
797.018	163
797.120	478
797.223	-200
797.326	985
797.428	-82
797.530	-368
797.633	277
797.735	1080
797.838	1769
797.940	902
798.042	503
798.145	-5
798.247	457
798.349	-814
798.452	713
798.554	222
798.656	-586
798.758	317
798.860	-64
798.962	-11
799.065	530
799.167	-771
799.269	1368
799.371	187
799.473	262
799.575	463
799.677	1465
799.779	1711
799.881	79
799.983	483
800.085	152
800.187	-226
800.289	-356
800.390	527
800.492	332
800.594	794
800.696	17
800.798	-108
800.899	-339
801.001	601
801.103	467
801.205	-118
801.306	-696
801.408	62
801.509	692
801.611	172
801.713	2
801.814	-108
801.916	-43
802.017	540
802.119	261
802.220	241
802.322	-938
802.423	2046
802.525	268
802.626	1148
802.727	333
802.829	-109
802.930	-1101
803.031	935
803.133	-748
803.234	-311
803.335	-472
803.436	88
803.538	-810
803.639	-1276
803.740	583
803.841	495
803.942	-19
804.043	-53
804.144	-1228
804.245	-63
804.346	-44
804.447	-633
804.548	441
804.649	320
804.750	-276
804.851	-411
804.952	-120
805.053	256
805.154	-1482
805.255	1125
805.355	516
805.456	-371
805.557	172
805.658	-943
805.758	626
805.859	199
805.960	-1064
806.061	-128
806.161	30
806.262	-307
806.362	-838
806.463	701
806.564	408
806.664	762
806.765	405
806.865	737
806.966	464
807.066	-133
807.166	-61
807.267	195
807.367	-144
807.468	4
807.568	-1413
807.668	152
807.769	458
807.869	408
807.969	-142
808.069	-336
808.170	356
808.270	-789
808.370	-162
808.470	470
808.570	-961
808.670	-384
808.770	-128
808.870	-175
808.970	265
809.070	34
809.170	-761
809.271	503
809.370	-675
809.470	-292
809.570	-132
809.670	-958
809.770	-715
809.870	213
809.970	-673
810.070	-384
810.169	151
810.269	-843
810.369	-33
810.469	-286
810.568	-587
810.668	-765
810.768	155
810.867	-41
810.967	91
811.066	67
811.166	-16
811.265	-719
811.365	-373
811.464	281
811.564	-454
811.663	194
811.763	-1072
811.862	1024
811.962	-288
812.061	-524
812.160	-1108
812.260	-518
812.359	-1169
812.458	-501
812.557	316
812.657	538
812.756	-117
812.855	-85
812.954	-434
813.053	-837
813.153	191
813.252	-381
813.351	-590
813.450	-225
813.549	-501
813.648	-48
813.747	-446
813.846	212
813.945	88
814.044	-131
814.143	375
814.242	1223
814.341	-519
814.439	673
814.538	-604
814.637	-596
814.736	-299
814.835	-12
814.933	-599
815.032	-376
815.131	-607
815.229	357
815.328	-205
815.427	-904
815.525	144
815.624	-59
815.722	-853
815.821	281
815.919	-40
816.018	-268
816.116	515
816.215	-204
816.313	396
816.412	242
816.510	-97
816.609	657
816.707	1124
816.805	50
816.904	-247
817.002	733
817.100	1126
817.198	1444
817.296	80
817.395	1259
817.493	1808
817.591	1580
817.689	3470
817.787	4977
817.885	10832
817.983	20002
818.081	47286
818.179	125980
818.277	335563
818.375	265007
818.473	52983
818.571	17528
818.669	12552
818.767	11948
818.865	11291
818.963	13268
819.061	20599
819.158	41102
819.256	98745
819.354	244818
819.452	557834
819.549	323202
819.647	64783
819.745	22957
819.842	14032
819.940	9644
820.038	6511
820.135	5111
820.233	4686
820.330	2787
820.428	1392
820.525	2234
820.623	1226
820.720	1316
820.818	1766
820.915	1782
821.012	1624
821.110	1465
821.207	926
821.304	1644
821.402	1502
821.499	4294
821.596	7945
821.693	4130
821.791	1816
821.888	-240
821.985	1843
822.082	1294
822.179	2443
822.276	2950
822.373	453
822.470	927
822.567	82
822.664	-665
822.761	666
822.858	-691
822.955	471
823.052	265
823.149	-321
823.246	-272
823.343	-657
823.440	857
823.536	-344
823.633	-615
823.730	-336
823.827	127
823.923	-43
824.020	824
824.117	946
824.213	1665
824.310	888
824.407	258
824.503	-248
824.600	235
824.696	-481
824.793	813
824.889	-940
824.986	-842
825.082	-45
825.179	-748
825.275	-1525
825.371	-730
825.468	-363
825.564	-1601
825.660	-327
825.757	-761
825.853	-112
825.949	-1000
826.045	-365
826.142	-819
826.238	-1076
826.334	569
826.430	-889
826.526	-205
826.622	-644
826.718	-392
826.814	-322
826.910	286
827.006	-482
827.102	-1014
827.198	-463
827.294	-1301
827.390	-276
827.486	-714
827.582	-1166
827.678	-1269
827.774	80
827.869	-1577
827.965	378
828.061	-1412
828.157	-65
828.252	-502
828.348	-625
828.444	-103
828.539	-973
828.635	-692
828.731	-362
828.826	-1484
828.922	-212
829.017	-521
829.113	339
829.208	-581
829.304	-864
829.399	146
829.495	-801
829.590	278
829.685	-1318
829.781	-1050
829.876	-805
829.971	-682
830.066	-1456
830.162	-617
830.257	-751
830.352	-1211
830.447	-510
830.543	-181
830.638	-1764
830.733	-650
830.828	-350
830.923	-190
831.018	-1253
831.113	-498
831.208	-1230
831.303	-562
831.398	-554
831.493	-878
831.588	-463
831.683	-1163
831.778	-1195
831.873	-1250
831.967	164
832.062	-1533
832.157	-1665
832.252	-7
832.346	-704
832.441	-130
832.536	-934
832.631	1417
832.725	-390
832.820	-707
832.914	-1592
833.009	-1219
833.104	-112
833.198	-303
833.293	-887
833.387	-582
833.482	89
833.576	-1191
833.670	-368
833.765	-772
833.859	-718
833.954	-678
834.048	-810
834.142	-1031
834.237	-848
834.331	-1146
834.425	-996
834.519	-1370
834.613	-126
834.708	-1526
834.802	-1207
834.896	-1008
834.990	-158
835.084	-790
835.178	-956
835.272	-1090
835.366	-1299
835.460	-7
835.554	-807
835.648	-439
835.742	-1609
835.836	-1010
835.930	-1564
836.024	-301
836.117	185
836.211	-970
836.305	981
836.399	743
836.493	-770
836.586	141
836.680	-1787
836.774	-911
836.867	-302
836.961	-1167
837.055	-855
837.148	-1304
837.242	-993
837.335	-531
837.429	-572
837.522	-1030
837.616	-296
837.709	1143
837.803	-361
837.896	-90
837.989	-998
838.083	51
838.176	1372
838.269	1071
838.363	-131
838.456	-517
838.549	-107
838.642	-585
838.735	991
838.829	-318
838.922	-1778
839.015	-681
839.108	-1575
839.201	-1193
839.294	-545
839.387	-631
839.480	-1435
839.573	64
839.666	-136
839.759	-140
839.852	-1626
839.945	-437
840.038	-978
840.131	-1157
840.223	-263
840.316	-380
840.409	-969
840.502	-1402
840.594	-235
840.687	-2139
840.780	-897
840.873	-756
840.965	-1058
841.058	379
841.150	1304
841.243	170
841.336	-467
841.428	-5
841.521	-1573
841.613	-556
841.706	-396
841.798	-574
841.890	-1437
841.983	-1628
842.075	-311
842.167	-876
842.260	-1265
842.352	-29
842.444	1009
842.537	2516
842.629	3840
842.721	-173
842.813	-452
842.905	-1580
842.997	342
843.090	-547
843.182	367
843.274	2011
843.366	7157
843.458	15010
843.550	7984
843.642	-120
843.734	-692
843.826	-380
843.918	-150
844.009	-493
844.101	-530
844.193	-654
844.285	158
844.377	571
844.469	1788
844.560	4196
844.652	3862
844.744	1025
844.835	-635
844.927	-649
845.019	-160
845.110	-766
845.202	-596
845.293	-1524
845.385	-1121
845.476	-318
845.568	-534
845.659	-1048
845.751	-285
845.842	-923
845.934	-1143
846.025	-646
846.116	-411
846.208	-813
846.299	-2034
846.390	-802
846.482	-1035
846.573	-1261
846.664	-816
846.755	22
846.846	42
846.937	-1226
847.029	-1040
847.120	-1058
847.211	-1414
847.302	41
847.393	-1574
847.484	-1039
847.575	-657
847.666	-1878
847.757	-964
847.847	-560
847.938	-68
848.029	-1298
848.120	-1969
848.211	-769
848.302	-1147
848.392	-1902
848.483	-989
848.574	-1174
848.664	-1939
848.755	-216
848.846	-1212
848.936	-937
849.027	-405
849.118	-1013
849.208	-1129
849.299	-726
849.389	-685
849.480	490
849.570	637
849.661	1865
849.751	3032
849.841	1304
849.932	-1115
850.022	-1095
850.112	-948
850.203	-458
850.293	-1442
850.383	-442
850.474	-1259
850.564	-218
850.654	-1206
850.744	-1362
850.834	-785
850.924	-705
851.014	-882
851.104	-1222
851.194	-521
851.284	-968
851.374	-669
851.464	-546
851.554	-314
851.644	-801
851.734	365
851.824	-768
851.914	-1219
852.004	-692
852.094	-1395
852.183	-752
852.273	-312
852.363	-1193
852.452	-1222
852.542	-1111
852.632	-1279
852.721	-864
852.811	-1264
852.901	-1304
852.990	-527
853.080	-1734
853.169	-927
853.259	-393
853.348	-1470
853.438	-686
853.527	-231
853.617	-159
853.706	662
853.795	1345
853.885	4613
853.974	9296
854.063	17326
854.152	32524
854.242	12755
854.331	513
854.420	-893
854.509	-838
854.598	-291
854.687	-845
854.777	-800
854.866	-1386
854.955	132
855.044	-965
855.133	-874
855.222	-901
855.311	-1023
855.400	-846
855.488	-401
855.577	-438
855.666	-751
855.755	-315
855.844	-1033
855.933	-855
856.021	-714
856.110	-548
856.199	-1486
856.288	-1288
856.376	-828
856.465	-980
856.554	131
856.642	-611
856.731	-727
856.819	-1062
856.908	-1294
856.996	-1518
857.085	-317
857.173	-1174
857.262	-1529
857.350	-957
857.438	-1325
857.527	-734
857.615	-1674
857.703	-477
857.792	-822
857.880	-867
857.968	-1804
858.056	-660
858.145	-940
858.233	-975
858.321	-1651
858.409	-665
858.497	-694
858.585	-1406
858.673	-678
858.761	-1406
858.849	-1394
858.937	-484
859.025	-868
859.113	-331
859.201	-1228
859.289	281
859.377	-758
859.465	-978
859.552	-922
859.640	-1435
859.728	-775
859.816	-1092
859.903	-662
859.991	-1835
860.079	-248
860.166	-1020
860.254	-624
860.342	-712
860.429	-1646
860.517	-1184
860.604	-1416
860.692	-939
860.779	-1419
860.867	-1865
860.954	-877
861.042	-1544
861.129	-1537
861.216	-278
861.304	-824
861.391	-1077
861.478	-1624
861.565	-844
861.653	-1226
861.740	-1875
861.827	-1136
861.914	-679
862.001	-1363
862.089	-1731
862.176	-842
862.263	-1291
862.350	-2065
862.437	-1435
862.524	-1007
862.611	-616
862.698	-402
862.785	-304
862.871	1117
862.958	-490
863.045	-913
863.132	-922
863.219	-269
863.306	-1345
863.392	-241
863.479	-1159
863.566	-984
863.652	-410
863.739	-1571
863.826	-1680
863.912	-1073
863.999	-1056
864.086	-1658
864.172	-1219
864.259	-1063
864.345	-708
864.432	-485
864.518	-990
864.604	-612
864.691	-760
864.777	-542
864.863	-155
864.950	-230
865.036	-1322
865.122	-386
865.209	-193
865.295	-1056
865.381	-655
865.467	-330
865.553	-254
865.639	-999
865.726	73
865.812	1368
865.898	3540
865.984	5737
866.070	11843
866.156	14822
866.242	3069
866.328	-177
866.414	-1410
866.499	-621
866.585	-516
866.671	-1389
866.757	-1174
866.843	-437
866.928	-1071
867.014	-764
867.100	-426
867.186	-599
867.271	-724
867.357	-1120
867.442	333
867.528	485
867.614	-62
867.699	1431
867.785	2038
867.870	3495
867.956	4784
868.041	3425
868.127	1119
868.212	2075
868.297	2317
868.383	421
868.468	266
868.553	1234
868.639	78
868.724	1208
868.809	811
868.894	-717
868.979	-638
869.065	-1009
869.150	-875
869.235	-575
869.320	-1153
869.405	-1432
869.490	-305
869.575	-1861
869.660	-1360
869.745	-938
869.830	-1420
869.915	-934
870.000	-355
870.085	-556
870.169	-135
870.254	-85
870.339	-1504
870.424	-1526
870.509	-1168
870.593	-1103
870.678	-910
870.763	-1050
870.847	-535
870.932	-211
871.016	597
871.101	478
871.186	-931
871.270	-1202
871.355	-1493
871.439	-1075
871.523	-897
871.608	-940
871.692	94
871.777	-485
871.861	-620
871.945	-779
872.030	-412
872.114	-1525
872.198	-1521
872.282	-750
872.367	-1236
872.451	-1564
872.535	-769
872.619	-951
872.703	-661
872.787	-966
872.871	-1078
872.955	-890
873.039	-899
873.123	-1130
873.207	-346
873.291	-813
873.375	-552
873.459	-1222
873.543	-1176
873.627	-1195
873.711	-721
873.794	-706
873.878	-1164
873.962	-550
874.045	-635
874.129	-907
874.137	-928
874.213	-1138
874.245	-948
874.296	-642
874.352	-801
874.380	-887
874.460	-1314
874.464	-1330
874.547	-1078
874.568	-1127
874.631	-1297
874.676	-842
874.714	-449
874.784	-466
874.798	-471
874.881	67
874.892	-71
874.965	-1025
874.999	-920
875.048	-777
875.107	-467
875.131	-342
875.215	-462
875.215	-462
875.298	-1407
875.323	-1245
875.381	-843
875.430	-911
875.465	-949
875.538	-460
875.548	-401
875.631	-1069
875.646	-1210
875.714	-1852
875.753	-1271
875.798	-592
875.861	-1478
875.881	-1764
875.964	-1121
875.968	-1124
876.047	-1154
876.076	-858
876.130	-285
876.183	-500
876.213	-629
876.291	-808
876.296	-825
876.379	-1140
876.398	-1195
876.462	-1217
876.506	-890
876.545	-683
876.613	-432
876.628	-370
876.711	-366
876.721	-360
876.794	-166
876.828	-205
876.877	-421
876.935	-350
876.960	-260
877.043	-643
877.043	-641
877.125	35
877.150	130
877.208	411
877.258	-62
877.291	-393
877.365	-468
877.374	-488
877.456	-179
877.472	-182
877.539	-53
877.579	-162
877.622	-365
877.687	-439
877.704	-469
877.787	-623
877.794	-640
877.869	-680
877.901	-655
877.952	-575
878.008	-512
878.034	-517
878.115	-966
878.117	-972
878.199	-653
878.222	-622
878.282	-521
878.329	-118
878.364	110
878.437	-695
878.447	-800
878.529	-1083
878.544	-980
878.611	-406
878.651	-619
878.694	-871
878.758	-413
878.776	-296
878.858	276
878.865	226
878.941	-492
878.972	-741
879.023	-941
879.078	-864
879.105	-893
879.185	-122
879.187	-102
879.269	-307
879.292	-381
879.351	-647
879.399	-717
879.433	-778
879.506	-461
879.516	-405
879.598	-948
879.613	-816
879.680	-361
879.720	-406
879.762	-353
879.827	-552
879.844	-656
879.926	-1022
879.933	-990
880.007	-500
880.040	-652
880.089	-1013
880.147	-1073
880.171	-947
880.253	-410
880.254	-411
880.335	-508
880.360	-408
880.417	213
880.467	974
880.499	1400
880.574	2088
880.580	2066
880.662	624
880.680	333
880.744	-657
880.787	-699
880.825	-314
880.893	-548
880.907	-689
880.989	-1188
881.000	-1167
881.070	-656
881.106	-710
881.152	-645
881.213	-368
881.233	-400
881.315	-242
881.319	-263
881.396	-248
881.426	-428
881.478	-781
881.532	-478
881.559	-393
881.639	-785
881.641	-789
881.722	-555
881.745	-482
881.803	-226
881.852	-450
881.885	-520
881.958	-285
881.966	-293
882.047	-458
882.064	-513
882.129	-307
882.171	18
882.210	202
882.277	340
882.291	357
882.372	39
882.383	-34
882.454	-716
882.489	-733
882.535	-577
882.596	-519
882.616	-428
882.697	-285
882.702	-281
882.778	-296
882.808	-133
882.859	-117
882.914	-267
882.940	-182
883.020	-392
883.021	-392
883.102	-644
883.127	-585
883.183	62
883.233	359
883.264	113
883.339	-382
883.345	-384
883.426	-518
883.445	-492
883.507	-342
883.551	-279
883.587	-304
883.657	-398
883.668	-333
883.749	-43
883.763	34
883.830	-34
883.869	-244
883.910	-371
883.975	-317
883.991	-272
884.072	63
884.081	42
884.152	-187
884.187	-242
884.233	-270
884.292	93
884.314	160
884.394	-225
884.398	-238
884.475	-249
884.504	-306
884.555	-370
884.610	-350
884.636	-347
884.716	-487
884.716	-480
884.797	-26
884.821	100
884.877	160
884.927	-8
884.958	-164
885.033	-504
885.038	-492
885.118	-83
885.139	-44
885.199	-11
885.244	30
885.279	-7
885.350	-105
885.359	-116
885.439	-42
885.456	-151
885.520	-150
885.561	171
885.600	126
885.667	-252
885.680	-282
885.760	-292
885.773	-305
885.840	163
885.878	382
885.920	304
885.984	-39
886.000	-35
886.080	332
886.089	367
886.160	400
886.195	306
886.240	333
886.300	345
886.320	228
886.400	34
886.406	2
886.480	40
886.511	69
886.560	299
886.616	561
886.640	606
886.720	676
886.722	669
886.800	234
886.827	173
886.879	260
886.932	101
886.959	279
887.038	934
887.039	937
887.119	643
887.143	517
887.198	633
887.248	686
887.278	670
887.354	714
887.358	706
887.437	362
887.459	258
887.517	398
887.564	536
887.596	548
887.669	513
887.676	509
887.755	391
887.774	364
887.835	470
887.880	550
887.914	450
887.985	164
887.994	223
888.073	659
888.090	777
888.153	666
888.195	498
888.232	598
888.300	824
888.311	778
888.391	372
888.405	309
888.470	473
888.510	484
888.549	509
888.615	668
888.628	544
888.708	-359
888.720	-490
888.787	113
888.825	413
888.866	347
888.930	263
888.945	353
889.024	819
889.035	875
889.103	485
889.140	259
889.182	320
889.245	439
889.261	528
889.340	885
889.349	921
889.419	848
889.454	817
889.498	741
889.559	604
889.577	688
889.656	1049
889.664	1080
889.735	793
889.768	656
889.814	254
889.873	-285
889.978	489
890.083	587
890.187	309
890.292	652
890.397	772
890.501	234
890.606	259
890.710	480
890.815	829
890.919	48
891.024	1110
891.128	960
891.233	10
891.337	118
891.442	525
891.546	755
891.650	4
891.755	260
891.859	825
891.963	637
892.068	1157
892.172	567
892.276	933
892.380	460
892.484	512
892.589	189
892.693	905
892.797	-93
892.901	661
893.005	154
893.109	995
893.213	95
893.317	218
893.421	699
893.525	224
893.629	150
893.733	1115
893.837	319
893.941	120
894.045	-223
894.148	784
894.252	425
894.356	745
894.460	510
894.564	502
894.667	1039
894.771	879
894.875	-454
894.978	933
895.082	357
895.186	686
895.289	573
895.393	340
895.496	1082
895.600	174
895.703	36
895.807	933
895.910	-16
896.014	366
896.117	1169
896.221	-564
896.324	64
896.427	191
896.531	379
896.634	756
896.737	786
896.840	-179
896.944	-106
897.047	799
897.150	342
897.253	80
897.356	318
897.460	1170
897.563	522
897.666	13
897.769	558
897.872	753
897.975	-346
898.078	1033
898.181	234
898.284	216
898.387	-276
898.490	364
898.593	864
898.695	-42
898.798	491
898.901	512
899.004	1061
899.107	784
899.209	-22
899.312	3
899.415	341
899.518	1720
899.620	577
899.723	286
899.826	990
899.928	1365
900.031	-8
900.133	319
900.236	-155
900.338	481
900.441	295
900.543	412
900.646	-753
900.748	102
900.851	-16
900.953	810
901.055	1013
901.158	648
901.260	359
901.362	243
901.465	-18
901.567	24
901.669	787
901.771	360
901.873	130
901.976	601
902.078	336
902.180	1294
902.282	-396
902.384	1561
902.486	328
902.588	573
902.690	1240
902.792	1801
902.894	1162
902.996	433
903.098	582
903.200	945
903.302	1505
903.404	574
903.505	-53
903.607	954
903.709	194
903.811	771
903.913	774
904.014	576
904.116	-288
904.218	870
904.319	1206
904.421	2270
904.523	3443
904.624	2387
904.726	1406
904.827	2621
904.929	2539
905.030	659
905.132	409
905.233	967
905.335	887
905.436	685
905.537	500
905.639	504
905.740	912
905.841	783
905.943	1912
906.044	2708
906.145	2320
906.247	1208
906.348	363
906.449	804
906.550	384
906.651	796
906.752	841
906.854	185
906.955	62
907.056	446
907.157	632
907.258	269
907.359	-298
907.460	-550
907.561	360
907.662	-474
907.762	-331
907.863	-377
907.964	795
908.065	663
908.166	418
908.267	106
908.367	531
908.468	440
908.569	1189
908.670	224
908.770	36
908.871	725
908.971	771
909.072	1441
909.173	568
909.273	-869
909.374	433
909.474	-137
909.575	26
909.675	694
909.776	1093
909.876	324
909.977	351
910.077	473
910.177	227
910.278	392
910.378	389
910.478	665
910.579	-204
910.679	524
910.779	561
910.879	517
910.980	12
911.080	592
911.180	-13
911.280	953
911.380	557
911.480	294
911.580	528
911.680	495
911.780	785
911.880	489
911.980	712
912.080	474
912.180	-169
912.280	1018
912.380	-575
912.480	-595
912.580	200
912.679	368
912.779	806
912.879	195
912.979	698
913.078	715
913.178	200
913.278	135
913.377	380
913.477	375
913.577	431
913.676	311
913.776	-205
913.875	760
913.975	763
914.074	1211
914.174	-89
914.273	531
914.373	798
914.472	-212
914.572	485
914.671	106
914.770	-268
914.870	-193
914.969	-521
915.068	-285
915.167	768
915.267	-93
915.366	-177
915.465	811
915.564	-139
915.663	869
915.763	-10
915.862	253
915.961	-68
916.060	1061
916.159	444
916.258	152
916.357	39
916.456	294
916.555	155
916.654	-223
916.752	42
916.851	116
916.950	102
917.049	300
917.148	81
917.247	1
917.345	627
917.444	110
917.543	-134
917.642	565
917.740	712
917.839	630
917.937	1009
918.036	556
918.135	71
918.233	221
918.332	561
918.430	602
918.529	-258
918.627	78
918.726	-45
918.824	824
918.923	0
919.021	1105
919.119	605
919.218	260
919.316	109
919.414	35
919.512	229
919.611	-355
919.709	533
919.807	76
919.905	92
920.003	-264
920.102	136
920.200	-294
920.298	357
920.396	968
920.494	671
920.592	-205
920.690	339
920.788	-331
920.886	205
920.984	904
921.082	90
921.180	660
921.277	279
921.375	1056
921.473	614
921.571	-116
921.669	-841
921.766	-6
921.864	484
921.962	219
922.060	219
922.157	649
922.255	640
922.352	148
922.450	895
922.548	-640
922.645	-23
922.743	328
922.840	491
922.938	584
923.035	352
923.133	717
923.230	-413
923.327	341
923.425	267
923.522	-176
923.619	-800
923.717	-211
923.814	183
923.911	78
924.008	-80
924.106	54
924.203	-93
924.300	405
924.397	615
924.494	699
924.591	582
924.688	724
924.786	-85
924.883	-365
924.979	27
925.077	119
925.173	662
925.270	714
925.367	651
925.464	-79
925.561	614
925.658	613
925.755	1257
925.852	1966
925.948	1173
926.045	2154
926.142	3483
926.239	5193
926.335	4729
926.432	4235
926.529	4823
926.625	5010
926.722	3413
926.818	1701
926.915	802
927.011	1297
927.108	177
927.204	376
927.301	215
927.397	123
927.494	-146
927.590	157
927.687	-190
927.783	332
927.879	-766
927.976	272
928.072	538
928.168	269
928.264	449
928.361	640
928.457	347
928.553	-112
928.649	390
928.745	513
928.841	128
928.937	-170
929.033	430
929.129	934
929.225	-118
929.321	-88
929.417	-278
929.513	362
929.609	-98
929.705	-368
929.801	-65
929.897	134
929.993	35
930.089	280
930.184	-236
930.280	695
930.376	213
930.471	242
930.567	-86
930.663	621
930.758	-868
930.854	-296
930.950	-416
931.045	-172
931.141	119
931.236	240
931.332	70
931.427	496
931.523	648
931.618	-208
931.714	-78
931.809	310
931.905	-539
932.000	-100
932.095	-517
932.191	-233
932.286	228
932.381	-118
932.476	259
932.572	-62
932.667	-339
932.762	346
932.857	54
932.952	-526
933.047	291
933.142	126
933.237	519
933.332	148
933.427	402
933.522	-517
933.617	-346
933.712	-408
933.807	52
933.902	-342
933.997	721
934.092	-304
934.187	-307
934.282	-162
934.376	14
934.471	-337
934.566	-264
934.661	286
934.755	-465
934.850	-163
934.945	128
935.039	1281
935.134	-493
935.228	-464
935.323	-245
935.417	-193
935.512	-54
935.606	-168
935.701	-322
935.795	-1074
935.890	299
935.984	220
936.079	149
936.173	-342
936.267	-21
936.362	-327
936.456	-390
936.550	-352
936.644	104
936.738	634
936.833	-136
936.927	1363
937.021	996
937.115	294
937.209	-654
937.303	1300
937.397	-1040
937.491	-334
937.585	-210
937.679	213
937.773	-67
937.867	-34
937.961	109
938.055	-152
938.149	437
938.243	923
938.337	789
938.430	2022
938.524	2872
938.618	6453
938.712	5095
938.805	1196
938.899	1250
938.993	1459
939.086	3066
939.180	8098
939.274	10969
939.367	3824
939.461	1590
939.554	26
939.648	-72
939.741	-311
939.835	325
939.928	-154
940.022	122
940.115	367
940.208	577
940.302	-50
940.395	163
940.488	-85
940.582	-17
940.675	-202
940.768	649
940.861	344
940.954	303
941.048	618
941.141	432
941.234	1548
941.327	3548
941.420	3882
941.513	1994
941.606	643
941.699	570
941.792	-121
941.885	-185
941.978	-30
942.071	225
942.164	-512
942.257	339
942.349	-36
942.442	-476
942.535	-138
942.628	-361
942.721	-647
942.813	-506
942.906	-13
942.999	-449
943.091	-579
943.184	-430
943.277	-399
943.369	-36
943.462	56
943.554	66
943.647	-359
943.739	-364
943.832	-27
943.924	-506
944.017	204
944.109	-1526
944.201	-271
944.294	195
944.386	-23
944.478	88
944.571	-115
944.663	-905
944.755	-55
944.847	-72
944.940	-222
945.032	-674
945.124	-727
945.216	881
945.308	-432
945.400	-203
945.492	-564
945.584	7
945.676	1065
945.768	688
945.860	205
945.952	-289
946.044	1864
946.136	-21
946.228	-169
946.320	-565
946.412	-199
946.503	-219
946.595	808
946.687	150
946.779	-385
946.870	-545
946.962	-445
947.054	-603
947.145	-495
947.237	-311
947.329	4
947.420	-700
947.512	-735
947.603	-503
947.695	-168
947.786	-530
947.878	-490
947.969	-192
948.061	-730
948.152	-330
948.243	20
948.335	1
948.426	-448
948.517	200
948.609	-127
948.700	-305
948.791	776
948.882	611
948.973	131
949.065	-194
949.156	314
949.247	-900
949.338	-423
949.429	-115
949.520	-680
949.611	-651
949.702	172
949.793	53
949.884	65
949.975	460
950.066	464
950.157	-588
950.247	-290
950.338	-149
950.429	-376
950.520	700
950.611	606
950.701	-131
950.792	-252
950.883	660
950.973	180
951.064	256
951.155	547
951.245	-265
951.336	-77
951.427	-837
951.517	-134
951.608	-180
951.698	-495
951.788	-1085
951.879	-150
951.969	98
952.060	-35
952.150	-637
952.240	-550
952.331	-1403
952.421	160
952.511	-536
952.602	-179
952.692	-633
952.782	-424
952.872	-738
952.962	-395
953.052	-188
953.143	-573
953.233	341
953.323	-27
953.413	-1160
953.503	393
953.593	-211
953.683	-112
953.773	-727
953.863	-394
953.953	-437
954.042	-454
954.132	-885
954.222	288
954.312	34
954.402	-241
954.492	-376
954.581	1080
954.671	821
954.761	-696
954.850	383
954.940	-532
955.030	-582
955.119	-881
955.209	-1002
955.298	-81
955.388	-501
955.477	-360
955.567	-344
955.656	-244
955.746	-78
955.835	-625
955.925	-649
956.014	-1011
956.103	-1133
956.193	201
956.282	-54
956.371	-618
956.461	152
956.550	-728
956.639	-1014
956.728	-1044
956.817	-703
956.906	-425
956.995	-572
957.085	-748
957.174	-1048
957.263	195
957.352	-194
957.441	-24
957.530	-455
957.619	-211
957.708	-100
957.796	-69
957.885	-447
957.974	-441
958.063	-168
958.152	-1122
958.241	-495
958.329	-957
958.418	-397
958.507	-1388
958.596	-268
958.684	-358
958.773	-447
958.861	-821
958.950	-720
959.039	407
959.127	-1069
959.216	-407
959.304	-648
959.393	-690
959.481	-706
959.570	-797
959.658	-354
959.746	-220
959.835	614
959.923	1493
960.011	457
960.100	-281
960.188	-98
960.276	-863
960.365	-763
960.453	-403
960.541	-491
960.629	-617
960.717	-1201
960.805	-1221
960.893	-268
960.981	-822
961.069	-344
961.158	-835
961.245	-693
961.333	-557
961.421	-1387
961.509	-915
961.597	-436
961.685	-848
961.773	-443
961.861	-445
961.949	-255
962.036	-1515
962.124	-873
962.212	-356
962.299	-720
962.387	-463
962.475	-94
962.562	-2062
962.650	-544
962.738	-252
962.825	-383
962.913	-865
963.000	-1309
963.088	-875
963.175	-527
963.263	153
963.350	-602
963.438	-176
963.525	-643
963.612	2393
963.700	5964
963.787	13931
963.874	7637
963.962	-136
964.049	-158
964.136	-997
964.223	-1183
964.310	-878
964.398	-742
964.485	-252
964.572	433
964.659	942
964.746	831
964.833	-447
964.920	-1029
965.007	-8
965.094	-766
965.181	-516
965.268	-625
965.355	-647
965.441	-432
965.528	-961
965.615	-896
965.702	-698
965.789	-1710
965.875	-924
965.962	-1517
966.049	-1220
966.136	-631
966.222	-792
966.309	-439
966.395	-1749
966.482	-377
966.569	-522
966.655	-643
966.742	-1040
966.828	-369
966.915	-81
967.001	-635
967.087	-25
967.174	1265
967.260	287
967.347	1094
967.433	5066
967.519	8851
967.605	2596
967.692	-917
967.778	-428
967.864	-1127
967.950	-324
968.036	-903
968.123	-865
968.209	-1179
968.295	-1796
968.381	-705
968.467	-391
968.553	-1186
968.639	-339
968.725	-1009
968.811	146
968.897	679
968.983	-848
969.069	-1154
969.154	-1238
969.240	-263
969.326	-195
969.412	-1320
969.497	-1024
969.583	-1211
969.669	-655
969.755	-883
969.840	-1045
969.926	-641
970.012	-1126
970.097	-461
970.183	-667
970.268	-558
970.354	680
970.439	2020
970.525	5672
970.610	276
970.696	-484
970.781	-540
970.866	-1107
970.952	-360
971.037	-1085
971.122	-927
971.208	-945
971.293	-432
971.378	-1387
971.463	-1022
971.549	-255
971.634	-549
971.719	-1238
971.804	146
971.889	911
971.974	-824
972.059	-1066
972.144	-1106
972.229	-981
972.314	-1041
972.399	-678
972.484	-2034
972.569	-122
972.654	-442
972.739	3123
972.824	1754
972.908	-55
972.993	-1328
973.078	-1241
973.163	-1001
973.247	-1114
973.332	-1539
973.417	223
973.501	-1480
973.586	-1068
973.671	-1013
973.755	-666
973.840	-610
973.924	-630
974.009	-655
974.093	-1459
974.178	249
974.262	894
974.346	925
974.431	-1011
974.515	-462
974.600	-899
974.684	-634
974.768	-667
974.852	-807
974.937	-781
975.021	-816
975.105	-730
975.189	-912
975.273	-834
975.358	-1260
975.442	-1457
975.526	-818
975.610	-1388
975.694	-1674
975.778	-411
975.862	-505
975.946	-2575
976.030	-233
976.114	-1723
976.198	-84
976.281	-1216
976.365	-242
976.449	-1124
976.533	-903
976.617	-739
976.700	-812
976.784	-773
976.868	-1113
976.951	481
977.035	-461
977.119	-1130
977.202	-746
977.286	-1415
977.369	-1410
977.453	-1212
977.536	-1363
977.620	-971
977.703	-715
977.787	-1453
977.870	-218
977.953	0
978.037	-1179
978.120	-5
978.203	285
978.287	1692
978.370	19
978.453	-1381
978.536	-682
978.620	708
978.703	908
978.786	-471
978.869	-1328
978.952	-1821
979.035	127
979.118	-920
979.201	-1538
979.284	-794
979.367	-1734
979.450	-781
979.533	-1531
979.616	-504
979.699	-1181
979.782	-1191
979.865	-892
979.948	-481
980.030	-1351
980.113	-1277
980.196	-1738
980.279	-378
980.361	-826
980.444	-1095
980.526	-1159
980.609	-1055
980.692	-1050
980.774	-503
980.857	-1976
980.939	-514
981.022	-937
981.104	-867
981.187	-1098
981.269	-873
981.352	-1035
981.434	-1608
981.516	-1992
981.599	-596
981.681	-180
981.763	-858
981.846	-1040
981.928	-1625
982.010	-1001
982.092	-1709
982.174	-597
982.256	-971
982.339	-1035
982.421	-1315
982.503	-547
982.585	-1430
982.667	-1193
982.749	-318
982.831	-710
982.913	-1167
982.995	-446
983.077	-858
983.158	-52
983.240	-1838
983.322	-627
983.404	-639
983.486	-1274
983.568	-1170
983.649	-1220
983.731	-1213
983.813	-1623
983.894	-797
983.976	-1336
984.058	-1120
984.139	-1450
984.221	-1840
984.302	-942
984.384	-1015
984.465	-1908
984.547	-1047
984.628	-1960
984.710	-634
984.791	-1166
984.872	-140
984.954	-821
985.035	-542
985.116	-1137
985.198	-883
985.279	-174
985.360	-955
985.441	-1195
985.522	-397
985.604	-1845
985.685	-2185
985.766	-173
985.847	-793
985.928	-2093
986.009	-568
986.090	-2004
986.171	-407
986.252	-626
986.333	-1063
986.414	-1691
986.495	-890
986.576	-1493
986.656	-1036
986.737	-1263
986.818	-1016
986.899	-1019
986.980	-1266
987.060	46
987.141	-1242
987.222	-632
987.302	-1527
987.383	-1318
987.464	-732
987.544	-442
987.625	-1146
987.705	-662
987.786	-1029
987.866	-1737
987.947	-1414
988.027	-1550
988.108	-2023
988.188	-1328
988.268	-946
988.349	-1288
988.429	-1093
988.509	-1039
988.589	-1429
988.670	-2257
988.750	-363
988.830	-672
988.910	-1519
988.990	-1782
989.070	-1241
989.151	-1212
989.231	-1134
989.311	-725
989.391	-188
989.471	-1108
989.551	-667
989.631	-1601
989.711	-626
989.791	-2027
989.870	-1058
989.950	-1776
990.030	-1230
990.110	-873
990.190	-997
990.269	-1991
990.349	-1293
990.429	-254
990.509	-1390
990.588	-1895
990.668	-1042
990.747	-1283
990.827	-1403
990.907	-1327
990.986	-1266
991.066	-564
991.145	-1418
991.225	-1318
991.304	-1088
991.383	-723
991.463	-1330
991.542	-930
991.622	-1229
991.701	-736
991.780	-1045
991.859	-1023
991.939	-1097
992.018	-1249
992.097	-1142
992.176	-57
992.256	-863
992.335	-2210
992.414	-468
992.493	-1841
992.572	-1150
992.651	-437
992.730	-1285
992.809	-1257
992.888	-1419
992.967	-1262
993.046	-352
993.125	-1327
993.203	-1494
993.282	-892
993.361	-908
993.440	-1946
993.519	-1993
993.597	-1370
993.676	-1789
993.755	-1110
993.834	-1065
993.912	-2056
993.991	-1054
994.069	-1250
994.148	-1965
994.226	-1274
994.305	-1132
994.384	-1867
994.462	212
994.540	-2271
994.619	-1722
994.697	-963
994.776	-909
994.854	-142
994.932	-1288
995.011	-1394
995.089	-1847
995.167	-1618
995.245	-991
995.324	-2164
995.402	-979
995.480	-1793
995.558	-1353
995.636	-1651
995.714	-2032
995.792	-105
995.870	-1925
995.948	-1710
996.026	-878
996.104	-2528
996.182	-582
996.260	-1143
996.338	-745
996.416	-2001
996.494	-2052
996.572	-892
996.649	-1555
996.727	-2257
996.805	-1655
996.883	-1650
996.960	-941
997.038	-903
997.116	-1011
997.193	-1912
997.271	-1063
997.348	-1430
997.426	-1547
997.504	-2220
997.581	-1234
997.658	-1744
997.736	-2051
997.813	-1063
997.891	-1268
997.968	-1313
998.046	-1025
998.123	-1243
998.200	-567
998.277	-1243
998.355	-760
998.432	-2525
998.509	-2101
998.586	-2095
998.663	-1222
998.741	-1718
998.818	-2003
998.895	-2021
998.972	-422
999.049	-1735
999.126	-1129
999.203	-413
999.280	-1710
999.357	-953
999.434	-1621
999.511	-1291
999.587	-458
999.664	-1616
999.741	-882
999.818	-529
999.895	-868
999.971	-2112
1000.048	-661
1000.125	-960
1000.202	-2582
1000.278	-1389
1000.355	-1557
1000.431	-1971
1000.508	-1556
1000.584	-1849
1000.661	-1160
1000.738	-1926
1000.814	-1810
1000.890	-701
1000.967	-1817
1001.043	-1320
1001.120	-1146
1001.196	-1487
1001.272	-1231
1001.349	-1159
1001.425	-597
1001.501	-1145
1001.577	-1472
1001.654	-1286
1001.730	-1938
1001.806	-1438
1001.882	-2014
1001.958	-952
1002.034	-1163
1002.110	-1433
1002.186	-1361
1002.262	-1904
1002.338	-1939
1002.414	-556
1002.490	-635
1002.566	-1801
1002.642	-2115
1002.718	-528
1002.794	-1191
1002.870	-818
1002.945	-1355
1003.021	-1917
1003.097	-1620
1003.173	-682
1003.248	-1313
1003.324	-1935
1003.400	-1129
1003.475	-1338
1003.551	-1230
1003.626	-838
1003.702	-2209
1003.777	-1827
1003.853	-1781
1003.928	-2301
1004.004	-1462
1004.079	-949
1004.155	-1347
1004.230	-2910
1004.305	-429
1004.381	-2057
1004.456	-994
1004.531	-1683
1004.607	-1161
1004.682	-1636
1004.757	-1378
1004.832	-1343
1004.907	-1468
1004.982	-1349
1005.057	-1357
1005.133	-1571
1005.208	-1657
1005.283	-1599
1005.358	-689
1005.433	-2751
1005.508	-1429
1005.583	-1570
1005.657	-1009
1005.732	-964
1005.807	-1234
1005.882	-2282
1005.957	-1608
1006.032	-852
1006.106	-1522
1006.181	-2062
1006.256	-1300
1006.331	-1632
1006.405	-1285
1006.480	-1934
1006.554	-1402
1006.629	-1261
1006.704	-1382
1006.778	-1347
1006.853	-1166
1006.927	-1004
1007.002	-1284
1007.076	-1438
1007.150	-1736
1007.225	-975
1007.299	-1912
1007.373	-2085
1007.448	-1900
1007.522	-1095
1007.596	-836
1007.671	-1998
1007.745	-786
1007.819	-1780
1007.893	-1450
1007.967	-1536
1008.041	-2561
1008.115	-1016
1008.190	-1524
1008.264	-1620
1008.338	-2550
1008.412	-2265
1008.486	-1789
1008.560	-2448
1008.633	-1323
1008.707	-1782
1008.781	-1400
1008.855	-1841
1008.929	-1182
1009.003	-1517
1009.076	-1443
1009.150	-1955
1009.224	-595
1009.298	-1858
1009.371	-1377
1009.445	-1496
1009.519	-1800
1009.592	-2436
1009.666	-1205
1009.739	-1646
1009.813	-1748
1009.886	-551
1009.960	-2014
1010.033	-817
1010.107	-1133
1010.180	-2218
1010.253	-1294
1010.327	-1779
1010.400	-758
1010.473	-890
1010.547	162
1010.620	-897
1010.693	-1194
1010.766	-1271
1010.840	-402
1010.913	-1351
1010.986	-964
1011.059	-237
1011.132	-434
1011.205	65
1011.278	-9
1011.351	-640
1011.424	-608
1011.497	-1144
1011.570	-1580
1011.643	-699
1011.716	-2066
1011.789	-1256
1011.862	-1305
1011.934	-1672
1012.007	-2492
1012.080	-1498
1012.153	-1249
1012.225	-793
1012.298	-1486
1012.371	-2035
1012.443	-1031
1012.516	-1707
1012.588	-2235
1012.661	-1555
1012.733	-1957
1012.806	-803
1012.879	-1002
1012.951	-2110
1013.023	-1251
1013.096	-1027
1013.168	-1660
1013.241	-287
1013.313	-2182
1013.385	-2490
1013.458	-1470
1013.530	-1370
1013.602	-2702
1013.674	-1049
1013.746	-1921
1013.819	-2619
1013.891	-1620
1013.963	-2084
1014.035	-1978
1014.107	-1643
1014.179	-1092
1014.251	-2056
1014.323	-1622
1014.395	-1700
1014.467	-1455
1014.539	-1603
1014.611	-2322
1014.683	-1285
1014.754	-842
1014.826	-1310
1014.898	-1267
1014.970	-3386
1015.042	-811
1015.113	-1198
1015.185	-1896
1015.257	-1797
1015.328	-1171
1015.400	-1951
1015.471	-2141
1015.543	-3355
1015.615	-1587
1015.686	-1729
1015.757	-1886
1015.829	-1500
1015.901	-1569
1015.972	-1490
1016.043	-1925
1016.115	-1635
1016.186	-1638
1016.257	-1364
1016.328	-851
1016.400	-1304
1016.471	-1994
1016.542	-1670
1016.613	-1623
1016.685	-1395
1016.756	-1156
1016.827	-1886
1016.898	-2313
1016.969	-623
1017.040	-1876
1017.111	-1428
1017.182	-1714
1017.253	-1462
1017.324	-2001
1017.395	-1677
1017.466	-1640
1017.537	-1530
1017.608	-1827
1017.678	-1766
1017.749	-1360
1017.820	-1063
1017.891	-2170
1017.961	-2192
1018.032	-1422
1018.103	-1427
1018.173	-1443
1018.244	-2237
1018.315	-1992
1018.385	-2025
1018.456	-1830
1018.526	-2439
1018.597	-1072
1018.667	-1563
1018.738	-1801
1018.808	-1696
1018.878	-1791
1018.949	-1273
1019.019	-2226
1019.089	-2873
1019.160	-1430
1019.230	-2512
1019.300	-1592
1019.371	-3168
1019.441	-1410
1019.511	-1208
1019.581	-1553
1019.651	-1203
1019.721	-669
1019.791	-2155
1019.861	-1523
1019.931	-1902
1020.001	-1735
1020.071	-1633
1020.141	-2115
1020.211	-1613
1020.281	-1154
1020.351	-2006
1020.421	-852
1020.491	-1216
1020.560	-1716
1020.630	-1500
1020.700	-1233
1020.770	-2214
1020.839	-1475
1020.909	-2560
1020.979	-1334
1021.048	-1760
1021.118	-2263
1021.187	-1957
1021.257	-2007
1021.326	-1410
1021.396	-2134
1021.465	-1797
1021.535	-1314
1021.604	-1760
1021.674	-2265
1021.743	-1686
1021.812	-1783
1021.882	-2029
1021.951	-2109
1022.020	-2514
1022.089	-1368
1022.159	-1822
1022.228	-1251
1022.297	-2174
1022.366	-2623
1022.435	-1905
1022.504	-1154
1022.573	-2517
1022.642	-2181
1022.711	-1969
1022.781	-1787
1022.849	-1019
1022.918	-2129
1022.987	-1326
1023.056	-1664
1023.125	-1634
1023.194	-1228
1023.263	-2062
1023.331	-1023
1023.400	-1650
1023.469	-1939
1023.538	-2045
1023.606	-2133
1023.675	-883
1023.744	-1649
1023.812	-2414
1023.881	-1697
1023.949	-2014
1024.018	-1796
1024.086	-2212
1024.155	-2078
1024.223	-2785
1024.292	-1582
1024.360	-2386
1024.429	-1808
1024.497	-2245
1024.565	-1895
1024.634	-1691
1024.702	-1512
1024.770	-1798
1024.838	-2039
1024.907	-1188
1024.975	-1601
1025.043	-1788
1025.111	-1643
1025.179	-1432
1025.247	-2414
1025.315	-2149
1025.383	-1196
1025.451	-2651
1025.519	-2194
1025.587	-1551
1025.655	-2314
1025.723	-1767
1025.791	-1952
1025.859	-1866
1025.927	-1449
1025.995	-2391
1026.062	-2369
1026.130	-1013
1026.198	-1899
1026.266	-1377
1026.333	-980
1026.401	-2216
1026.469	-1741
1026.536	-1977
1026.604	-2185
1026.671	-1711
1026.739	-2618
1026.806	-1538
1026.874	-1648
1026.941	-1989
1027.009	-2021
1027.076	-2383
1027.144	-1533
1027.211	-1629
1027.278	-1983
1027.345	-1602
1027.413	-1062
1027.480	-1513
1027.547	-1979
1027.614	-2828
1027.682	-1148
1027.749	-1546
1027.816	-1967
1027.883	-2119
1027.950	-1848
1028.017	-2459
1028.084	-1321
1028.151	-2122
1028.218	-2009
1028.285	-1805
1028.352	-2259
1028.419	-1549
1028.486	-1999
1028.553	-1625
1028.619	-1846
1028.686	-2292
1028.753	-2490
1028.820	-2533
1028.886	-2333
1028.953	-2178
1029.020	-1707
1029.086	-1990
1029.153	-2537
1029.220	-1969
1029.286	-1673
1029.353	-1613
1029.419	-2204
1029.486	-2490
1029.552	-2140
1029.619	-1834
1029.685	-1786
1029.751	-1760
1029.818	-755
1029.884	-2220
1029.951	-686
1030.017	-2588
1030.083	-1263
1030.149	-1869
1030.216	-1937
1030.282	-1303
1030.348	-1781
1030.414	-2000
1030.480	-1812
1030.546	-2087
1030.612	-1491
1030.678	-2206
1030.744	-2641
1030.810	-2164
1030.876	-1761
1030.942	-2825
1031.008	-2007
1031.074	-1462
1031.140	-2212
1031.206	-1410
1031.272	-2345
1031.337	-2308
1031.403	-2030
1031.469	-2359
1031.534	-2169
1031.600	-1497
1031.666	-2745
1031.731	-1868
1031.797	-2058
1031.863	-1715
1031.928	-1395
1031.994	-1990
1032.059	-1811
1032.125	-2578
1032.190	-2274
1032.256	-2605
1032.321	-2417
1032.386	-2314
1032.452	-1185
1032.517	-1997
1032.582	-2233
1032.647	-2045
1032.713	-2205
1032.778	-1556
1032.843	-1722
1032.908	-1632
1032.974	-1727
1033.039	-1483
1033.104	-742
1033.169	-2115
1033.234	-2263
1033.299	-1740
1033.364	-1321
1033.429	-1856
1033.494	-1316
1033.559	-1521
1033.624	-1602
1033.688	-2140
1033.753	-2815
1033.818	-1754
1033.883	-1700
1033.948	-1860
1034.013	-1959
1034.077	-1830
1034.142	-1138
1034.207	-1899
1034.271	-1817
1034.336	-1977
1034.400	-2123
1034.465	-2199
1034.530	-2472
1034.594	-2442
1034.658	-1666
1034.723	-1668
1034.787	-2254
1034.852	-2705
1034.916	-1434
1034.981	-1548
1035.045	-2056
1035.109	-3040
1035.173	-1970
1035.238	-2086
1035.302	-1260
1035.366	-2829
1035.430	-1707
1035.495	-2780
1035.559	-1306
1035.623	-1796
1035.687	-2583
1035.751	-1569
1035.815	-1896
1035.879	-1554
1035.943	-1705
1036.007	-1825
1036.071	-1735
1036.135	-2108
1036.198	-2548
1036.262	-2743
1036.326	-1516
1036.390	-1484
1036.454	-1587
1036.517	-2610
1036.581	-1758
1036.645	-2236
1036.709	-1550
1036.772	-2509
1036.836	-933
1036.900	-1896
1036.963	-1625
1037.026	-2329
1037.090	-1669
1037.154	-2129
1037.217	-1304
1037.280	-2815
1037.344	-1452
1037.407	-2927
1037.471	-1961
1037.534	-2489
1037.597	-2023
1037.661	-1862
1037.724	-1938
1037.787	-2042
1037.850	-1768
1037.913	-2288
1037.977	-2468
1038.040	-1807
1038.103	-2044
1038.166	-2271
1038.229	-1615
1038.292	-2564
1038.355	-1772
1038.418	-2276
1038.481	-1261
1038.544	-2478
1038.607	-1661
1038.670	-2178
1038.732	-1611
1038.795	-1495
1038.858	-2964
1038.921	-1691
1038.984	-2278
1039.046	-2325
1039.109	-1697
1039.172	-2285
1039.234	-2266
1039.297	-1884
1039.360	-1680
1039.422	-2249
1039.485	-2714
1039.547	-1861
1039.610	-1172
1039.672	-2034
1039.734	-2379
1039.797	-1815
1039.859	-1815
1039.922	-2402
1039.984	-1115
1040.046	-2473
1040.109	-1607
1040.171	-2412
1040.233	-1908
1040.295	-2354
1040.358	-1693
1040.420	-2127
1040.482	-1942
1040.544	-2713
1040.606	-2237
1040.668	-2345
1040.730	-2047
1040.792	-1769
1040.854	-2686
1040.916	-1997
1040.978	-2171
1041.040	-1362
1041.102	-2224
1041.164	-1965
1041.225	-2013
1041.287	-1797
1041.349	-1434
1041.411	-2186
1041.472	-1255
1041.534	-2129
1041.596	-2253
1041.657	-2219
1041.719	-2119
1041.781	-2381
1041.842	-2252
1041.904	-2036
1041.965	-2000
1042.027	-1431
1042.088	-2446
1042.150	-2260
1042.211	-1899
1042.272	-1290
1042.334	-1522
1042.395	-2280
1042.456	-2199
1042.518	-2412
1042.579	-2167
1042.640	-1655
1042.701	-2029
1042.763	-2111
1042.824	-2490
1042.885	-2079
1042.946	-1891
1043.007	-1860
1043.068	-2226
1043.129	-1680
1043.190	-2389
1043.251	-2033
1043.312	-2121
1043.373	-1853
1043.434	-1910
1043.495	-1920
1043.556	-1186
1043.616	-2162
1043.677	-1328
1043.738	-2465
1043.799	-1769
1043.859	-2124
1043.920	-2291
1043.981	-2028
1044.041	-1679
1044.102	-2556
1044.162	-1169
1044.223	-2058
1044.284	-1792
1044.344	-2800
1044.405	-2635
1044.465	-1599
1044.525	-2589
1044.586	-2329
1044.646	-2223
1044.707	-1662
1044.767	-1909
1044.827	-1815
1044.887	-1629
1044.948	-1428
1045.008	-1752
1045.068	-1959
1045.128	-1439
1045.188	-1886
1045.249	-1338
1045.309	-1991
1045.369	-1657
1045.429	-2363
1045.489	-1919
1045.549	-1493
1045.609	-1934
1045.669	-1859
1045.729	-1013
1045.789	-1505
1045.848	-1739
1045.908	-1728
1045.968	-2462
1046.028	-973
1046.088	-1842
1046.147	-1916
1046.207	-1555
1046.267	-1333
1046.326	-1441
1046.386	-1622
1046.446	-1505
1046.505	-1072
1046.565	-335
1046.624	-344
1046.684	-341
1046.743	-1053
1046.803	-330
1046.862	-422
1046.922	0
