'Start Wavelength	183.907
'End Wavelength	1046.922
'Gate Delay	5.000
'Gate Width (ms)	1.050
'Laser Output Level	0.000
'X Position	0.000
'Y Position	0.000
'Z Position	0.000
'Grid Point Number	1.000
'Shot Number	100.000
183.907	400.000
183.977	-500.000
184.047	213
184.116	-236
184.186	289
184.256	-27
184.325	445
184.395	-542
184.465	974
184.534	75
184.604	266
184.674	-29
184.743	288
184.813	99
184.883	441
184.952	22
185.022	570
185.092	-530
185.161	-110
185.231	-69
185.301	716
185.370	975
185.440	92
185.509	97
185.579	-297
185.649	629
185.718	465
185.788	-25
185.857	165
185.927	-98
185.996	233
186.066	95
186.136	878
186.205	488
186.275	-255
186.344	988
186.414	-102
186.483	-181
186.553	647
186.622	666
186.692	336
186.761	476
186.831	154
186.900	-650
186.970	401
187.039	328
187.109	252
187.178	542
187.248	674
187.317	587
187.387	100
187.456	218
187.526	368
187.595	301
187.664	44
187.734	660
187.803	492
187.873	367
187.942	654
188.012	81
188.081	477
188.150	53
188.220	1259
188.289	314
188.358	876
188.428	133
188.497	-423
188.567	249
188.636	238
188.705	436
188.775	130
188.844	424
188.913	460
188.983	241
189.052	561
189.121	400
189.191	286
189.260	835
189.329	-181
189.399	748
189.468	344
189.537	-626
189.606	750
189.676	-386
189.745	800
189.814	182
189.883	631
189.953	619
190.022	81
190.091	1434
190.161	1373
190.230	656
190.299	615
190.368	123
190.437	-142
190.507	-216
190.576	-191
190.645	-339
190.714	829
190.783	435
190.853	585
190.922	475
190.991	-31
191.060	136
191.129	78
191.198	203
191.268	732
191.337	265
191.406	235
191.475	320
191.544	-143
191.613	420
191.682	154
191.752	246
191.821	735
191.890	63
191.959	330
192.028	84
192.097	1096
192.166	-8
192.235	39
192.304	-247
192.373	716
192.442	509
192.511	350
192.580	114
192.650	443
192.719	71
192.788	732
192.857	-114
192.926	1170
192.995	-125
193.064	680
193.133	614
193.202	84
193.271	614
193.340	1733
193.409	1100
193.478	984
193.547	448
193.615	523
193.684	739
193.753	489
193.822	646
193.891	248
193.960	791
194.029	197
194.098	307
194.167	336
194.236	482
194.305	218
194.374	470
194.443	491
194.512	948
194.580	262
194.649	701
194.718	477
194.787	239
194.856	565
194.925	481
194.994	-72
195.062	646
195.131	503
195.200	236
195.269	1091
195.338	710
195.407	569
195.475	-179
195.544	589
195.613	762
195.682	1261
195.751	336
195.819	577
195.888	515
195.957	1257
196.026	73
196.094	412
196.163	533
196.232	1075
196.301	8
196.369	1134
196.438	175
196.507	731
196.576	-478
196.644	-144
196.713	623
196.782	511
196.850	616
196.919	-97
196.988	-409
197.056	215
197.125	358
197.194	1226
197.262	-94
197.331	251
197.400	-91
197.468	209
197.537	-339
197.606	351
197.674	651
197.743	1812
197.812	-195
197.880	1635
197.949	619
198.017	2023
198.086	157
198.155	1243
198.223	867
198.292	2245
198.360	373
198.429	494
198.497	623
198.566	1047
198.635	1928
198.703	651
198.772	-110
198.840	2047
198.909	1844
198.977	663
199.046	987
199.114	1402
199.183	1421
199.251	879
199.320	501
199.388	-168
199.457	6
199.525	484
199.594	773
199.662	390
199.731	119
199.799	924
199.867	733
199.936	35
200.004	543
200.073	766
200.141	-47
200.210	338
200.278	794
200.346	117
200.415	70
200.483	1233
200.552	787
200.620	36
200.688	271
200.757	654
200.825	542
200.893	767
200.962	-54
201.030	129
201.098	226
201.167	906
201.235	246
201.303	849
201.372	984
201.440	746
201.508	852
201.577	409
201.645	1235
201.713	185
201.781	1239
201.850	-170
201.918	567
201.986	309
202.055	803
202.123	122
202.191	443
202.259	405
202.327	393
202.396	614
202.464	401
202.532	543
202.600	1542
202.669	1102
202.737	10
202.805	421
202.873	731
202.941	598
203.009	862
203.078	787
203.146	592
203.214	501
203.282	-415
203.350	963
203.418	953
203.487	638
203.555	366
203.623	987
203.691	349
203.759	880
203.827	92
203.895	97
203.963	775
204.031	496
204.099	373
204.168	657
204.236	708
204.304	383
204.372	96
204.440	958
204.508	166
204.576	794
204.644	837
204.712	255
204.780	1205
204.848	-45
204.916	327
204.984	895
205.052	856
205.120	850
205.188	466
205.256	456
205.324	-138
205.392	624
205.460	546
205.528	554
205.596	301
205.664	1658
205.732	87
205.799	2120
205.867	2798
205.935	728
206.003	840
206.071	842
206.139	688
206.207	1839
206.275	208
206.343	800
206.411	457
206.478	824
206.546	82
206.614	393
206.682	1060
206.750	-44
206.818	1383
206.885	396
206.953	273
207.021	1500
207.089	110
207.157	334
207.225	680
207.292	811
207.360	373
207.428	245
207.496	531
207.563	946
207.631	427
207.699	715
207.767	497
207.834	88
207.902	-315
207.970	1148
208.038	179
208.105	986
208.173	707
208.241	988
208.309	1529
208.376	710
208.444	1536
208.512	1009
208.579	171
208.647	1613
208.715	907
208.782	-13
208.850	748
208.918	671
208.985	957
209.053	441
209.120	559
209.188	178
209.256	452
209.323	657
209.391	1043
209.459	1195
209.526	354
209.594	1223
209.661	1572
209.729	1553
209.796	1418
209.864	645
209.932	541
209.999	1890
210.067	1386
210.134	1067
210.202	669
210.269	1016
210.337	716
210.404	786
210.472	1369
210.539	1247
210.607	807
210.674	661
210.742	786
210.809	836
210.877	864
210.944	1359
211.012	-20
211.079	1956
211.146	754
211.214	831
211.281	426
211.349	1155
211.416	1039
211.484	1406
211.551	414
211.618	816
211.686	1010
211.753	850
211.821	1010
211.888	1391
211.955	880
212.023	751
212.090	648
212.157	858
212.225	1080
212.292	2313
212.359	5102
212.427	10461
212.494	4055
212.561	2568
212.629	1572
212.696	1121
212.763	1183
212.831	643
212.898	853
212.965	1106
213.032	320
213.100	1049
213.167	973
213.234	712
213.301	1149
213.369	717
213.436	945
213.503	1355
213.570	1140
213.638	822
213.705	518
213.772	759
213.839	489
213.906	975
213.973	533
214.041	834
214.108	832
214.175	1316
214.242	848
214.309	1573
214.376	1137
214.444	927
214.511	1418
214.578	1046
214.645	956
214.712	1354
214.779	1433
214.846	1206
214.913	864
214.980	1510
215.048	1436
215.115	1311
215.182	1552
215.249	1681
215.316	282
215.383	1417
215.450	1511
215.517	1639
215.584	712
215.651	1493
215.718	659
215.785	1671
215.852	1176
215.919	1745
215.986	816
216.053	1159
216.120	892
216.187	1588
216.254	840
216.321	1168
216.388	501
216.455	1175
216.522	1155
216.589	1535
216.656	1847
216.722	2363
216.789	1582
216.856	2001
216.923	1411
216.990	1711
217.057	952
217.124	2226
217.191	1739
217.258	1359
217.324	1652
217.391	2200
217.458	1410
217.525	1601
217.592	1068
217.659	1330
217.725	1890
217.792	2126
217.859	2074
217.926	853
217.993	1438
218.059	1560
218.126	377
218.193	1046
218.260	200
218.327	1438
218.393	1193
218.460	657
218.527	574
218.594	989
218.660	1935
218.727	2225
218.794	767
218.860	1911
218.927	624
218.994	471
219.061	1545
219.127	2006
219.194	1566
219.261	1040
219.327	1159
219.394	1003
219.461	1031
219.527	1484
219.594	769
219.661	622
219.727	645
219.794	2035
219.860	242
219.927	1069
219.994	1153
220.060	1770
220.127	1987
220.193	2015
220.260	689
220.326	2636
220.393	2670
220.460	3690
220.526	2085
220.593	1396
220.659	2460
220.726	2097
220.792	6008
220.859	4149
220.925	5444
220.992	6357
221.058	6295
221.125	6959
221.191	5430
221.258	2056
221.324	971
221.391	886
221.457	979
221.524	850
221.590	2003
221.657	6656
221.723	4206
221.789	4317
221.856	3368
221.922	1819
221.989	1470
222.055	1882
222.121	163
222.188	2100
222.254	1099
222.321	1681
222.387	886
222.453	565
222.520	915
222.586	1261
222.652	728
222.719	543
222.785	769
222.851	908
222.918	846
222.984	969
223.050	486
223.116	637
223.183	993
223.249	-118
223.315	401
223.382	661
223.448	596
223.514	590
223.580	237
223.647	586
223.713	-56
223.779	210
223.845	657
223.911	660
223.978	143
224.044	861
224.110	210
224.176	1128
224.242	901
224.309	316
224.375	616
224.441	490
224.507	373
224.573	213
224.639	1153
224.705	684
224.772	197
224.838	540
224.904	1157
224.970	1109
225.036	365
225.102	500
225.168	213
225.234	1035
225.300	842
225.366	756
225.432	1216
225.499	292
225.565	723
225.631	1005
225.697	969
225.763	888
225.829	999
225.895	963
225.961	1344
226.027	2397
226.093	1300
226.159	2113
226.225	3357
226.291	7747
226.357	9712
226.423	4696
226.489	3308
226.554	2401
226.620	1569
226.686	3020
226.752	3945
226.818	6811
226.884	13140
226.950	9528
227.016	4130
227.082	3645
227.148	1934
227.214	2429
227.279	1291
227.345	1672
227.411	833
227.477	1592
227.543	1600
227.609	2183
227.674	1647
227.740	937
227.806	1776
227.872	1047
227.938	1360
228.003	875
228.069	1206
228.135	440
228.201	815
228.267	410
228.332	1431
228.398	929
228.464	1242
228.530	585
228.595	943
228.661	291
228.727	1107
228.792	1534
228.858	15
228.924	289
228.990	1387
229.055	1212
229.121	1836
229.187	753
229.252	704
229.318	808
229.384	858
229.449	837
229.515	116
229.581	-182
229.646	2135
229.712	1726
229.777	2732
229.843	2564
229.909	2285
229.974	1998
230.040	1539
230.105	1733
230.171	1403
230.236	2129
230.302	2611
230.368	2128
230.433	1012
230.499	1591
230.564	1954
230.630	1236
230.695	1071
230.761	2044
230.826	380
230.892	2011
230.957	435
231.023	1762
231.088	775
231.154	1544
231.219	671
231.284	1317
231.350	1824
231.415	1028
231.481	1016
231.546	1098
231.612	1044
231.677	572
231.742	-145
231.808	1819
231.873	190
231.939	454
232.004	2333
232.069	1758
232.135	663
232.200	614
232.265	1573
232.331	996
232.396	596
232.461	970
232.527	895
232.592	401
232.657	256
232.723	2514
232.788	931
232.853	1189
232.918	1122
232.984	1154
233.049	1401
233.114	1710
233.179	1234
233.245	3749
233.310	3303
233.375	1265
233.440	1593
233.506	1594
233.571	910
233.636	1259
233.701	1292
233.766	2541
233.832	1507
233.897	1317
233.962	726
234.027	1729
234.092	1257
234.157	1909
234.222	1635
234.288	2961
234.353	7185
234.418	5839
234.483	3471
234.548	2242
234.613	2255
234.678	2030
234.743	2388
234.808	7973
234.873	4031
234.938	2387
235.004	1402
235.069	1738
235.134	1141
235.199	1217
235.264	1145
235.329	757
235.394	2124
235.459	1916
235.524	1777
235.589	1889
235.654	1305
235.719	398
235.784	1501
235.849	2084
235.913	3525
235.978	4135
236.043	4141
236.108	2629
236.173	725
236.238	1554
236.303	1550
236.368	1415
236.433	3344
236.498	4873
236.563	3119
236.627	7083
236.692	19230
236.757	13896
236.822	6350
236.887	5095
236.952	3585
237.017	2679
237.081	3822
237.146	4477
237.211	10931
237.276	19979
237.341	27914
237.405	12928
237.470	5530
237.535	4798
237.600	2883
237.664	3087
237.729	2262
237.794	3104
237.859	5821
237.923	4281
237.988	2325
238.053	4203
238.118	3616
238.182	11171
238.247	7376
238.312	4191
238.376	4048
238.441	1331
238.506	2558
238.570	636
238.635	2109
238.700	1875
238.764	1726
238.829	4137
238.893	4682
238.958	2854
239.023	2084
239.087	2265
239.152	1801
239.216	1893
239.281	1025
239.346	1639
239.410	1752
239.475	2134
239.539	9900
239.604	6052
239.668	2376
239.733	1557
239.797	2160
239.862	5177
239.926	8052
239.991	3294
240.055	1833
240.120	2389
240.184	1227
240.249	1010
240.313	1280
240.378	1188
240.442	5962
240.507	8473
240.571	3462
240.635	4711
240.700	4201
240.764	1102
240.829	1102
240.893	1443
240.957	1618
241.022	6326
241.086	8061
241.151	3151
241.215	333
241.279	2945
241.344	4224
241.408	1906
241.472	791
241.537	2091
241.601	2128
241.665	1009
241.730	2104
241.794	1997
241.858	1319
241.922	1795
241.987	1777
242.051	1941
242.115	863
242.179	2172
242.244	1074
242.308	2328
242.372	2533
242.436	2790
242.501	1949
242.565	967
242.629	1198
242.693	2198
242.757	848
242.822	2207
242.886	1617
242.950	2303
243.014	1121
243.078	2766
243.142	1862
243.206	1481
243.271	2661
243.335	1679
243.399	3805
243.463	13736
243.527	28235
243.591	7709
243.655	3082
243.719	2453
243.783	2568
243.847	4342
243.911	5584
243.975	5068
244.040	2277
244.104	3365
244.168	2256
244.232	2227
244.296	3538
244.360	4509
244.424	2507
244.488	2517
244.552	3012
244.615	1216
244.679	1994
244.743	2523
244.807	1717
244.871	2107
244.935	1599
244.999	822
245.063	1651
245.127	2054
245.191	3506
245.255	3426
245.319	2194
245.383	666
245.446	2970
245.510	1031
245.574	2299
245.638	2356
245.702	1330
245.766	4629
245.829	3125
245.893	2093
245.957	1374
246.021	2197
246.085	1900
246.149	2127
246.212	6574
246.276	7829
246.340	3953
246.404	2457
246.467	3773
246.531	2781
246.595	3547
246.659	3749
246.722	2197
246.786	3170
246.850	2635
246.913	3275
246.977	1060
247.041	2800
247.104	1990
247.168	2974
247.232	6024
247.295	10723
247.359	4762
247.423	2510
247.486	3792
247.550	3571
247.614	2228
247.677	3123
247.741	1769
247.804	1761
247.868	3241
247.932	5134
247.995	10597
248.059	3224
248.122	1321
248.186	3579
248.249	6145
248.313	19206
248.376	16217
248.440	10285
248.503	3110
248.567	5306
248.630	4513
248.694	6815
248.757	9365
248.821	19368
248.884	10024
248.948	10501
249.011	14981
249.075	22763
249.138	15429
249.202	7057
249.265	4209
249.328	8003
249.392	4933
249.455	4137
249.519	3446
249.582	3634
249.645	7086
249.709	5613
249.772	7239
249.835	4714
249.899	4107
249.962	4113
250.025	3293
250.089	8565
250.152	8510
250.215	4357
250.279	3508
250.342	3764
250.405	4004
250.468	2549
250.532	5295
250.595	8892
250.658	33417
250.721	43344
250.785	13277
250.848	9220
250.911	5084
250.974	5791
251.038	7460
251.101	11643
251.164	6064
251.227	6926
251.290	6195
251.354	12116
251.417	45100
251.480	35732
251.543	30596
251.606	77972
251.669	48552
251.732	19022
251.795	18492
251.859	20923
251.922	48008
251.985	22502
252.048	9441
252.111	7883
252.174	7484
252.237	12701
252.300	23323
252.363	30320
252.426	55871
252.489	20041
252.552	10942
252.615	7932
252.678	9489
252.741	18984
252.804	29323
252.867	58663
252.930	28715
252.993	13800
253.056	10181
253.119	6768
253.182	5833
253.245	9597
253.308	7037
253.371	7450
253.434	5739
253.497	5889
253.559	10739
253.622	7582
253.685	8591
253.748	7138
253.811	4417
253.874	7034
253.937	5027
254.000	4497
254.062	7689
254.125	10712
254.188	10272
254.251	7520
254.314	4156
254.376	8361
254.439	7357
254.502	6705
254.565	7848
254.628	12926
254.690	6320
254.753	3793
254.816	3273
254.878	4632
254.941	8912
255.004	6625
255.067	3223
255.129	2757
255.192	2330
255.255	1185
255.317	2594
255.380	2146
255.443	1394
255.505	1961
255.568	904
255.631	1123
255.693	1793
255.756	759
255.819	2152
255.881	1179
255.944	1842
256.006	2681
256.069	1728
256.132	1811
256.194	3370
256.257	7726
256.319	6080
256.382	4264
256.444	3434
256.507	2095
256.569	1012
256.632	2822
256.694	5452
256.757	14018
256.819	29336
256.882	10763
256.944	5513
257.007	4647
257.069	3753
257.132	2431
257.194	3310
257.257	3002
257.319	1882
257.381	3317
257.444	11398
257.506	38569
257.569	32460
257.631	13952
257.693	8324
257.756	4968
257.818	3923
257.880	3401
257.943	2405
258.005	1786
258.067	1442
258.130	2128
258.192	3559
258.254	5301
258.317	2964
258.379	2691
258.441	5661
258.503	5328
258.566	9700
258.628	9831
258.690	2048
258.753	4345
258.815	4545
258.877	2701
258.939	2098
259.001	1946
259.064	1918
259.126	2858
259.188	4322
259.250	2309
259.312	3118
259.375	5889
259.437	3050
259.499	2031
259.561	1320
259.623	2319
259.685	1391
259.747	2948
259.809	10065
259.872	14708
259.934	25976
259.996	15830
260.058	4773
260.120	2377
260.182	2933
260.244	1933
260.306	1152
260.368	2423
260.430	1458
260.492	3986
260.554	6953
260.616	4397
260.678	11611
260.740	12683
260.802	3808
260.864	3083
260.926	1946
260.988	3709
261.050	3285
261.112	6754
261.174	17061
261.236	10287
261.298	3537
261.359	7437
261.421	8672
261.483	2093
261.545	2526
261.607	1152
261.669	2546
261.731	5888
261.793	9004
261.854	2864
261.916	2449
261.978	2335
262.040	2096
262.102	3514
262.164	3852
262.225	2648
262.287	2484
262.349	4481
262.411	3151
262.472	2878
262.534	5261
262.596	7938
262.658	2754
262.719	1806
262.781	3560
262.843	8188
262.904	3036
262.966	3664
263.028	5006
263.090	22768
263.151	40109
263.213	10846
263.275	5626
263.336	3275
263.398	2661
263.459	1215
263.521	2144
263.583	4258
263.644	2823
263.706	1537
263.767	248
263.829	1616
263.891	865
263.952	1193
264.014	161
264.075	2255
264.137	4445
264.198	2732
264.260	709
264.321	1840
264.383	4129
264.444	7456
264.506	2446
264.567	1758
264.629	5105
264.690	4752
264.752	1866
264.813	1807
264.875	742
264.936	1933
264.998	829
265.059	1027
265.120	2249
265.182	4111
265.243	16789
265.305	13565
265.366	2946
265.427	2400
265.489	2185
265.550	447
265.611	2125
265.673	1325
265.734	1928
265.795	1691
265.857	1545
265.918	2343
265.979	6230
266.040	27858
266.102	16989
266.163	5940
266.224	3481
266.286	2749
266.347	1059
266.408	2153
266.469	2177
266.530	1774
266.592	853
266.653	4178
266.714	3318
266.775	1801
266.836	1521
266.898	1161
266.959	2758
267.020	1566
267.081	1780
267.142	1690
267.203	833
267.264	989
267.326	1652
267.387	985
267.448	87
267.509	1890
267.570	1388
267.631	546
267.692	468
267.753	2066
267.814	1047
267.875	4001
267.936	5709
267.997	3461
268.058	2459
268.119	1594
268.180	1270
268.241	395
268.302	1268
268.363	603
268.424	896
268.485	1444
268.546	794
268.607	607
268.668	1149
268.729	584
268.790	453
268.851	1814
268.912	3432
268.972	3749
269.033	1809
269.094	840
269.155	1680
269.216	1273
269.277	770
269.338	1522
269.398	1309
269.459	1575
269.520	2828
269.581	2792
269.642	2891
269.702	1727
269.763	2636
269.824	1830
269.885	1396
269.945	2697
270.006	1272
270.067	482
270.128	1329
270.188	953
270.249	967
270.310	1158
270.370	1092
270.431	1750
270.492	672
270.553	1696
270.613	2613
270.674	5432
270.734	1597
270.795	1425
270.856	2235
270.916	1627
270.977	2339
271.038	2181
271.098	2093
271.159	3031
271.219	1934
271.280	1553
271.340	1349
271.401	2506
271.462	5263
271.522	2761
271.583	1280
271.643	2169
271.704	1360
271.764	2613
271.825	5703
271.885	17622
271.946	16882
272.006	5906
272.066	10382
272.127	13942
272.187	4160
272.248	2524
272.308	3767
272.369	10514
272.429	4233
272.489	4558
272.550	3340
272.610	4662
272.671	2891
272.731	4814
272.791	5291
272.852	2186
272.912	2815
272.972	1388
273.033	1290
273.093	2833
273.153	2253
273.214	1806
273.274	2046
273.334	8239
273.394	11675
273.455	4434
273.515	6797
273.575	10958
273.635	4908
273.696	8762
273.756	13216
273.816	5613
273.876	3359
273.936	10085
273.997	12180
274.057	2988
274.117	2694
274.177	5621
274.237	18372
274.297	12973
274.358	11273
274.418	10650
274.478	6656
274.538	3340
274.598	3786
274.658	14510
274.718	13696
274.778	5360
274.838	3661
274.898	8807
274.958	19547
275.018	15639
275.078	8077
275.138	4169
275.198	2186
275.258	1731
275.318	2784
275.378	4415
275.438	4568
275.498	3779
275.558	11401
275.618	16531
275.678	8071
275.738	6466
275.798	4262
275.858	2223
275.918	1567
275.978	2116
276.038	1399
276.098	1120
276.157	4264
276.217	8661
276.277	3808
276.337	2678
276.397	1547
276.457	2422
276.517	1836
276.576	1652
276.636	696
276.696	2577
276.756	6964
276.815	3247
276.875	1695
276.935	2781
276.995	2299
277.055	1597
277.114	1034
277.174	2920
277.234	5658
277.293	2900
277.353	1481
277.413	1095
277.472	2109
277.532	1704
277.592	3147
277.651	9840
277.711	11507
277.771	4852
277.830	16187
277.890	9897
277.950	12831
278.009	24955
278.069	8661
278.128	12877
278.188	11085
278.248	6487
278.307	15849
278.367	7810
278.426	4112
278.486	1805
278.545	1770
278.605	2244
278.664	1710
278.724	2731
278.783	7250
278.843	13155
278.902	3567
278.962	3005
279.021	4066
279.081	7503
279.140	5940
279.199	4838
279.259	4476
279.318	4430
279.378	6789
279.437	12278
279.496	32929
279.556	92706
279.615	56469
279.675	17431
279.734	11336
279.793	17402
279.853	18347
279.912	8656
279.971	6236
280.031	5361
280.090	8283
280.149	11567
280.208	17109
280.268	66217
280.327	47852
280.386	13020
280.445	9978
280.505	7380
280.564	5404
280.623	4492
280.682	6116
280.742	6760
280.801	2932
280.860	1965
280.919	1734
280.978	2004
281.037	1719
281.097	1853
281.156	2721
281.215	2002
281.274	2425
281.333	9032
281.392	4792
281.451	2303
281.510	2783
281.569	2056
281.628	534
281.688	1117
281.747	1704
281.806	980
281.865	1371
281.924	1134
281.983	1059
282.042	892
282.101	337
282.160	1451
282.219	1079
282.278	1552
282.337	3253
282.396	2019
282.454	1716
282.513	2237
282.572	6787
282.631	3341
282.690	1435
282.749	1032
282.808	1696
282.867	1920
282.926	1228
282.985	1524
283.043	1005
283.102	1404
283.161	1243
283.220	4718
283.279	6404
283.338	2409
283.396	1718
283.455	946
283.514	2338
283.573	2849
283.631	1595
283.690	1836
283.749	2143
283.808	3342
283.866	3655
283.925	999
283.984	1177
284.043	2241
284.101	2466
284.160	1765
284.219	2391
284.277	2000
284.336	3826
284.395	9798
284.453	6382
284.512	3323
284.570	4327
284.629	3332
284.688	3325
284.746	3706
284.805	3822
284.863	5581
284.922	6670
284.981	8866
285.039	14239
285.098	25155
285.156	52032
285.215	86820
285.273	72352
285.332	40814
285.390	23748
285.449	16532
285.507	11069
285.566	8850
285.624	6468
285.683	6111
285.741	3555
285.799	3667
285.858	3302
285.916	2752
285.975	2847
286.033	2289
286.091	1847
286.150	1392
286.208	1977
286.267	1860
286.325	1695
286.383	3047
286.442	2143
286.500	2151
286.558	1816
286.616	1040
286.675	2197
286.733	1734
286.791	966
286.850	2422
286.908	2899
286.966	3918
287.024	1064
287.083	1067
287.141	1114
287.199	1941
287.257	2087
287.315	1925
287.374	1662
287.432	3661
287.490	2729
287.548	2037
287.606	1196
287.664	1560
287.723	2324
287.781	2778
287.839	1822
287.897	2881
287.955	3321
288.013	6444
288.071	15799
288.129	58627
288.187	110704
288.245	45238
288.303	16209
288.361	9468
288.419	6985
288.477	5541
288.535	4379
288.593	3917
288.651	2064
288.709	1372
288.767	1139
288.825	1029
288.883	1356
288.941	1245
288.999	742
289.057	962
289.115	741
289.173	1033
289.231	1232
289.289	900
289.346	23
289.404	1434
289.462	2283
289.520	2163
289.578	1471
289.636	694
289.694	1488
289.751	1056
289.809	850
289.867	1328
289.925	1430
289.983	959
290.040	677
290.098	567
290.156	1227
290.214	788
290.271	272
290.329	1558
290.387	429
290.444	845
290.502	-155
290.560	799
290.617	45
290.675	956
290.733	362
290.790	1108
290.848	1052
290.906	907
290.963	110
291.021	1033
291.078	81
291.136	1126
291.194	4091
291.251	6181
291.309	1554
291.366	1037
291.424	49
291.481	743
291.539	568
291.596	1045
291.654	-242
291.711	1065
291.769	1324
291.826	1864
291.884	985
291.941	119
291.999	414
292.056	1479
292.114	1389
292.171	965
292.228	1509
292.286	823
292.343	2049
292.401	1860
292.458	891
292.515	1938
292.573	1357
292.630	1662
292.687	1689
292.745	873
292.802	2098
292.859	4852
292.917	7252
292.974	3383
293.031	1542
293.089	520
293.146	827
293.203	1557
293.260	827
293.318	1812
293.375	1673
293.432	1001
293.489	1293
293.546	774
293.604	2063
293.661	8009
293.718	12835
293.775	5735
293.832	2902
293.889	2607
293.947	1904
294.004	1090
294.061	1423
294.118	4099
294.175	7446
294.232	8029
294.289	3223
294.346	1784
294.403	1901
294.460	1875
294.517	1344
294.574	891
294.631	713
294.688	2174
294.745	5154
294.802	15509
294.859	13717
294.916	5092
294.973	3254
295.030	2474
295.087	1834
295.144	1762
295.201	1314
295.258	598
295.315	2763
295.372	5831
295.429	8239
295.486	4374
295.542	2985
295.599	7422
295.656	9569
295.713	7080
295.770	8285
295.827	3278
295.883	1785
295.940	1854
295.997	2958
296.054	2546
296.111	1254
296.167	1256
296.224	1060
296.281	1121
296.338	1193
296.394	1118
296.451	1687
296.508	5024
296.564	7278
296.621	6607
296.678	13206
296.734	15565
296.791	5223
296.848	3503
296.904	3890
296.961	7921
297.018	11104
297.074	6473
297.131	3338
297.187	3261
297.244	3835
297.301	13557
297.357	16889
297.414	5872
297.470	2315
297.527	1715
297.583	1774
297.640	1516
297.696	1269
297.753	1223
297.809	1213
297.866	392
297.922	141
297.979	1067
298.035	945
298.092	2141
298.148	5648
298.204	4998
298.261	3518
298.317	6611
298.374	14346
298.430	7629
298.486	3733
298.543	3313
298.599	3443
298.656	3451
298.712	6033
298.768	12354
298.824	7517
298.881	3071
298.937	2071
298.993	1625
299.050	2252
299.106	1869
299.162	1373
299.218	1442
299.275	1534
299.331	2496
299.387	4572
299.443	12417
299.500	11422
299.556	4415
299.612	2111
299.668	2527
299.724	2513
299.780	3439
299.837	2699
299.893	3784
299.949	10299
300.005	10469
300.061	11359
300.117	16000
300.173	6988
300.229	4856
300.285	4932
300.341	4092
300.397	2133
300.453	1510
300.510	1410
300.566	2359
300.622	1571
300.678	6967
300.734	9983
300.790	9775
300.845	10579
300.901	7295
300.957	9229
301.013	6972
301.069	2427
301.125	2351
301.181	1159
301.237	1572
301.293	1104
301.349	1305
301.405	752
301.461	1217
301.516	1843
301.572	1462
301.628	2278
301.684	2932
301.740	4155
301.796	6462
301.851	4266
301.907	7431
301.963	8645
302.019	15102
302.074	34537
302.130	31120
302.186	14047
302.242	6217
302.297	4715
302.353	4872
302.409	6486
302.464	6689
302.520	5498
302.576	12744
302.631	13335
302.687	5981
302.743	3103
302.798	2118
302.854	1558
302.910	2169
302.965	2626
303.021	4650
303.076	4337
303.132	5558
303.187	4938
303.243	3226
303.299	2137
303.354	1327
303.410	1798
303.465	1668
303.521	926
303.576	1749
303.632	2758
303.687	5100
303.743	11707
303.798	9232
303.853	3499
303.909	2735
303.964	2222
304.020	3177
304.075	4930
304.130	3550
304.186	6737
304.241	6852
304.297	4719
304.352	3146
304.358	2973
304.407	1566
304.449	2028
304.463	2187
304.518	1754
304.539	1563
304.573	1252
304.629	2077
304.630	2101
304.684	3370
304.720	7809
304.739	9985
304.794	13135
304.811	11513
304.850	7309
304.902	2876
304.905	2610
304.960	2153
304.992	2355
305.015	2512
305.071	2500
305.083	2369
305.126	1770
305.173	1308
305.181	1261
305.236	1283
305.264	1475
305.292	1665
305.347	2527
305.354	2446
305.402	2037
305.445	2519
305.457	2618
305.512	3197
305.535	3238
305.567	3325
305.622	3244
305.626	3397
305.678	7879
305.716	13484
305.733	15044
305.788	15114
305.807	13576
305.843	11175
305.897	14645
305.898	14677
305.953	12692
305.988	9033
306.008	7128
306.063	4684
306.078	4044
306.118	2792
306.168	2354
306.173	2336
306.228	1617
306.259	1429
306.283	1360
306.338	2288
306.349	2206
306.393	2205
306.440	3372
306.448	3508
306.503	3362
306.530	3408
306.558	4678
306.613	9150
306.620	9656
306.668	13223
306.711	17395
306.723	17241
306.778	12833
306.801	9905
306.833	6929
306.888	3307
306.892	3181
306.943	3336
306.982	2815
306.997	2669
307.052	2832
307.072	2796
307.107	3064
307.162	3603
307.163	3610
307.217	5592
307.253	6635
307.272	6686
307.327	6341
307.343	6125
307.381	5801
307.434	5929
307.436	6196
307.491	12204
307.524	17130
307.546	17692
307.600	16229
307.614	15217
307.655	10451
307.704	5271
307.710	5297
307.765	7601
307.795	8758
307.819	10277
307.874	15285
307.885	15656
307.929	13405
307.975	11702
307.984	12609
308.038	20031
308.065	24950
308.093	42868
308.148	84150
308.156	91628
308.202	129688
308.246	153076
308.257	145418
308.312	84742
308.336	59677
308.366	46347
308.421	27269
308.426	25369
308.475	17087
308.517	12125
308.530	11743
308.585	10030
308.607	9656
308.639	9923
308.694	10295
308.697	10350
308.748	17001
308.787	22255
308.803	21667
308.857	17338
308.877	15806
308.912	15580
308.967	16085
308.967	16055
309.021	23500
309.058	29381
309.076	37688
309.130	65303
309.148	75233
309.185	122844
309.238	197802
309.239	198625
309.293	207760
309.328	200834
309.348	174877
309.402	95553
309.418	74260
309.457	55047
309.508	33037
309.511	32780
309.566	28860
309.598	26828
309.620	29490
309.674	36622
309.688	38594
309.729	36837
309.778	32703
309.783	32135
309.837	24477
309.868	20292
309.892	23728
309.946	32496
309.959	34724
310.001	42936
310.049	51203
310.055	49313
310.109	29290
310.139	18341
310.163	15156
310.218	8847
310.229	7630
310.272	6966
310.319	6195
310.326	6064
310.381	5337
310.409	4844
310.435	4904
310.489	5270
310.499	5291
310.543	5263
310.589	5202
310.598	5225
310.652	5401
310.679	5449
310.706	4929
310.760	3784
310.769	3579
310.814	3830
310.859	4127
310.868	4090
310.923	3883
310.948	3755
310.977	4293
311.031	5353
311.038	5477
311.085	4891
311.128	4208
311.139	4203
311.193	4226
311.218	4203
311.247	4034
311.301	3630
311.308	3586
311.356	3764
311.398	3754
311.410	3714
311.464	3545
311.488	3463
311.518	3649
311.572	3933
311.578	3951
311.626	5716
311.668	7299
311.680	7210
311.734	6610
311.758	6324
311.788	6252
311.842	6054
311.847	6017
311.896	8055
311.937	9759
311.950	9530
312.004	8371
312.027	7820
312.058	7194
312.112	6053
312.117	5917
312.165	5256
312.207	4657
312.297	6909
312.386	5458
312.476	5522
312.566	12158
312.656	6272
312.745	3946
312.835	4362
312.925	5277
313.015	4684
313.104	5566
313.194	4233
313.284	4662
313.374	6402
313.463	6007
313.553	4923
313.643	3846
313.732	3861
313.822	3523
313.912	4479
314.001	5365
314.091	6133
314.180	7818
314.270	6830
314.360	7264
314.449	6632
314.539	4150
314.628	4107
314.718	4885
314.808	5447
314.897	4250
314.987	4619
315.076	5269
315.166	7293
315.255	6023
315.345	7929
315.434	6077
315.524	6532
315.613	6939
315.703	9831
315.792	13263
315.881	31298
315.971	15627
316.060	13409
316.150	15822
316.239	16434
316.328	6636
316.418	4713
316.507	4631
316.597	7094
316.686	6028
316.775	8594
316.865	16854
316.954	5427
317.043	3465
317.133	4948
317.222	3911
317.311	4575
317.400	3653
317.490	7270
317.579	8063
317.668	6369
317.757	9178
317.847	19884
317.936	56747
318.025	30823
318.114	15835
318.203	11798
318.293	13616
318.382	26544
318.471	20382
318.560	26615
318.649	47384
318.738	13064
318.828	7457
318.917	8986
319.006	9788
319.095	21291
319.184	57929
319.273	36351
319.362	19176
319.451	7912
319.540	7989
319.629	14685
319.718	25397
319.807	12600
319.896	20641
319.985	70756
320.074	31082
320.163	9214
320.252	11502
320.341	9594
320.430	9857
320.519	12314
320.608	8265
320.697	6767
320.786	6903
320.875	8585
320.964	11599
321.053	17895
321.142	24162
321.230	26966
321.319	18222
321.408	42038
321.497	18561
321.586	17368
321.675	17342
321.764	18386
321.852	13289
321.941	24746
322.030	17797
322.119	17974
322.207	42695
322.296	27197
322.385	13430
322.474	18115
322.562	51316
322.651	29063
322.740	18808
322.829	25129
322.917	22951
323.006	15705
323.095	13760
323.183	11622
323.272	17202
323.361	25589
323.449	66238
323.538	25201
323.626	43879
323.715	29516
323.804	13246
323.892	40705
323.981	26992
324.069	9064
324.158	21416
324.246	21895
324.335	9779
324.424	16303
324.512	6680
324.601	8890
324.689	15940
324.778	30264
324.866	18211
324.954	7326
325.043	6352
325.131	11468
325.220	18056
325.308	19902
325.397	15135
325.485	10220
325.574	4093
325.662	4795
325.750	5744
325.839	5199
325.927	4295
326.015	5681
326.104	7870
326.192	11170
326.280	4652
326.369	4684
326.457	7030
326.545	13624
326.634	7686
326.722	4191
326.810	4380
326.898	4263
326.987	5305
327.075	11768
327.163	12415
327.251	6793
327.340	11214
327.428	17869
327.516	4520
327.604	4861
327.692	4713
327.781	5391
327.869	8453
327.957	6676
328.045	6396
328.133	4364
328.221	5114
328.309	4905
328.397	4017
328.485	5899
328.574	8133
328.662	27268
328.750	16339
328.838	6104
328.926	4481
329.014	4853
329.102	6627
329.190	16561
329.278	12087
329.366	4623
329.454	3920
329.542	5026
329.630	3933
329.718	4982
329.806	6445
329.893	7574
329.981	10188
330.069	20132
330.157	61099
330.245	133706
330.333	80648
330.421	20906
330.509	13837
330.597	35642
330.684	24441
330.772	9404
330.860	9306
330.948	13215
331.036	6648
331.123	3425
331.211	3875
331.299	5173
331.387	10752
331.475	20404
331.562	6611
331.650	4893
331.738	4120
331.825	5808
331.913	3545
332.001	4262
332.089	5504
332.176	10053
332.264	19801
332.352	17548
332.439	6466
332.527	4907
332.614	4248
332.702	5262
332.790	4541
332.877	10887
332.965	20597
333.052	8508
333.140	7653
333.228	17676
333.315	6962
333.403	5636
333.490	11861
333.578	13346
333.665	21503
333.753	12590
333.840	4419
333.928	6723
334.015	13687
334.103	23529
334.190	68824
334.278	21251
334.365	8174
334.452	6741
334.540	5527
334.627	6385
334.715	8781
334.802	17682
334.889	73120
334.977	76292
335.064	13023
335.151	6520
335.239	6585
335.326	9520
335.413	34506
335.501	50593
335.588	9600
335.675	6132
335.762	7436
335.850	13113
335.937	10432
336.024	21977
336.111	80208
336.199	36489
336.286	8556
336.373	5758
336.460	4255
336.547	4296
336.635	5491
336.722	5564
336.809	4878
336.896	8630
336.983	22322
337.070	53901
337.157	74226
337.245	50966
337.332	37729
337.419	5993
337.506	4953
337.593	6447
337.680	17016
337.767	51380
337.854	15293
337.941	16626
338.028	17744
338.115	7408
338.202	7606
338.289	16019
338.376	48029
338.463	19197
338.550	28928
338.637	34220
338.724	11113
338.811	14482
338.898	4509
338.984	4280
339.071	4825
339.158	6397
339.245	16183
339.332	11200
339.419	11206
339.506	11399
339.593	2840
339.679	3826
339.766	4283
339.853	6055
339.940	12567
340.027	5408
340.113	5175
340.200	6912
340.287	4728
340.374	6214
340.460	11038
340.547	5450
340.634	9431
340.720	32519
340.807	20062
340.894	4308
340.980	4622
341.067	4391
341.154	4786
341.240	6834
341.327	16632
341.414	6893
341.500	5945
341.587	5095
341.674	3727
341.760	10558
341.847	13598
341.933	4938
342.020	1907
342.106	3132
342.193	5175
342.279	9316
342.366	6791
342.452	11959
342.539	7732
342.625	14388
342.712	35687
342.798	15588
342.885	6628
342.971	3096
343.058	2663
343.144	3075
343.230	3858
343.317	3914
343.403	2924
343.490	2756
343.576	3549
343.662	3760
343.749	4832
343.835	6710
343.921	10790
344.008	51643
344.094	112098
344.180	28948
344.267	11552
344.353	30875
344.439	34123
344.525	18906
344.612	12197
344.698	12403
344.784	8415
344.870	3812
344.957	3548
345.043	7144
345.129	5093
345.215	11582
345.301	6304
345.387	3573
345.474	2546
345.560	3765
345.646	3759
345.732	4740
345.818	4327
345.904	5100
345.990	4973
346.076	4865
346.162	8150
346.249	4712
346.335	3640
346.421	4695
346.507	13845
346.593	43395
346.679	12812
346.765	5072
346.851	4078
346.937	4530
347.023	4328
347.108	5557
347.194	4431
347.280	4447
347.366	4945
347.452	15194
347.538	52567
347.624	41847
347.710	32969
347.796	6606
347.882	3862
347.967	3855
348.053	5019
348.139	4134
348.225	3204
348.311	3734
348.397	3806
348.482	4938
348.568	5850
348.654	3442
348.740	4250
348.825	4839
348.911	8053
348.997	25086
349.083	48472
349.168	9804
349.254	4133
349.340	5452
349.425	3369
349.511	5695
349.597	6282
349.682	11710
349.768	33106
349.854	17753
349.939	4706
350.025	3973
350.110	4354
350.196	2276
350.282	2099
350.367	3177
350.453	5259
350.538	5511
350.624	5781
350.709	5050
350.795	3254
350.880	3287
350.966	4538
351.051	6370
351.137	4272
351.222	4341
351.308	11934
351.393	32657
351.479	9665
351.564	4060
351.649	4152
351.735	3544
351.820	3477
351.906	4144
351.991	5416
352.076	21225
352.162	31609
352.247	7958
352.332	5754
352.418	9797
352.503	12709
352.588	45600
352.673	39342
352.759	9977
352.844	5471
352.929	5671
353.014	7808
353.100	4788
353.185	6761
353.270	12958
353.355	13783
353.441	4301
353.526	5598
353.611	12166
353.696	14184
353.781	8509
353.866	4221
353.952	4917
354.037	11466
354.122	25801
354.207	24466
354.292	11169
354.377	4670
354.462	4531
354.547	5640
354.632	5541
354.717	6776
354.802	6752
354.887	3800
354.972	4676
355.057	3203
355.142	3319
355.227	5362
355.312	9063
355.397	18519
355.482	40582
355.567	22888
355.652	14366
355.737	15470
355.822	40624
355.907	34434
355.991	7343
356.076	4646
356.161	3912
356.246	3910
356.331	4946
356.416	10390
356.501	59028
356.585	64688
356.670	11309
356.755	8854
356.840	10595
356.924	45056
357.009	149286
357.094	64295
357.179	16121
357.263	11507
357.348	10143
357.433	10416
357.517	9586
357.602	8187
357.687	6917
357.771	11207
357.856	32944
357.941	22937
358.025	38653
358.110	145860
358.195	76403
358.279	14431
358.364	11463
358.448	31845
358.533	80286
358.617	61287
358.702	57304
358.787	23444
358.871	14091
358.956	12243
359.040	5344
359.125	4040
359.209	5653
359.294	15310
359.378	29288
359.462	12833
359.547	7206
359.631	4722
359.716	3706
359.800	3893
359.885	6911
359.969	4199
360.053	4181
360.138	4557
360.222	7430
360.306	13085
360.391	10888
360.475	19293
360.559	43412
360.644	34405
360.728	24991
360.812	35466
360.896	92101
360.981	44434
361.065	25751
361.149	7615
361.233	6881
361.318	5477
361.402	6039
361.486	5301
361.570	4724
361.654	7204
361.739	16792
361.823	62186
361.907	91407
361.991	20423
362.075	11822
362.159	25323
362.243	19548
362.327	16504
362.411	16656
362.495	10604
362.580	7067
362.664	4563
362.748	5327
362.832	7096
362.916	11868
363.000	30337
363.084	75844
363.168	108553
363.252	31611
363.336	12211
363.420	15308
363.503	50942
363.587	61568
363.671	12553
363.755	8960
363.839	12226
363.923	8657
364.007	14927
364.091	16832
364.175	21115
364.258	82552
364.342	62763
364.426	51612
364.510	29238
364.594	19116
364.677	20944
364.761	79098
364.845	60055
364.929	24109
365.013	19030
365.096	16029
365.180	18920
365.264	21058
365.347	78518
365.431	36780
365.515	10430
365.598	5749
365.682	5929
365.766	8711
365.849	11294
365.933	7241
366.017	8707
366.100	6554
366.184	2878
366.267	5088
366.351	4207
366.435	3656
366.518	3483
366.602	3173
366.685	3186
366.769	5666
366.852	8309
366.936	15307
367.019	9200
367.103	7349
367.186	12208
367.270	5237
367.353	2869
367.436	4404
367.520	3536
367.603	5578
367.687	8842
367.770	15671
367.853	9243
367.937	23481
368.020	39288
368.104	11730
368.187	11430
368.270	17027
368.353	14718
368.437	17841
368.520	31995
368.603	24048
368.687	30015
368.770	57454
368.853	16153
368.936	15197
369.020	15188
369.103	6544
369.186	4129
369.269	5557
369.352	10660
369.436	14600
369.519	9513
369.602	5284
369.685	6072
369.768	6434
369.851	5402
369.934	3558
370.018	5198
370.101	12914
370.184	10389
370.267	7446
370.350	12077
370.433	19675
370.516	41655
370.599	51606
370.682	19590
370.765	33457
370.848	39587
370.931	66504
371.014	27145
371.097	7522
371.180	5023
371.263	3554
371.346	3057
371.429	4007
371.511	4205
371.594	8542
371.677	11759
371.760	14303
371.843	14261
371.926	53141
372.009	119386
372.091	43393
372.174	26800
372.257	56575
372.340	24322
372.423	20290
372.505	23494
372.588	11557
372.671	21366
372.754	66279
372.836	35117
372.919	24094
373.002	48606
373.085	17386
373.167	12860
373.250	30425
373.332	58070
373.415	80078
373.498	161433
373.580	67751
373.663	77578
373.746	106337
373.828	30062
373.911	13131
373.993	13318
374.076	44594
374.159	44408
374.241	20787
374.324	58292
374.406	41312
374.489	46155
374.571	125576
374.654	55489
374.736	28233
374.819	76316
374.901	112224
374.983	117731
375.066	25074
375.148	9739
375.231	36185
375.313	71449
375.395	28758
375.478	6645
375.560	5597
375.643	7580
375.725	26446
375.807	98498
375.890	79531
375.972	32972
376.054	19870
376.136	26567
376.219	14031
376.301	28703
376.383	84143
376.465	36372
376.548	24291
376.630	27697
376.712	74340
376.794	35941
376.877	5573
376.959	2682
377.041	5095
377.123	9288
377.205	12100
377.287	3025
377.369	3541
377.452	3433
377.534	3924
377.616	3982
377.698	4122
377.780	2669
377.862	4887
377.944	4345
378.026	3118
378.108	2928
378.190	3179
378.272	3028
378.354	3073
378.436	2441
378.518	6705
378.600	21093
378.682	19479
378.764	41207
378.846	33283
378.928	10020
379.010	13347
379.091	8927
379.173	4560
379.255	3626
379.337	5902
379.419	19044
379.501	57600
379.583	24202
379.664	7870
379.746	14838
379.828	40150
379.910	55266
379.991	48517
380.073	10249
380.155	6330
380.237	5037
380.318	3878
380.400	4419
380.482	10423
380.564	16125
380.645	13917
380.727	14218
380.809	9401
380.890	5993
380.972	4951
381.053	4626
381.135	6266
381.217	14235
381.298	43977
381.380	23849
381.461	18639
381.543	74137
381.624	97019
381.706	20871
381.787	11038
381.869	12292
381.951	33505
382.032	119291
382.113	82130
382.195	21574
382.276	14693
382.358	25374
382.439	64487
382.521	74026
382.602	115429
382.684	59497
382.765	106370
382.846	126030
382.928	172310
383.009	103723
383.090	80776
383.172	247282
383.253	356869
383.334	134359
383.416	113693
383.497	64657
383.578	38352
383.659	72948
383.741	226447
383.822	501820
383.903	277451
383.984	98408
384.066	138003
384.147	91513
384.228	24396
384.309	17066
384.390	13078
384.471	9743
384.553	10853
384.634	13432
384.715	14736
384.796	8696
384.877	10613
384.958	37323
385.039	48387
385.120	18478
385.201	9804
385.282	10715
385.363	10996
385.444	10910
385.525	17737
385.606	51319
385.687	44592
385.768	13648
385.849	16090
385.930	57869
386.011	98449
386.092	29902
386.173	9834
386.254	6674
386.335	7758
386.416	7371
386.496	25566
386.577	42616
386.658	17190
386.739	10242
386.820	9248
386.901	7400
386.981	8100
387.062	6179
387.143	10961
387.224	38817
387.304	37563
387.385	14886
387.466	9093
387.547	10486
387.627	8520
387.708	15002
387.789	65594
387.869	79789
387.950	22708
388.031	5610
388.111	5809
388.192	13476
388.273	18847
388.353	12219
388.434	7370
388.514	13901
388.595	57077
388.676	77421
388.756	42883
388.837	40408
388.917	26830
388.998	5902
389.078	6115
389.159	5220
389.239	4689
389.320	9088
389.400	7187
389.480	14230
389.561	39111
389.641	20958
389.722	9267
389.802	13149
389.883	17713
389.963	43721
390.043	30414
390.124	10399
390.204	15851
390.284	49203
390.365	33309
390.445	37792
390.525	108245
390.605	99776
390.686	29312
390.766	10578
390.846	6550
390.927	4553
391.007	5118
391.087	5740
391.167	5900
391.247	4348
391.328	8342
391.408	11856
391.488	9350
391.568	3683
391.648	6302
391.728	9557
391.808	9984
391.888	10975
391.969	21675
392.049	36662
392.129	17713
392.209	17574
392.289	44019
392.369	26386
392.449	22631
392.529	15432
392.609	12301
392.689	15246
392.769	42555
392.849	39115
392.929	27810
393.009	63045
393.089	52191
393.169	48849
393.248	142729
393.328	449858
393.408	503848
393.488	163050
393.568	47278
393.648	24626
393.728	16195
393.807	12405
393.887	12281
393.967	11030
394.047	13248
394.127	16686
394.206	30006
394.286	94436
394.366	339004
394.446	382134
394.525	118324
394.605	34229
394.685	22915
394.764	32469
394.844	53993
394.924	39886
395.003	15003
395.083	11730
395.163	9633
395.242	9176
395.322	9805
395.402	7418
395.481	10910
395.561	22456
395.640	60478
395.720	50444
395.799	66480
395.879	59508
395.958	47515
396.038	142327
396.117	431087
396.197	487693
396.276	193135
396.356	67044
396.435	41626
396.515	28526
396.594	28759
396.673	47774
396.753	153053
396.832	431119
396.912	361968
396.991	94370
397.070	29004
397.150	15900
397.229	12395
397.308	12628
397.388	20665
397.467	13293
397.546	7151
397.625	4589
397.705	8502
397.784	8846
397.863	5184
397.942	4095
398.022	5531
398.101	16100
398.180	50362
398.259	29020
398.338	8368
398.417	6005
398.497	4376
398.576	4408
398.655	3579
398.734	3560
398.813	4301
398.892	15183
398.971	53308
399.050	29869
399.129	4794
399.208	2781
399.287	3658
399.366	2765
399.445	3660
399.524	3046
399.603	2474
399.682	6864
399.761	18670
399.840	56633
399.919	47902
399.998	7610
400.077	3587
400.156	2008
400.235	4341
400.313	2247
400.392	4367
400.471	22407
400.550	38466
400.629	9951
400.708	5077
400.786	4197
400.865	11422
400.944	13052
401.023	8186
401.102	1740
401.180	2558
401.259	2023
401.338	3044
401.416	4789
401.495	4309
401.574	3442
401.652	3125
401.731	4815
401.810	3973
401.888	2013
401.967	2082
402.046	2637
402.124	4934
402.203	6441
402.281	4398
402.360	4285
402.438	14805
402.517	10850
402.596	4048
402.674	3758
402.753	2998
402.831	3035
402.910	4499
402.988	9372
403.066	33101
403.145	21328
403.223	11583
403.302	28387
403.380	20643
403.459	18823
403.537	8620
403.615	4477
403.694	1896
403.772	2525
403.850	1920
403.929	1566
404.007	2064
404.085	5342
404.164	5625
404.242	4087
404.320	16184
404.398	48804
404.477	57895
404.555	101154
404.633	93876
404.711	42789
404.789	25801
404.868	7378
404.946	3498
405.024	2877
405.102	2436
405.180	1971
405.258	1668
405.336	2859
405.415	2606
405.493	5598
405.571	5978
405.649	2049
405.727	2162
405.805	4663
405.883	3880
405.961	4730
406.039	4843
406.117	2232
406.195	5493
406.273	22077
406.351	83799
406.429	51195
406.507	9312
406.585	3341
406.663	3708
406.740	5251
406.818	3975
406.896	2562
406.974	3456
407.052	7274
407.130	48200
407.208	71467
407.285	16098
407.363	3334
407.441	3327
407.519	2566
407.596	4012
407.674	13271
407.752	48813
407.830	44067
407.907	13178
407.985	3859
408.063	2468
408.141	2309
408.218	4564
408.296	3547
408.373	3040
408.451	3878
408.529	4105
408.606	1649
408.684	1906
408.762	332
408.839	1297
408.917	1490
408.994	1647
409.072	1333
409.149	2247
409.227	3595
409.304	3573
409.382	3035
409.459	3478
409.537	4920
409.614	5402
409.692	3391
409.769	3668
409.846	4810
409.924	7170
410.001	5152
410.079	4624
410.156	3947
410.233	3955
410.311	3202
410.388	2399
410.465	3842
410.543	3911
410.620	2435
410.697	3538
410.775	3611
410.852	1428
410.929	3709
411.006	5743
411.083	2713
411.161	7084
411.238	8436
411.315	4032
411.392	1920
411.469	4617
411.547	4749
411.624	2472
411.701	2295
411.778	3237
411.855	7916
411.932	4460
412.009	1729
412.086	2465
412.163	2970
412.240	2806
412.317	3775
412.394	3765
412.471	1385
412.548	2202
412.625	1970
412.702	3279
412.779	5866
412.856	5474
412.933	1270
413.010	2228
413.087	4279
413.164	20894
413.241	32048
413.318	8503
413.395	6047
413.471	7887
413.548	3827
413.625	2098
413.702	2987
413.779	2100
413.855	699
413.932	898
414.009	515
414.086	1538
414.162	1556
414.239	4554
414.316	19392
414.393	46555
414.469	17801
414.546	1531
414.623	1558
414.699	1975
414.776	2450
414.853	1829
414.929	1731
415.006	2523
415.082	2470
415.159	2616
415.236	2037
415.312	2512
415.389	4677
415.465	6594
415.542	3472
415.618	2050
415.695	5188
415.771	3540
415.848	2925
415.924	2116
416.000	2455
416.077	2664
416.153	554
416.230	52
416.306	32
416.383	1739
416.459	1756
416.535	1240
416.612	911
416.688	1612
416.764	1190
416.841	1124
416.917	1177
416.993	2245
417.069	2374
417.146	4020
417.222	6931
417.298	4418
417.374	1079
417.451	2555
417.527	2814
417.603	4221
417.679	2592
417.755	2442
417.831	885
417.908	1208
417.984	941
418.060	548
418.136	5817
418.212	7965
418.288	2927
418.364	2013
418.440	1637
418.516	4470
418.592	4780
418.668	9648
418.744	14761
418.820	11866
418.896	2405
418.972	1387
419.048	2268
419.124	7533
419.200	5169
419.276	2265
419.352	396
419.428	1421
419.504	1379
419.579	3285
419.655	2294
419.731	2720
419.807	8930
419.883	18283
419.959	12758
420.034	3245
420.110	6173
420.186	28770
420.262	23672
420.337	5252
420.413	3616
420.489	2341
420.565	1914
420.640	989
420.716	2207
420.792	1249
420.867	2581
420.943	1852
421.019	4258
421.094	3431
421.170	2213
421.245	906
421.321	2272
421.397	3386
421.472	8860
421.548	26304
421.623	18025
421.699	6146
421.774	4731
421.850	4373
421.925	7134
422.001	6882
422.076	5139
422.152	6472
422.227	10695
422.302	12168
422.378	17393
422.453	32174
422.529	73637
422.604	203228
422.679	325914
422.755	233085
422.830	91584
422.905	35685
422.981	18560
423.056	12834
423.131	8699
423.207	6877
423.282	6770
423.357	10879
423.432	8020
423.508	7595
423.583	15037
423.658	12646
423.733	4745
423.808	5403
423.883	6024
423.959	4906
424.034	3572
424.109	3608
424.184	1698
424.259	1470
424.334	1457
424.409	1471
424.484	1517
424.559	1970
424.634	1612
424.709	3353
424.784	4177
424.859	2878
424.934	4167
425.009	19043
425.084	33940
425.159	13534
425.234	2867
425.309	1797
425.384	8243
425.459	15085
425.534	4651
425.609	1920
425.683	1872
425.758	1771
425.833	1529
425.908	3169
425.983	10712
426.058	35928
426.132	16196
426.207	3120
426.282	4844
426.357	3565
426.431	1382
426.506	2247
426.581	1797
426.655	2445
426.730	1327
426.805	1470
426.879	1567
426.954	1476
427.029	5144
427.103	28517
427.178	73135
427.253	34724
427.327	4960
427.402	5545
427.476	16472
427.551	9266
427.625	3158
427.700	1978
427.774	888
427.849	2323
427.923	671
427.998	1748
428.072	1551
428.147	5798
428.221	21861
428.296	68556
428.370	39217
428.444	5964
428.519	5029
428.593	11052
428.667	10231
428.742	11903
428.816	11538
428.890	41715
428.965	71618
429.039	26361
429.113	13895
429.188	5665
429.262	1190
429.336	4953
429.410	15483
429.485	11286
429.559	9760
429.633	8199
429.707	2865
429.781	8088
429.855	44604
429.930	72500
430.004	37016
430.078	50498
430.152	50878
430.226	89712
430.300	96492
430.374	17407
430.448	5785
430.522	15939
430.596	50868
430.670	34810
430.744	71873
430.818	110650
430.892	25952
430.966	4435
431.040	2189
431.114	1549
431.188	712
431.262	1589
431.336	1346
431.410	4429
431.484	13774
431.557	11268
431.631	1693
431.705	3277
431.779	11857
431.853	56501
431.927	42737
432.000	6030
432.074	1662
432.148	2086
432.222	2044
432.295	1200
432.369	1095
432.443	4141
432.516	26097
432.590	69691
432.664	27700
432.737	3730
432.811	1002
432.885	569
432.958	1430
433.032	1132
433.106	-160
433.179	333
433.253	419
433.326	762
433.400	762
433.473	701
433.547	17
433.620	1574
433.694	2952
433.767	4170
433.841	89
433.914	1391
433.988	472
434.061	1374
434.134	410
434.208	267
434.281	352
434.355	614
434.428	1150
434.501	1632
434.575	291
434.648	489
434.721	188
434.795	768
434.868	448
434.941	295
435.014	544
435.088	1235
435.161	2184
435.234	3925
435.307	4654
435.381	2274
435.454	1606
435.527	1270
435.600	1887
435.673	1938
435.746	1220
435.819	1622
435.892	849
435.966	1093
436.039	1342
436.112	1099
436.185	122
436.258	302
436.331	35
436.404	280
436.477	318
436.550	136
436.623	615
436.696	208
436.769	646
436.842	992
436.915	524
436.987	2477
437.060	1448
437.133	1047
437.206	-184
437.279	1327
437.352	355
437.425	-92
437.498	1142
437.570	4114
437.643	3557
437.716	1221
437.789	398
437.861	2699
437.934	10169
438.007	4917
438.080	723
438.152	2534
438.225	4900
438.298	31097
438.370	91455
438.443	41008
438.516	9729
438.588	1942
438.661	173
438.734	1260
438.806	1252
438.879	2298
438.951	2475
439.024	4755
439.096	1714
439.169	350
439.241	920
439.314	186
439.386	1843
439.459	2349
439.531	4925
439.604	1994
439.676	533
439.749	-292
439.821	152
439.893	787
439.966	912
440.038	1495
440.110	1531
440.183	1462
440.255	408
440.327	2514
440.400	12701
440.472	59018
440.544	40448
440.617	5768
440.689	3691
440.761	5360
440.833	7772
440.905	5509
440.978	966
441.050	640
441.122	540
441.194	140
441.266	611
441.338	496
441.411	2789
441.483	18305
441.555	28655
441.627	6654
441.699	3181
441.771	3157
441.843	666
441.915	646
441.987	530
442.059	137
442.131	2347
442.203	3262
442.275	3112
442.347	3389
442.419	4909
442.491	23901
442.563	57123
442.635	26613
442.706	14538
442.778	12069
442.850	2698
442.922	1501
442.994	1632
443.066	3689
443.137	2170
443.209	2130
443.281	3683
443.353	9027
443.425	31111
443.496	108204
443.568	104826
443.640	38270
443.711	8248
443.783	3813
443.855	1594
443.926	1003
443.998	1378
444.070	2804
444.141	1877
444.213	3605
444.285	4414
444.356	2869
444.428	2534
444.499	966
444.571	-292
444.642	346
444.714	1446
444.785	2817
444.857	3807
444.928	8550
445.000	4602
445.071	6274
445.143	6180
445.214	4944
445.285	8097
445.357	24774
445.428	75379
445.500	173466
445.571	106924
445.642	50559
445.714	20019
445.785	16726
445.856	4911
445.928	5051
445.999	3492
446.070	3331
446.141	3090
446.213	4003
446.284	2239
446.355	1606
446.426	952
446.497	955
446.569	2438
446.640	4686
446.711	3699
446.782	1805
446.853	1068
446.924	2235
446.995	1224
447.066	2526
447.138	3171
447.209	1427
447.280	-468
447.351	143
447.422	-175
447.493	721
447.564	1587
447.635	2153
447.706	464
447.777	1032
447.847	-207
447.918	-451
447.989	1534
448.060	2387
448.131	5383
448.202	5207
448.273	3601
448.344	1330
448.414	-95
448.485	31
448.556	440
448.627	121
448.698	143
448.768	180
448.839	129
448.910	2683
448.981	2449
449.051	978
449.122	953
449.193	485
449.263	548
449.334	654
449.405	1493
449.475	4296
449.546	2839
449.616	3903
449.687	2563
449.758	786
449.828	797
449.899	-340
449.969	-181
450.040	-13
450.110	721
450.181	1187
450.251	545
450.322	597
450.392	391
450.463	115
450.533	-154
450.604	340
450.674	131
450.744	561
450.815	507
450.885	1506
450.955	655
451.026	-339
451.096	236
451.166	1323
451.237	2138
451.307	8610
451.377	3565
451.447	372
451.518	132
451.588	181
451.658	-56
451.728	2003
451.799	8459
451.869	10509
451.939	1905
452.009	953
452.079	-308
452.149	542
452.219	1811
452.289	10996
452.360	8084
452.430	1530
452.500	19
452.570	1503
452.640	2909
452.710	6999
452.780	11384
452.850	8753
452.920	7983
452.990	2711
453.060	1383
453.129	2521
453.199	3071
453.269	10936
453.339	25491
453.409	40088
453.479	37361
453.549	55083
453.619	58834
453.688	21728
453.758	3269
453.828	1275
453.898	419
453.968	258
454.037	842
454.087	707
454.107	641
454.168	241
454.177	168
454.247	300
454.249	333
454.316	838
454.330	769
454.386	424
454.411	1742
454.456	3788
454.492	5690
454.525	7357
454.574	3608
454.595	1986
454.655	421
454.665	174
454.734	714
454.736	802
454.804	3271
454.817	4405
454.873	8672
454.898	9405
454.943	10474
454.979	6559
455.013	3102
455.060	1680
455.082	1161
455.141	1739
455.152	1838
455.221	6582
455.222	6727
455.291	14940
455.303	15092
455.360	14728
455.384	22191
455.430	34731
455.465	26670
455.499	18901
455.546	12557
455.569	9641
455.627	6333
455.638	5762
455.707	1079
455.708	1091
455.777	822
455.789	825
455.846	818
455.869	731
455.916	654
455.950	861
455.985	982
456.031	823
456.054	681
456.112	222
456.124	150
456.193	277
456.193	264
456.262	1078
456.274	1255
456.332	2016
456.355	1962
456.401	1613
456.436	1207
456.470	878
456.516	822
456.540	800
456.597	316
456.609	188
456.678	455
456.678	445
456.747	1093
456.759	919
456.817	6
456.840	191
456.886	425
456.920	326
456.955	322
457.001	1188
457.024	1585
457.082	1281
457.093	1279
457.162	2104
457.163	2121
457.232	2500
457.243	2440
457.301	1817
457.324	1329
457.370	515
457.405	740
457.439	971
457.485	966
457.508	1055
457.566	789
457.577	718
457.646	1703
457.647	1716
457.715	2534
457.727	2753
457.784	4082
457.808	5119
457.853	6682
457.889	8417
457.922	8911
457.969	7049
457.991	7019
458.050	6994
458.060	7048
458.129	10745
458.130	10883
458.198	13238
458.211	12686
458.267	8437
458.292	6170
458.336	3886
458.372	3730
458.405	4416
458.453	4723
458.474	5607
458.533	10787
458.543	11468
458.611	19921
458.614	20131
458.680	16118
458.694	13810
458.749	6606
458.775	4620
458.818	3104
458.855	2557
458.887	2205
458.936	2344
458.955	2350
459.016	1801
459.024	1788
459.093	2541
459.097	2532
459.162	1800
459.177	1858
459.230	2408
459.257	2664
459.299	2846
459.338	2881
459.368	2984
459.418	3420
459.437	3389
459.499	2605
459.505	2543
459.574	1758
459.579	1783
459.643	2080
459.659	2120
459.711	2394
459.740	2499
459.780	2742
459.820	2777
459.849	2703
459.900	3285
459.917	3411
459.981	3516
459.986	3503
460.054	3216
460.061	3199
460.123	3398
460.141	3618
460.191	4730
460.222	5176
460.260	5414
460.302	5928
460.328	5889
460.382	5429
460.397	5289
460.462	4507
460.465	4582
460.534	6834
460.543	7089
460.602	18375
460.623	22972
460.671	36357
460.703	49885
460.739	51880
460.783	49894
460.808	42337
460.864	9984
460.876	7189
460.944	3225
460.945	3192
461.013	2782
461.024	2815
461.081	2955
461.104	3090
461.150	3029
461.184	2826
461.218	2800
461.264	2618
461.286	2566
461.345	2595
461.355	2549
461.423	2548
461.425	2533
461.491	2043
461.505	2127
461.559	4345
461.585	5148
461.628	7884
461.665	10782
461.696	12394
461.745	16539
461.764	15020
461.825	5892
461.832	5637
461.901	3347
461.905	3332
461.969	3134
461.985	2957
462.037	2889
462.065	2877
462.105	2687
462.145	2920
462.173	4462
462.225	6718
462.241	7176
462.305	9830
462.310	9671
462.378	7608
462.385	7091
462.446	3619
462.465	2877
462.514	3010
462.545	3195
462.582	2978
462.625	2703
462.650	2721
462.705	2721
462.718	2778
462.785	3233
462.786	3261
462.854	4573
462.865	4873
462.922	6109
462.945	6554
462.990	5442
463.025	4221
463.058	3573
463.104	2853
463.126	2791
463.184	2774
463.194	2826
463.262	2953
463.264	2966
463.330	3478
463.344	3547
463.398	4191
463.424	4521
463.466	3949
463.504	3424
463.533	3626
463.583	3858
463.601	3982
463.663	4410
463.669	4467
463.737	5329
463.743	5399
463.805	7542
463.823	8164
463.873	11414
463.903	13409
463.940	15188
463.982	17805
464.008	14945
464.062	7409
464.076	6914
464.142	4172
464.144	4157
464.211	4242
464.221	4278
464.279	4144
464.301	3980
464.347	4027
464.381	4272
464.414	4879
464.461	5641
464.482	5848
464.540	6426
464.550	6358
464.617	5690
464.620	5658
464.685	5854
464.699	5890
464.753	6588
464.779	6973
464.820	8076
464.859	8982
464.888	8487
464.938	7786
464.956	7949
465.018	8367
465.023	8310
465.091	7366
465.098	7234
465.158	7072
465.177	7131
465.226	6980
465.257	6738
465.293	7098
465.336	7500
465.361	7943
465.416	9051
465.428	9338
465.495	10767
465.496	10815
465.563	15552
465.575	16407
465.631	20447
465.654	22242
465.698	16353
465.734	10883
465.765	9342
465.813	7008
465.833	7040
465.893	7513
465.900	7560
465.968	7813
465.972	7816
466.035	7740
466.052	7716
466.102	7892
466.131	7964
466.170	7994
466.210	8021
466.237	8271
466.290	8712
466.304	8704
466.369	8499
466.372	8584
466.439	10698
466.449	10984
466.506	11005
466.528	11001
466.573	12411
466.607	13424
466.641	17989
466.687	24322
466.708	26563
466.766	32742
466.775	31072
466.842	18005
466.845	17346
466.909	13666
466.925	12817
466.977	12421
467.004	12199
467.044	12501
467.083	12768
467.111	13331
467.163	14318
467.178	14592
467.242	15609
467.245	15596
467.312	14759
467.321	14624
467.379	13330
467.400	12820
467.446	14015
467.480	14836
467.559	13103
467.638	11820
467.717	11064
467.796	12262
467.875	12049
467.955	12830
468.034	13851
468.113	26563
468.192	38097
468.271	17660
468.350	11255
468.429	10966
468.508	11136
468.588	10001
468.667	10172
468.746	10228
468.825	9693
468.904	9013
468.983	9905
469.062	13039
469.141	15995
469.220	10291
469.299	8482
469.378	9455
469.456	11604
469.535	11344
469.614	10139
469.693	9759
469.772	12263
469.851	13357
469.930	13111
470.009	9988
470.088	9374
470.166	10080
470.245	12382
470.324	14943
470.403	12668
470.482	10843
470.560	10254
470.639	9912
470.718	9921
470.797	9387
470.875	9754
470.954	11763
471.033	13173
471.111	9905
471.190	7761
471.269	7219
471.347	7572
471.426	7656
471.505	8981
471.583	9357
471.662	10496
471.740	8458
471.819	9189
471.898	7800
471.976	8444
472.055	7978
472.133	8974
472.212	11770
472.290	11007
472.369	8155
472.447	8110
472.526	7318
472.604	8332
472.683	8753
472.761	8942
472.839	8348
472.918	8802
472.996	7431
473.075	8461
473.153	9306
473.231	7226
473.310	7974
473.388	8870
473.466	8182
473.545	10152
473.623	11973
473.701	12798
473.780	8294
473.858	7402
473.936	8715
474.014	9145
474.093	9096
474.171	11676
474.249	13694
474.327	12543
474.405	7958
474.484	7860
474.562	8255
474.640	7981
474.718	8134
474.796	9697
474.874	8583
474.952	8431
475.030	8498
475.108	8712
475.187	9881
475.265	10340
475.343	11158
475.421	12264
475.499	9089
475.577	8395
475.655	10504
475.733	16141
475.811	25561
475.889	23973
475.966	20386
476.044	7773
476.122	8549
476.200	8786
476.278	8879
476.356	7213
476.434	7959
476.512	7706
476.590	9087
476.667	8711
476.745	7820
476.823	7895
476.901	6733
476.979	7442
477.056	7395
477.134	7539
477.212	7476
477.290	7851
477.367	6769
477.445	6486
477.523	6063
477.601	6917
477.678	5938
477.756	7930
477.834	8821
477.911	6862
477.989	6521
478.066	6912
478.144	7546
478.222	7697
478.299	9271
478.377	11190
478.454	7235
478.532	6626
478.609	7377
478.687	7654
478.764	6887
478.842	6616
478.919	7811
478.997	7308
479.074	6233
479.152	7392
479.229	8657
479.307	6924
479.384	5833
479.461	6267
479.539	6301
479.616	7034
479.694	6750
479.771	6503
479.848	7857
479.926	8344
480.003	11316
480.080	6488
480.157	6605
480.235	6183
480.312	6110
480.389	6789
480.467	9316
480.544	12227
480.621	8588
480.698	7045
480.775	7434
480.853	7553
480.930	7078
481.007	7571
481.084	9188
481.161	11184
481.238	9730
481.315	6399
481.392	5534
481.470	6282
481.547	6714
481.624	6314
481.701	5934
481.778	6143
481.855	6604
481.932	9331
482.009	13867
482.086	13092
482.163	6522
482.240	7649
482.317	10492
482.393	10999
482.470	6020
482.547	7191
482.624	6652
482.701	6677
482.778	6582
482.855	5782
482.932	6796
483.009	5879
483.085	6751
483.162	8360
483.239	9688
483.316	6632
483.393	6299
483.469	5621
483.546	6631
483.623	7409
483.699	6521
483.776	6810
483.853	7342
483.930	8838
484.006	21031
484.083	36231
484.160	28868
484.236	35387
484.313	32532
484.389	23203
484.466	19794
484.543	18956
484.619	19630
484.696	19519
484.772	19584
484.849	20162
484.925	19416
485.002	18111
485.078	17838
485.155	19189
485.231	17844
485.308	16798
485.384	17207
485.461	19615
485.537	26256
485.614	33835
485.690	20268
485.766	16167
485.843	16101
485.919	20986
485.995	23884
486.072	16589
486.148	15754
486.224	14748
486.301	15454
486.377	17181
486.453	18677
486.530	17746
486.606	21398
486.682	26207
486.758	27887
486.835	30935
486.911	24390
486.987	32894
487.063	40101
487.139	47447
487.215	39703
487.292	23814
487.368	18882
487.444	19239
487.520	22889
487.596	23836
487.672	27442
487.748	47332
487.824	81373
487.900	54032
487.976	25170
488.052	20725
488.128	22086
488.204	19234
488.280	17026
488.356	17838
488.432	28220
488.508	44355
488.584	24702
488.660	15689
488.736	16001
488.812	15153
488.888	18520
488.964	23053
489.039	36918
489.115	65540
489.191	51842
489.267	18590
489.343	15368
489.418	13647
489.494	13334
489.570	12278
489.646	14479
489.722	13008
489.797	13619
489.873	17354
489.949	31556
490.024	35086
490.100	14683
490.176	13105
490.251	14427
490.327	18511
490.403	15559
490.478	12905
490.554	10956
490.629	12228
490.705	10984
490.781	12822
490.856	11900
490.932	13998
491.007	13755
491.083	13489
491.158	12821
491.234	14580
491.309	23587
491.385	31330
491.460	14414
491.536	13065
491.611	13485
491.686	13277
491.762	15454
491.837	25163
491.913	44894
491.988	57832
492.063	83919
492.139	35828
492.214	18850
492.289	11717
492.365	9218
492.440	12734
492.515	11533
492.590	11264
492.666	10484
492.741	11469
492.816	17122
492.891	13405
492.967	10913
493.042	9683
493.117	10523
493.192	11952
493.267	16780
493.342	51491
493.418	89612
493.493	27332
493.568	10466
493.643	8828
493.718	12375
493.793	15040
493.868	17827
493.943	13744
494.018	11061
494.093	9460
494.168	10171
494.243	9200
494.318	9045
494.393	8866
494.468	8449
494.543	8349
494.618	9259
494.693	10069
494.768	9405
494.842	9723
494.917	8402
494.992	9336
495.067	9571
495.142	8448
495.217	10494
495.292	10310
495.366	10678
495.441	12902
495.516	15156
495.591	18139
495.665	44630
495.740	121603
495.815	93490
495.890	17727
495.964	11686
496.039	14331
496.114	12596
496.188	15542
496.263	16294
496.338	12114
496.412	12677
496.487	15802
496.561	15406
496.636	17193
496.710	14567
496.785	15520
496.860	17303
496.934	15857
497.009	15747
497.083	14800
497.158	17571
497.232	19071
497.307	21981
497.381	21597
497.455	21668
497.530	26387
497.604	24518
497.679	23373
497.753	30658
497.827	39902
497.902	39632
497.976	42988
498.050	60134
498.125	179802
498.199	268631
498.273	72194
498.348	48270
498.422	43206
498.496	39381
498.570	38248
498.645	31056
498.719	29433
498.793	29147
498.867	33744
498.941	39902
499.016	72398
499.090	204362
499.164	143094
499.238	22972
499.312	17177
499.386	19688
499.460	19470
499.534	16196
499.609	17514
499.683	22041
499.757	22954
499.831	31610
499.905	118606
499.979	177319
500.053	35139
500.127	26452
500.201	21922
500.275	14055
500.349	14484
500.422	13412
500.496	18728
500.570	31992
500.644	72817
500.718	152333
500.792	67106
500.866	13279
500.940	14771
501.013	14547
501.087	12908
501.161	18696
501.235	26460
501.309	39530
501.382	109974
501.456	150003
501.530	34447
501.603	40518
501.677	28341
501.751	10065
501.825	12129
501.898	16395
501.972	45594
502.046	48539
502.119	12847
502.193	20453
502.266	53471
502.340	42342
502.413	22092
502.487	47967
502.561	35972
502.634	15778
502.708	10395
502.781	8606
502.855	8393
502.928	7521
503.002	7430
503.075	7062
503.149	7673
503.222	8325
503.295	9066
503.369	9697
503.442	11873
503.516	29665
503.589	88547
503.662	84981
503.736	26162
503.809	40342
503.882	47770
503.956	46202
504.029	64423
504.102	34283
504.175	43866
504.249	27787
504.322	16052
504.395	13965
504.468	9707
504.542	8123
504.615	6952
504.688	7752
504.761	6458
504.834	9218
504.907	9736
504.980	15497
505.053	10522
505.127	8860
505.200	13998
505.273	10091
505.346	8939
505.419	5988
505.492	6925
505.565	6087
505.638	6079
505.711	5694
505.784	5346
505.857	5445
505.930	6549
506.003	6218
506.076	7740
506.149	7714
506.221	9467
506.294	9462
506.367	15295
506.440	61417
506.513	59660
506.586	12798
506.659	8798
506.731	6859
506.804	6847
506.877	9636
506.950	9349
507.022	6933
507.095	6594
507.168	10241
507.241	7353
507.313	6024
507.386	5533
507.459	8609
507.531	7705
507.604	5893
507.677	6409
507.749	5452
507.822	7605
507.894	13055
507.967	20373
508.040	13609
508.112	10472
508.185	10184
508.257	8887
508.330	13350
508.402	10149
508.475	9133
508.547	9916
508.620	8795
508.692	12356
508.765	11185
508.837	8752
508.909	8293
508.982	7290
509.054	8945
509.127	8121
509.199	7481
509.271	7504
509.344	6406
509.416	7890
509.488	7911
509.560	7871
509.633	8697
509.705	9701
509.777	9816
509.849	11882
509.922	11297
509.994	9633
510.066	10089
510.138	9994
510.210	16845
510.283	18491
510.355	14430
510.427	11669
510.499	11510
510.571	10885
510.643	10912
510.715	15002
510.787	15242
510.859	11685
510.931	11820
511.003	14883
511.076	15792
511.148	10383
511.219	9934
511.291	14252
511.363	17892
511.435	11061
511.507	9641
511.579	10137
511.651	9694
511.723	9797
511.795	8633
511.867	9968
511.939	9911
512.010	14904
512.082	17582
512.154	8611
512.226	10340
512.298	12882
512.369	19028
512.441	16857
512.513	15531
512.585	13067
512.656	13256
512.728	12443
512.800	11794
512.871	10324
512.943	10344
513.015	10283
513.086	11034
513.158	11679
513.230	11270
513.301	13466
513.373	16623
513.444	11528
513.516	9817
513.588	9999
513.659	10135
513.731	12572
513.802	10553
513.874	16646
513.945	31364
514.016	19221
514.088	10748
514.159	9361
514.231	13440
514.302	17670
514.374	15704
514.445	12106
514.516	19468
514.588	20131
514.659	12561
514.730	17321
514.802	20024
514.873	15604
514.944	21089
515.016	17054
515.087	17188
515.158	17464
515.229	24086
515.301	18893
515.372	25499
515.443	24407
515.514	18193
515.585	13534
515.656	13365
515.728	10901
515.799	10976
515.870	11518
515.941	11074
516.012	10866
516.083	13243
516.154	14805
516.225	17510
516.296	17661
516.367	15908
516.438	16311
516.509	19289
516.580	25022
516.651	55017
516.722	211095
516.793	192337
516.864	34859
516.935	26778
517.006	28123
517.077	34087
517.148	64517
517.219	196275
517.289	478080
517.360	185577
517.431	65447
517.502	19152
517.573	15428
517.643	14882
517.714	15649
517.785	17051
517.856	17002
517.926	20472
517.997	23247
518.068	28289
518.138	35866
518.209	46653
518.280	128278
518.350	525900
518.421	444412
518.492	62070
518.562	26536
518.633	22861
518.703	19387
518.774	28171
518.845	47711
518.915	58381
518.986	31712
519.056	22853
519.127	28487
519.197	39532
519.268	76437
519.338	79602
519.408	21042
519.479	20540
519.549	18926
519.620	13486
519.690	10582
519.760	11041
519.831	9865
519.901	11449
519.971	9299
520.042	10271
520.112	10644
520.182	12098
520.253	15455
520.323	11372
520.393	13480
520.463	25421
520.534	15879
520.604	32729
520.674	20966
520.744	14227
520.814	29524
520.885	39866
520.955	24044
521.025	83766
521.095	66630
521.165	12939
521.235	11044
521.305	9732
521.375	9795
521.445	9674
521.515	11770
521.585	13257
521.655	14395
521.725	10956
521.795	12508
521.865	8279
521.935	12828
522.005	12925
522.075	8015
522.145	9754
522.215	9761
522.285	12821
522.355	15529
522.424	24925
522.494	28877
522.564	17407
522.634	19290
522.704	63502
522.774	47558
522.843	12199
522.913	9848
522.983	12217
523.053	10580
523.122	10497
523.192	10837
523.262	28773
523.331	49809
523.401	14493
523.471	8250
523.540	9130
523.610	8056
523.680	7559
523.749	7474
523.819	8797
523.888	11191
523.958	7439
524.027	7644
524.097	8591
524.166	7915
524.236	8156
524.305	9717
524.375	7768
524.444	6668
524.514	9070
524.583	7723
524.653	9692
524.722	11122
524.791	8818
524.861	8376
524.930	6829
524.999	6625
525.069	11188
525.138	8991
525.207	9572
525.277	9252
525.346	9034
525.415	9000
525.484	8518
525.554	9657
525.623	10857
525.692	9722
525.761	10455
525.830	10052
525.900	11454
525.969	15750
526.038	21766
526.107	32483
526.176	99205
526.245	122480
526.314	47620
526.383	53380
526.452	93348
526.522	111019
526.591	181589
526.660	65424
526.729	34058
526.797	27756
526.867	41584
526.935	161984
527.004	325659
527.073	274835
527.142	41638
527.211	16690
527.280	12237
527.349	12199
527.418	8533
527.487	8447
527.555	6125
527.624	7853
527.693	6200
527.762	7326
527.831	6632
527.899	7925
527.968	7543
528.037	5599
528.106	8572
528.174	13022
528.243	13012
528.312	12989
528.380	21549
528.449	10102
528.518	8070
528.586	5801
528.655	7597
528.723	5819
528.792	5633
528.861	6063
528.929	6446
528.998	7650
529.066	6721
529.135	9388
529.203	9850
529.272	9835
529.340	14434
529.409	14103
529.477	11764
529.545	13377
529.614	15406
529.682	14203
529.751	19366
529.819	20671
529.887	20854
529.956	17300
530.024	16032
530.092	15558
530.161	16972
530.229	18873
530.297	18453
530.365	17642
530.434	16508
530.502	16991
530.570	16553
530.638	12902
530.707	14991
530.775	15138
530.843	13143
530.911	15069
530.979	14422
531.047	16333
531.115	16172
531.183	15089
531.252	14942
531.320	13885
531.388	13432
531.456	15222
531.524	15128
531.592	17190
531.660	19103
531.728	17347
531.796	15958
531.864	17122
531.932	16054
532.000	15750
532.067	17742
532.135	19616
532.203	20851
532.271	21469
532.339	24132
532.407	41882
532.475	41431
532.542	24000
532.610	23106
532.678	23075
532.746	49092
532.814	149103
532.881	78042
532.949	24228
533.017	20014
533.084	19014
533.152	17154
533.220	17169
533.287	17699
533.355	18375
533.423	18452
533.490	18150
533.558	18183
533.625	17694
533.693	17946
533.761	17971
533.828	18297
533.896	16875
533.963	24091
534.031	30846
534.098	34129
534.166	27402
534.233	19383
534.300	20029
534.368	19262
534.435	18678
534.503	18620
534.570	19724
534.637	18493
534.705	18553
534.772	18668
534.840	20389
534.907	47612
534.974	95363
535.041	30993
535.109	16248
535.176	14041
535.243	14186
535.310	14294
535.378	13921
535.445	13261
535.512	13895
535.579	13703
535.646	12339
535.714	12544
535.781	15340
535.848	15941
535.915	16643
535.982	17338
536.049	18482
536.116	17980
536.183	14957
536.250	14673
536.317	13692
536.384	14132
536.451	16421
536.518	19159
536.585	16170
536.652	17777
536.719	19143
536.786	17923
536.853	14712
536.920	16890
536.987	23781
537.053	22213
537.120	58084
537.187	92924
537.254	18533
537.321	12229
537.388	13457
537.454	9611
537.521	10055
537.588	9794
537.654	11821
537.721	12602
537.788	12710
537.855	9918
537.921	11430
537.988	12018
538.055	11210
538.121	10541
538.188	10698
538.254	13136
538.321	21767
538.388	18844
538.454	12158
538.521	10704
538.587	10916
538.654	10430
538.720	9816
538.787	10050
538.853	9933
538.920	12077
538.986	12068
539.053	10398
539.119	10928
539.185	9916
539.252	12370
539.318	15038
539.385	14910
539.451	13321
539.517	12744
539.583	13264
539.650	18926
539.716	55677
539.782	32396
539.849	11603
539.915	11806
539.981	10146
540.047	12302
540.114	12433
540.180	12416
540.246	11257
540.312	14023
540.378	20458
540.444	26268
540.510	21606
540.576	59647
540.643	39339
540.709	11434
540.775	10885
540.841	9926
540.907	11516
540.973	18418
541.039	17327
541.105	17675
541.171	12270
541.237	10450
541.303	11060
541.369	12561
541.435	13217
541.500	19751
541.566	16686
541.632	10732
541.698	9682
541.764	10108
541.830	8819
541.896	8659
541.961	10076
542.027	9939
542.093	10780
542.159	10742
542.224	11045
542.290	15059
542.356	18849
542.421	24265
542.487	16388
542.553	11735
542.618	11791
542.684	11423
542.750	10054
542.815	11859
542.881	14730
542.947	45127
543.012	60444
543.078	13597
543.143	10560
543.209	11324
543.274	10048
543.340	11827
543.405	18359
543.471	40684
543.536	17634
543.602	10598
543.667	9469
543.732	10427
543.798	9268
543.863	10432
543.928	9324
543.994	8920
544.059	10105
544.124	10127
544.190	9640
544.255	10108
544.320	9912
544.386	9639
544.451	12742
544.516	15337
544.581	14096
544.646	26562
544.712	66718
544.777	23725
544.842	12462
544.907	12516
544.972	11434
545.037	11251
545.102	12376
545.168	12199
545.233	12547
545.298	13023
545.363	14016
545.428	15264
545.493	20366
545.558	45003
545.623	32457
545.688	13037
545.753	11392
545.818	10865
545.883	12089
545.947	11981
546.012	13112
546.077	13052
546.142	12546
546.207	12379
546.272	14539
546.337	15536
546.401	14578
546.466	14413
546.531	12449
546.596	14039
546.661	14011
546.725	13801
546.790	13174
546.855	14145
546.919	12746
546.984	15559
547.049	14610
547.113	17633
547.178	16142
547.243	18524
547.307	20663
547.372	22639
547.436	24768
547.501	22537
547.565	23164
547.630	23613
547.695	24658
547.759	24104
547.823	23436
547.888	21964
547.952	22082
548.017	22189
548.081	26819
548.146	27656
548.210	27734
548.274	24628
548.339	23412
548.403	22387
548.468	21478
548.532	20727
548.596	20620
548.660	21752
548.725	22115
548.789	25337
548.853	27089
548.917	23780
548.982	25678
549.046	27963
549.110	22152
549.174	20598
549.238	21682
549.303	23124
549.367	25273
549.431	22919
549.495	22200
549.559	22874
549.623	24356
549.687	27643
549.751	31653
549.815	31073
549.879	31513
549.943	28087
550.007	30228
550.071	31480
550.135	32839
550.199	29825
550.263	28268
550.327	28243
550.391	31416
550.455	31366
550.519	29393
550.582	30266
550.646	35408
550.710	41804
550.774	35690
550.838	34451
550.901	35373
550.965	38025
551.029	38960
551.093	43409
551.156	47116
551.220	58693
551.284	71773
551.347	48760
551.411	54452
551.475	69851
551.538	42701
551.602	37001
551.666	33465
551.729	31808
551.793	32760
551.856	31874
551.920	32031
551.983	32268
552.047	31409
552.110	31307
552.174	31261
552.237	32585
552.301	30586
552.364	29669
552.428	28412
552.491	28920
552.554	29984
552.618	29879
552.681	31417
552.745	31118
552.808	36508
552.871	46150
552.934	42230
552.998	34803
553.061	33367
553.124	31545
553.187	31896
553.251	32447
553.314	34508
553.377	34702
553.440	40918
553.503	70688
553.567	157420
553.630	67230
553.693	35152
553.756	34198
553.819	31724
553.882	31534
553.945	30800
554.008	32199
554.071	30938
554.134	31466
554.197	30322
554.260	30427
554.323	30793
554.386	31103
554.449	31294
554.512	32379
554.575	29604
554.638	30790
554.701	31106
554.764	30038
554.827	29070
554.889	27912
554.952	26697
555.015	25504
555.078	26555
555.141	27518
555.203	25731
555.266	26528
555.329	26153
555.391	25701
555.454	26051
555.517	26350
555.580	24752
555.642	23067
555.705	23798
555.768	23869
555.830	23784
555.893	23116
555.955	22250
556.018	21534
556.080	21192
556.143	21676
556.206	22247
556.268	22478
556.330	22878
556.393	22146
556.455	21688
556.518	23009
556.580	26238
556.643	20833
556.705	19970
556.767	19040
556.830	20300
556.892	20217
556.955	23478
557.017	23318
557.079	19735
557.142	18299
557.204	19612
557.266	26468
557.328	30354
557.391	18804
557.453	17045
557.515	17236
557.577	18472
557.639	20902
557.701	16967
557.764	15563
557.826	16839
557.888	19007
557.950	17845
558.012	18935
558.074	21438
558.136	33722
558.198	93098
558.260	65415
558.322	23203
558.384	20876
558.446	23737
558.508	27825
558.570	31219
558.632	39609
558.694	60256
558.756	62646
558.818	130330
558.880	441660
558.942	262979
559.003	105835
559.065	84848
559.127	31691
559.189	28956
559.251	29398
559.312	36043
559.374	67226
559.436	242448
559.498	236363
559.559	43644
559.621	28895
559.683	29160
559.744	38508
559.806	95961
559.868	229560
559.929	81226
559.991	29756
560.052	33406
560.114	80675
560.176	89032
560.237	46274
560.299	99018
560.360	44707
560.422	17309
560.483	15490
560.545	14712
560.606	14606
560.667	13145
560.729	12536
560.790	11953
560.852	13364
560.913	12881
560.974	12921
561.036	12902
561.097	13178
561.158	13227
561.220	13872
561.281	12587
561.342	13517
561.403	15241
561.465	15637
561.526	26501
561.587	45712
561.648	22184
561.709	13623
561.771	14048
561.832	13178
561.893	14014
561.954	12603
562.015	12894
562.076	12680
562.137	12846
562.198	12843
562.259	13098
562.320	12566
562.381	13051
562.442	16275
562.503	17735
562.564	13122
562.625	12980
562.686	12064
562.747	13652
562.808	14346
562.869	12665
562.930	15135
562.991	14148
563.051	13266
563.112	13401
563.173	13634
563.234	12550
563.294	13227
563.355	12921
563.416	13806
563.477	12744
563.537	11795
563.598	14287
563.659	12806
563.720	13487
563.780	12995
563.841	13704
563.901	13125
563.962	13012
564.023	12877
564.083	13355
564.144	13060
564.204	12970
564.265	14005
564.325	14477
564.386	19765
564.446	22633
564.507	14712
564.567	13339
564.628	13202
564.688	13462
564.749	13848
564.809	14234
564.869	15904
564.930	15304
564.990	13802
565.050	14329
565.111	14064
565.171	13407
565.231	14330
565.292	14696
565.352	12621
565.412	14559
565.472	14766
565.532	15058
565.593	15684
565.653	14788
565.713	14093
565.773	16269
565.833	16909
565.893	19837
565.953	18121
566.013	16539
566.074	16697
566.134	19167
566.194	23316
566.254	27313
566.314	22182
566.374	19458
566.434	19394
566.494	19890
566.554	19771
566.614	21197
566.673	22400
566.733	22956
566.793	24006
566.853	25510
566.913	25317
566.973	26649
567.033	26417
567.092	27496
567.152	26499
567.212	26937
567.272	27700
567.331	28949
567.391	28196
567.451	31977
567.511	32979
567.570	34589
567.630	29029
567.690	27339
567.749	27919
567.809	29905
567.868	33193
567.928	35190
567.988	40594
568.047	46750
568.107	54403
568.166	69329
568.226	94457
568.285	132144
568.345	139497
568.404	127168
568.464	113754
568.523	105755
568.582	103884
568.642	108669
568.701	120447
568.761	151634
568.820	209378
568.879	243022
568.939	219160
568.998	182595
569.057	149126
569.116	122419
569.176	102484
569.235	86050
569.294	73845
569.353	64020
569.413	55717
569.472	50108
569.531	45183
569.590	40758
569.649	37080
569.708	34032
569.767	32228
569.827	31439
569.886	29436
569.945	25244
570.004	24974
570.063	23753
570.122	23205
570.181	22986
570.240	22868
570.299	22762
570.358	21832
570.417	19414
570.475	18233
570.534	17855
570.593	18422
570.652	17359
570.711	18461
570.770	16630
570.829	17711
570.887	15960
570.946	17458
571.005	16248
571.064	15616
571.122	15822
571.181	15878
571.240	15667
571.299	14409
571.357	13998
571.416	15061
571.475	14879
571.533	16211
571.592	13792
571.650	14362
571.709	13947
571.768	13293
571.826	13558
571.885	12968
571.943	13421
572.002	12652
572.060	13499
572.119	12030
572.177	12564
572.236	12130
572.294	11702
572.352	12422
572.411	11743
572.469	12388
572.528	11212
572.586	12471
572.644	12925
572.703	14250
572.761	13471
572.819	12229
572.877	11590
572.936	11117
572.994	11027
573.052	11735
573.110	11197
573.169	11647
573.227	10779
573.285	11678
573.343	12082
573.401	11153
573.459	11281
573.517	11039
573.576	11051
573.634	11118
573.692	10928
573.750	11286
573.808	10819
573.866	11232
573.924	12744
573.982	13380
574.040	11451
574.098	11828
574.155	11339
574.213	10846
574.271	10123
574.329	10395
574.387	10621
574.445	9844
574.503	10415
574.560	9949
574.618	10412
574.676	9224
574.734	10380
574.792	11063
574.849	10313
574.907	10163
574.965	9714
575.022	9743
575.080	9932
575.138	10188
575.195	10183
575.253	9525
575.311	11252
575.368	9916
575.426	10414
575.483	9783
575.541	9832
575.598	9332
575.656	11044
575.713	9921
575.771	10791
575.828	10478
575.886	11173
575.943	10875
576.001	10288
576.058	10715
576.115	10590
576.173	11921
576.230	13076
576.287	13050
576.345	12866
576.402	10970
576.459	10513
576.517	10625
576.574	11767
576.631	11435
576.688	11004
576.746	11013
576.803	10973
576.860	10284
576.917	11580
576.974	10181
577.031	9976
577.089	10392
577.146	10867
577.203	11578
577.260	11991
577.317	11208
577.374	12536
577.431	11877
577.488	11178
577.545	11052
577.602	11282
577.659	11324
577.716	11676
577.773	13197
577.830	11802
577.886	12006
577.943	12012
578.000	11362
578.057	12571
578.114	14026
578.171	14682
578.227	18486
578.284	20715
578.341	18428
578.398	15597
578.454	15078
578.511	13492
578.568	14031
578.625	13329
578.681	11728
578.738	11669
578.794	12688
578.851	12110
578.908	12930
578.964	12807
579.021	13415
579.077	12721
579.134	12486
579.190	12038
579.247	11916
579.303	11486
579.360	11932
579.416	12545
579.473	11531
579.529	11952
579.586	11920
579.642	12418
579.698	12809
579.755	12743
579.811	12998
579.867	13508
579.924	14356
579.980	14721
580.036	17135
580.093	19101
580.149	25419
580.205	31864
580.261	26681
580.317	22182
580.374	18709
580.430	17932
580.486	17255
580.542	15307
580.598	15166
580.619	15195
580.654	15265
580.692	14182
580.710	13675
580.765	14896
580.767	14951
580.823	15227
580.838	14951
580.879	14291
580.911	14270
580.935	14275
580.984	14197
580.991	14209
581.047	14095
581.057	14184
581.103	14642
581.130	15113
581.159	15681
581.203	16650
581.215	16899
581.270	17858
581.276	17694
581.326	16405
581.349	16079
581.382	15614
581.422	15686
581.438	15729
581.494	15003
581.494	14990
581.550	15055
581.567	15084
581.606	15171
581.640	14941
581.661	14811
581.713	15657
581.717	15749
581.773	15648
581.786	15557
581.829	15236
581.859	15349
581.885	15472
581.932	16032
581.940	16130
581.996	15630
582.004	15620
582.052	15719
582.077	15700
582.107	15652
582.150	15698
582.163	15744
582.219	15594
582.223	15658
582.274	16524
582.296	16274
582.330	15899
582.368	16037
582.386	16095
582.441	16182
582.441	16189
582.497	16337
582.514	16629
582.552	17249
582.587	17276
582.608	17310
582.659	17488
582.663	17503
582.719	16513
582.732	16631
582.774	17079
582.805	17332
582.830	17550
582.877	17493
582.885	17480
582.941	17864
582.950	18089
582.996	19264
583.023	20301
583.052	21665
583.095	22378
583.107	22486
583.162	23593
583.168	23818
583.218	26081
583.240	25555
583.273	24546
583.313	22817
583.328	22185
583.384	21629
583.385	21582
583.439	20049
583.458	19932
583.494	19959
583.531	19672
583.549	19443
583.603	18726
583.605	18709
583.660	19008
583.676	19029
583.715	18958
583.748	19384
583.770	19685
583.820	19491
583.825	19459
583.881	18638
583.893	18807
583.936	19577
583.965	19080
583.991	18550
584.038	19106
584.046	19201
584.101	19237
584.110	19200
584.156	19020
584.183	19263
584.211	19519
584.255	19687
584.266	19725
584.321	20213
584.328	20229
584.376	20621
584.400	20784
584.431	20505
584.472	20300
584.486	20325
584.541	20705
584.545	20752
584.596	21547
584.617	21559
584.651	21430
584.689	21625
584.706	21718
584.761	22064
584.762	22082
584.816	22808
584.834	23067
584.871	23600
584.906	23284
584.926	22987
584.978	22991
584.980	23000
585.035	23654
585.051	24108
585.090	24943
585.123	24922
585.145	24919
585.195	25939
585.200	26067
585.254	27192
585.267	27651
585.309	28977
585.340	30828
585.364	32083
585.412	31782
585.419	31651
585.473	31835
585.484	32146
585.528	34504
585.556	36697
585.583	40244
585.628	49390
585.637	52861
585.692	83521
585.700	91198
585.747	132155
585.772	130565
585.801	108201
585.845	61935
585.856	53479
585.910	38547
585.917	37308
585.965	34780
585.989	33991
586.019	33439
586.061	33412
586.074	33401
586.128	34406
586.133	34380
586.183	34149
586.205	34417
586.237	34388
586.277	34703
586.292	34908
586.346	35465
586.349	35546
586.401	35939
586.421	36015
586.455	36495
586.493	37333
586.509	38059
586.564	42053
586.565	42201
586.618	47453
586.637	48801
586.672	48566
586.709	45337
586.727	43887
586.781	43179
586.781	43137
586.835	44714
586.853	44933
586.889	45161
586.925	45087
586.944	45111
586.996	47190
586.998	47198
587.052	48905
587.068	49491
587.106	50493
587.140	51474
587.161	52273
587.212	54592
587.215	54634
587.269	57622
587.284	58407
587.323	60259
587.356	62372
587.377	63695
587.427	66865
587.431	66977
587.485	68630
587.499	69680
587.539	73162
587.571	75877
587.593	77722
587.643	82555
587.648	82878
587.702	87824
587.715	89259
587.755	93743
587.786	97123
587.810	99839
587.858	107406
587.864	108186
587.917	117423
587.930	119934
587.971	128398
588.001	134572
588.025	139141
588.073	151372
588.079	152960
588.133	167583
588.145	171617
588.187	185212
588.217	195561
588.241	205657
588.288	228048
588.295	231157
588.348	261241
588.360	268387
588.402	295557
588.431	316786
588.456	337600
588.503	380042
588.510	386980
588.564	449713
588.575	463832
588.617	527849
588.646	573316
588.671	623799
588.718	718602
588.725	735847
588.778	864432
588.789	887744
588.832	951574
588.861	981840
588.886	950149
588.932	870711
588.939	854760
588.993	727392
589.004	714442
589.047	860515
589.075	963593
589.100	988524
589.147	1008218
589.154	997726
589.207	887235
589.218	862926
589.261	803329
589.290	764338
589.314	765092
589.361	770403
589.368	780085
589.421	867644
589.433	884481
589.475	938050
589.504	961702
589.528	917451
589.576	813792
589.582	814917
589.635	867931
589.647	882373
589.689	900612
589.718	893892
589.742	819261
589.790	649656
589.795	635881
589.849	504546
589.861	474880
589.902	409525
589.932	363749
589.955	337517
590.004	285959
590.009	281534
590.062	242251
590.075	233371
590.115	210990
590.146	195791
590.168	186546
590.218	167533
590.222	165875
590.275	149776
590.289	146170
590.328	136349
590.360	128852
590.381	123957
590.431	114245
590.435	113429
590.488	103841
590.503	101537
590.541	96964
590.574	93440
590.594	90896
590.645	85717
590.647	85331
590.700	79749
590.716	78367
590.753	74627
590.787	71757
590.806	70469
590.859	67219
590.859	67007
590.912	63237
590.930	62053
590.965	60173
591.001	58834
591.018	58013
591.071	55932
591.072	56035
591.124	53782
591.143	53041
591.177	51300
591.214	50068
591.230	49480
591.283	47646
591.285	47680
591.336	46307
591.356	45964
591.389	45497
591.427	44876
591.442	43870
591.495	40692
591.498	40567
591.547	40087
591.569	39887
591.600	38610
591.640	37289
591.653	37255
591.706	37409
591.711	37523
591.759	36213
591.782	35620
591.811	35388
591.853	35227
591.864	34987
591.917	34180
591.924	34127
591.969	32793
591.995	32221
592.022	31975
592.066	31706
592.075	31722
592.127	32227
592.137	32409
592.180	32574
592.208	32731
592.233	31460
592.279	29213
592.285	29105
592.338	28816
592.350	28817
592.390	27947
592.421	27412
592.443	27195
592.491	26907
592.495	26815
592.548	26427
592.562	26382
592.600	25564
592.633	24989
592.653	24785
592.704	24310
592.705	24444
592.775	24320
592.846	24378
592.916	23635
592.987	24946
593.058	24066
593.128	22297
593.199	22565
593.270	21824
593.341	21533
593.411	21772
593.482	21430
593.553	21290
593.623	20472
593.694	20224
593.764	19767
593.835	20840
593.906	19475
593.976	19890
594.047	20063
594.117	21044
594.188	22015
594.258	19061
594.329	18961
594.399	18876
594.470	18257
594.540	18600
594.611	17646
594.681	18794
594.751	18153
594.822	19068
594.892	19388
594.963	19065
595.033	18702
595.103	18939
595.174	18810
595.244	21966
595.314	26681
595.384	19606
595.455	18173
595.525	18929
595.595	18585
595.665	19023
595.736	17749
595.806	18890
595.876	17463
595.946	17569
596.016	18638
596.087	18141
596.157	18566
596.227	18313
596.297	18287
596.367	18890
596.437	19658
596.507	22512
596.577	25760
596.647	21361
596.717	18981
596.787	19764
596.857	20094
596.927	19708
596.997	19277
597.067	20472
597.137	21613
597.207	21990
597.277	21394
597.347	20359
597.417	19000
597.487	20070
597.557	20004
597.626	21044
597.696	21755
597.766	22767
597.836	25832
597.906	20702
597.975	19303
598.045	19161
598.115	19390
598.185	19919
598.254	21981
598.324	21896
598.394	22393
598.464	22961
598.533	22423
598.603	22314
598.672	21809
598.742	21553
598.812	21676
598.881	22114
598.951	21114
599.020	21138
599.090	20755
599.159	22178
599.229	22359
599.299	21001
599.368	21724
599.437	22107
599.507	20940
599.576	21519
599.646	23104
599.715	23314
599.785	21944
599.854	21976
599.924	23312
599.993	22588
600.062	21519
600.132	22661
600.201	23194
600.270	24606
600.340	24764
600.409	23999
600.478	23935
600.547	24860
600.617	25227
600.686	23576
600.755	22429
600.824	23584
600.894	22516
600.963	22016
601.032	21117
601.101	22353
601.170	22077
601.239	22932
601.308	23469
601.378	23464
601.447	23226
601.516	24032
601.585	23729
601.654	25199
601.723	25304
601.792	25753
601.861	26955
601.930	30469
601.999	29331
602.068	28438
602.137	28926
602.206	27397
602.275	27961
602.343	30797
602.412	31438
602.481	29093
602.550	28639
602.619	27931
602.688	29249
602.756	29135
602.825	28870
602.894	29533
602.963	29730
603.032	29793
603.100	29875
603.169	28991
603.238	29482
603.307	30358
603.375	28256
603.444	31311
603.513	28854
603.581	28607
603.650	31281
603.719	26870
603.787	24365
603.856	26013
603.924	25751
603.993	27440
604.061	27732
604.130	27853
604.198	29124
604.267	29240
604.335	29427
604.404	28952
604.472	29233
604.541	29911
604.609	29824
604.678	31613
604.746	30537
604.815	32885
604.883	32241
604.951	31487
605.020	31570
605.088	30845
605.156	28108
605.225	28942
605.293	28518
605.361	28898
605.429	28231
605.498	29511
605.566	30241
605.634	30758
605.702	30090
605.771	31902
605.839	31552
605.907	29678
605.975	30121
606.043	29736
606.111	28096
606.180	30648
606.248	31136
606.316	30439
606.384	30240
606.452	29042
606.520	26015
606.588	24084
606.656	22003
606.724	21704
606.792	21369
606.860	18844
606.928	17675
606.996	17329
607.064	17085
607.132	17185
607.200	17581
607.267	17753
607.335	18392
607.403	19742
607.471	18679
607.539	18230
607.607	18280
607.674	17081
607.742	16480
607.810	17339
607.878	17934
607.946	16928
608.013	17624
608.081	17600
608.149	18387
608.216	17175
608.284	18007
608.352	18033
608.419	17901
608.487	20720
608.555	18597
608.622	18248
608.690	18206
608.757	19532
608.825	19871
608.893	19179
608.960	20376
609.028	20750
609.095	21966
609.163	20570
609.230	17906
609.298	16985
609.365	16799
609.432	17738
609.500	18365
609.567	20986
609.635	23103
609.702	24605
609.769	24213
609.837	23178
609.904	20340
609.971	22181
610.039	28014
610.106	40399
610.173	76618
610.241	181813
610.308	234219
610.375	141297
610.442	47216
610.509	26877
610.577	22719
610.644	19946
610.711	19468
610.778	20311
610.845	20451
610.912	21946
610.980	22984
611.047	26531
611.114	24437
611.181	20456
611.248	17751
611.315	20539
611.382	18893
611.449	20496
611.516	21896
611.583	21321
611.650	20953
611.717	22267
611.784	22630
611.851	25205
611.918	28609
611.984	36284
612.051	52158
612.118	111118
612.185	293797
612.252	301734
612.319	63381
612.386	33218
612.452	27889
612.519	26420
612.586	27487
612.653	26650
612.719	25260
612.786	23440
612.853	22173
612.919	21785
612.986	22085
613.053	20544
613.120	19175
613.186	17649
613.253	20489
613.319	19332
613.386	19464
613.453	20208
613.519	20425
613.586	22359
613.652	29119
613.719	24538
613.785	24963
613.852	21211
613.918	20123
613.985	23021
614.051	26639
614.118	44385
614.184	55984
614.250	24053
614.317	20887
614.383	19421
614.449	18559
614.516	18907
614.582	19810
614.648	19460
614.715	19377
614.781	19483
614.847	19195
614.914	20351
614.980	19999
615.046	19947
615.112	20651
615.179	21975
615.245	22850
615.311	26762
615.377	39003
615.443	52382
615.509	36872
615.575	26708
615.642	24277
615.708	25596
615.774	28126
615.840	31251
615.906	38702
615.972	59336
616.038	107481
616.104	203309
616.170	396280
616.236	500119
616.302	120351
616.368	53710
616.434	38202
616.500	32800
616.565	31426
616.631	40054
616.697	36157
616.763	34641
616.829	45282
616.895	82164
616.961	100160
617.026	53565
617.092	27629
617.158	23582
617.224	20862
617.289	20280
617.355	19576
617.421	18978
617.487	19484
617.552	18155
617.618	17032
617.684	17816
617.749	18706
617.815	17284
617.880	16907
617.946	16761
618.012	16028
618.077	17106
618.143	16899
618.208	16739
618.274	17150
618.339	18909
618.405	15547
618.470	16177
618.536	15369
618.601	17064
618.667	15709
618.732	15759
618.798	14012
618.863	15150
618.928	14046
618.994	15463
619.059	16100
619.124	20562
619.190	17679
619.255	14320
619.320	15207
619.386	14851
619.451	14064
619.516	14921
619.581	12826
619.647	14949
619.712	15092
619.777	14484
619.842	13666
619.907	14825
619.972	14376
620.038	16045
620.103	13918
620.168	14036
620.233	14132
620.298	14525
620.363	13205
620.428	15303
620.493	15106
620.558	14634
620.623	14200
620.688	15646
620.753	14555
620.818	15106
620.883	14474
620.948	15316
621.013	14919
621.078	15523
621.143	13983
621.207	16818
621.272	15783
621.337	16201
621.402	16824
621.467	17507
621.532	19293
621.596	17648
621.661	16469
621.726	15245
621.791	15529
621.855	16573
621.920	16737
621.985	16909
622.049	17911
622.114	18040
622.179	17531
622.243	16862
622.308	16890
622.373	16989
622.437	17037
622.502	16443
622.566	15797
622.631	15695
622.695	16074
622.760	15572
622.824	16374
622.889	16908
622.953	17248
623.018	22042
623.082	24888
623.147	17876
623.211	17095
623.276	17230
623.340	16338
623.404	16130
623.469	15224
623.533	16769
623.597	15270
623.662	15553
623.726	13886
623.790	14460
623.854	13421
623.919	14323
623.983	14674
624.047	13778
624.111	15089
624.176	14399
624.240	15719
624.304	16858
624.368	15584
624.432	14178
624.496	15044
624.560	16534
624.625	17745
624.689	16462
624.753	15312
624.817	15075
624.881	14298
624.945	14227
625.009	13996
625.073	14375
625.137	14411
625.201	17178
625.265	18814
625.329	14971
625.393	13820
625.456	14845
625.520	14630
625.584	15211
625.648	17097
625.712	20769
625.776	36621
625.839	46843
625.903	26096
625.967	15632
626.031	18439
626.095	28384
626.158	16896
626.222	11542
626.286	11296
626.349	10795
626.413	9971
626.477	11783
626.540	10148
626.604	10460
626.668	10239
626.731	9728
626.795	9648
626.858	9239
626.922	9499
626.986	10433
627.049	8494
627.113	9885
627.176	10086
627.240	9292
627.303	8631
627.366	8839
627.430	9256
627.493	9174
627.557	9026
627.620	10575
627.684	9080
627.747	9005
627.810	7445
627.874	8737
627.937	7821
628.000	10499
628.064	9308
628.127	6614
628.190	7384
628.253	8172
628.317	6981
628.380	7717
628.443	7791
628.506	7016
628.569	7183
628.632	6548
628.696	6152
628.759	6073
628.822	5892
628.885	6507
628.948	6493
629.011	7019
629.074	6362
629.137	5781
629.200	6264
629.263	7759
629.326	5956
629.389	6828
629.452	6195
629.515	6661
629.578	6407
629.641	7556
629.704	5657
629.767	7383
629.830	6155
629.892	6457
629.955	5100
630.018	7313
630.081	6648
630.144	9274
630.207	6738
630.269	7559
630.332	5860
630.395	6443
630.458	5347
630.520	5240
630.583	6387
630.646	6807
630.708	4961
630.771	4808
630.834	5328
630.896	5317
630.959	5417
631.021	5795
631.084	4486
631.146	5776
631.209	6937
631.272	5706
631.334	5785
631.397	6334
631.459	4953
631.522	6182
631.584	5757
631.646	6341
631.709	6772
631.771	7693
631.834	6492
631.896	6456
631.958	5108
632.021	5618
632.083	4643
632.145	4715
632.208	5187
632.270	6252
632.332	4809
632.395	4717
632.457	4341
632.519	4599
632.581	5300
632.643	4538
632.706	4785
632.768	4523
632.830	4123
632.892	4827
632.954	4507
633.016	5772
633.078	4312
633.141	5272
633.203	4993
633.265	5134
633.327	4799
633.389	4358
633.451	4685
633.513	6529
633.575	6789
633.637	5841
633.698	6086
633.760	5022
633.822	4837
633.884	5568
633.946	4455
634.008	5449
634.070	6122
634.132	7311
634.193	7287
634.255	7724
634.317	6742
634.379	7019
634.441	5877
634.502	5747
634.564	5717
634.626	6264
634.687	5585
634.749	5565
634.811	4897
634.873	4646
634.934	4319
634.996	4984
635.057	3845
635.119	4471
635.181	4846
635.242	5196
635.304	3235
635.365	6112
635.427	4308
635.488	4802
635.550	4556
635.611	5060
635.673	3431
635.734	6020
635.796	4823
635.857	7735
635.918	5662
635.980	7411
636.041	6394
636.102	6828
636.164	6781
636.225	7605
636.286	5392
636.348	6273
636.409	5521
636.470	4840
636.531	5162
636.593	5137
636.654	5206
636.715	4080
636.776	4210
636.838	4119
636.899	4672
636.960	4342
637.021	4681
637.082	4400
637.143	4673
637.204	3456
637.265	3354
637.326	4918
637.387	3569
637.448	4036
637.509	4014
637.570	4307
637.631	3170
637.692	3498
637.753	2710
637.814	3928
637.875	3181
637.936	4202
637.997	3410
638.058	4340
638.119	4661
638.179	3953
638.240	3358
638.301	3150
638.362	3036
638.423	3390
638.483	3661
638.544	2563
638.605	3526
638.666	3613
638.726	3189
638.787	3456
638.848	2934
638.908	4598
638.969	3486
639.030	4030
639.090	2311
639.151	3326
639.211	3687
639.272	4844
639.332	7422
639.393	7127
639.453	3123
639.514	4069
639.574	3498
639.635	2755
639.695	3783
639.756	2784
639.816	4031
639.877	3977
639.937	6980
639.997	10330
640.058	4426
640.118	3394
640.178	4201
640.239	3929
640.299	2742
640.359	3198
640.420	4083
640.480	3652
640.540	3485
640.600	4205
640.661	3762
640.721	4484
640.781	5763
640.841	5527
640.901	5061
640.961	3984
641.021	4000
641.082	3912
641.142	5138
641.202	5340
641.262	2280
641.322	4111
641.382	2261
641.442	3376
641.502	3231
641.562	3617
641.622	2792
641.682	3773
641.742	2930
641.802	4190
641.861	3987
641.921	3710
641.981	3912
642.041	3301
642.101	4302
642.161	3081
642.221	2427
642.280	3779
642.340	2909
642.400	2681
642.460	3838
642.519	3040
642.579	2194
642.639	3417
642.698	1147
642.758	4736
642.818	3200
642.877	2774
642.937	3104
642.997	4276
643.056	5543
643.116	2822
643.175	3948
643.235	3368
643.294	3456
643.354	4344
643.414	4006
643.473	5061
643.532	5634
643.592	8067
643.651	14824
643.711	26926
643.770	48057
643.830	106625
643.889	298105
643.948	136783
644.008	15589
644.067	7962
644.126	5295
644.186	4909
644.245	3784
644.304	2954
644.363	4949
644.423	3144
644.482	3450
644.541	3947
644.600	2236
644.659	5182
644.719	4820
644.778	7871
644.837	10810
644.896	21951
644.955	54975
645.014	35138
645.073	7466
645.132	3985
645.191	3629
645.250	3128
645.309	3522
645.368	3515
645.427	4458
645.486	5270
645.545	12446
645.604	5709
645.663	3016
645.722	2420
645.781	4002
645.840	4688
645.898	4938
645.957	9360
646.016	12053
646.075	23531
646.134	43888
646.192	102109
646.251	231938
646.310	61038
646.369	9457
646.427	6484
646.486	3839
646.545	4560
646.603	3465
646.662	2428
646.721	2356
646.779	2656
646.838	2221
646.896	4253
646.955	4882
647.014	7730
647.072	11173
647.131	31282
647.189	27422
647.248	4228
647.306	2989
647.365	2925
647.423	714
647.481	3110
647.540	575
647.598	2554
647.657	1308
647.715	3008
647.773	1103
647.832	2401
647.890	679
647.948	1531
648.007	2478
648.065	1717
648.123	1677
648.181	3341
648.240	3398
648.298	3073
648.356	1306
648.414	2104
648.472	2170
648.531	2215
648.589	1823
648.647	2165
648.705	2016
648.763	1295
648.821	1974
648.879	2190
648.937	2340
648.995	3079
649.053	3369
649.111	5871
649.169	9809
649.227	17714
649.285	31765
649.343	95624
649.401	89310
649.459	17541
649.516	12243
649.574	6772
649.632	13029
649.690	22936
649.748	9213
649.806	7377
649.863	15247
649.921	23009
649.979	23369
650.037	5166
650.094	1219
650.152	2462
650.210	1227
650.268	2541
650.325	1663
650.383	3023
650.440	714
650.498	2735
650.556	1380
650.613	1087
650.671	2168
650.728	1414
650.786	1741
650.843	1878
650.901	308
650.958	1307
651.016	787
651.073	1518
651.131	571
651.188	782
651.246	1020
651.303	631
651.360	994
651.418	927
651.475	781
651.532	750
651.590	1183
651.647	374
651.704	1115
651.762	1020
651.819	1595
651.876	393
651.933	1061
651.990	1058
652.048	152
652.105	678
652.162	1444
652.219	840
652.276	1579
652.333	930
652.390	588
652.448	2237
652.505	834
652.562	1142
652.619	2146
652.676	2431
652.733	5148
652.790	1400
652.847	-528
652.904	1393
652.961	1
653.017	243
653.074	1811
653.131	1652
653.188	-1203
653.245	863
653.302	145
653.359	1405
653.415	1318
653.472	410
653.529	1215
653.586	834
653.642	392
653.699	1590
653.756	-410
653.813	276
653.869	1605
653.926	819
653.983	-44
654.039	644
654.096	1061
654.152	2161
654.209	-95
654.266	1337
654.322	150
654.379	879
654.435	1620
654.492	1050
654.548	1331
654.605	3270
654.661	2211
654.717	1637
654.774	1092
654.830	914
654.887	744
654.943	1613
655.000	948
655.056	1392
655.112	965
655.168	349
655.225	896
655.281	1741
655.337	1014
655.394	2779
655.450	2813
655.506	1410
655.562	2157
655.618	4012
655.675	425
655.731	1466
655.787	178
655.843	982
655.899	79
655.955	2324
656.011	1022
656.067	551
656.123	1097
656.179	1773
656.235	3216
656.291	614
656.347	2676
656.403	865
656.459	1006
656.515	1290
656.571	1007
656.627	1781
656.683	634
656.739	2222
656.795	1256
656.850	1455
656.906	1507
656.962	1731
657.018	-128
657.074	1439
657.129	1209
657.185	1956
657.241	2256
657.297	2302
657.352	1513
657.408	213
657.464	1681
657.519	1173
657.575	119
657.630	781
657.686	192
657.742	1226
657.797	742
657.853	193
657.908	1356
657.964	-331
658.019	139
658.075	1251
658.130	399
658.186	-493
658.241	185
658.297	260
658.352	-248
658.407	882
658.463	-497
658.518	1449
658.573	297
658.629	587
658.684	423
658.739	998
658.795	482
658.850	1234
658.905	-5
658.960	1835
659.016	99
659.071	897
659.126	790
659.181	429
659.236	2196
659.291	3819
659.346	1324
659.401	812
659.457	1338
659.512	2521
659.567	2361
659.622	433
659.677	441
659.732	-179
659.787	221
659.842	410
659.897	988
659.952	1125
660.007	617
660.061	143
660.116	-309
660.171	827
660.226	-63
660.281	642
660.336	-587
660.391	1020
660.445	-463
660.500	935
660.555	365
660.610	-406
660.664	715
660.719	787
660.774	115
660.828	1127
660.883	1212
660.938	572
660.992	-294
661.047	901
661.101	221
661.156	286
661.211	-677
661.265	71
661.320	-28
661.374	1254
661.429	-96
661.483	1521
661.538	-396
661.592	651
661.647	529
661.701	1742
661.755	597
661.810	901
661.864	330
661.919	448
661.973	753
662.027	1056
662.081	51
662.136	181
662.190	-479
662.244	967
662.299	23
662.353	996
662.407	-696
662.461	504
662.515	794
662.569	-309
662.624	1187
662.678	527
662.732	74
662.786	101
662.840	126
662.894	690
662.948	-784
663.002	500
663.056	260
663.110	867
663.164	224
663.218	272
663.272	213
663.326	1488
663.380	427
663.434	820
663.488	486
663.542	115
663.595	-487
663.649	-59
663.703	1054
663.757	789
663.811	-297
663.864	949
663.918	971
663.972	22
664.026	747
664.079	56
664.133	1
664.187	86
664.240	-466
664.294	381
664.348	284
664.401	930
664.455	842
664.508	150
664.562	-325
664.615	329
664.669	-170
664.722	558
664.776	-201
664.829	399
664.883	185
664.936	80
664.990	-32
665.043	835
665.097	12
665.150	589
665.203	192
665.257	359
665.310	511
665.363	899
665.417	806
665.470	520
665.523	134
665.576	130
665.630	-89
665.683	1290
665.736	-105
665.789	443
665.842	652
665.895	577
665.949	706
666.002	-327
666.055	315
666.108	571
666.161	455
666.214	874
666.267	556
666.320	759
666.373	679
666.426	-161
666.479	-78
666.532	735
666.585	97
666.638	1493
666.691	149
666.744	530
666.796	-15
666.849	450
666.902	517
666.955	528
667.008	-168
667.060	-784
667.113	-843
667.166	387
667.219	66
667.271	-505
667.324	-8
667.377	1179
667.430	525
667.482	824
667.535	363
667.587	765
667.640	275
667.693	788
667.745	1526
667.798	3533
667.850	752
667.903	379
667.955	-192
668.008	11
668.060	69
668.113	795
668.165	1064
668.218	617
668.270	419
668.322	-1
668.375	196
668.427	1110
668.479	-347
668.532	365
668.584	164
668.636	322
668.689	1430
668.741	1516
668.793	-61
668.845	701
668.898	91
668.950	156
669.002	1144
669.054	431
669.106	63
669.158	635
669.211	-84
669.263	611
669.315	721
669.367	1098
669.419	762
669.471	2073
669.523	1945
669.575	2855
669.627	2668
669.679	1099
669.731	1598
669.783	1559
669.835	2001
669.886	1652
669.938	1355
669.990	1023
670.042	1457
670.094	2355
670.146	2879
670.197	3162
670.249	4131
670.301	6373
670.353	9435
670.404	13934
670.456	17776
670.508	30184
670.560	45227
670.611	72778
670.663	117633
670.715	227497
670.766	374237
670.818	262744
670.869	73881
670.921	26513
670.972	14942
671.024	10242
671.075	7448
671.127	5504
671.178	3203
671.230	3598
671.281	3624
671.333	2835
671.384	1726
671.436	2228
671.487	2659
671.538	3359
671.590	3297
671.641	4457
671.692	7929
671.744	12922
671.795	14489
671.846	6926
671.897	3723
671.949	1795
672.000	1202
672.051	1700
672.102	1280
672.153	761
672.204	713
672.256	1032
672.307	183
672.358	600
672.409	490
672.460	1548
672.511	714
672.562	900
672.613	118
672.664	-151
672.715	251
672.766	498
672.817	-252
672.868	461
672.919	374
672.970	-25
673.021	-243
673.071	126
673.122	118
673.173	757
673.224	453
673.275	597
673.326	345
673.376	124
673.427	-108
673.478	189
673.528	424
673.579	195
673.630	-228
673.680	902
673.731	-458
673.782	-223
673.832	741
673.883	358
673.934	-55
673.984	2
674.035	-356
674.085	675
674.136	170
674.186	958
674.237	369
674.287	1192
674.338	159
674.388	193
674.438	-116
674.489	-109
674.539	7
674.589	32
674.640	130
674.690	289
674.740	-437
674.791	60
674.841	-249
674.891	361
674.942	-253
674.992	350
675.042	88
675.092	-481
675.142	-178
675.193	374
675.243	-642
675.293	902
675.343	-418
675.393	20
675.443	155
675.493	456
675.543	-166
675.593	-216
675.643	-124
675.693	188
675.743	-183
675.793	148
675.843	-749
675.893	248
675.943	-150
675.993	642
676.043	-691
676.093	613
676.142	-635
676.192	272
676.242	-322
676.292	216
676.341	-297
676.391	370
676.441	-302
676.491	-6
676.540	21
676.590	126
676.640	14
676.689	-45
676.739	-596
676.789	-254
676.838	-363
676.888	106
676.937	151
676.987	353
677.037	-324
677.086	-699
677.136	-795
677.185	-245
677.235	-517
677.284	403
677.333	-623
677.383	-119
677.432	-997
677.482	-196
677.531	-708
677.580	-157
677.630	-935
677.679	-428
677.728	-660
677.778	672
677.827	-736
677.876	250
677.925	-1114
677.975	4
678.024	-683
678.073	-438
678.122	-94
678.171	-52
678.220	-922
678.269	-61
678.319	-556
678.368	50
678.417	-704
678.466	420
678.515	-728
678.564	327
678.613	353
678.662	278
678.711	-421
678.760	-730
678.809	-513
678.857	-181
678.906	-550
678.955	70
679.004	-350
679.053	50
679.102	-661
679.151	374
679.199	-108
679.248	-355
679.297	-310
679.346	-503
679.394	-660
679.443	-282
679.492	-351
679.540	-598
679.589	-1000
679.638	-647
679.686	235
679.735	22
679.784	-732
679.832	303
679.881	-401
679.929	-634
679.978	-934
680.026	-329
680.075	-585
680.123	-870
680.172	-369
680.220	-1006
680.268	-696
680.317	-524
680.365	-1168
680.414	-821
680.462	-771
680.510	146
680.559	-678
680.607	-610
680.655	-194
680.703	-458
680.752	-929
680.800	-1046
680.848	-1259
680.896	-290
680.945	-881
680.993	42
681.041	-723
681.089	122
681.137	-573
681.185	-382
681.233	-978
681.258	-918
681.281	-871
681.329	-483
681.377	-775
681.380	-746
681.425	-387
681.473	-150
681.502	-893
681.521	-1425
681.569	-665
681.617	-993
681.624	-907
681.665	-421
681.713	-708
681.745	-456
681.761	-363
681.809	-314
681.857	-316
681.867	-311
681.904	-307
681.952	73
681.989	-292
682.000	-409
682.048	-580
682.096	-1026
682.111	-763
682.143	-241
682.191	-433
682.233	171
682.239	246
682.286	-510
682.334	-526
682.354	-624
682.382	-743
682.430	956
682.476	-348
682.477	-385
682.525	-575
682.572	-168
682.598	-213
682.620	-255
682.667	-771
682.715	869
682.720	787
682.763	-57
682.810	142
682.841	152
682.857	125
682.905	614
682.952	-522
682.963	-428
683.000	-63
683.047	-56
683.085	952
683.095	1201
683.142	17
683.190	-598
683.206	-405
683.237	-47
683.284	319
683.328	-168
683.332	-219
683.379	317
683.426	202
683.449	481
683.473	759
683.521	-158
683.568	-208
683.571	-192
683.615	-52
683.662	305
683.693	186
683.709	97
683.757	-10
683.804	4
683.814	32
683.851	82
683.898	371
683.936	460
683.945	494
683.992	442
684.039	226
684.057	508
684.086	888
684.133	642
684.179	926
684.180	929
684.227	666
684.274	569
684.300	698
684.321	805
684.368	118
684.415	1301
684.422	1175
684.462	360
684.509	522
684.543	478
684.556	463
684.603	533
684.649	516
684.665	683
684.696	1048
684.743	985
684.786	903
684.790	890
684.837	692
684.883	1376
684.908	960
684.930	548
684.977	1037
685.023	789
685.029	887
685.070	1557
685.117	162
685.150	545
685.164	709
685.210	502
685.257	1376
685.272	1371
685.303	1224
685.350	1235
685.393	678
685.396	648
685.443	903
685.490	1279
685.514	1759
685.536	2118
685.583	1274
685.629	1701
685.636	1590
685.675	880
685.722	1576
685.757	1296
685.768	1210
685.815	1534
685.861	1015
685.878	1177
685.908	1425
685.954	1003
686.000	1511
686.000	1519
686.047	1318
686.093	2121
686.121	1993
686.139	1872
686.185	2006
686.232	1794
686.242	1897
686.278	2148
686.324	1570
686.363	1537
686.370	1556
686.416	1449
686.463	1518
686.484	1657
686.509	1732
686.555	1778
686.601	1291
686.606	1304
686.647	1514
686.693	1653
686.727	1606
686.739	1580
686.785	1921
686.831	1753
686.848	1729
686.877	1662
686.923	1836
686.969	1505
686.969	1503
687.015	1779
687.061	1466
687.090	1795
687.107	1925
687.153	1692
687.199	1719
687.211	1563
687.245	1326
687.291	2481
687.332	2229
687.336	2200
687.382	2224
687.428	2239
687.453	2406
687.474	2462
687.520	2112
687.565	1874
687.574	1809
687.611	1669
687.657	2115
687.695	1887
687.702	1878
687.748	2588
687.794	3056
687.816	2930
687.839	2629
687.885	2814
687.931	2102
687.937	2146
687.976	2467
688.022	2603
688.058	2283
688.067	2204
688.113	2570
688.158	2127
688.179	2185
688.204	2285
688.249	2681
688.295	1795
688.300	1823
688.340	2095
688.386	2792
688.421	2425
688.431	2297
688.477	2679
688.522	2216
688.542	2326
688.567	2538
688.613	2773
688.658	2489
688.663	2464
688.703	2151
688.749	2089
688.784	2167
688.794	2237
688.839	2473
688.884	2325
688.905	2524
688.930	2698
688.975	2219
689.020	2529
689.026	2512
689.065	2497
689.110	2539
689.146	2746
689.155	2794
689.201	2518
689.246	2451
689.267	2544
689.291	2662
689.336	2665
689.381	2632
689.388	2679
689.426	2809
689.471	2272
689.509	2035
689.516	2027
689.561	2351
689.606	2534
689.630	2796
689.651	2955
689.696	2222
689.741	2290
689.750	2273
689.785	2361
689.830	2748
689.871	2344
689.875	2309
689.920	2387
689.965	2355
689.992	2556
690.010	2665
690.054	2456
690.099	2765
690.112	2778
690.144	2768
690.189	2501
690.233	2417
690.233	2423
690.278	2861
690.323	2668
690.354	2854
690.367	2878
690.412	2747
690.457	2936
690.474	2866
690.501	2908
690.546	3300
690.590	3545
690.595	3534
690.635	3498
690.680	3901
690.716	4169
690.724	4303
690.769	4575
690.813	5856
690.836	5756
690.857	6007
690.902	7947
690.946	9062
690.957	9488
690.991	13402
691.035	18847
691.077	24539
691.080	24689
691.124	25375
691.168	24821
691.198	24734
691.213	22834
691.257	17400
691.301	11860
691.318	9847
691.346	8924
691.390	7010
691.434	5903
691.439	5698
691.478	5123
691.522	5110
691.559	4595
691.567	4519
691.611	4530
691.655	3949
691.680	3944
691.699	4000
691.743	3629
691.787	3364
691.800	3328
691.831	3482
691.875	3981
691.919	3604
691.921	3603
691.964	3651
692.008	3405
692.041	3292
692.052	3358
692.096	3673
692.139	4209
692.162	4097
692.183	3875
692.227	4136
692.271	4048
692.282	4036
692.315	3959
692.359	3945
692.402	3603
692.403	3612
692.447	3666
692.490	3808
692.523	3633
692.534	3560
692.578	3516
692.622	3446
692.643	3605
692.666	3951
692.709	3824
692.753	4070
692.763	4133
692.797	4099
692.840	4055
692.884	3806
692.884	3816
692.928	3991
692.971	3850
693.004	3839
693.015	3926
693.059	4155
693.102	4806
693.124	4799
693.146	4641
693.189	4891
693.233	4221
693.245	4408
693.276	5197
693.320	5221
693.363	5339
693.365	5339
693.407	5787
693.450	6159
693.485	6392
693.493	6630
693.537	8254
693.580	9319
693.605	10219
693.624	11924
693.667	15541
693.710	19503
693.725	20871
693.753	27941
693.797	39445
693.840	51446
693.845	52744
693.883	54487
693.926	54193
693.966	54090
693.970	52889
694.013	40080
694.056	27589
694.086	18791
694.099	17782
694.142	14767
694.185	11746
694.206	10248
694.229	9662
694.272	8571
694.315	7667
694.326	7295
694.358	6911
694.401	6921
694.444	6439
694.446	6404
694.487	6061
694.530	5672
694.566	5545
694.573	5507
694.616	4835
694.659	4511
694.686	4159
694.702	4157
694.745	4292
694.787	4068
694.806	4135
694.830	4358
694.873	4552
694.916	4743
694.926	4726
694.959	4596
695.002	4861
695.044	4707
695.046	4700
695.087	4762
695.130	4414
695.166	4460
695.172	4523
695.215	4394
695.258	4740
695.286	4742
695.301	4635
695.343	4617
695.386	4117
695.406	3975
695.428	4148
695.471	4631
695.514	4895
695.526	4952
695.556	4639
695.599	4345
695.641	3896
695.646	3850
695.684	4101
695.726	4288
695.766	4332
695.769	4340
695.811	4343
695.854	4461
695.886	4512
695.896	4511
695.938	4246
695.981	4125
696.005	4098
696.023	4263
696.065	4379
696.108	4689
696.125	4713
696.150	4622
696.192	4792
696.235	4783
696.245	4767
696.277	4771
696.319	4588
696.361	4776
696.365	4759
696.404	4897
696.446	5045
696.485	5044
696.488	5054
696.530	5210
696.572	5029
696.604	5225
696.614	5269
696.656	5039
696.698	5013
696.724	4861
696.740	4766
696.783	4634
696.825	4507
696.844	4425
696.867	4342
696.909	4125
696.951	3879
696.964	3795
696.992	4090
697.034	4486
697.076	4931
697.083	4993
697.118	5209
697.160	5398
697.202	5616
697.203	5605
697.244	5292
697.286	5024
697.323	4605
697.327	4643
697.369	4905
697.411	5163
697.442	5443
697.453	5460
697.494	5291
697.536	5229
697.562	5145
697.578	5132
697.620	5097
697.661	5004
697.682	5003
697.703	5152
697.744	5224
697.786	5501
697.801	5508
697.828	5550
697.869	5733
697.911	5857
697.921	5887
697.952	5717
697.994	5356
698.035	5052
698.040	5000
698.077	5237
698.118	5462
698.160	5627
698.160	5607
698.201	5378
698.243	5086
698.279	4822
698.284	4839
698.325	4816
698.367	4857
698.399	4808
698.408	4835
698.449	4945
698.491	5006
698.518	5081
698.532	5205
698.573	5488
698.614	5783
698.638	5934
698.656	5879
698.697	5713
698.738	5525
698.757	5426
698.779	5336
698.820	5132
698.862	4915
698.877	4821
698.903	5014
698.944	5295
698.985	5578
698.996	5640
699.026	5517
699.067	5326
699.116	5083
699.235	4800
699.354	4928
699.474	5230
699.593	5685
699.713	6493
699.832	5227
699.951	5184
700.070	5597
700.190	5400
700.309	5219
700.428	5460
700.547	5625
700.667	4780
700.786	5370
700.905	4645
701.024	5066
701.143	5091
701.262	4510
701.381	5399
701.500	5240
701.619	5783
701.738	5012
701.857	4661
701.976	4198
702.095	4954
702.214	5033
702.333	4850
702.452	5335
702.571	4974
702.690	5464
702.809	4832
702.928	4127
703.047	4312
703.165	4831
703.284	4268
703.403	5062
703.522	5015
703.640	5110
703.759	5120
703.878	6337
703.997	4784
704.115	4297
704.234	4750
704.353	4483
704.471	4012
704.590	4485
704.708	4899
704.827	5172
704.946	4757
705.064	5095
705.183	5052
705.301	4840
705.420	6196
705.538	5591
705.656	6591
705.775	5839
705.893	10466
706.012	16624
706.130	6569
706.249	5516
706.367	5383
706.485	5326
706.604	5691
706.722	4951
706.840	6336
706.958	8401
707.077	6960
707.195	6073
707.313	5501
707.431	5276
707.549	4621
707.668	4112
707.786	5231
707.904	4327
708.022	4744
708.140	4597
708.258	4240
708.376	4831
708.494	4964
708.612	5075
708.730	5261
708.848	5792
708.966	5448
709.084	6441
709.202	4510
709.320	5828
709.438	5279
709.556	5394
709.674	5580
709.791	6015
709.909	5187
710.027	5424
710.145	5487
710.263	5645
710.380	5556
710.498	5810
710.616	5011
710.733	4874
710.851	5326
710.969	5279
711.086	5102
711.204	5301
711.322	5167
711.439	5250
711.557	5072
711.674	4362
711.792	5711
711.909	5920
712.027	6465
712.144	5534
712.262	4315
712.379	4660
712.497	6280
712.614	6498
712.732	6017
712.849	6134
712.966	5867
713.084	6777
713.201	6029
713.318	5754
713.436	5439
713.553	5568
713.670	6071
713.787	6595
713.905	5607
714.022	5230
714.139	5326
714.256	7091
714.373	6802
714.490	11054
714.608	21358
714.725	86109
714.842	133652
714.959	13243
715.076	6993
715.193	5747
715.310	6302
715.427	5458
715.544	4894
715.661	5328
715.778	5442
715.895	5789
716.011	5935
716.128	5087
716.245	5642
716.362	6232
716.479	5938
716.596	5443
716.713	4764
716.829	5726
716.946	5199
717.063	4328
717.180	4338
717.296	4615
717.413	5117
717.530	4817
717.646	4513
717.763	4343
717.880	4142
717.996	4065
718.113	5122
718.229	3862
718.346	3441
718.462	4287
718.579	5382
718.695	7169
718.812	5982
718.928	6085
719.045	5104
719.161	3861
719.277	4551
719.394	4132
719.510	4321
719.626	4132
719.743	4643
719.859	5694
719.975	8984
720.092	23283
720.208	63913
720.324	13772
720.440	5194
720.557	5360
720.673	6106
720.789	8058
720.905	13613
721.021	6969
721.137	4561
721.253	4460
721.369	4888
721.486	4229
721.602	5806
721.718	4187
721.834	3615
721.950	4396
722.066	3773
722.181	4225
722.297	4180
722.413	3445
722.529	3877
722.645	3686
722.761	4154
722.877	3530
722.993	4150
723.108	3993
723.224	3721
723.340	4126
723.456	4352
723.571	4377
723.687	2766
723.803	3605
723.918	3442
724.034	4476
724.150	2825
724.265	4203
724.381	6105
724.497	7898
724.612	3567
724.728	3812
724.843	3543
724.959	4268
725.074	5551
725.190	7922
725.305	3970
725.421	3669
725.536	3217
725.651	3901
725.767	2722
725.882	3382
725.997	3680
726.113	3168
726.228	3309
726.343	3281
726.459	3164
726.574	3698
726.689	4101
726.804	3555
726.920	2982
727.035	3233
727.150	3051
727.265	3209
727.380	4084
727.495	3733
727.610	3410
727.725	2821
727.841	3681
727.956	7626
728.071	8096
728.186	2847
728.301	2824
728.416	3185
728.531	3538
728.645	2542
728.760	3530
728.875	3209
728.990	3101
729.105	3529
729.220	3329
729.335	3399
729.449	2981
729.564	3190
729.679	3361
729.794	3219
729.908	3370
730.023	3532
730.138	2840
730.253	3501
730.367	2097
730.482	3072
730.596	3326
730.711	3556
730.826	3441
730.940	4347
731.055	3282
731.169	2648
731.284	2738
731.398	2783
731.513	3202
731.627	3129
731.742	3317
731.856	3528
731.970	3055
732.085	3095
732.199	4371
732.313	5244
732.428	10189
732.542	27711
732.656	23342
732.771	6015
732.885	3794
732.999	3954
733.113	3210
733.227	3447
733.342	3698
733.456	2777
733.570	3363
733.684	2735
733.798	3050
733.912	2107
734.026	2109
734.140	3375
734.254	3191
734.368	4130
734.482	5765
734.596	2366
734.710	3762
734.824	2745
734.938	3467
735.052	2690
735.166	3311
735.280	3138
735.393	2742
735.507	2800
735.621	3300
735.735	5173
735.849	3549
735.962	3379
736.076	2617
736.190	3269
736.303	2674
736.417	4556
736.531	3077
736.644	2013
736.758	2259
736.872	2339
736.985	1987
737.099	2531
737.212	2127
737.326	2648
737.439	2754
737.553	3082
737.666	2323
737.780	2033
737.893	3277
738.007	2603
738.120	1887
738.233	2577
738.347	1870
738.460	1685
738.573	2469
738.687	2826
738.800	3176
738.913	3845
739.026	2615
739.140	2583
739.253	2288
739.366	2636
739.479	2657
739.592	2942
739.705	2693
739.818	2697
739.932	2414
740.045	3403
740.158	2454
740.271	2443
740.384	2120
740.497	2700
740.610	3223
740.723	2918
740.836	3124
740.949	2686
741.062	3155
741.174	3064
741.287	2300
741.400	2242
741.513	2738
741.626	2429
741.739	2764
741.851	2411
741.964	2369
742.077	2514
742.189	2282
742.302	3012
742.415	3183
742.527	3284
742.640	1614
742.753	2103
742.865	1786
742.978	1936
743.090	2143
743.203	2482
743.316	2671
743.428	2739
743.541	2780
743.653	2194
743.766	1999
743.878	2019
743.990	2759
744.103	3059
744.215	2473
744.327	2411
744.440	3215
744.552	3732
744.664	2596
744.777	2293
744.889	1422
745.001	2610
745.113	1839
745.226	1810
745.338	2177
745.450	2166
745.562	1543
745.674	2210
745.786	1958
745.898	1522
746.010	2617
746.122	2555
746.234	2237
746.347	1647
746.459	2190
746.570	2480
746.682	3085
746.794	4382
746.906	2819
747.018	2805
747.130	1844
747.242	2482
747.354	1859
747.466	2076
747.577	1495
747.689	2576
747.801	1956
747.913	2203
748.024	1792
748.136	1915
748.248	2221
748.359	2391
748.471	2154
748.583	2299
748.694	3252
748.806	3246
748.918	2166
749.029	3091
749.141	3239
749.252	2226
749.364	2472
749.475	2990
749.587	3623
749.698	2257
749.809	2119
749.921	2228
750.032	2580
750.144	2235
750.255	1973
750.366	2388
750.478	2431
750.589	1255
750.700	2137
750.811	3169
750.923	3266
751.034	3922
751.145	4916
751.256	1768
751.367	1902
751.479	2051
751.590	1984
751.701	3054
751.812	2134
751.923	2429
752.034	2148
752.145	2053
752.256	1850
752.367	2117
752.478	2112
752.589	2450
752.700	2596
752.811	1974
752.922	2781
753.032	1522
753.143	2174
753.254	1792
753.365	2586
753.476	2141
753.586	2156
753.697	2836
753.808	1741
753.919	1319
754.029	2335
754.140	3280
754.251	2048
754.361	2321
754.472	1981
754.582	2617
754.693	2088
754.804	2061
754.914	1926
755.025	2154
755.135	2730
755.246	2116
755.356	2142
755.466	2342
755.577	2157
755.687	2027
755.798	3003
755.908	3037
756.018	3029
756.129	2918
756.239	2833
756.349	2057
756.460	2934
756.570	3413
756.680	2696
756.790	2684
756.900	4020
757.011	2403
757.121	3406
757.231	2774
757.341	2202
757.451	2702
757.561	2140
757.671	2814
757.781	2495
757.891	3100
758.001	2566
758.111	3287
758.221	3556
758.331	3226
758.441	3471
758.551	3515
758.661	2973
758.771	3948
758.880	3139
758.990	3558
759.100	3932
759.210	3240
759.320	2782
759.429	3133
759.539	3887
759.649	4208
759.758	3494
759.868	3926
759.978	2989
760.087	3706
760.197	3806
760.307	4192
760.416	4767
760.526	3642
760.635	4353
760.745	3396
760.854	4647
760.964	4911
761.073	4826
761.182	3961
761.292	4749
761.401	5029
761.511	4355
761.620	4607
761.729	4755
761.839	5307
761.948	5614
762.057	5068
762.166	4198
762.276	3795
762.385	5778
762.494	5108
762.603	5661
762.712	6201
762.822	6534
762.931	7440
763.040	6282
763.149	7245
763.258	7532
763.367	7806
763.476	8259
763.585	8402
763.694	8571
763.803	9553
763.912	10011
764.021	10066
764.130	10781
764.238	11914
764.347	12316
764.456	13281
764.565	14940
764.674	15839
764.783	16967
764.891	19512
765.000	22287
765.109	24853
765.217	27589
765.326	33305
765.435	39562
765.543	46651
765.652	58545
765.761	76974
765.869	102353
765.978	145118
766.086	211766
766.195	326444
766.303	476740
766.412	503717
766.520	459637
766.629	471641
766.737	327339
766.846	214656
766.954	147445
767.062	105827
767.171	80859
767.279	63184
767.387	49593
767.496	42182
767.604	34502
767.712	31554
767.820	26754
767.928	24336
768.037	23395
768.145	21688
768.253	20819
768.361	19597
768.469	19611
768.577	20061
768.685	21011
768.793	22675
768.901	24342
769.009	28647
769.117	33789
769.225	43719
769.333	59351
769.441	89848
769.549	143874
769.657	256149
769.765	425229
769.873	443237
769.981	412171
770.088	268933
770.196	150787
770.304	97702
770.412	68942
770.519	51012
770.627	39504
770.735	31676
770.842	27080
770.950	23756
771.058	20065
771.165	18652
771.273	15604
771.380	14344
771.488	13621
771.595	12549
771.703	11087
771.810	10353
771.918	9802
772.025	8948
772.133	8398
772.240	8189
772.348	8391
772.455	8802
772.562	7629
772.670	7183
772.777	7136
772.884	6891
772.991	6025
773.099	6536
773.206	5545
773.313	5428
773.420	5670
773.528	4378
773.635	4843
773.742	5573
773.849	4992
773.956	5021
774.063	5034
774.170	4782
774.277	4896
774.384	4391
774.491	3622
774.598	3473
774.705	4314
774.812	3404
774.919	3507
775.026	3856
775.133	3819
775.239	3198
775.346	2847
775.453	3042
775.560	3367
775.667	3211
775.773	3949
775.880	3595
775.987	2964
776.093	3333
776.200	2067
776.307	2564
776.413	2670
776.520	2516
776.627	3246
776.733	2981
776.840	3165
776.946	3907
777.053	4790
777.159	6210
777.266	3419
777.372	6390
777.478	4958
777.585	4157
777.691	2472
777.798	3039
777.904	3120
778.010	4486
778.117	3466
778.223	1980
778.329	2720
778.435	2548
778.542	2561
778.648	1516
778.754	1972
778.860	2283
778.966	2773
779.072	2903
779.178	2136
779.284	2199
779.391	2458
779.497	2123
779.603	4791
779.708	6528
779.815	14145
779.920	48862
780.026	105945
780.132	24889
780.238	4262
780.344	2680
780.450	2852
780.556	2408
780.661	2553
780.767	1740
780.873	2406
780.979	1978
781.085	1347
781.190	1880
781.296	1592
781.402	1473
781.507	1192
781.613	1904
781.719	2044
781.824	1707
781.930	1981
782.035	2434
782.141	1529
782.246	1435
782.352	1484
782.457	1438
782.563	1497
782.668	1095
782.773	1538
782.879	1436
782.984	1062
783.090	1756
783.195	1783
783.300	1847
783.405	1036
783.511	1026
783.616	1109
783.721	1872
783.826	1659
783.932	1412
784.037	2270
784.142	765
784.247	1484
784.352	1186
784.457	1305
784.562	2348
784.667	1465
784.772	1527
784.877	1373
784.982	1287
785.087	751
785.192	1631
785.297	2016
785.402	1566
785.507	1158
785.611	1809
785.716	719
785.821	1859
785.926	1269
786.031	300
786.135	1258
786.240	1131
786.345	965
786.450	1394
786.554	1319
786.659	572
786.763	481
786.868	962
786.973	1678
787.077	1492
787.182	1490
787.286	2222
787.391	307
787.495	582
787.600	1510
787.704	793
787.809	1246
787.913	1027
788.017	714
788.122	1407
788.226	623
788.330	497
788.435	1142
788.539	836
788.643	768
788.747	1294
788.852	579
788.956	469
789.060	662
789.164	1087
789.268	129
789.372	937
789.476	1173
789.580	976
789.684	1108
789.788	1002
789.892	515
789.996	1402
790.100	393
790.204	1115
790.308	1510
790.412	827
790.516	905
790.620	697
790.724	1478
790.828	795
790.931	642
791.035	1810
791.139	1248
791.242	1117
791.346	1017
791.450	260
791.554	809
791.657	277
791.761	1305
791.864	1121
791.968	978
792.072	605
792.175	818
792.279	934
792.382	854
792.486	2000
792.589	337
792.693	1124
792.796	-5
792.899	1393
793.003	226
793.106	756
793.209	524
793.313	1446
793.416	362
793.519	1639
793.623	1158
793.726	1556
793.829	971
793.932	1088
794.035	-22
794.138	676
794.242	1740
794.345	776
794.448	3436
794.551	8606
794.654	26584
794.757	61320
794.860	15790
794.963	2250
795.066	590
795.169	1582
795.272	379
795.375	629
795.477	508
795.580	1090
795.683	251
795.786	651
795.889	7
795.991	1364
796.094	1341
796.197	652
796.300	895
796.402	-129
796.505	-91
796.608	126
796.710	1333
796.813	382
796.915	341
797.018	1340
797.120	771
797.223	-250
797.326	1237
797.428	310
797.530	450
797.633	867
797.735	1087
797.838	505
797.940	947
798.042	243
798.145	294
798.247	-287
798.349	639
798.452	349
798.554	-250
798.656	28
798.758	584
798.860	1039
798.962	-17
799.065	205
799.167	-678
799.269	775
799.371	358
799.473	205
799.575	556
799.677	151
799.779	1285
799.881	580
799.983	852
800.085	495
800.187	-181
800.289	352
800.390	-12
800.492	1022
800.594	737
800.696	185
800.798	30
800.899	47
801.001	342
801.103	631
801.205	484
801.306	51
801.408	-2
801.509	494
801.611	210
801.713	339
801.814	374
801.916	471
802.017	-655
802.119	-136
802.220	500
802.322	-464
802.423	782
802.525	-304
802.626	392
802.727	191
802.829	658
802.930	-695
803.031	1677
803.133	474
803.234	-56
803.335	485
803.436	154
803.538	749
803.639	-718
803.740	20
803.841	-228
803.942	79
804.043	637
804.144	145
804.245	-1059
804.346	926
804.447	-248
804.548	645
804.649	1091
804.750	4
804.851	-427
804.952	-891
805.053	399
805.154	-591
805.255	77
805.355	36
805.456	-30
805.557	-462
805.658	-987
805.758	741
805.859	88
805.960	652
806.061	-532
806.161	5
806.262	-256
806.362	-47
806.463	-727
806.564	539
806.664	-206
806.765	582
806.865	638
806.966	-400
807.066	-159
807.166	362
807.267	928
807.367	260
807.468	383
807.568	-241
807.668	938
807.769	589
807.869	-202
807.969	-323
808.069	407
808.170	711
808.270	480
808.370	527
808.470	1037
808.570	-89
808.670	-181
808.770	627
808.870	-364
808.970	659
809.070	-48
809.170	390
809.271	272
809.370	66
809.470	183
809.570	-139
809.670	-32
809.770	671
809.870	903
809.970	-674
810.070	-230
810.169	237
810.269	-557
810.369	811
810.469	-630
810.568	396
810.668	711
810.768	689
810.867	421
810.967	114
811.066	-358
811.166	-684
811.265	1216
811.365	654
811.464	-592
811.564	356
811.663	16
811.763	-507
811.862	315
811.962	738
812.061	-17
812.160	0
812.260	954
812.359	272
812.458	914
812.557	3863
812.657	7782
812.756	3277
812.855	587
812.954	945
813.053	316
813.153	501
813.252	536
813.351	591
813.450	1065
813.549	-722
813.648	797
813.747	150
813.846	319
813.945	-109
814.044	30
814.143	540
814.242	321
814.341	-191
814.439	17
814.538	129
814.637	121
814.736	361
814.835	425
814.933	-9
815.032	517
815.131	-357
815.229	380
815.328	766
815.427	488
815.525	293
815.624	941
815.722	430
815.821	803
815.919	1017
816.018	-154
816.116	1014
816.215	667
816.313	551
816.412	703
816.510	1251
816.609	1772
816.707	1012
816.805	1055
816.904	946
817.002	2219
817.100	1754
817.198	2419
817.296	1396
817.395	2560
817.493	3315
817.591	3472
817.689	5595
817.787	8648
817.885	12580
817.983	22043
818.081	43782
818.179	100037
818.277	220617
818.375	234237
818.473	94591
818.571	37674
818.669	22166
818.767	17708
818.865	16653
818.963	18975
819.061	26234
819.158	43264
819.256	83737
819.354	172930
819.452	326719
819.549	271131
819.647	119828
819.745	53099
819.842	29853
819.940	19498
820.038	14248
820.135	9903
820.233	8104
820.330	6278
820.428	4902
820.525	5072
820.623	4078
820.720	3236
820.818	2867
820.915	2272
821.012	2609
821.110	1856
821.207	2348
821.304	2146
821.402	2160
821.499	1803
821.596	3061
821.693	2569
821.791	1728
821.888	1575
821.985	1650
822.082	517
822.179	2733
822.276	1061
822.373	1218
822.470	953
822.567	1399
822.664	223
822.761	1226
822.858	-399
822.955	707
823.052	73
823.149	41
823.246	-312
823.343	832
823.440	460
823.536	394
823.633	270
823.730	-231
823.827	620
823.923	623
824.020	1149
824.117	555
824.213	-596
824.310	368
824.407	570
824.503	343
824.600	289
824.696	1024
824.793	456
824.889	267
824.986	-941
825.082	-62
825.179	444
825.275	12
825.371	236
825.468	179
825.564	312
825.660	-320
825.757	109
825.853	317
825.949	-953
826.045	575
826.142	-203
826.238	195
826.334	1062
826.430	169
826.526	80
826.622	-239
826.718	-14
826.814	-1128
826.910	646
827.006	-766
827.102	-1376
827.198	168
827.294	-244
827.390	-185
827.486	229
827.582	-1321
827.678	-157
827.774	164
827.869	-1311
827.965	683
828.061	-1040
828.157	-760
828.252	-753
828.348	84
828.444	462
828.539	344
828.635	-596
828.731	277
828.826	-1366
828.922	298
829.017	-1614
829.113	380
829.208	-177
829.304	-1316
829.399	539
829.495	51
829.590	862
829.685	-895
829.781	297
829.876	-381
829.971	-243
830.066	-280
830.162	-605
830.257	-191
830.352	-533
830.447	128
830.543	-251
830.638	-1473
830.733	273
830.828	-879
830.923	111
831.018	-230
831.113	-480
831.208	-508
831.303	-674
831.398	-784
831.493	-378
831.588	442
831.683	-593
831.778	140
831.873	-219
831.967	509
832.062	-949
832.157	-1057
832.252	-189
832.346	-578
832.441	124
832.536	133
832.631	1509
832.725	838
832.820	176
832.914	-776
833.009	-1087
833.104	-139
833.198	278
833.293	-841
833.387	305
833.482	-80
833.576	-581
833.670	-366
833.765	-460
833.859	-1182
833.954	950
834.048	-22
834.142	-416
834.237	202
834.331	-295
834.425	-337
834.519	-80
834.613	400
834.708	-38
834.802	-482
834.896	136
834.990	-735
835.084	778
835.178	311
835.272	-113
835.366	-856
835.460	325
835.554	-314
835.648	-641
835.742	-171
835.836	-331
835.930	-705
836.024	343
836.117	406
836.211	-751
836.305	-120
836.399	530
836.493	-467
836.586	441
836.680	-377
836.774	-234
836.867	386
836.961	-559
837.055	-333
837.148	-487
837.242	425
837.335	-441
837.429	-844
837.522	-595
837.616	-905
837.709	-256
837.803	52
837.896	112
837.989	-842
838.083	1133
838.176	11
838.269	-87
838.363	111
838.456	-433
838.549	-600
838.642	242
838.735	1565
838.829	1190
838.922	-505
839.015	59
839.108	-101
839.201	-340
839.294	154
839.387	23
839.480	-1273
839.573	-279
839.666	32
839.759	-453
839.852	-853
839.945	-166
840.038	-432
840.131	-250
840.223	-469
840.316	338
840.409	-246
840.502	-1025
840.594	397
840.687	-992
840.780	-532
840.873	-1171
840.965	-319
841.058	-43
841.150	255
841.243	-382
841.336	-149
841.428	-731
841.521	-609
841.613	-736
841.706	-555
841.798	-221
841.890	-372
841.983	-1031
842.075	-47
842.167	-706
842.260	-907
842.352	289
842.444	-50
842.537	527
842.629	941
842.721	45
842.813	-189
842.905	-467
842.997	133
843.090	-606
843.182	-358
843.274	-536
843.366	2134
843.458	2509
843.550	3051
843.642	766
843.734	-914
843.826	-233
843.918	470
844.009	-551
844.101	-680
844.193	-881
844.285	-1066
844.377	187
844.469	8
844.560	-185
844.652	-306
844.744	34
844.835	-584
844.927	-511
845.019	-1034
845.110	90
845.202	-265
845.293	-184
845.385	-594
845.476	-986
845.568	539
845.659	-605
845.751	575
845.842	-731
845.934	-90
846.025	-880
846.116	137
846.208	-1652
846.299	-623
846.390	-148
846.482	-715
846.573	-370
846.664	-539
846.755	-7
846.846	59
846.937	-782
847.029	-356
847.120	-567
847.211	-780
847.302	69
847.393	-796
847.484	418
847.575	-999
847.666	-1016
847.757	-271
847.847	-621
847.938	121
848.029	-218
848.120	-980
848.211	-1105
848.302	-989
848.392	-1124
848.483	-531
848.574	-1002
848.664	-975
848.755	-415
848.846	-103
848.936	-674
849.027	-805
849.118	-251
849.208	-830
849.299	-694
849.389	-11
849.480	-103
849.570	1570
849.661	2383
849.751	5897
849.841	2563
849.932	-281
850.022	-464
850.112	-165
850.203	-99
850.293	-891
850.383	-293
850.474	-1052
850.564	-914
850.654	-191
850.744	-571
850.834	-773
850.924	-194
851.014	-300
851.104	-537
851.194	-418
851.284	-604
851.374	-8
851.464	-410
851.554	-378
851.644	-659
851.734	148
851.824	-682
851.914	1036
852.004	3114
852.094	4000
852.183	-31
852.273	-369
852.363	-647
852.452	-661
852.542	-1098
852.632	-1534
852.721	-1072
852.811	-833
852.901	-1114
852.990	-349
853.080	-195
853.169	-602
853.259	-527
853.348	683
853.438	-745
853.527	-244
853.617	-910
853.706	1164
853.795	2559
853.885	7031
853.974	13303
854.063	24276
854.152	43458
854.242	20669
854.331	3244
854.420	436
854.509	366
854.598	473
854.687	-592
854.777	-37
854.866	-207
854.955	-519
855.044	-393
855.133	-822
855.222	-303
855.311	-1090
855.400	-214
855.488	-21
855.577	-764
855.666	-615
855.755	-76
855.844	-117
855.933	254
856.021	-239
856.110	-524
856.199	-810
856.288	-1487
856.376	-1084
856.465	-1314
856.554	-393
856.642	-503
856.731	123
856.819	-79
856.908	-815
856.996	-1077
857.085	-745
857.173	-841
857.262	-429
857.350	-419
857.438	-1398
857.527	-531
857.615	-643
857.703	-390
857.792	-669
857.880	-760
857.968	-501
858.056	-1156
858.145	-764
858.233	-945
858.321	-1292
858.409	-651
858.497	-550
858.585	-910
858.673	-1263
858.761	-715
858.849	-924
858.937	-707
859.025	-598
859.113	159
859.201	-1436
859.289	-899
859.377	-785
859.465	-987
859.552	-922
859.640	-753
859.728	-784
859.816	-926
859.903	13
859.991	-1076
860.079	-660
860.166	-917
860.254	-146
860.342	-674
860.429	-857
860.517	-1063
860.604	-292
860.692	-388
860.779	-404
860.867	-1409
860.954	-1425
861.042	-634
861.129	-1495
861.216	-1776
861.304	-1088
861.391	-478
861.478	-631
861.565	-845
861.653	-215
861.740	-1715
861.827	-1490
861.914	-377
862.001	-216
862.089	-619
862.176	-1468
862.263	-477
862.350	-706
862.437	-1134
862.524	-978
862.611	-852
862.698	-1057
862.785	-594
862.871	-677
862.958	-1005
863.045	-1238
863.132	-1064
863.219	-1118
863.306	-954
863.392	-27
863.479	-254
863.566	-331
863.652	51
863.739	-879
863.826	-185
863.912	-1143
863.999	-1432
864.086	-871
864.172	-910
864.259	-833
864.345	-703
864.432	-1041
864.518	-289
864.604	-1511
864.691	-687
864.777	-373
864.863	-577
864.950	-722
865.036	-704
865.122	-257
865.209	-275
865.295	-767
865.381	-415
865.467	675
865.553	323
865.639	-201
865.726	-79
865.812	2684
865.898	5842
865.984	9672
866.070	16660
866.156	23231
866.242	6325
866.328	671
866.414	-409
866.499	-476
866.585	-43
866.671	-316
866.757	-591
866.843	-151
866.928	-1052
867.014	34
867.100	-1058
867.186	-1085
867.271	-835
867.357	126
867.442	-195
867.528	626
867.614	-841
867.699	-417
867.785	-96
867.870	9
867.956	-7
868.041	301
868.127	554
868.212	-77
868.297	-253
868.383	-739
868.468	-445
868.553	675
868.639	330
868.724	734
868.809	1677
868.894	-587
868.979	-46
869.065	-173
869.150	-602
869.235	-890
869.320	-307
869.405	-1029
869.490	-990
869.575	-852
869.660	-967
869.745	-1326
869.830	-543
869.915	-593
870.000	-172
870.085	-1458
870.169	-715
870.254	-537
870.339	-1239
870.424	-974
870.509	-542
870.593	-51
870.678	-487
870.763	-573
870.847	-633
870.932	-1532
871.016	-230
871.101	-982
871.186	-977
871.270	-1059
871.355	-1181
871.439	-321
871.523	-763
871.608	-1332
871.692	-834
871.777	-172
871.861	-1119
871.945	-933
872.030	-373
872.114	-741
872.198	-1508
872.282	-1365
872.367	-1402
872.451	-854
872.535	-612
872.619	-949
872.703	-891
872.787	-785
872.871	-948
872.955	-1315
873.039	-1162
873.123	-989
873.207	-754
873.291	-624
873.375	-1379
873.459	-271
873.543	-1390
873.627	-701
873.711	-660
873.794	-569
873.878	-1192
873.962	-1304
874.045	-1132
874.129	-742
874.137	-743
874.213	-752
874.245	-1007
874.296	-1417
874.352	-1141
874.380	-1013
874.460	-989
874.464	-989
874.547	-708
874.568	-627
874.631	-397
874.676	-364
874.714	-334
874.784	-999
874.798	-1125
874.881	-157
874.892	-276
874.965	-1124
874.999	-998
875.048	-828
875.107	-879
875.131	-897
875.215	-835
875.215	-834
875.298	-470
875.323	-614
875.381	-943
875.430	-813
875.465	-688
875.538	-151
875.548	-100
875.631	-518
875.646	-530
875.714	-523
875.753	-607
875.798	-650
875.861	-663
875.881	-692
875.964	-823
875.968	-809
876.047	-484
876.076	-521
876.130	-626
876.183	-203
876.213	30
876.291	-114
876.296	-126
876.379	-477
876.398	-502
876.462	-500
876.506	-734
876.545	-986
876.613	-684
876.628	-601
876.711	-246
876.721	-284
876.794	-506
876.828	-314
876.877	-175
876.935	-135
876.960	-112
877.043	-280
877.043	-282
877.125	-498
877.150	-353
877.208	-5
877.258	-285
877.291	-438
877.365	12
877.374	37
877.456	-426
877.472	-366
877.539	243
877.579	178
877.622	-75
877.687	-5
877.704	28
877.787	33
877.794	-56
877.869	-911
877.901	-482
877.952	268
878.008	124
878.034	-54
878.115	-258
878.117	-253
878.199	-399
878.222	-234
878.282	150
878.329	311
878.364	384
878.437	365
878.447	344
878.529	-767
878.544	-674
878.611	111
878.651	40
878.694	-111
878.758	-29
878.776	-44
878.858	-216
878.865	-212
878.941	-200
878.972	-201
879.023	25
879.078	-534
879.105	-782
879.185	542
879.187	568
879.269	230
879.292	324
879.351	430
879.399	-132
879.433	-415
879.506	176
879.516	258
879.598	-519
879.613	-477
879.680	-350
879.720	14
879.762	385
879.827	275
879.844	244
879.926	198
879.933	209
880.007	476
880.040	386
880.089	348
880.147	827
880.171	979
880.253	1057
880.254	1054
880.335	896
880.360	1005
880.417	1866
880.467	2795
880.499	3376
880.574	4787
880.580	4771
880.662	2061
880.680	1614
880.744	265
880.787	54
880.825	341
880.893	386
880.907	395
880.989	991
881.000	983
881.070	754
881.106	784
881.152	869
881.213	528
881.233	379
881.315	140
881.319	132
881.396	507
881.426	582
881.478	623
881.532	792
881.559	866
881.639	752
881.641	746
881.722	683
881.745	464
881.803	259
881.852	599
881.885	848
881.958	1198
881.966	1206
882.047	814
882.064	811
882.129	1014
882.171	920
882.210	987
882.277	1477
882.291	1487
882.372	1156
882.383	1086
882.454	698
882.489	606
882.535	630
882.596	651
882.616	638
882.697	526
882.702	525
882.778	763
882.808	773
882.859	766
882.914	794
882.940	819
883.020	1118
883.021	1124
883.102	792
883.127	845
883.183	1175
883.233	1300
883.264	1228
883.339	910
883.345	925
883.426	717
883.445	844
883.507	969
883.551	740
883.587	719
883.657	1194
883.668	1257
883.749	1182
883.763	1174
883.830	1234
883.869	1123
883.910	980
883.975	1305
883.991	1346
884.072	1185
884.081	1115
884.152	1219
884.187	1399
884.233	1389
884.292	1525
884.314	1471
884.394	802
884.398	782
884.475	971
884.504	886
884.555	956
884.610	1042
884.636	1017
884.716	1367
884.716	1377
884.797	1437
884.821	1431
884.877	1190
884.927	921
884.958	993
885.033	1494
885.038	1521
885.118	1259
885.139	1311
885.199	1034
885.244	782
885.279	982
885.350	1317
885.359	1315
885.439	1004
885.456	964
885.520	1093
885.561	1298
885.600	1390
885.667	1240
885.680	1262
885.760	1507
885.773	1504
885.840	1664
885.878	1892
885.920	1841
885.984	1639
886.000	1625
886.080	1539
886.089	1505
886.160	1398
886.195	1378
886.240	1343
886.300	1471
886.320	1645
886.400	1963
886.406	1982
886.480	1587
886.511	1415
886.560	1573
886.616	1586
886.640	1598
886.720	1887
886.722	1877
886.800	883
886.827	637
886.879	1101
886.932	1364
886.959	1607
887.038	2482
887.039	2496
887.119	2593
887.143	2562
887.198	2336
887.248	2150
887.278	2118
887.354	1997
887.358	2007
887.437	2080
887.459	2055
887.517	2347
887.564	2636
887.596	2539
887.669	2160
887.676	2141
887.755	1810
887.774	1709
887.835	1143
887.880	799
887.914	1265
887.985	2047
887.994	2057
888.073	2119
888.090	2139
888.153	2328
888.195	2319
888.232	2177
888.300	2071
888.311	2109
888.391	2125
888.405	2139
888.470	1886
888.510	1695
888.549	2131
888.615	2862
888.628	2890
888.708	2883
888.720	2889
888.787	2636
888.825	2428
888.866	2405
888.930	2371
888.945	2399
889.024	2475
889.035	2477
889.103	2523
889.140	2513
889.182	2686
889.245	2949
889.261	2791
889.340	1957
889.349	1856
889.419	1913
889.454	1912
889.498	1977
889.559	2084
889.577	2085
889.656	2047
889.664	2037
889.735	2263
889.768	2361
889.814	2771
889.873	3293
889.978	2725
890.083	3053
890.187	2751
890.292	3393
890.397	1877
890.501	2089
890.606	1856
890.710	2334
890.815	2789
890.919	2404
891.024	2827
891.128	2821
891.233	2614
891.337	2831
891.442	2455
891.546	3038
891.650	1541
891.755	2541
891.859	2976
891.963	1960
892.068	2012
892.172	1777
892.276	1958
892.380	2515
892.484	1975
892.589	2245
892.693	3029
892.797	1777
892.901	2410
893.005	3194
893.109	2169
893.213	2423
893.317	3202
893.421	2851
893.525	2165
893.629	1733
893.733	2809
893.837	2355
893.941	2157
894.045	3889
894.148	6039
894.252	14194
894.356	9606
894.460	3304
894.564	1863
894.667	2746
894.771	2459
894.875	1566
894.978	1851
895.082	2379
895.186	2198
895.289	2476
895.393	1619
895.496	2560
895.600	2313
895.703	2163
895.807	1939
895.910	1636
896.014	1967
896.117	1797
896.221	2189
896.324	2151
896.427	2839
896.531	2788
896.634	1864
896.737	2214
896.840	2552
896.944	1787
897.047	2364
897.150	2468
897.253	1760
897.356	2013
897.460	1469
897.563	2382
897.666	1723
897.769	1391
897.872	1000
897.975	1677
898.078	1654
898.181	2290
898.284	1603
898.387	2199
898.490	2134
898.593	2279
898.695	1239
898.798	1970
898.901	1966
899.004	2446
899.107	1603
899.209	1900
899.312	1659
899.415	1963
899.518	1750
899.620	1304
899.723	1978
899.826	2461
899.928	2385
900.031	2063
900.133	1917
900.236	1589
900.338	1668
900.441	1801
900.543	1823
900.646	1938
900.748	2099
900.851	1855
900.953	1305
901.055	2257
901.158	1448
901.260	2436
901.362	1692
901.465	2165
901.567	1854
901.669	2643
901.771	2629
901.873	1658
901.976	2426
902.078	2652
902.180	1970
902.282	1948
902.384	1845
902.486	2513
902.588	1776
902.690	1801
902.792	2825
902.894	1381
902.996	1909
903.098	1731
903.200	1944
903.302	2307
903.404	1410
903.505	2180
903.607	1694
903.709	2092
903.811	2009
903.913	2080
904.014	1947
904.116	1605
904.218	1834
904.319	1822
904.421	2259
904.523	2269
904.624	2130
904.726	1940
904.827	1859
904.929	2389
905.030	1519
905.132	2424
905.233	1405
905.335	1671
905.436	1400
905.537	1531
905.639	940
905.740	1855
905.841	1622
905.943	2687
906.044	2530
906.145	1927
906.247	1234
906.348	2037
906.449	2629
906.550	3022
906.651	2319
906.752	2028
906.854	1701
906.955	2060
907.056	1171
907.157	1352
907.258	1368
907.359	2124
907.460	2419
907.561	2167
907.662	1663
907.762	2243
907.863	1746
907.964	2652
908.065	1372
908.166	1384
908.267	1388
908.367	2036
908.468	1986
908.569	2040
908.670	2363
908.770	2305
908.871	2873
908.971	2498
909.072	2328
909.173	2146
909.273	1748
909.374	1808
909.474	2329
909.575	2222
909.675	2220
909.776	1836
909.876	2960
909.977	1773
910.077	2270
910.177	1324
910.278	1804
910.378	2335
910.478	2437
910.579	1205
910.679	1947
910.779	1933
910.879	2346
910.980	2482
911.080	1632
911.180	1496
911.280	1978
911.380	2246
911.480	1819
911.580	1921
911.680	2328
911.780	1933
911.880	1729
911.980	2024
912.080	1533
912.180	2466
912.280	2183
912.380	1733
912.480	1222
912.580	1796
912.679	1394
912.779	2446
912.879	2143
912.979	1527
913.078	1606
913.178	2408
913.278	1940
913.377	2233
913.477	2383
913.577	1781
913.676	2896
913.776	2044
913.875	1313
913.975	1727
914.074	1463
914.174	1473
914.273	1797
914.373	2132
914.472	1610
914.572	1987
914.671	1841
914.770	1896
914.870	1764
914.969	1599
915.068	2410
915.167	1474
915.267	1179
915.366	2378
915.465	1950
915.564	1480
915.663	1442
915.763	1510
915.862	1678
915.961	2758
916.060	1063
916.159	1822
916.258	1130
916.357	2465
916.456	2023
916.555	1966
916.654	1998
916.752	2107
916.851	1732
916.950	1803
917.049	1782
917.148	1947
917.247	2131
917.345	2375
917.444	1529
917.543	2553
917.642	2141
917.740	1314
917.839	1417
917.937	2387
918.036	2313
918.135	1929
918.233	2086
918.332	2443
918.430	1713
918.529	1625
918.627	1592
918.726	2227
918.824	2146
918.923	1745
919.021	2009
919.119	2264
919.218	1312
919.316	1776
919.414	1997
919.512	2176
919.611	1743
919.709	2285
919.807	2257
919.905	2386
920.003	1767
920.102	1707
920.200	1420
920.298	1925
920.396	1722
920.494	1269
920.592	1983
920.690	2200
920.788	1538
920.886	1611
920.984	2412
921.082	1590
921.180	2461
921.277	2465
921.375	1880
921.473	2256
921.571	2344
921.669	2811
921.766	2336
921.864	3415
921.962	2792
922.060	2022
922.157	2031
922.255	1993
922.352	2341
922.450	2485
922.548	2116
922.645	2816
922.743	2631
922.840	2739
922.938	3682
923.035	3715
923.133	2891
923.230	4047
923.327	3269
923.425	4242
923.522	2679
923.619	2826
923.717	3486
923.814	2566
923.911	2543
924.008	3190
924.106	2662
924.203	2763
924.300	3171
924.397	2936
924.494	3166
924.591	3043
924.688	2352
924.786	3356
924.883	2873
924.979	3324
925.077	2885
925.173	3777
925.270	3267
925.367	3108
925.464	3387
925.561	2988
925.658	3901
925.755	3406
925.852	2673
925.948	3516
926.045	2800
926.142	3865
926.239	3639
926.335	2373
926.432	3274
926.529	3815
926.625	3328
926.722	2277
926.818	2889
926.915	3449
927.011	2693
927.108	3573
927.204	2806
927.301	2667
927.397	2584
927.494	2672
927.590	2757
927.687	2672
927.783	3462
927.879	2896
927.976	2072
928.072	3148
928.168	2213
928.264	2789
928.361	3120
928.457	2824
928.553	2756
928.649	2357
928.745	2976
928.841	2630
928.937	2879
929.033	2732
929.129	2687
929.225	2399
929.321	2306
929.417	2167
929.513	1800
929.609	2083
929.705	2589
929.801	3051
929.897	2425
929.993	2036
930.089	2555
930.184	2719
930.280	2908
930.376	2972
930.471	2159
930.567	2312
930.663	2344
930.758	1954
930.854	1939
930.950	2339
931.045	1671
931.141	3035
931.236	2514
931.332	2159
931.427	1807
931.523	2493
931.618	2414
931.714	1692
931.809	2203
931.905	2808
932.000	2089
932.095	1930
932.191	2773
932.286	3083
932.381	2535
932.476	2098
932.572	1859
932.667	2901
932.762	1895
932.857	3086
932.952	2434
933.047	2250
933.142	1454
933.237	2837
933.332	1832
933.427	2507
933.522	2311
933.617	2372
933.712	2712
933.807	2384
933.902	2567
933.997	2661
934.092	2428
934.187	1808
934.282	1794
934.376	2029
934.471	2456
934.566	1868
934.661	1877
934.755	2213
934.850	2148
934.945	2270
935.039	1740
935.134	2072
935.228	2189
935.323	2550
935.417	2337
935.512	2222
935.606	1677
935.701	1989
935.795	3030
935.890	2208
935.984	2178
936.079	1634
936.173	2435
936.267	1352
936.362	1906
936.456	2460
936.550	2255
936.644	1941
936.738	2355
936.833	2318
936.927	1521
937.021	2686
937.115	2124
937.209	1163
937.303	1416
937.397	1775
937.491	1126
937.585	2404
937.679	1904
937.773	1993
937.867	1447
937.961	2288
938.055	2168
938.149	2567
938.243	1868
938.337	1971
938.430	1569
938.524	1686
938.618	2030
938.712	2554
938.805	2162
938.899	2230
938.993	2313
939.086	1756
939.180	1603
939.274	2793
939.367	2371
939.461	1828
939.554	2092
939.648	1745
939.741	738
939.835	1828
939.928	1268
940.022	2227
940.115	2256
940.208	2459
940.302	2369
940.395	2224
940.488	1207
940.582	1921
940.675	1096
940.768	1860
940.861	1179
940.954	2123
941.048	2440
941.141	1221
941.234	2018
941.327	2689
941.420	2252
941.513	1654
941.606	1910
941.699	2515
941.792	2225
941.885	2605
941.978	1686
942.071	2522
942.164	1569
942.257	1878
942.349	2565
942.442	1647
942.535	1773
942.628	1673
942.721	1917
942.813	766
942.906	1645
942.999	1348
943.091	1973
943.184	1415
943.277	1854
943.369	1324
943.462	1100
943.554	1165
943.647	2444
943.739	2250
943.832	1536
943.924	1514
944.017	1642
944.109	1916
944.201	1573
944.294	1589
944.386	1578
944.478	1145
944.571	302
944.663	1765
944.755	2397
944.847	1664
944.940	1583
945.032	1680
945.124	1488
945.216	1817
945.308	1559
945.400	1288
945.492	794
945.584	2024
945.676	2279
945.768	1609
945.860	1480
945.952	2329
946.044	1083
946.136	1227
946.228	1026
946.320	824
946.412	1887
946.503	1751
946.595	1782
946.687	1208
946.779	1771
946.870	1461
946.962	757
947.054	2454
947.145	2201
947.237	1077
947.329	1332
947.420	1827
947.512	1690
947.603	1094
947.695	1996
947.786	1692
947.878	1133
947.969	1619
948.061	1605
948.152	2046
948.243	1620
948.335	874
948.426	1345
948.517	1614
948.609	1001
948.700	780
948.791	1547
948.882	1668
948.973	740
949.065	2492
949.156	2233
949.247	1291
949.338	1943
949.429	1357
949.520	1582
949.611	1383
949.702	1348
949.793	1095
949.884	1502
949.975	1320
950.066	364
950.157	1312
950.247	1024
950.338	926
950.429	832
950.520	1255
950.611	1340
950.701	930
950.792	970
950.883	1726
950.973	1367
951.064	1386
951.155	1276
951.245	1920
951.336	1436
951.427	825
951.517	736
951.608	987
951.698	1240
951.788	760
951.879	1826
951.969	1481
952.060	1462
952.150	1157
952.240	1641
952.331	479
952.421	2249
952.511	788
952.602	1307
952.692	1405
952.782	772
952.872	1595
952.962	640
953.052	1509
953.143	251
953.233	1148
953.323	1491
953.413	1090
953.503	1529
953.593	770
953.683	746
953.773	1171
953.863	1424
953.953	1564
954.042	1277
954.132	1542
954.222	1811
954.312	1120
954.402	887
954.492	1616
954.581	1937
954.671	2199
954.761	729
954.850	1657
954.940	724
955.030	1728
955.119	619
955.209	1147
955.298	1205
955.388	1756
955.477	1776
955.567	1238
955.656	2089
955.746	1569
955.835	1225
955.925	2119
956.014	1529
956.103	1029
956.193	1556
956.282	1060
956.371	1170
956.461	1532
956.550	754
956.639	1907
956.728	754
956.817	1499
956.906	1382
956.995	898
957.085	171
957.174	1094
957.263	1002
957.352	1598
957.441	1100
957.530	1496
957.619	1282
957.708	1034
957.796	1744
957.885	1725
957.974	1195
958.063	1783
958.152	836
958.241	1652
958.329	1588
958.418	1441
958.507	1413
958.596	2126
958.684	987
958.773	2208
958.861	1236
958.950	1715
959.039	2705
959.127	1747
959.216	2377
959.304	2342
959.393	1937
959.481	2105
959.570	1975
959.658	2101
959.746	1575
959.835	3222
959.923	2058
960.011	1766
960.100	1550
960.188	2450
960.276	2604
960.365	2178
960.453	970
960.541	1439
960.629	1617
960.717	570
960.805	1475
960.893	1777
960.981	1304
961.069	1982
961.158	1129
961.245	1750
961.333	383
961.421	1485
961.509	1498
961.597	1147
961.685	819
961.773	1152
961.861	338
961.949	1270
962.036	937
962.124	1877
962.212	747
962.299	339
962.387	1037
962.475	1934
962.562	810
962.650	1363
962.738	597
962.825	967
962.913	1123
963.000	1432
963.088	1693
963.175	1083
963.263	52
963.350	1315
963.438	1107
963.525	1025
963.612	1417
963.700	3087
963.787	4354
963.874	2864
963.962	992
964.049	1116
964.136	986
964.223	1113
964.310	609
964.398	1322
964.485	700
964.572	1399
964.659	1812
964.746	1142
964.833	107
964.920	1334
965.007	1113
965.094	229
965.181	-221
965.268	-75
965.355	1341
965.441	752
965.528	547
965.615	1293
965.702	1002
965.789	628
965.875	694
965.962	1427
966.049	453
966.136	1198
966.222	714
966.309	671
966.395	656
966.482	1295
966.569	329
966.655	891
966.742	63
966.828	591
966.915	224
967.001	981
967.087	-184
967.174	581
967.260	651
967.347	330
967.433	2187
967.519	3113
967.605	1557
967.692	652
967.778	1136
967.864	630
967.950	554
968.036	-439
968.123	318
968.209	559
968.295	485
968.381	976
968.467	1283
968.553	-806
968.639	1209
968.725	1197
968.811	1162
968.897	1499
968.983	1246
969.069	518
969.154	397
969.240	1381
969.326	1321
969.412	495
969.497	304
969.583	1056
969.669	630
969.755	-150
969.840	443
969.926	1264
970.012	73
970.097	1224
970.183	485
970.268	1423
970.354	819
970.439	1088
970.525	1544
970.610	1257
970.696	1217
970.781	281
970.866	-396
970.952	601
971.037	757
971.122	222
971.208	498
971.293	1245
971.378	270
971.463	876
971.549	962
971.634	739
971.719	808
971.804	931
971.889	650
971.974	-580
972.059	-260
972.144	1359
972.229	88
972.314	538
972.399	254
972.484	505
972.569	584
972.654	276
972.739	500
972.824	1341
972.908	941
972.993	-35
973.078	392
973.163	1345
973.247	789
973.332	-37
973.417	1450
973.501	242
973.586	577
973.671	1022
973.755	766
973.840	1113
973.924	98
974.009	534
974.093	915
974.178	1325
974.262	1284
974.346	1340
974.431	1191
974.515	287
974.600	-462
974.684	1222
974.768	506
974.852	1210
974.937	624
975.021	1367
975.105	141
975.189	820
975.273	1174
975.358	744
975.442	-15
975.526	1185
975.610	-573
975.694	335
975.778	511
975.862	675
975.946	-655
976.030	1516
976.114	-31
976.198	434
976.281	469
976.365	708
976.449	-161
976.533	574
976.617	90
976.700	447
976.784	225
976.868	236
976.951	582
977.035	557
977.119	334
977.202	718
977.286	8
977.369	282
977.453	-16
977.536	775
977.620	417
977.703	373
977.787	239
977.870	1372
977.953	467
978.037	598
978.120	1186
978.203	1046
978.287	1588
978.370	478
978.453	197
978.536	309
978.620	848
978.703	591
978.786	854
978.869	-433
978.952	47
979.035	1009
979.118	-102
979.201	447
979.284	225
979.367	372
979.450	544
979.533	-60
979.616	-111
979.699	586
979.782	1133
979.865	-316
979.948	611
980.030	610
980.113	405
980.196	-387
980.279	878
980.361	750
980.444	-355
980.526	145
980.609	290
980.692	608
980.774	573
980.857	176
980.939	1022
981.022	609
981.104	593
981.187	783
981.269	1170
981.352	506
981.434	212
981.516	-301
981.599	262
981.681	446
981.763	-22
981.846	318
981.928	876
982.010	759
982.092	11
982.174	510
982.256	873
982.339	276
982.421	-907
982.503	388
982.585	-37
982.667	217
982.749	733
982.831	-45
982.913	-310
982.995	1152
983.077	80
983.158	586
983.240	32
983.322	1436
983.404	513
983.486	609
983.568	-40
983.649	-199
983.731	55
983.813	620
983.894	432
983.976	209
984.058	245
984.139	962
984.221	320
984.302	326
984.384	-196
984.465	-375
984.547	-108
984.628	151
984.710	616
984.791	-58
984.872	300
984.954	391
985.035	261
985.116	501
985.198	-226
985.279	84
985.360	-23
985.441	93
985.522	873
985.604	185
985.685	-1006
985.766	103
985.847	556
985.928	-487
986.009	304
986.090	210
986.171	451
986.252	-482
986.333	955
986.414	-806
986.495	228
986.576	431
986.656	136
986.737	1278
986.818	208
986.899	-438
986.980	-250
987.060	1112
987.141	-281
987.222	402
987.302	700
987.383	23
987.464	-74
987.544	1033
987.625	400
987.705	-556
987.786	24
987.866	-201
987.947	319
988.027	161
988.108	-232
988.188	718
988.268	425
988.349	555
988.429	-327
988.509	97
988.589	208
988.670	-675
988.750	1045
988.830	1139
988.910	358
988.990	277
989.070	813
989.151	413
989.231	-443
989.311	622
989.391	240
989.471	57
989.551	142
989.631	342
989.711	542
989.791	46
989.870	-700
989.950	946
990.030	253
990.110	214
990.190	420
990.269	177
990.349	-4
990.429	321
990.509	-99
990.588	-818
990.668	464
990.747	31
990.827	-353
990.907	360
990.986	195
991.066	118
991.145	36
991.225	759
991.304	-103
991.383	851
991.463	590
991.542	1057
991.622	-73
991.701	155
991.780	122
991.859	-393
991.939	-203
992.018	-521
992.097	445
992.176	190
992.256	31
992.335	-459
992.414	702
992.493	-243
992.572	-84
992.651	793
992.730	513
992.809	-866
992.888	-639
992.967	-339
993.046	366
993.125	-378
993.203	-186
993.282	1095
993.361	313
993.440	12
993.519	310
993.597	-161
993.676	-471
993.755	-86
993.834	183
993.912	162
993.991	589
994.069	-231
994.148	-511
994.226	-433
994.305	414
994.384	126
994.462	1179
994.540	179
994.619	-1155
994.697	715
994.776	-1111
994.854	-78
994.932	-518
995.011	548
995.089	-92
995.167	227
995.245	-374
995.324	-265
995.402	344
995.480	-775
995.558	-95
995.636	-146
995.714	-306
995.792	173
995.870	-362
995.948	-347
996.026	-602
996.104	-624
996.182	-31
996.260	-58
996.338	-680
996.416	-715
996.494	141
996.572	794
996.649	-484
996.727	-572
996.805	163
996.883	350
996.960	43
997.038	530
997.116	214
997.193	-1280
997.271	-113
997.348	-263
997.426	-396
997.504	-983
997.581	97
997.658	686
997.736	-994
997.813	-715
997.891	235
997.968	-673
998.046	-297
998.123	-425
998.200	158
998.277	-893
998.355	-520
998.432	-990
998.509	48
998.586	-237
998.663	104
998.741	40
998.818	-669
998.895	16
998.972	-498
999.049	-1010
999.126	-865
999.203	77
999.280	-763
999.357	-585
999.434	-1252
999.511	277
999.587	206
999.664	-300
999.741	-53
999.818	427
999.895	-1346
999.971	-457
1000.048	-898
1000.125	125
1000.202	-658
1000.278	-112
1000.355	-751
1000.431	-177
1000.508	-805
1000.584	-601
1000.661	-649
1000.738	-1204
1000.814	-24
1000.890	238
1000.967	-670
1001.043	-357
1001.120	-972
1001.196	-1005
1001.272	-738
1001.349	239
1001.425	-135
1001.501	-256
1001.577	-393
1001.654	307
1001.730	-718
1001.806	-464
1001.882	-1376
1001.958	-209
1002.034	-417
1002.110	74
1002.186	-782
1002.262	-63
1002.338	-853
1002.414	-468
1002.490	-330
1002.566	-230
1002.642	-1179
1002.718	-134
1002.794	-931
1002.870	-832
1002.945	-1064
1003.021	-600
1003.097	-461
1003.173	109
1003.248	-1013
1003.324	79
1003.400	-503
1003.475	-568
1003.551	-138
1003.626	-640
1003.702	-546
1003.777	-599
1003.853	-1340
1003.928	-1073
1004.004	-480
1004.079	-75
1004.155	-122
1004.230	-470
1004.305	-662
1004.381	-951
1004.456	-1382
1004.531	-918
1004.607	-43
1004.682	-934
1004.757	-772
1004.832	-328
1004.907	-1148
1004.982	373
1005.057	-813
1005.133	-66
1005.208	-1172
1005.283	-1824
1005.358	-631
1005.433	-990
1005.508	-881
1005.583	-1388
1005.657	-1820
1005.732	-676
1005.807	-982
1005.882	-793
1005.957	-820
1006.032	-56
1006.106	-1253
1006.181	-811
1006.256	-959
1006.331	-1501
1006.405	-815
1006.480	-410
1006.554	-729
1006.629	-1132
1006.704	-1562
1006.778	-1137
1006.853	-382
1006.927	-976
1007.002	-1138
1007.076	-1405
1007.150	-872
1007.225	-1348
1007.299	-95
1007.373	-970
1007.448	-1037
1007.522	312
1007.596	-805
1007.671	-547
1007.745	-865
1007.819	-1258
1007.893	-1186
1007.967	-885
1008.041	-1629
1008.115	-372
1008.190	-1117
1008.264	156
1008.338	-1425
1008.412	-1817
1008.486	-1357
1008.560	-1007
1008.633	-1196
1008.707	-716
1008.781	-131
1008.855	-935
1008.929	-643
1009.003	-869
1009.076	-1174
1009.150	-472
1009.224	-958
1009.298	-849
1009.371	-1136
1009.445	-1286
1009.519	-1032
1009.592	-1515
1009.666	-330
1009.739	-767
1009.813	-2413
1009.886	-38
1009.960	-2194
1010.033	-873
1010.107	-766
1010.180	-1369
1010.253	-778
1010.327	-1064
1010.400	-1271
1010.473	-1386
1010.547	-336
1010.620	-1897
1010.693	-1398
1010.766	-2298
1010.840	-478
1010.913	-1392
1010.986	-1103
1011.059	-957
1011.132	-1430
1011.205	-184
1011.278	-1595
1011.351	-1832
1011.424	-1505
1011.497	-1283
1011.570	-1108
1011.643	-1863
1011.716	-1531
1011.789	-1268
1011.862	-762
1011.934	-431
1012.007	-2043
1012.080	-921
1012.153	-1573
1012.225	129
1012.298	-2177
1012.371	-2375
1012.443	-316
1012.516	-1655
1012.588	-690
1012.661	-1124
1012.733	-1671
1012.806	-1090
1012.879	-1987
1012.951	-1435
1013.023	-1952
1013.096	-501
1013.168	-1587
1013.241	-1493
1013.313	-973
1013.385	-1165
1013.458	-1104
1013.530	-401
1013.602	-2210
1013.674	226
1013.746	-1519
1013.819	-965
1013.891	-1171
1013.963	-1215
1014.035	-960
1014.107	-343
1014.179	-1020
1014.251	-1977
1014.323	-1523
1014.395	-371
1014.467	-1142
1014.539	-1007
1014.611	-2545
1014.683	-423
1014.754	-1405
1014.826	-916
1014.898	-1343
1014.970	-1977
1015.042	-744
1015.113	-1165
1015.185	-1404
1015.257	-1893
1015.328	-1209
1015.400	-1478
1015.471	-932
1015.543	-1989
1015.615	-1416
1015.686	-1727
1015.757	-1052
1015.829	-1174
1015.901	-1569
1015.972	-1756
1016.043	-2092
1016.115	-1265
1016.186	-1217
1016.257	-1912
1016.328	-1111
1016.400	-700
1016.471	-1969
1016.542	-1345
1016.613	-679
1016.685	-1315
1016.756	-2000
1016.827	-1806
1016.898	-1719
1016.969	-277
1017.040	-1602
1017.111	-1555
1017.182	-2213
1017.253	-1234
1017.324	-2110
1017.395	-1121
1017.466	-933
1017.537	-1109
1017.608	-1487
1017.678	-1851
1017.749	-2180
1017.820	-747
1017.891	-1563
1017.961	-984
1018.032	-1500
1018.103	-1077
1018.173	-1342
1018.244	-1581
1018.315	-458
1018.385	-1578
1018.456	-1383
1018.526	-1834
1018.597	-1745
1018.667	-1159
1018.738	-1741
1018.808	-1043
1018.878	-1590
1018.949	-969
1019.019	-1270
1019.089	-1370
1019.160	-1349
1019.230	-2413
1019.300	-1010
1019.371	-2059
1019.441	-1459
1019.511	-1155
1019.581	-1258
1019.651	-1935
1019.721	-1565
1019.791	-1214
1019.861	-1322
1019.931	-1057
1020.001	-1897
1020.071	-1211
1020.141	-1922
1020.211	-1619
1020.281	-1826
1020.351	-1677
1020.421	-1208
1020.491	-921
1020.560	-1708
1020.630	-1505
1020.700	-1621
1020.770	-1518
1020.839	-1383
1020.909	-1491
1020.979	-1899
1021.048	-1484
1021.118	-1202
1021.187	-1839
1021.257	-1379
1021.326	-613
1021.396	-1794
1021.465	-1493
1021.535	-1432
1021.604	-2358
1021.674	-1668
1021.743	-1717
1021.812	-1704
1021.882	-1636
1021.951	-798
1022.020	-1004
1022.089	-1488
1022.159	-1348
1022.228	-869
1022.297	-1347
1022.366	-1301
1022.435	-1145
1022.504	-1116
1022.573	-2144
1022.642	-1134
1022.711	-1811
1022.781	-1170
1022.849	-1522
1022.918	-1410
1022.987	-1541
1023.056	-1880
1023.125	-1941
1023.194	-2286
1023.263	-838
1023.331	-761
1023.400	-2273
1023.469	-1326
1023.538	-1337
1023.606	-1785
1023.675	-1765
1023.744	-2098
1023.812	-1672
1023.881	-1452
1023.949	-1401
1024.018	-1550
1024.086	-1738
1024.155	-2366
1024.223	-1266
1024.292	-1385
1024.360	-1697
1024.429	-1408
1024.497	-1372
1024.565	-1411
1024.634	-1096
1024.702	-1168
1024.770	-1249
1024.838	-2017
1024.907	-912
1024.975	-1575
1025.043	-1607
1025.111	-2241
1025.179	-1678
1025.247	-980
1025.315	-1604
1025.383	-1640
1025.451	-996
1025.519	-2021
1025.587	-1585
1025.655	-1722
1025.723	-2401
1025.791	-1576
1025.859	-1350
1025.927	-875
1025.995	-1244
1026.062	-1897
1026.130	-1441
1026.198	-1871
1026.266	-1899
1026.333	-888
1026.401	-369
1026.469	-1233
1026.536	-1149
1026.604	-1804
1026.671	-1146
1026.739	-984
1026.806	-1274
1026.874	-1979
1026.941	-1723
1027.009	-1592
1027.076	-1160
1027.144	-283
1027.211	-1763
1027.278	-2072
1027.345	-981
1027.413	-579
1027.480	-1669
1027.547	-1488
1027.614	-1879
1027.682	-1354
1027.749	-1485
1027.816	-1542
1027.883	-1849
1027.950	-1207
1028.017	-1634
1028.084	-754
1028.151	-2074
1028.218	-1418
1028.285	-1503
1028.352	-1934
1028.419	-1716
1028.486	-2175
1028.553	-2166
1028.619	-1783
1028.686	-1272
1028.753	-1663
1028.820	-1869
1028.886	-1505
1028.953	-848
1029.020	-1224
1029.086	-1951
1029.153	-2078
1029.220	-1880
1029.286	-1440
1029.353	-1002
1029.419	-1821
1029.486	-839
1029.552	-1388
1029.619	-1378
1029.685	-1543
1029.751	-1684
1029.818	-797
1029.884	-867
1029.951	-1231
1030.017	-1487
1030.083	-1868
1030.149	-1592
1030.216	-1332
1030.282	-2079
1030.348	-1210
1030.414	-1992
1030.480	-2094
1030.546	-1467
1030.612	-1851
1030.678	-1533
1030.744	-1330
1030.810	-1443
1030.876	-1358
1030.942	-912
1031.008	-891
1031.074	-1412
1031.140	-1755
1031.206	-1549
1031.272	-1854
1031.337	-1039
1031.403	-1090
1031.469	-1271
1031.534	-1970
1031.600	-1246
1031.666	-1350
1031.731	-2122
1031.797	-1565
1031.863	-1755
1031.928	-1974
1031.994	-1268
1032.059	-1528
1032.125	-1156
1032.190	-1412
1032.256	-1885
1032.321	-2284
1032.386	-1221
1032.452	-749
1032.517	-1047
1032.582	-1282
1032.647	-953
1032.713	-1229
1032.778	-1433
1032.843	-1278
1032.908	-578
1032.974	-1384
1033.039	-1447
1033.104	-1584
1033.169	-1037
1033.234	-2054
1033.299	-1144
1033.364	-1645
1033.429	-1596
1033.494	-1472
1033.559	-935
1033.624	-1145
1033.688	-982
1033.753	-775
1033.818	-1224
1033.883	-2119
1033.948	-1140
1034.013	-1744
1034.077	-1649
1034.142	-987
1034.207	-1334
1034.271	-202
1034.336	-662
1034.400	-1474
1034.465	-864
1034.530	-1143
1034.594	-1450
1034.658	-1398
1034.723	-2381
1034.787	-2097
1034.852	-1029
1034.916	-1631
1034.981	-1509
1035.045	-2006
1035.109	-1585
1035.173	-1447
1035.238	-1662
1035.302	-944
1035.366	-1220
1035.430	-1439
1035.495	-1381
1035.559	-780
1035.623	-953
1035.687	-1948
1035.751	-1506
1035.815	-1457
1035.879	-1101
1035.943	-1968
1036.007	-963
1036.071	-1687
1036.135	-1907
1036.198	-1758
1036.262	-1840
1036.326	-1431
1036.390	-2145
1036.454	-1144
1036.517	-1011
1036.581	-1727
1036.645	-1815
1036.709	-1184
1036.772	-2260
1036.836	-1972
1036.900	-1048
1036.963	-2205
1037.026	-1207
1037.090	-2444
1037.154	-1067
1037.217	-1853
1037.280	-2124
1037.344	-1497
1037.407	-2127
1037.471	-955
1037.534	-1632
1037.597	-1450
1037.661	-2276
1037.724	-985
1037.787	-1524
1037.850	-1705
1037.913	-1801
1037.977	-1713
1038.040	-2418
1038.103	-1684
1038.166	-950
1038.229	-1638
1038.292	-1427
1038.355	-1880
1038.418	-1426
1038.481	-1543
1038.544	-1615
1038.607	-1195
1038.670	-1747
1038.732	-1875
1038.795	-2137
1038.858	-1688
1038.921	-1022
1038.984	-1930
1039.046	-2146
1039.109	-2384
1039.172	-1515
1039.234	-2078
1039.297	-2495
1039.360	-1758
1039.422	-1448
1039.485	-1826
1039.547	-2098
1039.610	-2129
1039.672	-1760
1039.734	-2147
1039.797	-1473
1039.859	-1625
1039.922	-2110
1039.984	-1262
1040.046	-1301
1040.109	-1719
1040.171	-2029
1040.233	-2180
1040.295	-1428
1040.358	-2308
1040.420	-2185
1040.482	-1691
1040.544	-1718
1040.606	-2565
1040.668	-1434
1040.730	-1870
1040.792	-989
1040.854	-2550
1040.916	-1117
1040.978	-2480
1041.040	-1145
1041.102	-1096
1041.164	-1577
1041.225	-1814
1041.287	-1992
1041.349	-1592
1041.411	-1909
1041.472	-2176
1041.534	-1398
1041.596	-2564
1041.657	-1682
1041.719	-2006
1041.781	-1826
1041.842	-1436
1041.904	-1743
1041.965	-1897
1042.027	-1742
1042.088	-2263
1042.150	-1875
1042.211	-1453
1042.272	-1118
1042.334	-2256
1042.395	-1952
1042.456	-2264
1042.518	-2178
1042.579	-1330
1042.640	-2273
1042.701	-2086
1042.763	-2484
1042.824	-3317
1042.885	-1991
1042.946	-1448
1043.007	-1563
1043.068	-1969
1043.129	-2115
1043.190	-1875
1043.251	-2250
1043.312	-1606
1043.373	-1801
1043.434	-2357
1043.495	-2205
1043.556	-1952
1043.616	-1764
1043.677	-2246
1043.738	-1756
1043.799	-3127
1043.859	-1317
1043.920	-1825
1043.981	-2214
1044.041	-1861
1044.102	-2285
1044.162	-2439
1044.223	-1552
1044.284	-1695
1044.344	-1527
1044.405	-2225
1044.465	-2336
1044.525	-2095
1044.586	-2014
1044.646	-1518
1044.707	-931
1044.767	-664
1044.827	-2240
1044.887	-2186
1044.948	-2482
1045.008	-1722
1045.068	-2359
1045.128	-1878
1045.188	-1422
1045.249	-1996
1045.309	-1002
1045.369	-1811
1045.429	-1913
1045.489	-2488
1045.549	-1988
1045.609	-1795
1045.669	-2201
1045.729	-2236
1045.789	-1916
1045.848	-2181
1045.908	-1218
1045.968	-2233
1046.028	-1811
1046.088	-2109
1046.147	-1275
1046.207	-1172
1046.267	-1545
1046.326	-961
1046.386	-1998
1046.446	-1841
1046.505	-2061
1046.565	-980
1046.624	-1833
1046.684	-746
1046.743	-1136
1046.803	-545
1046.862	-884
1046.922	0
