'Start Wavelength	183.907
'End Wavelength	1046.922
'Gate Delay	5.000
'Gate Width (ms)	1.050
'Laser Output Level	0.000
'X Position	0.000
'Y Position	0.000
'Z Position	0.000
'Grid Point Number	1.000
'Shot Number	100.000
183.907	489.000
183.977	-145.000
184.047	720
184.116	338
184.186	413
184.256	-244
184.325	-74
184.395	-269
184.465	1072
184.534	458
184.604	3
184.674	-772
184.743	669
184.813	153
184.883	178
184.952	65
185.022	338
185.092	345
185.161	510
185.231	450
185.301	-46
185.370	644
185.440	414
185.509	357
185.579	195
185.649	617
185.718	-294
185.788	442
185.857	168
185.927	-32
185.996	618
186.066	206
186.136	1396
186.205	8
186.275	1087
186.344	208
186.414	136
186.483	310
186.553	1071
186.622	1075
186.692	771
186.761	698
186.831	711
186.900	308
186.970	542
187.039	1171
187.109	889
187.178	511
187.248	879
187.317	493
187.387	203
187.456	1094
187.526	606
187.595	420
187.664	402
187.734	744
187.803	549
187.873	822
187.942	1236
188.012	775
188.081	1323
188.150	475
188.220	1203
188.289	1401
188.358	0
188.428	935
188.497	604
188.567	322
188.636	813
188.705	-43
188.775	448
188.844	176
188.913	814
188.983	395
189.052	915
189.121	257
189.191	864
189.260	684
189.329	1091
189.399	334
189.468	1144
189.537	624
189.606	761
189.676	1267
189.745	656
189.814	460
189.883	705
189.953	694
190.022	1551
190.091	1344
190.161	2390
190.230	1457
190.299	416
190.368	567
190.437	361
190.507	921
190.576	751
190.645	175
190.714	349
190.783	573
190.853	1512
190.922	24
190.991	448
191.060	1599
191.129	-141
191.198	719
191.268	548
191.337	989
191.406	906
191.475	1126
191.544	233
191.613	437
191.682	676
191.752	-6
191.821	968
191.890	313
191.959	30
192.028	1057
192.097	520
192.166	620
192.235	856
192.304	512
192.373	837
192.442	187
192.511	1263
192.580	499
192.650	131
192.719	1009
192.788	1077
192.857	1172
192.926	733
192.995	410
193.064	1532
193.133	1053
193.202	1776
193.271	1995
193.340	1605
193.409	1489
193.478	1670
193.547	1527
193.615	2583
193.684	2158
193.753	847
193.822	1722
193.891	1423
193.960	1037
194.029	1625
194.098	150
194.167	752
194.236	1694
194.305	994
194.374	535
194.443	970
194.512	1343
194.580	1522
194.649	1034
194.718	1294
194.787	1697
194.856	246
194.925	261
194.994	933
195.062	1078
195.131	1854
195.200	1118
195.269	1176
195.338	903
195.407	1333
195.475	618
195.544	1879
195.613	1271
195.682	1193
195.751	1345
195.819	1836
195.888	1611
195.957	1354
196.026	1021
196.094	1613
196.163	1644
196.232	1101
196.301	979
196.369	1750
196.438	1149
196.507	1170
196.576	778
196.644	1297
196.713	1015
196.782	920
196.850	1535
196.919	1239
196.988	734
197.056	566
197.125	1070
197.194	1493
197.262	656
197.331	1599
197.400	902
197.468	1205
197.537	481
197.606	1046
197.674	1316
197.743	3458
197.812	1564
197.880	2796
197.949	1930
198.017	2677
198.086	1954
198.155	1232
198.223	2349
198.292	3406
198.360	1680
198.429	1154
198.497	660
198.566	1931
198.635	3017
198.703	1571
198.772	1728
198.840	4995
198.909	3887
198.977	811
199.046	1724
199.114	1904
199.183	2077
199.251	1075
199.320	1458
199.388	1220
199.457	762
199.525	1621
199.594	1090
199.662	790
199.731	1162
199.799	1476
199.867	1262
199.936	1967
200.004	1256
200.073	2261
200.141	969
200.210	1533
200.278	1509
200.346	2282
200.415	2268
200.483	2041
200.552	1509
200.620	1655
200.688	1490
200.757	1907
200.825	1240
200.893	1219
200.962	2001
201.030	685
201.098	1022
201.167	1948
201.235	1535
201.303	2104
201.372	940
201.440	1349
201.508	1076
201.577	2309
201.645	1822
201.713	2081
201.781	1066
201.850	1893
201.918	1069
201.986	1404
202.055	1631
202.123	1473
202.191	1491
202.259	1448
202.327	1317
202.396	1501
202.464	1496
202.532	2055
202.600	3497
202.669	1397
202.737	1284
202.805	1140
202.873	1164
202.941	780
203.009	1378
203.078	1413
203.146	1681
203.214	1425
203.282	613
203.350	847
203.418	1694
203.487	760
203.555	784
203.623	1650
203.691	1705
203.759	1161
203.827	984
203.895	1676
203.963	738
204.031	1678
204.099	1320
204.168	1749
204.236	1669
204.304	2077
204.372	1489
204.440	2348
204.508	1462
204.576	1597
204.644	1191
204.712	1961
204.780	1338
204.848	1706
204.916	1583
204.984	1831
205.052	825
205.120	1776
205.188	1287
205.256	1001
205.324	1646
205.392	2101
205.460	1999
205.528	1496
205.596	2166
205.664	2143
205.732	1353
205.799	3847
205.867	5898
205.935	2493
206.003	1457
206.071	1200
206.139	1647
206.207	1205
206.275	2125
206.343	1329
206.411	1662
206.478	2061
206.546	1599
206.614	1725
206.682	1668
206.750	1686
206.818	2516
206.885	2788
206.953	1506
207.021	2186
207.089	2047
207.157	1288
207.225	2439
207.292	1147
207.360	1401
207.428	1994
207.496	2712
207.563	1516
207.631	1756
207.699	1526
207.767	1227
207.834	1800
207.902	1409
207.970	2364
208.038	1714
208.105	1999
208.173	2493
208.241	2437
208.309	2935
208.376	2046
208.444	2776
208.512	2604
208.579	1483
208.647	1932
208.715	2225
208.782	2476
208.850	1899
208.918	2511
208.985	2069
209.053	2689
209.120	1868
209.188	1472
209.256	933
209.323	2250
209.391	1997
209.459	3401
209.526	2036
209.594	1884
209.661	2925
209.729	1933
209.796	2174
209.864	2253
209.932	1819
209.999	2765
210.067	2257
210.134	2544
210.202	2239
210.269	3211
210.337	3269
210.404	2822
210.472	2393
210.539	2146
210.607	2207
210.674	2371
210.742	2346
210.809	1972
210.877	2379
210.944	3056
211.012	2368
211.079	3319
211.146	2714
211.214	3251
211.281	3508
211.349	2834
211.416	2788
211.484	3061
211.551	2956
211.618	2727
211.686	1910
211.753	2448
211.821	2693
211.888	2903
211.955	2346
212.023	1535
212.090	2391
212.157	2516
212.225	2652
212.292	5307
212.359	9122
212.427	20496
212.494	8192
212.561	4266
212.629	3462
212.696	3575
212.763	3035
212.831	1980
212.898	3311
212.965	2815
213.032	2114
213.100	2799
213.167	2409
213.234	2984
213.301	3128
213.369	2105
213.436	2980
213.503	2516
213.570	2542
213.638	2360
213.705	2705
213.772	2628
213.839	2702
213.906	3628
213.973	3127
214.041	2822
214.108	3680
214.175	3055
214.242	1935
214.309	2780
214.376	2722
214.444	2966
214.511	2802
214.578	3546
214.645	3304
214.712	3102
214.779	3069
214.846	3326
214.913	2968
214.980	3212
215.048	3665
215.115	3412
215.182	3667
215.249	2912
215.316	2724
215.383	3047
215.450	2679
215.517	2256
215.584	2426
215.651	2964
215.718	2285
215.785	3026
215.852	2717
215.919	3415
215.986	2778
216.053	1956
216.120	1994
216.187	3134
216.254	3483
216.321	3016
216.388	2458
216.455	2595
216.522	2983
216.589	3770
216.656	4529
216.722	5289
216.789	3770
216.856	3964
216.923	3421
216.990	4192
217.057	3099
217.124	3587
217.191	3895
217.258	4608
217.324	4223
217.391	4018
217.458	4098
217.525	4041
217.592	3067
217.659	3650
217.725	4065
217.792	5062
217.859	4266
217.926	2922
217.993	2823
218.059	3542
218.126	3004
218.193	3650
218.260	2826
218.327	2683
218.393	1970
218.460	2554
218.527	2869
218.594	2964
218.660	4367
218.727	4929
218.794	2912
218.860	2861
218.927	2392
218.994	1798
219.061	2271
219.127	3404
219.194	3808
219.261	3119
219.327	1830
219.394	2085
219.461	2105
219.527	2876
219.594	3486
219.661	2641
219.727	3016
219.794	2867
219.860	2956
219.927	3600
219.994	4206
220.060	5614
220.127	5233
220.193	4448
220.260	4692
220.326	5358
220.393	6403
220.460	6824
220.526	5308
220.593	4450
220.659	5232
220.726	5632
220.792	10982
220.859	8523
220.925	9854
220.992	10430
221.058	12995
221.125	13342
221.191	10060
221.258	5425
221.324	4337
221.391	4132
221.457	3757
221.524	3472
221.590	4695
221.657	14764
221.723	8496
221.789	8113
221.856	6427
221.922	4486
221.989	3802
222.055	3619
222.121	2378
222.188	4914
222.254	3484
222.321	3531
222.387	2442
222.453	2928
222.520	2218
222.586	2660
222.652	2068
222.719	2474
222.785	2463
222.851	2434
222.918	2446
222.984	2303
223.050	2197
223.116	1569
223.183	2468
223.249	2384
223.315	1865
223.382	2562
223.448	1921
223.514	2162
223.580	1744
223.647	2224
223.713	1217
223.779	1475
223.845	2568
223.911	3338
223.978	1803
224.044	2732
224.110	1630
224.176	2946
224.242	2259
224.309	2004
224.375	1920
224.441	2086
224.507	2131
224.573	2037
224.639	2155
224.705	1703
224.772	2348
224.838	1910
224.904	2611
224.970	2091
225.036	1806
225.102	3033
225.168	2197
225.234	2463
225.300	2598
225.366	2059
225.432	2526
225.499	2424
225.565	1922
225.631	3147
225.697	2457
225.763	3406
225.829	2846
225.895	3919
225.961	4175
226.027	5347
226.093	5057
226.159	5956
226.225	9477
226.291	13929
226.357	15852
226.423	11269
226.489	7946
226.554	6856
226.620	6272
226.686	7805
226.752	10433
226.818	15610
226.884	21107
226.950	18238
227.016	11165
227.082	8927
227.148	6181
227.214	5468
227.279	4565
227.345	4382
227.411	3975
227.477	5407
227.543	8756
227.609	9583
227.674	6480
227.740	3898
227.806	3940
227.872	3940
227.938	3537
228.003	4470
228.069	2561
228.135	2937
228.201	2953
228.267	3382
228.332	3320
228.398	3069
228.464	3607
228.530	2482
228.595	2681
228.661	2061
228.727	3586
228.792	3699
228.858	1905
228.924	1588
228.990	2716
229.055	2588
229.121	3215
229.187	2928
229.252	2321
229.318	2132
229.384	2593
229.449	2426
229.515	1189
229.581	866
229.646	3015
229.712	2275
229.777	3973
229.843	4572
229.909	4027
229.974	5022
230.040	3850
230.105	3610
230.171	3644
230.236	3710
230.302	4990
230.368	4174
230.433	3385
230.499	3463
230.564	3723
230.630	3218
230.695	2727
230.761	3369
230.826	2267
230.892	3991
230.957	2335
231.023	3427
231.088	3085
231.154	2044
231.219	2527
231.284	3403
231.350	3068
231.415	2431
231.481	2934
231.546	2747
231.612	2836
231.677	2326
231.742	1964
231.808	3326
231.873	2839
231.939	2507
232.004	3907
232.069	3167
232.135	2646
232.200	2370
232.265	2387
232.331	2522
232.396	1788
232.461	2114
232.527	1778
232.592	2477
232.657	3054
232.723	2826
232.788	2740
232.853	2468
232.918	2071
232.984	1989
233.049	2299
233.114	3396
233.179	3395
233.245	4588
233.310	4795
233.375	2089
233.440	2613
233.506	2754
233.571	3297
233.636	1777
233.701	2616
233.766	4702
233.832	3690
233.897	2055
233.962	2200
234.027	3157
234.092	2442
234.157	3126
234.222	3327
234.288	4842
234.353	11125
234.418	7793
234.483	5979
234.548	4467
234.613	3780
234.678	3537
234.743	3481
234.808	10232
234.873	6457
234.938	4409
235.004	4438
235.069	4226
235.134	3294
235.199	4277
235.264	2891
235.329	2881
235.394	3450
235.459	3825
235.524	3843
235.589	3956
235.654	2986
235.719	2102
235.784	3033
235.849	3942
235.913	5251
235.978	6548
236.043	6529
236.108	4268
236.173	3632
236.238	3378
236.303	3854
236.368	3614
236.433	5796
236.498	7543
236.563	7871
236.627	14255
236.692	32355
236.757	27623
236.822	13973
236.887	11138
236.952	8486
237.017	7698
237.081	9097
237.146	10539
237.211	19925
237.276	33562
237.341	45327
237.405	27627
237.470	13543
237.535	9953
237.600	6932
237.664	6735
237.729	5430
237.794	7042
237.859	10628
237.923	7677
237.988	4887
238.053	6687
238.118	5742
238.182	17372
238.247	13016
238.312	6811
238.376	5077
238.441	3677
238.506	4821
238.570	3071
238.635	3699
238.700	3981
238.764	3544
238.829	7978
238.893	6983
238.958	4504
239.023	3905
239.087	3534
239.152	3879
239.216	2910
239.281	2389
239.346	3025
239.410	3483
239.475	4359
239.539	15559
239.604	10665
239.668	3985
239.733	4867
239.797	8545
239.862	17309
239.926	16206
239.991	7758
240.055	4150
240.120	4476
240.184	4527
240.249	3197
240.313	3182
240.378	3546
240.442	8947
240.507	12947
240.571	5027
240.635	5915
240.700	6581
240.764	3440
240.829	3089
240.893	2336
240.957	3584
241.022	9156
241.086	11316
241.151	5096
241.215	2942
241.279	4344
241.344	5823
241.408	4641
241.472	3793
241.537	4720
241.601	4037
241.665	3181
241.730	3380
241.794	4563
241.858	3264
241.922	3757
241.987	4013
242.051	3526
242.115	3506
242.179	4001
242.244	2562
242.308	3795
242.372	3712
242.436	4377
242.501	4144
242.565	3146
242.629	2700
242.693	3280
242.757	2621
242.822	3919
242.886	4253
242.950	3869
243.014	2784
243.078	3896
243.142	3866
243.206	3294
243.271	4615
243.335	4945
243.399	6820
243.463	22888
243.527	43199
243.591	14258
243.655	7366
243.719	4255
243.783	5101
243.847	7749
243.911	8169
243.975	9076
244.040	5541
244.104	4698
244.168	4157
244.232	4501
244.296	7037
244.360	7702
244.424	4427
244.488	4969
244.552	3885
244.615	2976
244.679	2629
244.743	4627
244.807	2948
244.871	3225
244.935	3538
244.999	2598
245.063	3212
245.127	4308
245.191	5877
245.255	5245
245.319	4360
245.383	2833
245.446	4194
245.510	2651
245.574	3871
245.638	4168
245.702	3123
245.766	7733
245.829	4942
245.893	3556
245.957	4055
246.021	3863
246.085	3414
246.149	4702
246.212	9774
246.276	14144
246.340	7239
246.404	5444
246.467	6073
246.531	6074
246.595	4867
246.659	4905
246.722	4486
246.786	4424
246.850	5887
246.913	6241
246.977	3350
247.041	4814
247.104	3572
247.168	4974
247.232	9444
247.295	19417
247.359	9574
247.423	5715
247.486	8060
247.550	5411
247.614	4503
247.677	5164
247.741	4661
247.804	4104
247.868	5369
247.932	10429
247.995	17537
248.059	6766
248.122	3968
248.186	7229
248.249	11704
248.313	35227
248.376	30566
248.440	19711
248.503	7479
248.567	8124
248.630	9238
248.694	12097
248.757	17562
248.821	35513
248.884	19411
248.948	19153
249.011	27068
249.075	39638
249.138	30636
249.202	12463
249.265	9225
249.328	11766
249.392	8121
249.455	7191
249.519	6609
249.582	7088
249.645	10912
249.709	8701
249.772	8067
249.835	7143
249.899	7160
249.962	6640
250.025	6049
250.089	14698
250.152	15144
250.215	8529
250.279	7498
250.342	7939
250.405	7137
250.468	6691
250.532	9095
250.595	15637
250.658	54293
250.721	75094
250.785	24880
250.848	15562
250.911	9631
250.974	9245
251.038	12043
251.101	20758
251.164	11749
251.227	12839
251.290	11613
251.354	21113
251.417	72796
251.480	61080
251.543	51432
251.606	126284
251.669	83112
251.732	35325
251.795	33096
251.859	37489
251.922	76126
251.985	40058
252.048	18174
252.111	14357
252.174	13231
252.237	22471
252.300	41253
252.363	49971
252.426	90897
252.489	35703
252.552	19302
252.615	14744
252.678	16429
252.741	34342
252.804	50449
252.867	97167
252.930	48511
252.993	25506
253.056	16866
253.119	12099
253.182	9946
253.245	15433
253.308	11395
253.371	10066
253.434	9609
253.497	10639
253.559	17461
253.622	12227
253.685	14168
253.748	11814
253.811	7258
253.874	10828
253.937	9211
254.000	7321
254.062	13490
254.125	17610
254.188	15755
254.251	12114
254.314	6791
254.376	12979
254.439	11679
254.502	10206
254.565	13812
254.628	20733
254.690	10636
254.753	5726
254.816	5794
254.878	7836
254.941	15179
255.004	12960
255.067	6767
255.129	5609
255.192	4355
255.255	4050
255.317	5067
255.380	3399
255.443	3018
255.505	3779
255.568	3216
255.631	4154
255.693	4251
255.756	3408
255.819	4359
255.881	2677
255.944	3181
256.006	3954
256.069	2900
256.132	3524
256.194	5185
256.257	9978
256.319	7403
256.382	6852
256.444	5313
256.507	5242
256.569	4023
256.632	4769
256.694	9206
256.757	23152
256.819	51144
256.882	24042
256.944	10777
257.007	9036
257.069	8064
257.132	6084
257.194	5653
257.257	5448
257.319	4843
257.381	7139
257.444	19951
257.506	60349
257.569	60235
257.631	28464
257.693	16625
257.756	9753
257.818	7517
257.880	6081
257.943	5327
258.005	4594
258.067	3960
258.130	4045
258.192	5309
258.254	7278
258.317	4785
258.379	4952
258.441	10418
258.503	9677
258.566	13201
258.628	14908
258.690	5005
258.753	6464
258.815	7699
258.877	5322
258.939	4684
259.001	4449
259.064	3812
259.126	5808
259.188	5887
259.250	5196
259.312	5584
259.375	10259
259.437	6243
259.499	4982
259.561	3151
259.623	5008
259.685	4166
259.747	5241
259.809	14188
259.872	21448
259.934	37507
259.996	26932
260.058	8394
260.120	5203
260.182	4905
260.244	4619
260.306	4004
260.368	4140
260.430	3550
260.492	8378
260.554	12270
260.616	7958
260.678	17002
260.740	18172
260.802	6013
260.864	5410
260.926	3342
260.988	4641
261.050	5272
261.112	11920
261.174	26694
261.236	15874
261.298	7430
261.359	11596
261.421	12506
261.483	4932
261.545	5235
261.607	2259
261.669	4259
261.731	7727
261.793	12053
261.854	5402
261.916	4880
261.978	3814
262.040	5404
262.102	5374
262.164	5349
262.225	4662
262.287	3826
262.349	8636
262.411	6474
262.472	4278
262.534	6225
262.596	11540
262.658	5348
262.719	3800
262.781	5710
262.843	11348
262.904	5395
262.966	5557
263.028	6569
263.090	32462
263.151	58990
263.213	19505
263.275	10931
263.336	5389
263.398	5146
263.459	3580
263.521	3827
263.583	8732
263.644	5238
263.706	2883
263.767	2102
263.829	2742
263.891	1803
263.952	2526
264.014	2444
264.075	5983
264.137	11104
264.198	5020
264.260	2539
264.321	3703
264.383	7983
264.444	17193
264.506	4783
264.567	4594
264.629	8429
264.690	14421
264.752	6085
264.813	4257
264.875	2178
264.936	4148
264.998	3072
265.059	4194
265.120	4576
265.182	7120
265.243	29934
265.305	27946
265.366	8408
265.427	4806
265.489	5090
265.550	2812
265.611	4096
265.673	3769
265.734	4223
265.795	3482
265.857	3334
265.918	4349
265.979	11630
266.040	46020
266.102	36723
266.163	12572
266.224	8759
266.286	5345
266.347	3515
266.408	3290
266.469	4118
266.530	3174
266.592	2164
266.653	6444
266.714	7480
266.775	2610
266.836	3280
266.898	3048
266.959	4752
267.020	2857
267.081	2429
267.142	2490
267.203	1849
267.264	1972
267.326	4026
267.387	2514
267.448	1724
267.509	2486
267.570	2031
267.631	2038
267.692	1645
267.753	2553
267.814	1245
267.875	6007
267.936	9882
267.997	7756
268.058	5880
268.119	4314
268.180	3288
268.241	2608
268.302	3196
268.363	2835
268.424	3365
268.485	3364
268.546	1524
268.607	2207
268.668	1708
268.729	2337
268.790	2106
268.851	3718
268.912	6387
268.972	6698
269.033	3907
269.094	2564
269.155	2901
269.216	2476
269.277	3321
269.338	1863
269.398	2181
269.459	2294
269.520	4098
269.581	4952
269.642	4240
269.702	2991
269.763	3199
269.824	3702
269.885	3705
269.945	6420
270.006	2890
270.067	1827
270.128	2347
270.188	2402
270.249	2486
270.310	2634
270.370	3589
270.431	3047
270.492	1635
270.553	3645
270.613	5151
270.674	9120
270.734	3621
270.795	2977
270.856	4455
270.916	2745
270.977	2760
271.038	4391
271.098	3359
271.159	5070
271.219	3552
271.280	2753
271.340	2786
271.401	3132
271.462	6881
271.522	4882
271.583	2249
271.643	3227
271.704	2805
271.764	4041
271.825	9919
271.885	31850
271.946	34966
272.006	12321
272.066	19686
272.127	28958
272.187	10481
272.248	6856
272.308	6375
272.369	20078
272.429	10050
272.489	8660
272.550	7361
272.610	9420
272.671	5752
272.731	7016
272.791	8162
272.852	5538
272.912	5413
272.972	3290
273.033	3427
273.093	5042
273.153	5200
273.214	4051
273.274	4431
273.334	17160
273.394	24052
273.455	9362
273.515	10554
273.575	20390
273.635	8117
273.696	14009
273.756	23490
273.816	8549
273.876	6519
273.936	14836
273.997	20936
274.057	5431
274.117	5598
274.177	9074
274.237	32099
274.297	24024
274.358	17969
274.418	20019
274.478	13356
274.538	6014
274.598	6395
274.658	18916
274.718	21957
274.778	8287
274.838	5772
274.898	12200
274.958	30475
275.018	27797
275.078	15728
275.138	8074
275.198	4326
275.258	4876
275.318	5375
275.378	7856
275.438	7966
275.498	7162
275.558	17956
275.618	29160
275.678	15197
275.738	11440
275.798	7828
275.858	5875
275.918	2474
275.978	4492
276.038	4821
276.098	3922
276.157	7688
276.217	16113
276.277	7508
276.337	5803
276.397	4110
276.457	4429
276.517	3201
276.576	3656
276.636	2973
276.696	5184
276.756	11584
276.815	7149
276.875	4826
276.935	4748
276.995	3965
277.055	3714
277.114	3194
277.174	6022
277.234	12192
277.293	6210
277.353	3510
277.413	3816
277.472	3648
277.532	3462
277.592	3974
277.651	11889
277.711	16645
277.771	7093
277.830	23778
277.890	16670
277.950	16064
278.009	38761
278.069	14618
278.128	14782
278.188	17246
278.248	9724
278.307	20464
278.367	13014
278.426	5736
278.486	4363
278.545	3764
278.605	3646
278.664	3302
278.724	4884
278.783	12564
278.843	23878
278.902	7664
278.962	5843
279.021	6685
279.081	9449
279.140	8951
279.199	6625
279.259	6281
279.318	7209
279.378	9988
279.437	18534
279.496	56093
279.556	157906
279.615	107926
279.675	30196
279.734	19814
279.793	28839
279.853	38214
279.912	15118
279.971	9447
280.031	8392
280.090	16034
280.149	23256
280.208	25560
280.268	113213
280.327	95411
280.386	23235
280.445	17202
280.505	13998
280.564	8770
280.623	8224
280.682	10087
280.742	12007
280.801	5038
280.860	4410
280.919	4098
280.978	3319
281.037	3638
281.097	3339
281.156	3654
281.215	3192
281.274	5178
281.333	16072
281.392	10522
281.451	3809
281.510	3360
281.569	3055
281.628	2789
281.688	3473
281.747	4095
281.806	3217
281.865	3105
281.924	2824
281.983	2553
282.042	1847
282.101	2504
282.160	2973
282.219	2281
282.278	3435
282.337	8748
282.396	5429
282.454	3121
282.513	4644
282.572	12867
282.631	7490
282.690	3088
282.749	2777
282.808	3882
282.867	3661
282.926	3712
282.985	2355
283.043	2342
283.102	2884
283.161	3254
283.220	8605
283.279	13056
283.338	5076
283.396	3260
283.455	3580
283.514	3396
283.573	5669
283.631	3719
283.690	3046
283.749	3096
283.808	5618
283.866	6558
283.925	3183
283.984	3676
284.043	4096
284.101	5368
284.160	2921
284.219	4743
284.277	4317
284.336	6503
284.395	18024
284.453	12533
284.512	5839
284.570	7712
284.629	7970
284.688	5289
284.746	6304
284.805	7224
284.863	9119
284.922	10287
284.981	13716
285.039	20795
285.098	39297
285.156	86946
285.215	171443
285.273	155802
285.332	80658
285.390	43761
285.449	29429
285.507	20583
285.566	15489
285.624	12236
285.683	9705
285.741	7426
285.799	6286
285.858	6164
285.916	5453
285.975	4258
286.033	4686
286.091	3924
286.150	3634
286.208	4373
286.267	3784
286.325	4824
286.383	6348
286.442	4850
286.500	3968
286.558	3139
286.616	3268
286.675	3646
286.733	4087
286.791	2941
286.850	4092
286.908	4999
286.966	7642
287.024	3641
287.083	3846
287.141	2997
287.199	2989
287.257	4316
287.315	3822
287.374	5109
287.432	9024
287.490	6081
287.548	3910
287.606	4050
287.664	4187
287.723	5148
287.781	6104
287.839	3987
287.897	5670
287.955	7534
288.013	12734
288.071	30707
288.129	107720
288.187	233996
288.245	105851
288.303	37301
288.361	21743
288.419	16947
288.477	12190
288.535	8286
288.593	7015
288.651	5568
288.709	4488
288.767	4153
288.825	3403
288.883	3354
288.941	2696
288.999	3450
289.057	3226
289.115	2118
289.173	2240
289.231	2640
289.289	2579
289.346	2871
289.404	3414
289.462	4658
289.520	4386
289.578	2497
289.636	3503
289.694	1936
289.751	2429
289.809	2253
289.867	3024
289.925	3602
289.983	3516
290.040	2820
290.098	2009
290.156	2376
290.214	3471
290.271	1879
290.329	1908
290.387	2082
290.444	1784
290.502	1650
290.560	2289
290.617	2291
290.675	1610
290.733	1637
290.790	2605
290.848	1811
290.906	2075
290.963	1900
291.021	2386
291.078	2422
291.136	2588
291.194	8187
291.251	14811
291.309	4544
291.366	2623
291.424	2496
291.481	2389
291.539	1976
291.596	2440
291.654	1437
291.711	1535
291.769	3176
291.826	4285
291.884	2533
291.941	1414
291.999	2324
292.056	2578
292.114	3517
292.171	2120
292.228	2729
292.286	3371
292.343	3791
292.401	5238
292.458	3799
292.515	3059
292.573	3502
292.630	3006
292.687	3441
292.745	3203
292.802	4565
292.859	11058
292.917	16380
292.974	8459
293.031	2376
293.089	2490
293.146	2338
293.203	1720
293.260	2485
293.318	3607
293.375	5075
293.432	3406
293.489	2227
293.546	2914
293.604	5123
293.661	13505
293.718	28406
293.775	12650
293.832	6208
293.889	5051
293.947	5036
294.004	4483
294.061	4277
294.118	8287
294.175	16431
294.232	20100
294.289	7676
294.346	5586
294.403	5393
294.460	4434
294.517	3667
294.574	3517
294.631	2925
294.688	4881
294.745	10940
294.802	33451
294.859	32633
294.916	13514
294.973	7250
295.030	5351
295.087	4357
295.144	4737
295.201	3172
295.258	2871
295.315	4028
295.372	13227
295.429	20278
295.486	9715
295.542	6909
295.599	17629
295.656	24057
295.713	16794
295.770	18589
295.827	8798
295.883	5259
295.940	4866
295.997	6499
296.054	6098
296.111	4102
296.167	3568
296.224	1735
296.281	1868
296.338	1909
296.394	3223
296.451	3923
296.508	10520
296.564	16413
296.621	12943
296.678	29693
296.734	37599
296.791	13660
296.848	8049
296.904	8108
296.961	14457
297.018	23154
297.074	15997
297.131	7501
297.187	6053
297.244	9423
297.301	26575
297.357	40042
297.414	14609
297.470	6623
297.527	4436
297.583	3911
297.640	3906
297.696	3183
297.753	2803
297.809	2784
297.866	2310
297.922	2069
297.979	2538
298.035	2497
298.092	4674
298.148	13041
298.204	11753
298.261	7681
298.317	14135
298.374	31820
298.430	18213
298.486	8538
298.543	7068
298.599	6987
298.656	7364
298.712	11698
298.768	25476
298.824	17624
298.881	6741
298.937	4563
298.993	4892
299.050	4796
299.106	4459
299.162	3414
299.218	3904
299.275	3381
299.331	4213
299.387	9795
299.443	30632
299.500	33235
299.556	15628
299.612	7499
299.668	7016
299.724	13563
299.780	13474
299.837	6810
299.893	9154
299.949	26532
300.005	29603
300.061	26020
300.117	41417
300.173	18357
300.229	10368
300.285	10349
300.341	10356
300.397	6392
300.453	4022
300.510	3596
300.566	5669
300.622	8445
300.678	25875
300.734	34218
300.790	24573
300.845	28071
300.901	21435
300.957	28823
301.013	17059
301.069	7424
301.125	5677
301.181	5076
301.237	4645
301.293	3094
301.349	3349
301.405	2046
301.461	2832
301.516	4412
301.572	3859
301.628	6074
301.684	6205
301.740	9782
301.796	15549
301.851	9501
301.907	16125
301.963	18997
302.019	33976
302.074	81448
302.130	76017
302.186	33662
302.242	15330
302.297	9263
302.353	9072
302.409	14685
302.464	13643
302.520	12521
302.576	26827
302.631	28459
302.687	15316
302.743	7191
302.798	4871
302.854	4082
302.910	5525
302.965	5341
303.021	9159
303.076	8178
303.132	9927
303.187	10464
303.243	5733
303.299	3711
303.354	4040
303.410	3440
303.465	4214
303.521	3566
303.576	2994
303.632	5525
303.687	9562
303.743	24809
303.798	20042
303.853	8444
303.909	5165
303.964	4736
304.020	6912
304.075	9092
304.130	8864
304.186	14012
304.241	13953
304.297	11289
304.352	6494
304.358	6270
304.407	4449
304.449	3961
304.463	3801
304.518	3524
304.539	3867
304.573	4416
304.629	5078
304.630	5123
304.684	7308
304.720	15790
304.739	20046
304.794	27756
304.811	23553
304.850	13608
304.902	7209
304.905	6799
304.960	4828
304.992	4998
305.015	5127
305.071	5378
305.083	5173
305.126	4395
305.173	3228
305.181	3053
305.236	3187
305.264	3113
305.292	2972
305.347	4013
305.354	4083
305.402	4717
305.445	5091
305.457	5145
305.512	6061
305.535	6301
305.567	6725
305.622	6298
305.626	6530
305.678	11089
305.716	20980
305.733	24735
305.788	26574
305.807	23242
305.843	17467
305.897	24095
305.898	24171
305.953	23910
305.988	16618
306.008	12537
306.063	7711
306.078	7048
306.118	5569
306.168	3942
306.173	3797
306.228	3032
306.259	3051
306.283	3110
306.338	3168
306.349	3247
306.393	3559
306.440	4651
306.448	4865
306.503	4319
306.530	5004
306.558	6166
306.613	11074
306.620	11867
306.668	16663
306.711	20183
306.723	20652
306.778	16312
306.801	12680
306.833	8196
306.888	5194
306.892	5058
306.943	3926
306.982	3386
306.997	3258
307.052	3738
307.072	3792
307.107	4141
307.162	5577
307.163	5596
307.217	7184
307.253	8017
307.272	8125
307.327	8730
307.343	8163
307.381	7621
307.434	7026
307.436	7072
307.491	11820
307.524	16656
307.546	18555
307.600	18008
307.614	16196
307.655	10513
307.704	6651
307.710	6486
307.765	8316
307.795	10104
307.819	11299
307.874	16216
307.885	16164
307.929	14909
307.975	13495
307.984	13984
308.038	21966
308.065	28623
308.093	45057
308.148	88169
308.156	97636
308.202	137604
308.246	155651
308.257	152771
308.312	91486
308.336	66787
308.366	48628
308.421	29422
308.426	27992
308.475	18950
308.517	14246
308.530	13244
308.585	11636
308.607	11064
308.639	10748
308.694	11489
308.697	11608
308.748	15114
308.787	19856
308.803	20259
308.857	16550
308.877	14787
308.912	13744
308.967	14163
308.967	14213
309.021	19495
309.058	24969
309.076	31383
309.130	55937
309.148	66274
309.185	110706
309.238	187469
309.239	187752
309.293	196314
309.328	174442
309.348	153324
309.402	81012
309.418	63690
309.457	43907
309.508	27261
309.511	26633
309.566	21756
309.598	19958
309.620	19347
309.674	19203
309.688	19457
309.729	18344
309.778	15098
309.783	14851
309.837	13294
309.868	12787
309.892	14335
309.946	19356
309.959	21133
310.001	25537
310.049	28471
310.055	27719
310.109	17630
310.139	12252
310.163	9966
310.218	6687
310.229	6177
310.272	5479
310.319	4946
310.326	4820
310.381	4239
310.409	3955
310.435	4012
310.489	4010
310.499	4093
310.543	4077
310.589	3844
310.598	3842
310.652	3977
310.679	3991
310.706	3707
310.760	2902
310.769	2848
310.814	3145
310.859	3322
310.868	3319
310.923	3207
310.948	3243
310.977	3405
311.031	3642
311.038	3705
311.085	3622
311.128	3250
311.139	3184
311.193	3069
311.218	2941
311.247	3058
311.301	3402
311.308	3430
311.356	3272
311.398	3204
311.410	3087
311.464	2555
311.488	2266
311.518	2570
311.572	3216
311.578	3281
311.626	3475
311.668	3729
311.680	3811
311.734	4084
311.758	4228
311.788	4097
311.842	3824
311.847	3800
311.896	5348
311.937	6736
311.950	6440
312.004	5104
312.027	4515
312.058	4053
312.112	3251
312.117	3175
312.165	3699
312.207	4151
312.297	4602
312.386	3294
312.476	4016
312.566	5950
312.656	4308
312.745	3599
312.835	3860
312.925	4037
313.015	4141
313.104	3926
313.194	2912
313.284	3341
313.374	4873
313.463	4858
313.553	3804
313.643	3175
313.732	3653
313.822	2916
313.912	3481
314.001	3528
314.091	5364
314.180	4891
314.270	4796
314.360	5199
314.449	4866
314.539	2834
314.628	4035
314.718	3987
314.808	5103
314.897	4357
314.987	4815
315.076	5000
315.166	4876
315.255	4922
315.345	5460
315.434	4780
315.524	5784
315.613	5842
315.703	7628
315.792	18308
315.881	40491
315.971	13367
316.060	9099
316.150	10020
316.239	9425
316.328	4911
316.418	3744
316.507	4418
316.597	5409
316.686	5369
316.775	8316
316.865	8424
316.954	3751
317.043	3491
317.133	3390
317.222	3255
317.311	4339
317.400	3990
317.490	4833
317.579	4784
317.668	5779
317.757	10582
317.847	32386
317.936	63871
318.025	22968
318.114	15691
318.203	8451
318.293	8694
318.382	13221
318.471	11805
318.560	16905
318.649	24829
318.738	6807
318.828	5591
318.917	4913
319.006	7825
319.095	14663
319.184	32010
319.273	16599
319.362	8542
319.451	3887
319.540	4393
319.629	8260
319.718	9265
319.807	6905
319.896	14294
319.985	37101
320.074	13315
320.163	5537
320.252	7160
320.341	7189
320.430	5888
320.519	6276
320.608	4356
320.697	4381
320.786	4494
320.875	5399
320.964	6036
321.053	8845
321.142	10963
321.230	11299
321.319	11487
321.408	17384
321.497	9654
321.586	9741
321.675	11720
321.764	10751
321.852	8692
321.941	11725
322.030	8544
322.119	10798
322.207	19143
322.296	13965
322.385	9953
322.474	12563
322.562	21563
322.651	12642
322.740	10618
322.829	14402
322.917	12141
323.006	7380
323.095	7762
323.183	7354
323.272	9840
323.361	20552
323.449	32505
323.538	14783
323.626	27010
323.715	12892
323.804	10871
323.892	22972
323.981	10433
324.069	7173
324.158	15992
324.246	9748
324.335	6207
324.424	7037
324.512	4684
324.601	5372
324.689	9813
324.778	15050
324.866	9241
324.954	4439
325.043	4794
325.131	7686
325.220	10842
325.308	9999
325.397	8369
325.485	5980
325.574	3344
325.662	4160
325.750	3364
325.839	3479
325.927	3871
326.015	4811
326.104	6972
326.192	6500
326.280	3870
326.369	3822
326.457	5156
326.545	7054
326.634	3424
326.722	3703
326.810	4169
326.898	4057
326.987	4764
327.075	7604
327.163	6575
327.251	4632
327.340	6919
327.428	9263
327.516	4133
327.604	3848
327.692	3634
327.781	4560
327.869	5381
327.957	4616
328.045	3329
328.133	4032
328.221	5101
328.309	4147
328.397	3658
328.485	4383
328.574	5858
328.662	13040
328.750	8343
328.838	4848
328.926	3897
329.014	4084
329.102	4998
329.190	9045
329.278	5697
329.366	4123
329.454	2977
329.542	4044
329.630	3589
329.718	4938
329.806	5085
329.893	5861
329.981	7673
330.069	14600
330.157	46635
330.245	102785
330.333	58720
330.421	14243
330.509	8811
330.597	16047
330.684	10126
330.772	6065
330.860	6809
330.948	7820
331.036	4696
331.123	2893
331.211	4053
331.299	4530
331.387	8572
331.475	10656
331.562	4090
331.650	3710
331.738	3717
331.825	4637
331.913	3725
332.001	3896
332.089	4080
332.176	7781
332.264	14504
332.352	8045
332.439	4376
332.527	3890
332.614	3021
332.702	4145
332.790	3348
332.877	8973
332.965	9323
333.052	4131
333.140	5211
333.228	6135
333.315	3671
333.403	4664
333.490	8414
333.578	6921
333.665	6839
333.753	5474
333.840	3661
333.928	6270
334.015	9853
334.103	20061
334.190	39326
334.278	12068
334.365	8417
334.452	7265
334.540	5554
334.627	7348
334.715	8614
334.802	19133
334.889	57044
334.977	36190
335.064	11066
335.151	6875
335.239	6434
335.326	8904
335.413	26343
335.501	25785
335.588	6551
335.675	5941
335.762	8302
335.850	11166
335.937	11809
336.024	26801
336.111	53240
336.199	23964
336.286	9510
336.373	6184
336.460	4668
336.547	5134
336.635	5439
336.722	4582
336.809	4646
336.896	6013
336.983	15903
337.070	33034
337.157	42482
337.245	33161
337.332	14744
337.419	4962
337.506	4055
337.593	5717
337.680	14475
337.767	27216
337.854	9624
337.941	10824
338.028	9778
338.115	5152
338.202	6081
338.289	13905
338.376	25112
338.463	9189
338.550	19259
338.637	17029
338.724	8670
338.811	7481
338.898	3845
338.984	3679
339.071	4221
339.158	4525
339.245	7438
339.332	6483
339.419	8742
339.506	5208
339.593	3139
339.679	3718
339.766	3063
339.853	4754
339.940	5846
340.027	4807
340.113	3387
340.200	4310
340.287	3672
340.374	4741
340.460	5574
340.547	3598
340.634	6887
340.720	15053
340.807	7872
340.894	3276
340.980	3218
341.067	3857
341.154	3675
341.240	5953
341.327	7069
341.414	4069
341.500	5168
341.587	3601
341.674	3361
341.760	6344
341.847	5680
341.933	3127
342.020	2059
342.106	3549
342.193	2917
342.279	5217
342.366	4100
342.452	4393
342.539	4602
342.625	8850
342.712	14126
342.798	7032
342.885	3763
342.971	2776
343.058	2145
343.144	3514
343.230	3314
343.317	3651
343.403	2735
343.490	2397
343.576	2370
343.662	3155
343.749	3553
343.835	4557
343.921	8979
344.008	44538
344.094	70032
344.180	16195
344.267	8435
344.353	20985
344.439	18749
344.525	9093
344.612	10753
344.698	14073
344.784	7543
344.870	4139
344.957	2623
345.043	4490
345.129	3614
345.215	5771
345.301	3329
345.387	3900
345.474	2641
345.560	2845
345.646	3022
345.732	3796
345.818	4116
345.904	3046
345.990	2883
346.076	5095
346.162	5409
346.249	3898
346.335	3196
346.421	4053
346.507	11782
346.593	26539
346.679	7070
346.765	4013
346.851	4094
346.937	3264
347.023	3261
347.108	4041
347.194	3037
347.280	3795
347.366	4550
347.452	14083
347.538	35494
347.624	26002
347.710	18079
347.796	4827
347.882	3245
347.967	3572
348.053	4039
348.139	3240
348.225	2577
348.311	3391
348.397	3282
348.482	4394
348.568	4133
348.654	3908
348.740	5563
348.825	6419
348.911	7548
348.997	21364
349.083	28721
349.168	6337
349.254	3993
349.340	4523
349.425	2199
349.511	4067
349.597	4464
349.682	8196
349.768	19621
349.854	9062
349.939	3970
350.025	3834
350.110	4035
350.196	3747
350.282	2792
350.367	3884
350.453	5180
350.538	4953
350.624	4499
350.709	3715
350.795	2948
350.880	3528
350.966	4300
351.051	4854
351.137	3479
351.222	3043
351.308	8930
351.393	15837
351.479	5279
351.564	3722
351.649	3338
351.735	3413
351.820	3252
351.906	3794
351.991	3967
352.076	13024
352.162	14354
352.247	4248
352.332	3903
352.418	5398
352.503	8727
352.588	24892
352.673	16349
352.759	5834
352.844	2861
352.929	4155
353.014	4547
353.100	3800
353.185	4634
353.270	6571
353.355	5344
353.441	4215
353.526	4049
353.611	6653
353.696	6242
353.781	5599
353.866	2348
353.952	4889
354.037	6536
354.122	11532
354.207	9439
354.292	4857
354.377	3145
354.462	3418
354.547	3535
354.632	4374
354.717	5231
354.802	5791
354.887	3097
354.972	2884
355.057	3651
355.142	3151
355.227	4110
355.312	5188
355.397	9040
355.482	16984
355.567	8629
355.652	7649
355.737	9089
355.822	23728
355.907	15443
355.991	5059
356.076	2808
356.161	2980
356.246	3371
356.331	5018
356.416	9484
356.501	42276
356.585	32243
356.670	7209
356.755	6389
356.840	8872
356.924	35636
357.009	88071
357.094	28882
357.179	9050
357.263	5601
357.348	6957
357.433	5973
357.517	6720
357.602	4693
357.687	4948
357.771	8344
357.856	21069
357.941	13846
358.025	33224
358.110	99346
358.195	39299
358.279	8400
358.364	7646
358.448	18635
358.533	39448
358.617	28305
358.702	27012
358.787	11413
358.871	7529
358.956	5890
359.040	3829
359.125	3446
359.209	5104
359.294	11423
359.378	17656
359.462	6320
359.547	4962
359.631	3628
359.716	2951
359.800	3488
359.885	4499
359.969	3129
360.053	3910
360.138	3768
360.222	5207
360.306	6282
360.391	6185
360.475	13365
360.559	21352
360.644	15873
360.728	11707
360.812	27376
360.896	54929
360.981	22693
361.065	10215
361.149	5216
361.233	5325
361.318	3922
361.402	3956
361.486	4396
361.570	4276
361.654	5558
361.739	11690
361.823	44146
361.907	52383
361.991	11675
362.075	8685
362.159	12744
362.243	13074
362.327	17842
362.411	21721
362.495	11040
362.580	7161
362.664	6170
362.748	7245
362.832	11148
362.916	18942
363.000	47225
363.084	81367
363.168	71983
363.252	18805
363.336	9417
363.420	12907
363.503	35906
363.587	33007
363.671	9170
363.755	7508
363.839	8699
363.923	6862
364.007	10811
364.091	13050
364.175	22835
364.258	65264
364.342	65734
364.426	81466
364.510	41169
364.594	19462
364.677	20173
364.761	55117
364.845	32478
364.929	13622
365.013	9793
365.096	9509
365.180	9552
365.264	19589
365.347	49769
365.431	20775
365.515	6141
365.598	4103
365.682	5594
365.766	7603
365.849	7619
365.933	4460
366.017	6287
366.100	5408
366.184	3628
366.267	4178
366.351	3617
366.435	3383
366.518	3109
366.602	3791
366.685	3276
366.769	3862
366.852	7274
366.936	9132
367.019	5440
367.103	6017
367.186	7612
367.270	4022
367.353	3404
367.436	3871
367.520	3585
367.603	4245
367.687	5872
367.770	7651
367.853	6592
367.937	18330
368.020	23852
368.104	7042
368.187	6569
368.270	9312
368.353	8011
368.437	12345
368.520	20815
368.603	11108
368.687	19081
368.770	28565
368.853	8952
368.936	8400
369.020	8782
369.103	4241
369.186	3801
369.269	3726
369.352	6223
369.436	7364
369.519	5641
369.602	3343
369.685	4761
369.768	3883
369.851	4151
369.934	3621
370.018	4299
370.101	6463
370.184	6171
370.267	5683
370.350	7631
370.433	12468
370.516	33748
370.599	40891
370.682	13458
370.765	18944
370.848	24131
370.931	37574
371.014	14277
371.097	3411
371.180	4612
371.263	3614
371.346	3239
371.429	3717
371.511	3979
371.594	5905
371.677	8742
371.760	9751
371.843	10658
371.926	47577
372.009	84724
372.091	27083
372.174	20866
372.257	37348
372.340	15027
372.423	12291
372.505	13002
372.588	7077
372.671	15998
372.754	37291
372.836	18147
372.919	18599
373.002	27844
373.085	9676
373.167	8572
373.250	19610
373.332	39381
373.415	63745
373.498	107557
373.580	43227
373.663	78003
373.746	77984
373.828	18493
373.911	9022
373.993	10531
374.076	31751
374.159	24004
374.241	14112
374.324	32284
374.406	21975
374.489	41409
374.571	86668
374.654	31704
374.736	22228
374.819	58401
374.901	81752
374.983	71867
375.066	14373
375.148	8111
375.231	28754
375.313	41517
375.395	15585
375.478	5836
375.560	5616
375.643	6760
375.725	22614
375.807	70237
375.890	47993
375.972	17518
376.054	13942
376.136	16737
376.219	8716
376.301	23737
376.383	53039
376.465	19413
376.548	12096
376.630	19177
376.712	45865
376.794	18411
376.877	5039
376.959	3443
377.041	4460
377.123	7536
377.205	7755
377.287	3972
377.369	3550
377.452	3629
377.534	3289
377.616	3793
377.698	3770
377.780	3076
377.862	3938
377.944	3706
378.026	2973
378.108	3013
378.190	3117
378.272	3259
378.354	3474
378.436	2398
378.518	5315
378.600	12345
378.682	11763
378.764	24090
378.846	15774
378.928	6305
379.010	7353
379.091	4794
379.173	3843
379.255	2440
379.337	5304
379.419	13631
379.501	30662
379.583	12631
379.664	4734
379.746	8984
379.828	24106
379.910	29687
379.991	23782
380.073	5624
380.155	4578
380.237	3493
380.318	3399
380.400	3655
380.482	6318
380.564	7431
380.645	8344
380.727	6982
380.809	5130
380.890	3986
380.972	3835
381.053	3373
381.135	4247
381.217	10520
381.298	23383
381.380	11273
381.461	13482
381.543	49544
381.624	50220
381.706	10405
381.787	7011
381.869	8418
381.951	29822
382.032	85421
382.113	45428
382.195	10245
382.276	8498
382.358	18576
382.439	43384
382.521	53696
382.602	71964
382.684	34042
382.765	58422
382.846	50371
382.928	50084
383.009	26709
383.090	30651
383.172	91734
383.253	99811
383.334	45483
383.416	63088
383.497	28487
383.578	14822
383.659	27760
383.741	93084
383.822	172016
383.903	73971
383.984	44563
384.066	73636
384.147	40260
384.228	11652
384.309	8574
384.390	6991
384.471	6974
384.553	5803
384.634	7329
384.715	7631
384.796	4673
384.877	7317
384.958	22376
385.039	23375
385.120	9886
385.201	6563
385.282	6676
385.363	6392
385.444	6418
385.525	13392
385.606	37524
385.687	28506
385.768	9759
385.849	12593
385.930	48899
386.011	70330
386.092	18772
386.173	6734
386.254	5574
386.335	6556
386.416	7132
386.496	17150
386.577	22814
386.658	9215
386.739	6633
386.820	7117
386.901	5525
386.981	5488
387.062	4381
387.143	9531
387.224	23835
387.304	20579
387.385	9350
387.466	7471
387.547	8139
387.627	7440
387.708	14251
387.789	43668
387.869	47941
387.950	14318
388.031	5924
388.111	5353
388.192	11436
388.273	13057
388.353	7716
388.434	6518
388.514	13277
388.595	45614
388.676	49688
388.756	23628
388.837	21434
388.917	11801
388.998	4779
389.078	5193
389.159	4509
389.239	4319
389.320	5660
389.400	5013
389.480	12488
389.561	25974
389.641	12833
389.722	6536
389.802	7642
389.883	14257
389.963	32066
390.043	18710
390.124	6955
390.204	11673
390.284	25958
390.365	17089
390.445	28558
390.525	59526
390.605	40766
390.686	15224
390.766	6597
390.846	5384
390.927	4176
391.007	3903
391.087	5669
391.167	5435
391.247	3305
391.328	7389
391.408	8952
391.488	7111
391.568	4050
391.648	6205
391.728	7960
391.808	7747
391.888	7874
391.969	16758
392.049	23930
392.129	13737
392.209	16067
392.289	32067
392.369	18939
392.449	16203
392.529	11795
392.609	11573
392.689	15798
392.769	34539
392.849	29395
392.929	29448
393.009	52276
393.089	49067
393.169	69509
393.248	217411
393.328	584535
393.408	529504
393.488	157617
393.568	53804
393.648	28291
393.728	18815
393.807	15005
393.887	13410
393.967	11597
394.047	12954
394.127	14294
394.206	23387
394.286	81794
394.366	280419
394.446	258517
394.525	67569
394.605	21468
394.685	16373
394.764	25193
394.844	36265
394.924	25593
395.003	11430
395.083	9040
395.163	8606
395.242	7838
395.322	8428
395.402	5813
395.481	10237
395.561	19495
395.640	41148
395.720	40980
395.799	50008
395.879	35944
395.958	34173
396.038	119672
396.117	366688
396.197	347048
396.276	110608
396.356	41427
396.435	29235
396.515	24076
396.594	29474
396.673	61020
396.753	221494
396.832	515527
396.912	322344
396.991	79734
397.070	29279
397.150	16561
397.229	14112
397.308	21267
397.388	33112
397.467	19243
397.546	9314
397.625	5862
397.705	10154
397.784	6888
397.863	5263
397.942	4773
398.022	5651
398.101	15525
398.180	34550
398.259	17176
398.338	6796
398.417	5497
398.497	4933
398.576	4237
398.655	3125
398.734	4004
398.813	3755
398.892	14977
398.971	38173
399.050	15358
399.129	3542
399.208	3363
399.287	4368
399.366	2632
399.445	3748
399.524	3606
399.603	2672
399.682	5279
399.761	14926
399.840	41264
399.919	27060
399.998	5165
400.077	2852
400.156	1767
400.235	5138
400.313	2771
400.392	4555
400.471	13903
400.550	18799
400.629	5548
400.708	4198
400.786	3221
400.865	9120
400.944	7400
401.023	5375
401.102	2236
401.180	1962
401.259	2846
401.338	3035
401.416	3873
401.495	3491
401.574	3050
401.652	3138
401.731	3607
401.810	2913
401.888	2155
401.967	1392
402.046	2303
402.124	3705
402.203	3615
402.281	3467
402.360	3771
402.438	10728
402.517	6358
402.596	3575
402.674	3350
402.753	3105
402.831	2054
402.910	3479
402.988	11547
403.066	30044
403.145	18161
403.223	12186
403.302	26257
403.380	19826
403.459	18376
403.537	8094
403.615	2975
403.694	2134
403.772	2988
403.850	2637
403.929	2131
404.007	2857
404.085	5308
404.164	5064
404.242	5617
404.320	18473
404.398	57508
404.477	63314
404.555	77483
404.633	56258
404.711	45510
404.789	32311
404.868	9164
404.946	3702
405.024	3253
405.102	2958
405.180	2150
405.258	1958
405.336	2521
405.415	2821
405.493	4602
405.571	4235
405.649	1749
405.727	1788
405.805	3889
405.883	3704
405.961	3844
406.039	3582
406.117	1892
406.195	4680
406.273	15804
406.351	51951
406.429	25916
406.507	5577
406.585	2832
406.663	3637
406.740	3424
406.818	2731
406.896	2004
406.974	2858
407.052	5493
407.130	31996
407.208	36324
407.285	8259
407.363	1676
407.441	2791
407.519	2232
407.596	3810
407.674	15866
407.752	45122
407.830	29778
407.907	7453
407.985	2616
408.063	3008
408.141	1932
408.218	3520
408.296	3083
408.373	2656
408.451	3367
408.529	2510
408.606	1637
408.684	2479
408.762	1882
408.839	2327
408.917	1896
408.994	2547
409.072	2578
409.149	2510
409.227	4593
409.304	6181
409.382	5607
409.459	6747
409.537	7092
409.614	7926
409.692	6790
409.769	6501
409.846	8181
409.924	9961
410.001	6915
410.079	6091
410.156	5405
410.233	4826
410.311	3583
410.388	3527
410.465	2898
410.543	3159
410.620	3771
410.697	3822
410.775	3289
410.852	2167
410.929	3490
411.006	4696
411.083	3243
411.161	5803
411.238	5881
411.315	3356
411.392	2107
411.469	4118
411.547	3783
411.624	2132
411.701	2608
411.778	2767
411.855	4186
411.932	1792
412.009	1406
412.086	2063
412.163	2508
412.240	2159
412.317	3896
412.394	3219
412.471	2022
412.548	1667
412.625	1524
412.702	3228
412.779	4196
412.856	3268
412.933	1789
413.010	3386
413.087	3912
413.164	12120
413.241	15101
413.318	3794
413.395	3826
413.471	3869
413.548	2570
413.625	2379
413.702	1713
413.779	2142
413.855	2290
413.932	1588
414.009	869
414.086	1056
414.162	2487
414.239	3270
414.316	12001
414.393	23729
414.469	7637
414.546	2053
414.623	1629
414.699	1543
414.776	2246
414.853	1620
414.929	2203
415.006	2037
415.082	2638
415.159	1837
415.236	1968
415.312	2452
415.389	3612
415.465	3793
415.542	1985
415.618	1404
415.695	2795
415.771	2553
415.848	1785
415.924	1978
416.000	1291
416.077	2235
416.153	865
416.230	667
416.306	1568
416.383	1437
416.459	2101
416.535	1770
416.612	318
416.688	1582
416.764	1420
416.841	531
416.917	1521
416.993	1925
417.069	1953
417.146	3082
417.222	5819
417.298	3523
417.374	1460
417.451	2161
417.527	2325
417.603	1886
417.679	2058
417.755	1613
417.831	441
417.908	1299
417.984	2239
418.060	1739
418.136	3814
418.212	4331
418.288	1347
418.364	2194
418.440	628
418.516	2746
418.592	3479
418.668	6080
418.744	6498
418.820	5410
418.896	1878
418.972	315
419.048	1826
419.124	4413
419.200	1880
419.276	1879
419.352	1061
419.428	1739
419.504	1051
419.579	2192
419.655	1740
419.731	2577
419.807	5603
419.883	8019
419.959	5380
420.034	4149
420.110	5161
420.186	16588
420.262	11471
420.337	3873
420.413	3366
420.489	2130
420.565	3330
420.640	2510
420.716	3560
420.792	1858
420.867	3333
420.943	3124
421.019	4426
421.094	3084
421.170	3370
421.245	3492
421.321	4727
421.397	4841
421.472	13111
421.548	27934
421.623	15625
421.699	7903
421.774	6688
421.850	7127
421.925	9892
422.001	9651
422.076	12098
422.152	14324
422.227	19479
422.302	26953
422.378	40248
422.453	71633
422.529	151611
422.604	320163
422.679	410940
422.755	299150
422.830	161044
422.905	81535
422.981	47667
423.056	32284
423.131	22597
423.207	16854
423.282	13582
423.357	14465
423.432	10452
423.508	10593
423.583	12423
423.658	9464
423.733	6963
423.808	6747
423.883	6508
423.959	6044
424.034	5416
424.109	5501
424.184	3854
424.259	4304
424.334	3519
424.409	3302
424.484	2743
424.559	2640
424.634	2885
424.709	3911
424.784	3830
424.859	3562
424.934	3828
425.009	12159
425.084	18002
425.159	6712
425.234	2780
425.309	1943
425.384	7224
425.459	11419
425.534	4008
425.609	2188
425.683	1571
425.758	2264
425.833	1502
425.908	4121
425.983	6826
426.058	16825
426.132	8059
426.207	3224
426.282	4867
426.357	2483
426.431	1916
426.506	2244
426.581	1963
426.655	2036
426.730	1930
426.805	1721
426.879	2187
426.954	2254
427.029	4450
427.103	19078
427.178	42771
427.253	17613
427.327	4330
427.402	4341
427.476	11558
427.551	5971
427.625	2142
427.700	3032
427.774	1368
427.849	2653
427.923	1532
427.998	1579
428.072	2504
428.147	7164
428.221	28482
428.296	86373
428.370	46584
428.444	7583
428.519	4873
428.593	8257
428.667	7421
428.742	9198
428.816	12093
428.890	56152
428.965	83196
429.039	27025
429.113	10635
429.188	4586
429.262	2317
429.336	4517
429.410	9127
429.485	6602
429.559	6710
429.633	5810
429.707	3263
429.781	10753
429.855	56249
429.930	77114
430.004	33358
430.078	39394
430.152	46100
430.226	119428
430.300	114254
430.374	23358
430.448	7520
430.522	14998
430.596	35282
430.670	28317
430.744	80951
430.818	98875
430.892	20388
430.966	3297
431.040	2565
431.114	1516
431.188	1543
431.262	2240
431.336	1815
431.410	4648
431.484	9895
431.557	6670
431.631	2255
431.705	3116
431.779	19434
431.853	80805
431.927	53098
432.000	8467
432.074	2056
432.148	2413
432.222	1368
432.295	1200
432.369	1429
432.443	2970
432.516	19631
432.590	44143
432.664	15292
432.737	2619
432.811	806
432.885	1328
432.958	1643
433.032	562
433.106	205
433.179	578
433.253	321
433.326	1006
433.400	370
433.473	591
433.547	564
433.620	1356
433.694	1961
433.767	2320
433.841	213
433.914	1455
433.988	1032
434.061	1005
434.134	323
434.208	753
434.281	714
434.355	651
434.428	1629
434.501	1237
434.575	420
434.648	481
434.721	635
434.795	330
434.868	437
434.941	1038
435.014	360
435.088	981
435.161	1916
435.234	2523
435.307	2598
435.381	2225
435.454	1919
435.527	3347
435.600	3340
435.673	3203
435.746	2500
435.819	2480
435.892	1519
435.966	1401
436.039	1220
436.112	912
436.185	603
436.258	1037
436.331	504
436.404	1271
436.477	454
436.550	618
436.623	608
436.696	-21
436.769	1190
436.842	1490
436.915	1659
436.987	1726
437.060	1022
437.133	1406
437.206	551
437.279	1599
437.352	405
437.425	977
437.498	614
437.570	3676
437.643	2588
437.716	938
437.789	496
437.861	1964
437.934	6678
438.007	2717
438.080	845
438.152	1933
438.225	4299
438.298	26270
438.370	64966
438.443	28037
438.516	6468
438.588	1831
438.661	696
438.734	1228
438.806	1029
438.879	1722
438.951	1945
439.024	3433
439.096	757
439.169	978
439.241	819
439.314	253
439.386	1400
439.459	2941
439.531	3718
439.604	1394
439.676	1473
439.749	1202
439.821	52
439.893	1236
439.966	939
440.038	1991
440.110	1642
440.183	810
440.255	445
440.327	2391
440.400	10634
440.472	38607
440.544	24429
440.617	4099
440.689	2575
440.761	2990
440.833	4536
440.905	3781
440.978	1008
441.050	387
441.122	973
441.194	371
441.266	1716
441.338	809
441.411	1840
441.483	11312
441.555	16375
441.627	5038
441.699	1760
441.771	2346
441.843	1116
441.915	908
441.987	694
442.059	743
442.131	1802
442.203	2284
442.275	3032
442.347	4924
442.419	9159
442.491	44023
442.563	100804
442.635	45358
442.706	16516
442.778	9692
442.850	2835
442.922	2153
442.994	2481
443.066	3393
443.137	3144
443.209	4795
443.281	6038
443.353	14326
443.425	55144
443.496	176499
443.568	176678
443.640	70504
443.711	16284
443.783	5343
443.855	4143
443.926	3293
443.998	2119
444.070	2020
444.141	2194
444.213	2834
444.285	3693
444.356	2793
444.428	2613
444.499	1728
444.571	887
444.642	1777
444.714	2281
444.785	2661
444.857	3695
444.928	7613
445.000	5029
445.071	5794
445.143	7468
445.214	7319
445.285	12099
445.357	33840
445.428	117087
445.500	243826
445.571	171070
445.642	92798
445.714	34129
445.785	17612
445.856	6493
445.928	4992
445.999	3447
446.070	3832
446.141	2416
446.213	3515
446.284	2035
446.355	1953
446.426	1890
446.497	1503
446.569	3018
446.640	2964
446.711	1621
446.782	1311
446.853	1959
446.924	1865
446.995	506
447.066	1678
447.138	2624
447.209	2002
447.280	431
447.351	379
447.422	-289
447.493	1768
447.564	1247
447.635	1460
447.706	962
447.777	-49
447.847	703
447.918	-268
447.989	1909
448.060	2331
448.131	4511
448.202	3217
448.273	2064
448.344	944
448.414	519
448.485	855
448.556	953
448.627	240
448.698	643
448.768	139
448.839	349
448.910	2192
448.981	1591
449.051	928
449.122	-128
449.193	188
449.263	808
449.334	843
449.405	1599
449.475	3499
449.546	2418
449.616	3189
449.687	2585
449.758	1137
449.828	615
449.899	460
449.969	216
450.040	708
450.110	1495
450.181	958
450.251	404
450.322	455
450.392	971
450.463	68
450.533	300
450.604	736
450.674	494
450.744	1188
450.815	398
450.885	960
450.955	543
451.026	948
451.096	1351
451.166	839
451.237	2914
451.307	6330
451.377	3218
451.447	848
451.518	883
451.588	384
451.658	1267
451.728	1793
451.799	7052
451.869	7947
451.939	1973
452.009	1407
452.079	585
452.149	626
452.219	2104
452.289	8831
452.360	6330
452.430	2697
452.500	987
452.570	2349
452.640	3767
452.710	10825
452.780	14268
452.850	8984
452.920	6883
452.990	2541
453.060	1603
453.129	2469
453.199	2501
453.269	10121
453.339	21284
453.409	32479
453.479	32188
453.549	44052
453.619	46462
453.688	19432
453.758	4123
453.828	975
453.898	1452
453.968	1014
454.037	1596
454.087	762
454.107	400
454.168	280
454.177	240
454.247	262
454.249	319
454.316	1167
454.330	1262
454.386	1598
454.411	2481
454.456	3611
454.492	4927
454.525	6015
454.574	3524
454.595	2457
454.655	1079
454.665	874
454.734	1912
454.736	1978
454.804	2826
454.817	3995
454.873	8086
454.898	8949
454.943	9804
454.979	6999
455.013	4452
455.060	3263
455.082	3013
455.141	2843
455.152	2872
455.221	8784
455.222	8973
455.291	17397
455.303	19112
455.360	24789
455.384	32914
455.430	41202
455.465	32421
455.499	24892
455.546	14496
455.569	10019
455.627	5988
455.638	5347
455.707	1803
455.708	1826
455.777	1959
455.789	1891
455.846	1466
455.869	1777
455.916	2379
455.950	1694
455.985	967
456.031	1311
456.054	1449
456.112	1371
456.124	1351
456.193	1688
456.193	1668
456.262	1922
456.274	2134
456.332	3005
456.355	3194
456.401	2819
456.436	2592
456.470	2418
456.516	1688
456.540	1397
456.597	1320
456.609	1325
456.678	1954
456.678	1937
456.747	1164
456.759	1083
456.817	888
456.840	1191
456.886	1738
456.920	1598
456.955	1487
457.001	1887
457.024	2268
457.082	3323
457.093	3571
457.162	5933
457.163	5976
457.232	5093
457.243	5065
457.301	3693
457.324	2772
457.370	2007
457.405	2447
457.439	3006
457.485	2694
457.508	2591
457.566	3038
457.577	3102
457.646	3608
457.647	3636
457.715	5838
457.727	6405
457.784	11175
457.808	14400
457.853	18977
457.889	22746
457.922	22181
457.969	16355
457.991	16604
458.050	18348
458.060	19081
458.129	30786
458.130	31183
458.198	33636
458.211	31814
458.267	20047
458.292	14319
458.336	9803
458.372	8228
458.405	9338
458.453	13109
458.474	16809
458.533	30404
458.543	32004
458.611	52451
458.614	52990
458.680	37228
458.694	31049
458.749	16375
458.775	11660
458.818	7669
458.855	6620
458.887	5966
458.936	5275
458.955	5075
459.016	3823
459.024	3661
459.093	4293
459.097	4293
459.162	4047
459.177	4021
459.230	4174
459.257	4398
459.299	4521
459.338	4415
459.368	4389
459.418	5203
459.437	5171
459.499	4455
459.505	4457
459.574	3600
459.579	3639
459.643	3884
459.659	3736
459.711	3424
459.740	3564
459.780	4049
459.820	4174
459.849	4004
459.900	4393
459.917	4532
459.981	4905
459.986	4884
460.054	4220
460.061	4177
460.123	4521
460.141	4808
460.191	6036
460.222	6491
460.260	6566
460.302	6908
460.328	6650
460.382	5986
460.397	6070
460.462	6409
460.465	6527
460.534	10005
460.543	10383
460.602	27608
460.623	34370
460.671	55957
460.703	76701
460.739	78080
460.783	73331
460.808	61009
460.864	14821
460.876	11547
460.944	5848
460.945	5791
461.013	5506
461.024	5443
461.081	4987
461.104	5000
461.150	4854
461.184	4677
461.218	4449
461.264	4246
461.286	4568
461.345	5106
461.355	5028
461.423	4487
461.425	4486
461.491	4913
461.505	5028
461.559	7315
461.585	8231
461.628	12927
461.665	17650
461.696	20225
461.745	25087
461.764	21779
461.825	8408
461.832	8169
461.901	5502
461.905	5429
461.969	4936
461.985	4849
462.037	5211
462.065	5289
462.105	5148
462.145	5149
462.173	7135
462.225	10882
462.241	12042
462.305	17344
462.310	16943
462.378	10081
462.385	9169
462.446	6619
462.465	6045
462.514	5884
462.545	5861
462.582	6005
462.625	6161
462.650	5888
462.705	5268
462.718	5370
462.785	5741
462.786	5761
462.854	6996
462.865	7214
462.922	9259
462.945	10139
462.990	8173
463.025	6281
463.058	5785
463.104	5106
463.126	4916
463.184	4854
463.194	4978
463.262	5669
463.264	5691
463.330	6140
463.344	6122
463.398	6200
463.424	6372
463.466	6201
463.504	6197
463.533	6450
463.583	6642
463.601	6741
463.663	6887
463.669	6999
463.737	8354
463.743	8490
463.805	11372
463.823	12209
463.873	17760
463.903	21178
463.940	23833
463.982	26980
464.008	22061
464.062	10709
464.076	9958
464.142	6065
464.144	6058
464.211	5994
464.221	6020
464.279	6356
464.301	6428
464.347	6598
464.381	6777
464.414	7743
464.461	9057
464.482	9247
464.540	9888
464.550	9686
464.617	7918
464.620	7847
464.685	8518
464.699	8613
464.753	10263
464.779	11181
464.820	12517
464.859	13815
464.888	13240
464.938	12036
464.956	12406
465.018	13446
465.023	13249
465.091	10485
465.098	10207
465.158	10357
465.177	10361
465.226	10527
465.257	10590
465.293	10931
465.336	11372
465.361	11874
465.416	12893
465.428	13398
465.495	15949
465.496	16014
465.563	22155
465.575	23213
465.631	29635
465.654	32358
465.698	22539
465.734	14105
465.765	12859
465.813	10735
465.833	10396
465.893	9717
465.900	9774
465.968	10145
465.972	10150
466.035	10467
466.052	10508
466.102	10901
466.131	11189
466.170	10742
466.210	10162
466.237	10815
466.290	12028
466.304	12005
466.369	11778
466.372	11837
466.439	13018
466.449	13158
466.506	13997
466.528	14261
466.573	16499
466.607	18193
466.641	24305
466.687	32675
466.708	36819
466.766	48267
466.775	45227
466.842	21561
466.845	20398
466.909	16381
466.925	15408
466.977	15007
467.004	14789
467.044	14962
467.083	15083
467.111	16426
467.163	18861
467.178	19513
467.242	22051
467.245	21938
467.312	18674
467.321	18204
467.379	18009
467.400	17887
467.446	18225
467.480	18408
467.559	18259
467.638	16181
467.717	15335
467.796	16975
467.875	18460
467.955	18020
468.034	21078
468.113	37421
468.192	58936
468.271	24685
468.350	17485
468.429	19645
468.508	20723
468.588	17897
468.667	15173
468.746	16390
468.825	15649
468.904	13199
468.983	14349
469.062	18458
469.141	23650
469.220	14178
469.299	13101
469.378	14946
469.456	17437
469.535	17664
469.614	16417
469.693	15365
469.772	18785
469.851	21665
469.930	20136
470.009	15323
470.088	15794
470.166	15527
470.245	18104
470.324	20670
470.403	17850
470.482	15989
470.560	14136
470.639	14358
470.718	16893
470.797	13991
470.875	15737
470.954	19429
471.033	22067
471.111	12636
471.190	12679
471.269	10353
471.347	12149
471.426	12350
471.505	14507
471.583	16294
471.662	15031
471.740	13768
471.819	13417
471.898	12475
471.976	12933
472.055	13816
472.133	13967
472.212	17777
472.290	16736
472.369	13598
472.447	12078
472.526	11981
472.604	13117
472.683	12758
472.761	14622
472.839	12545
472.918	13080
472.996	12544
473.075	12963
473.153	14275
473.231	11232
473.310	13095
473.388	13819
473.466	12627
473.545	14023
473.623	17850
473.701	18129
473.780	12821
473.858	13176
473.936	13770
474.014	12960
474.093	13885
474.171	18093
474.249	23617
474.327	19045
474.405	12544
474.484	11963
474.562	11532
474.640	12188
474.718	12220
474.796	13228
474.874	11987
474.952	11894
475.030	11108
475.108	12320
475.187	12499
475.265	13992
475.343	15697
475.421	18014
475.499	12894
475.577	12298
475.655	13873
475.733	22507
475.811	38797
475.889	36423
475.966	29093
476.044	12204
476.122	12295
476.200	14814
476.278	13941
476.356	11716
476.434	11079
476.512	12770
476.590	15487
476.667	14418
476.745	10910
476.823	11599
476.901	11467
476.979	11166
477.056	11851
477.134	11863
477.212	12278
477.290	12487
477.367	10685
477.445	10349
477.523	9779
477.601	11342
477.678	10356
477.756	12197
477.834	13884
477.911	11041
477.989	11779
478.066	11215
478.144	11463
478.222	12495
478.299	15505
478.377	17671
478.454	12214
478.532	10160
478.609	10677
478.687	12210
478.764	10848
478.842	11242
478.919	11332
478.997	11778
479.074	9618
479.152	11013
479.229	13232
479.307	11185
479.384	8635
479.461	10048
479.539	9310
479.616	11921
479.694	10980
479.771	11467
479.848	11636
479.926	13278
480.003	15116
480.080	10336
480.157	9321
480.235	10273
480.312	10142
480.389	10664
480.467	15456
480.544	20223
480.621	12200
480.698	11396
480.775	12544
480.853	13315
480.930	10972
481.007	11537
481.084	14412
481.161	17866
481.238	15751
481.315	9932
481.392	9676
481.470	10631
481.547	10131
481.624	10220
481.701	10031
481.778	10348
481.855	11229
481.932	13919
482.009	22056
482.086	19905
482.163	11141
482.240	13497
482.317	18412
482.393	17248
482.470	11155
482.547	11463
482.624	10530
482.701	10655
482.778	10371
482.855	9960
482.932	10310
483.009	9278
483.085	10878
483.162	14922
483.239	14639
483.316	11698
483.393	11016
483.469	10125
483.546	11437
483.623	12336
483.699	10526
483.776	11126
483.853	11696
483.930	14629
484.006	30227
484.083	54035
484.160	37626
484.236	52717
484.313	48580
484.389	34524
484.466	30348
484.543	28448
484.619	29749
484.696	30601
484.772	30416
484.849	31478
484.925	28269
485.002	26836
485.078	28090
485.155	28724
485.231	26099
485.308	26526
485.384	26009
485.461	29217
485.537	39614
485.614	49473
485.690	27447
485.766	25847
485.843	24765
485.919	30224
485.995	33657
486.072	24222
486.148	23517
486.224	22976
486.301	23521
486.377	25585
486.453	25788
486.530	25579
486.606	33130
486.682	39010
486.758	40594
486.835	45657
486.911	36231
486.987	49702
487.063	54163
487.139	64488
487.215	52124
487.292	33744
487.368	27912
487.444	30915
487.520	34410
487.596	39957
487.672	50932
487.748	113493
487.824	197107
487.900	101035
487.976	41493
488.052	33610
488.128	32210
488.204	29004
488.280	25027
488.356	26984
488.432	41521
488.508	66069
488.584	30737
488.660	22968
488.736	22824
488.812	23593
488.888	28542
488.964	31459
489.039	52144
489.115	84063
489.191	60348
489.267	24637
489.343	22781
489.418	19765
489.494	19966
489.570	19009
489.646	20114
489.722	19433
489.797	20585
489.873	24875
489.949	46145
490.024	48606
490.100	19747
490.176	19374
490.251	21555
490.327	25131
490.403	18981
490.478	17770
490.554	16192
490.629	18193
490.705	16273
490.781	18371
490.856	17849
490.932	19317
491.007	18958
491.083	20439
491.158	19245
491.234	19104
491.309	34847
491.385	41189
491.460	19050
491.536	17551
491.611	17820
491.686	17651
491.762	21942
491.837	34765
491.913	57469
491.988	72674
492.063	104303
492.139	37793
492.214	24689
492.289	16292
492.365	15389
492.440	17577
492.515	15842
492.590	17234
492.666	14585
492.741	17258
492.816	24566
492.891	17554
492.967	16160
493.042	16302
493.117	17960
493.192	20684
493.267	32295
493.342	114763
493.418	199391
493.493	40279
493.568	14790
493.643	13796
493.718	15770
493.793	19398
493.868	23797
493.943	17535
494.018	13870
494.093	12996
494.168	13008
494.243	13293
494.318	11614
494.393	12068
494.468	12052
494.543	12667
494.618	13330
494.693	12744
494.768	11262
494.842	12980
494.917	12573
494.992	12271
495.067	12551
495.142	12610
495.217	13775
495.292	12727
495.366	13765
495.441	16218
495.516	19973
495.591	23131
495.665	57620
495.740	157221
495.815	87557
495.890	20279
495.964	14560
496.039	16636
496.114	16417
496.188	19273
496.263	20044
496.338	14960
496.412	16139
496.487	18760
496.561	18445
496.636	20647
496.710	16411
496.785	17763
496.860	19998
496.934	17480
497.009	16431
497.083	17423
497.158	17718
497.232	19094
497.307	22384
497.381	19678
497.455	21030
497.530	27345
497.604	23669
497.679	23899
497.753	31332
497.827	41623
497.902	39268
497.976	44535
498.050	70350
498.125	254958
498.199	339077
498.273	64860
498.348	44571
498.422	39774
498.496	36433
498.570	33493
498.645	27272
498.719	26311
498.793	28994
498.867	36885
498.941	44073
499.016	92710
499.090	296106
499.164	146237
499.238	21823
499.312	17183
499.386	19013
499.460	19444
499.534	17399
499.609	19055
499.683	27333
499.757	28226
499.831	41802
499.905	169868
499.979	216099
500.053	35905
500.127	31519
500.201	26366
500.275	17244
500.349	16914
500.422	18847
500.496	23573
500.570	42818
500.644	91550
500.718	205025
500.792	64738
500.866	16721
500.940	19227
501.013	18296
501.087	16901
501.161	24482
501.235	32234
501.309	53691
501.382	152443
501.456	175133
501.530	37481
501.603	56279
501.677	30907
501.751	13889
501.825	17839
501.898	22707
501.972	62855
502.046	54243
502.119	16981
502.193	27634
502.266	71091
502.340	45414
502.413	29234
502.487	63909
502.561	43400
502.634	17826
502.708	14516
502.781	13335
502.855	11190
502.928	9604
503.002	9965
503.075	9909
503.149	11100
503.222	11274
503.295	12368
503.369	14674
503.442	17088
503.516	40802
503.589	120770
503.662	96734
503.736	30910
503.809	56115
503.882	56294
503.956	64931
504.029	81058
504.102	63820
504.175	101620
504.249	51452
504.322	26081
504.395	18409
504.468	13926
504.542	11800
504.615	12050
504.688	10885
504.761	9844
504.834	11723
504.907	13041
504.980	18516
505.053	11892
505.127	11416
505.200	16582
505.273	15574
505.346	11110
505.419	9547
505.492	9090
505.565	9323
505.638	10111
505.711	9364
505.784	9569
505.857	7406
505.930	9421
506.003	8077
506.076	9828
506.149	10499
506.221	13915
506.294	12467
506.367	21384
506.440	80893
506.513	61732
506.586	15018
506.659	10293
506.731	9307
506.804	10204
506.877	13742
506.950	11624
507.022	8039
507.095	9804
507.168	13581
507.241	9502
507.313	8106
507.386	8400
507.459	13007
507.531	9819
507.604	8448
507.677	8488
507.749	7616
507.822	10636
507.894	17907
507.967	26467
508.040	16916
508.112	14439
508.185	13750
508.257	12198
508.330	15467
508.402	13192
508.475	12361
508.547	13847
508.620	12407
508.692	16840
508.765	14411
508.837	11137
508.909	11074
508.982	11037
509.054	12089
509.127	12649
509.199	10684
509.271	10521
509.344	10037
509.416	10350
509.488	11151
509.560	10859
509.633	11192
509.705	13012
509.777	12509
509.849	16372
509.922	13212
509.994	13532
510.066	12549
510.138	12764
510.210	22543
510.283	24457
510.355	19358
510.427	16382
510.499	15614
510.571	14530
510.643	13912
510.715	18625
510.787	17245
510.859	15294
510.931	15712
511.003	17968
511.076	19266
511.148	14756
511.219	13960
511.291	18923
511.363	22042
511.435	14588
511.507	12742
511.579	13159
511.651	12399
511.723	12220
511.795	12475
511.867	12566
511.939	13842
512.010	21845
512.082	20863
512.154	12740
512.226	13852
512.298	16531
512.369	25691
512.441	21784
512.513	19961
512.585	17019
512.656	16222
512.728	16782
512.800	15052
512.871	14785
512.943	14964
513.015	13284
513.086	14537
513.158	14999
513.230	14659
513.301	17952
513.373	20220
513.444	15407
513.516	13588
513.588	13586
513.659	14535
513.731	16224
513.802	14565
513.874	21298
513.945	36431
514.016	18780
514.088	13130
514.159	13540
514.231	16392
514.302	22691
514.374	19415
514.445	17693
514.516	25382
514.588	23142
514.659	16666
514.730	22771
514.802	23195
514.873	18077
514.944	20679
515.016	17274
515.087	17514
515.158	18430
515.229	26122
515.301	18912
515.372	24783
515.443	20463
515.514	16725
515.585	14269
515.656	14664
515.728	14165
515.799	12920
515.870	14573
515.941	14795
516.012	13835
516.083	17937
516.154	19359
516.225	21271
516.296	21371
516.367	18045
516.438	19325
516.509	22194
516.580	27537
516.651	54691
516.722	202333
516.793	134312
516.864	33510
516.935	30725
517.006	31285
517.077	38549
517.148	66246
517.219	195907
517.289	408176
517.360	138883
517.431	57547
517.502	19798
517.573	18201
517.643	17328
517.714	20074
517.785	20772
517.856	19508
517.926	24214
517.997	26956
518.068	31213
518.138	40248
518.209	49422
518.280	129591
518.350	561579
518.421	311819
518.492	46872
518.562	30465
518.633	30215
518.703	33147
518.774	50578
518.845	109427
518.915	130085
518.986	54038
519.056	32568
519.127	36706
519.197	48611
519.268	94174
519.338	79633
519.408	24288
519.479	23584
519.549	20966
519.620	16547
519.690	14390
519.760	13478
519.831	14186
519.901	14005
519.971	13565
520.042	14063
520.112	16004
520.182	16490
520.253	17973
520.323	14129
520.393	16542
520.463	24904
520.534	17792
520.604	30207
520.674	21355
520.744	17153
520.814	32174
520.885	34463
520.955	29927
521.025	103566
521.095	61863
521.165	15695
521.235	14840
521.305	13036
521.375	12337
521.445	12751
521.515	15409
521.585	16577
521.655	16767
521.725	14771
521.795	15164
521.865	11391
521.935	15208
522.005	15423
522.075	11415
522.145	12289
522.215	14783
522.285	17203
522.355	20199
522.424	32374
522.494	32742
522.564	19338
522.634	25254
522.704	67344
522.774	40216
522.843	13263
522.913	11616
522.983	15157
523.053	13857
523.122	12944
523.192	15010
523.262	35618
523.331	45743
523.401	15646
523.471	10653
523.540	11335
523.610	9880
523.680	10225
523.749	11356
523.819	12314
523.888	13736
523.958	10307
524.027	11213
524.097	11875
524.166	11112
524.236	11336
524.305	12802
524.375	10121
524.444	10126
524.514	12183
524.583	11174
524.653	13584
524.722	14693
524.791	11167
524.861	12253
524.930	10102
524.999	10409
525.069	12786
525.138	11856
525.207	13364
525.277	12763
525.346	11864
525.415	12317
525.484	11531
525.554	13129
525.623	14853
525.692	15265
525.761	16727
525.830	17869
525.900	20425
525.969	28376
526.038	44287
526.107	73361
526.176	228708
526.245	250698
526.314	85609
526.383	111069
526.452	191811
526.522	242314
526.591	345705
526.660	95252
526.729	48433
526.797	46287
526.867	64470
526.935	221185
527.004	533884
527.073	455159
527.142	64938
527.211	24822
527.280	18162
527.349	17672
527.418	12450
527.487	12349
527.555	10218
527.624	10954
527.693	9410
527.762	11113
527.831	9578
527.899	10619
527.968	10551
528.037	8939
528.106	11054
528.174	16543
528.243	15539
528.312	16822
528.380	24416
528.449	11974
528.518	10733
528.586	8273
528.655	9831
528.723	8880
528.792	8971
528.861	9696
528.929	8242
528.998	9471
529.066	10756
529.135	15934
529.203	16767
529.272	16883
529.340	24574
529.409	23353
529.477	20940
529.545	22011
529.614	24061
529.682	25078
529.751	31018
529.819	30838
529.887	32299
529.956	30341
530.024	28613
530.092	26251
530.161	26339
530.229	30385
530.297	29118
530.365	29259
530.434	28954
530.502	31046
530.570	28656
530.638	23952
530.707	24702
530.775	25147
530.843	22582
530.911	26318
530.979	24729
531.047	28215
531.115	29180
531.183	26476
531.252	24501
531.320	23735
531.388	24141
531.456	25573
531.524	28123
531.592	28294
531.660	32708
531.728	29992
531.796	28247
531.864	27928
531.932	28885
532.000	27880
532.067	30617
532.135	33328
532.203	34746
532.271	36109
532.339	39822
532.407	57176
532.475	48406
532.542	37205
532.610	35578
532.678	37261
532.746	63066
532.814	154085
532.881	73485
532.949	36502
533.017	32740
533.084	31335
533.152	29803
533.220	29183
533.287	29975
533.355	31714
533.423	30327
533.490	30481
533.558	31847
533.625	30799
533.693	31030
533.761	30256
533.828	29786
533.896	29522
533.963	37039
534.031	42757
534.098	46162
534.166	38827
534.233	31449
534.300	31623
534.368	31476
534.435	29808
534.503	29391
534.570	31560
534.637	31419
534.705	33563
534.772	35102
534.840	41153
534.907	102256
534.974	189118
535.041	49075
535.109	28568
535.176	23205
535.243	25399
535.310	24561
535.378	24924
535.445	23831
535.512	21397
535.579	22390
535.646	21754
535.714	21352
535.781	24361
535.848	24093
535.915	26677
535.982	27930
536.049	27518
536.116	25723
536.183	23230
536.250	22326
536.317	22006
536.384	21973
536.451	25154
536.518	26132
536.585	22808
536.652	25519
536.719	29074
536.786	24759
536.853	22231
536.920	25372
536.987	31972
537.053	29390
537.120	62335
537.187	80277
537.254	22197
537.321	19341
537.388	20351
537.454	16773
537.521	16881
537.588	17360
537.654	17840
537.721	20514
537.788	20475
537.855	17799
537.921	19346
537.988	19070
538.055	18539
538.121	16913
538.188	17518
538.254	19533
538.321	28908
538.388	23584
538.454	18757
538.521	17131
538.587	17667
538.654	16597
538.720	16983
538.787	16544
538.853	17506
538.920	17828
538.986	17484
539.053	16339
539.119	16447
539.185	16301
539.252	18537
539.318	20591
539.385	21388
539.451	20711
539.517	21148
539.583	19361
539.650	24814
539.716	55894
539.782	29949
539.849	17404
539.915	17202
539.981	16879
540.047	18487
540.114	17596
540.180	18536
540.246	18019
540.312	19901
540.378	27567
540.444	30626
540.510	26351
540.576	59959
540.643	35329
540.709	16306
540.775	16020
540.841	17029
540.907	17986
540.973	24941
541.039	23001
541.105	22913
541.171	18150
541.237	16492
541.303	17312
541.369	18350
541.435	19890
541.500	26787
541.566	21152
541.632	15597
541.698	14402
541.764	15087
541.830	15331
541.896	14499
541.961	15956
542.027	15922
542.093	16239
542.159	17207
542.224	16811
542.290	21058
542.356	24802
542.421	29811
542.487	19352
542.553	16597
542.618	16717
542.684	16613
542.750	15095
542.815	17630
542.881	20410
542.947	46599
543.012	52110
543.078	17493
543.143	15191
543.209	16693
543.274	15924
543.340	15799
543.405	23227
543.471	38785
543.536	19156
543.602	16731
543.667	14993
543.732	16589
543.798	14111
543.863	16392
543.928	14360
543.994	14285
544.059	15336
544.124	15161
544.190	15420
544.255	17457
544.320	16105
544.386	16176
544.451	19936
544.516	20627
544.581	18446
544.646	32441
544.712	59313
544.777	24766
544.842	18834
544.907	19179
544.972	18085
545.037	18248
545.102	19198
545.168	20043
545.233	19190
545.298	19729
545.363	21449
545.428	23230
545.493	27304
545.558	45481
545.623	31953
545.688	19623
545.753	19000
545.818	19938
545.883	20957
545.947	20858
546.012	21496
546.077	21705
546.142	22292
546.207	22080
546.272	24879
546.337	25456
546.401	23951
546.466	24280
546.531	23523
546.596	25742
546.661	25776
546.725	27359
546.790	25286
546.855	27616
546.919	27781
546.984	31914
547.049	32765
547.113	36761
547.178	37263
547.243	42801
547.307	47472
547.372	54306
547.436	56626
547.501	54952
547.565	58546
547.630	57940
547.695	55046
547.759	56926
547.823	55159
547.888	55153
547.952	55083
548.017	57173
548.081	63174
548.146	64580
548.210	63108
548.274	62236
548.339	63532
548.403	58672
548.468	55127
548.532	53758
548.596	55225
548.660	55148
548.725	58091
548.789	64131
548.853	65507
548.917	61760
548.982	63594
549.046	61778
549.110	51558
549.174	49614
549.238	55515
549.303	62179
549.367	64985
549.431	63580
549.495	60031
549.559	58869
549.623	63507
549.687	73654
549.751	74206
549.815	82490
549.879	86577
549.943	79642
550.007	82915
550.071	86369
550.135	81249
550.199	76248
550.263	74779
550.327	70987
550.391	74705
550.455	78235
550.519	82016
550.582	84590
550.646	95629
550.710	103079
550.774	97539
550.838	96231
550.901	98138
550.965	105776
551.029	108067
551.093	116625
551.156	123039
551.220	140097
551.284	152363
551.347	122156
551.411	121425
551.475	129296
551.538	108571
551.602	103333
551.666	96324
551.729	91080
551.793	87835
551.856	88808
551.920	86851
551.983	88485
552.047	86120
552.110	86407
552.174	86567
552.237	88162
552.301	86773
552.364	82125
552.428	79374
552.491	79073
552.554	83273
552.618	82792
552.681	84024
552.745	80741
552.808	86334
552.871	93463
552.934	88947
552.998	86040
553.061	82912
553.124	81609
553.187	79692
553.251	83564
553.314	85027
553.377	86828
553.440	96184
553.503	134668
553.567	232280
553.630	125432
553.693	91158
553.756	90626
553.819	88516
553.882	85606
553.945	84114
554.008	85546
554.071	85141
554.134	87968
554.197	84284
554.260	81369
554.323	83212
554.386	83450
554.449	84737
554.512	87400
554.575	82302
554.638	82114
554.701	81804
554.764	80738
554.827	78672
554.889	76875
554.952	74092
555.015	69370
555.078	71118
555.141	73680
555.203	71622
555.266	69826
555.329	71822
555.391	69038
555.454	69127
555.517	67692
555.580	64088
555.642	61586
555.705	61554
555.768	61382
555.830	60402
555.893	57052
555.955	56118
556.018	55261
556.080	55326
556.143	55558
556.206	55866
556.268	54365
556.330	54172
556.393	53228
556.455	52407
556.518	53180
556.580	54350
556.643	48560
556.705	46996
556.767	45152
556.830	46359
556.892	45520
556.955	48600
557.017	47283
557.079	42594
557.142	42454
557.204	41680
557.266	48576
557.328	48986
557.391	38535
557.453	36392
557.515	37386
557.577	38363
557.639	39213
557.701	36700
557.764	36494
557.826	37930
557.888	39236
557.950	40330
558.012	40155
558.074	45182
558.136	71408
558.198	184499
558.260	115894
558.322	43748
558.384	43020
558.446	46378
558.508	50638
558.570	58411
558.632	70682
558.694	90546
558.756	109261
558.818	246588
558.880	751930
558.942	382884
559.003	206407
559.065	152778
559.127	60097
559.189	54977
559.251	56804
559.312	69326
559.374	128341
559.436	450424
559.498	370740
559.559	76440
559.621	55140
559.683	56090
559.744	74613
559.806	190156
559.868	403796
559.929	131817
559.991	56164
560.052	64734
560.114	161534
560.176	157178
560.237	92992
560.299	185987
560.360	75315
560.422	30330
560.483	26073
560.545	26104
560.606	24416
560.667	23365
560.729	22254
560.790	22304
560.852	22050
560.913	20855
560.974	21364
561.036	21278
561.097	21647
561.158	21556
561.220	22232
561.281	20198
561.342	21272
561.403	22692
561.465	24095
561.526	33216
561.587	44716
561.648	24385
561.709	20679
561.771	20398
561.832	20314
561.893	20005
561.954	20190
562.015	19166
562.076	20244
562.137	19572
562.198	19723
562.259	19967
562.320	19742
562.381	19720
562.442	22712
562.503	21524
562.564	19170
562.625	19151
562.686	19040
562.747	18680
562.808	20265
562.869	18216
562.930	20940
562.991	19796
563.051	19597
563.112	19322
563.173	18985
563.234	17908
563.294	19084
563.355	18282
563.416	19175
563.477	18352
563.537	18783
563.598	19461
563.659	18406
563.720	18571
563.780	19155
563.841	19870
563.901	18526
563.962	18125
564.023	18314
564.083	18712
564.144	18086
564.204	18544
564.265	19080
564.325	19351
564.386	25545
564.446	25670
564.507	18879
564.567	18237
564.628	18318
564.688	18389
564.749	18221
564.809	19128
564.869	20453
564.930	19000
564.990	19098
565.050	18142
565.111	18828
565.171	18132
565.231	17919
565.292	18090
565.352	18194
565.412	19094
565.472	19175
565.532	19138
565.593	19204
565.653	18243
565.713	18469
565.773	19486
565.833	20310
565.893	22740
565.953	20106
566.013	19736
566.074	20484
566.134	21404
566.194	25708
566.254	27737
566.314	24218
566.374	20931
566.434	20700
566.494	21338
566.554	22281
566.614	21618
566.673	21408
566.733	22847
566.793	23345
566.853	23716
566.913	24148
566.973	25480
567.033	24905
567.092	24638
567.152	25689
567.212	24861
567.272	25440
567.331	25818
567.391	26386
567.451	27884
567.511	29830
567.570	30075
567.630	27080
567.690	24955
567.749	25931
567.809	26382
567.868	29556
567.928	30900
567.988	34270
568.047	36540
568.107	41205
568.166	52748
568.226	74101
568.285	101623
568.345	104263
568.404	87944
568.464	77521
568.523	70480
568.582	70198
568.642	73089
568.701	83137
568.761	106028
568.820	158338
568.879	178265
568.939	149058
568.998	117189
569.057	93072
569.116	77160
569.176	63937
569.235	55609
569.294	48702
569.353	43350
569.413	39103
569.472	36070
569.531	34017
569.590	30736
569.649	29357
569.708	28049
569.767	27080
569.827	27021
569.886	25254
569.945	22712
570.004	23537
570.063	21572
570.122	22463
570.181	22784
570.240	22716
570.299	22473
570.358	22687
570.417	20098
570.475	20732
570.534	20267
570.593	20134
570.652	19889
570.711	20844
570.770	19376
570.829	20653
570.887	19281
570.946	20405
571.005	18910
571.064	18218
571.122	18580
571.181	18769
571.240	18142
571.299	17652
571.357	17934
571.416	19469
571.475	17399
571.533	19222
571.592	18184
571.650	18569
571.709	17858
571.768	17895
571.826	18488
571.885	18022
571.943	16981
572.002	16815
572.060	16668
572.119	17596
572.177	16225
572.236	16589
572.294	16081
572.352	17165
572.411	16019
572.469	15633
572.528	15872
572.586	16184
572.644	16281
572.703	18797
572.761	16903
572.819	16170
572.877	14673
572.936	15394
572.994	14440
573.052	15695
573.110	14461
573.169	16118
573.227	14344
573.285	15617
573.343	15506
573.401	15471
573.459	16206
573.517	15291
573.576	14453
573.634	15010
573.692	14948
573.750	15514
573.808	14583
573.866	15911
573.924	15928
573.982	16339
574.040	15855
574.098	15111
574.155	14246
574.213	14221
574.271	14646
574.329	15774
574.387	14681
574.445	14114
574.503	14027
574.560	13556
574.618	14174
574.676	14011
574.734	13025
574.792	14589
574.849	13326
574.907	13520
574.965	12981
575.022	13375
575.080	13155
575.138	13643
575.195	12872
575.253	13470
575.311	13998
575.368	14097
575.426	12027
575.483	13480
575.541	12817
575.598	13066
575.656	14130
575.713	12694
575.771	13627
575.828	13287
575.886	12474
575.943	13764
576.001	12985
576.058	13323
576.115	13537
576.173	14553
576.230	15434
576.287	16633
576.345	15077
576.402	12862
576.459	14541
576.517	14301
576.574	14807
576.631	14199
576.688	14149
576.746	14254
576.803	12464
576.860	13265
576.917	13020
576.974	13683
577.031	14171
577.089	13955
577.146	13310
577.203	13233
577.260	13998
577.317	13835
577.374	14361
577.431	14874
577.488	14305
577.545	14438
577.602	13994
577.659	14510
577.716	14182
577.773	16364
577.830	15437
577.886	14688
577.943	14642
578.000	14469
578.057	15697
578.114	16264
578.171	17604
578.227	21377
578.284	24288
578.341	21723
578.398	18561
578.454	16778
578.511	14987
578.568	17199
578.625	16568
578.681	14968
578.738	13246
578.794	13401
578.851	13672
578.908	14229
578.964	15666
579.021	15812
579.077	13825
579.134	15006
579.190	14406
579.247	14826
579.303	14043
579.360	14900
579.416	14555
579.473	14846
579.529	14152
579.586	14935
579.642	15324
579.698	15458
579.755	15152
579.811	17144
579.867	16596
579.924	17063
579.980	16925
580.036	18743
580.093	21352
580.149	27301
580.205	35101
580.261	30860
580.317	24322
580.374	21344
580.430	20580
580.486	19867
580.542	17591
580.598	18194
580.619	18026
580.654	17756
580.692	17334
580.710	17149
580.765	17302
580.767	17322
580.823	17383
580.838	17130
580.879	16487
580.911	16530
580.935	16597
580.984	18082
580.991	18301
581.047	17836
581.057	17927
581.103	18442
581.130	18524
581.159	18607
581.203	19962
581.215	20337
581.270	21422
581.276	21214
581.326	19341
581.349	19316
581.382	19318
581.422	19215
581.438	19164
581.494	18111
581.494	18100
581.550	18070
581.567	17998
581.606	17780
581.640	18023
581.661	18245
581.713	19189
581.717	19261
581.773	17647
581.786	17976
581.829	19238
581.859	19416
581.885	19513
581.932	19262
581.940	19235
581.996	19249
582.004	19290
582.052	19413
582.077	19112
582.107	18852
582.150	19675
582.163	19920
582.219	19858
582.223	19856
582.274	19985
582.296	19966
582.330	19836
582.368	21518
582.386	22319
582.441	20478
582.441	20478
582.497	21564
582.514	21433
582.552	21417
582.587	22365
582.608	22838
582.659	23113
582.663	23137
582.719	22839
582.732	22854
582.774	22869
582.805	22890
582.830	23063
582.877	24035
582.885	24153
582.941	25196
582.950	25342
582.996	26612
583.023	28361
583.052	30169
583.095	31402
583.107	31747
583.162	33563
583.168	33728
583.218	34741
583.240	34059
583.273	32922
583.313	30548
583.328	29620
583.384	27726
583.385	27675
583.439	26380
583.458	26227
583.494	25840
583.531	24816
583.549	24447
583.603	25256
583.605	25275
583.660	24720
583.676	24725
583.715	24807
583.748	24980
583.770	25134
583.820	25146
583.825	25147
583.881	25086
583.893	25063
583.936	24831
583.965	25124
583.991	25541
584.038	25994
584.046	26022
584.101	25865
584.110	25868
584.156	26329
584.183	26781
584.211	26959
584.255	26300
584.266	26255
584.321	26766
584.328	26919
584.376	27548
584.400	27534
584.431	28004
584.472	28624
584.486	28670
584.541	28607
584.545	28653
584.596	29835
584.617	30002
584.651	30115
584.689	30169
584.706	30337
584.761	31172
584.762	31178
584.816	31876
584.834	31936
584.871	32505
584.906	33017
584.926	33071
584.978	33582
584.980	33620
585.035	34080
585.051	34616
585.090	36026
585.123	35924
585.145	36041
585.195	37575
585.200	37709
585.254	40225
585.267	40887
585.309	43628
585.340	46409
585.364	48294
585.412	48978
585.419	49076
585.473	50327
585.484	50998
585.528	55395
585.556	60776
585.583	69513
585.628	91208
585.637	99194
585.692	169783
585.700	187033
585.747	284122
585.772	279257
585.801	226028
585.845	124492
585.856	104796
585.910	65629
585.917	61997
585.965	53705
585.989	51046
586.019	49719
586.061	48433
586.074	48053
586.128	47658
586.133	47564
586.183	47598
586.205	47939
586.237	48201
586.277	47613
586.292	47610
586.346	48453
586.349	48491
586.401	49214
586.421	49275
586.455	49703
586.493	50446
586.509	51034
586.564	52537
586.565	52619
586.618	59245
586.637	60943
586.672	61340
586.709	57789
586.727	56647
586.781	58077
586.781	58116
586.835	58434
586.853	58477
586.889	58732
586.925	59102
586.944	59612
586.996	61473
586.998	61551
587.052	62674
587.068	63077
587.106	65090
587.140	66542
587.161	67499
587.212	70437
587.215	70629
587.269	72965
587.284	73792
587.323	76456
587.356	78692
587.377	80452
587.427	83430
587.431	83692
587.485	87624
587.499	88454
587.539	91588
587.571	94180
587.593	96972
587.643	103794
587.648	104395
587.702	109285
587.715	110646
587.755	116678
587.786	120826
587.810	124468
587.858	132742
587.864	133930
587.917	144856
587.930	147404
587.971	157579
588.001	164856
588.025	171806
588.073	186372
588.079	188658
588.133	208206
588.145	212488
588.187	231113
588.217	245048
588.241	258896
588.288	287442
588.295	292261
588.348	330520
588.360	339163
588.402	378758
588.431	407065
588.456	436068
588.503	493139
588.510	504234
588.564	594730
588.575	614305
588.617	711806
588.646	780518
588.671	858828
588.718	1011234
588.725	1039015
588.778	1251715
588.789	1295021
588.832	1431721
588.861	1516658
588.886	1510626
588.932	1465006
588.939	1450596
588.993	1279884
589.004	1256338
589.047	1418398
589.075	1514178
589.100	1522226
589.147	1504192
589.154	1484000
589.207	1304822
589.218	1268266
589.261	1168754
589.290	1106615
589.314	1108652
589.361	1121888
589.368	1137940
589.421	1274266
589.433	1304290
589.475	1416127
589.504	1488876
589.528	1464747
589.576	1366783
589.582	1370645
589.635	1398127
589.647	1400085
589.689	1380235
589.718	1348972
589.742	1222611
589.790	965001
589.795	943239
589.849	731650
589.861	683257
589.902	585551
589.932	515018
589.955	479720
590.004	405450
590.009	400876
590.062	348841
590.075	335944
590.115	304463
590.146	279917
590.168	268271
590.218	242249
590.222	240824
590.275	218362
590.289	212423
590.328	201065
590.360	191309
590.381	185420
590.431	171233
590.435	170819
590.488	159302
590.503	156135
590.541	150226
590.574	144194
590.594	140990
590.645	132751
590.647	132752
590.700	127335
590.716	125483
590.753	121656
590.787	117851
590.806	116298
590.859	111443
590.859	111576
590.912	108266
590.930	106903
590.965	104387
591.001	101829
591.018	101403
591.071	99442
591.072	99237
591.124	95481
591.143	93943
591.177	92761
591.214	91028
591.230	90454
591.283	88270
591.285	88015
591.336	86291
591.356	85334
591.389	83624
591.427	81357
591.442	81076
591.495	79228
591.498	78957
591.547	77665
591.569	76887
591.600	76448
591.640	75378
591.653	75043
591.706	73064
591.711	72719
591.759	73116
591.782	73120
591.811	72900
591.853	72173
591.864	72119
591.917	71001
591.924	70702
591.969	70094
591.995	69581
592.022	69401
592.066	68702
592.075	68794
592.127	68512
592.137	68323
592.180	68670
592.208	68652
592.233	68122
592.279	66684
592.285	66784
592.338	66498
592.350	66296
592.390	64936
592.421	63673
592.443	64074
592.491	64526
592.495	64615
592.548	63934
592.562	63609
592.600	64004
592.633	64090
592.653	63306
592.704	60567
592.705	60929
592.775	61662
592.846	61660
592.916	62011
592.987	60636
593.058	61386
593.128	58542
593.199	59195
593.270	58731
593.341	59012
593.411	57400
593.482	58644
593.553	58820
593.623	58274
593.694	57988
593.764	60147
593.835	59097
593.906	58262
593.976	57849
594.047	59472
594.117	60547
594.188	61577
594.258	60478
594.329	60349
594.399	58397
594.470	61458
594.540	59770
594.611	61632
594.681	60023
594.751	61149
594.822	61665
594.892	64006
594.963	63699
595.033	65789
595.103	65400
595.174	67280
595.244	68286
595.314	72989
595.384	68707
595.455	69692
595.525	68772
595.595	71649
595.665	71151
595.736	71128
595.806	71056
595.876	73316
595.946	71386
596.016	73164
596.087	75705
596.157	76349
596.227	75987
596.297	76753
596.367	80737
596.437	85637
596.507	86014
596.577	89482
596.647	86238
596.717	88331
596.787	88991
596.857	90223
596.927	89983
596.997	91986
597.067	91685
597.137	95428
597.207	96285
597.277	94804
597.347	92621
597.417	91193
597.487	90116
597.557	93488
597.626	93959
597.696	94987
597.766	95333
597.836	95822
597.906	91588
597.975	88130
598.045	88621
598.115	91989
598.185	95345
598.254	103857
598.324	111321
598.394	112633
598.464	110944
598.533	111225
598.603	105692
598.672	104507
598.742	106137
598.812	105251
598.881	108645
598.951	109282
599.020	109272
599.090	112559
599.159	114094
599.229	112997
599.299	110833
599.368	113323
599.437	115183
599.507	111221
599.576	107197
599.646	109951
599.715	110573
599.785	109610
599.854	105954
599.924	110060
599.993	108135
600.062	110480
600.132	113891
600.201	116493
600.270	127120
600.340	135997
600.409	134278
600.478	135285
600.547	136361
600.617	136494
600.686	121260
600.755	116707
600.824	114756
600.894	115547
600.963	115442
601.032	117056
601.101	118078
601.170	118506
601.239	117104
601.308	119827
601.378	120835
601.447	122967
601.516	123945
601.585	128100
601.654	129845
601.723	132640
601.792	135642
601.861	140624
601.930	149863
601.999	152305
602.068	150322
602.137	152028
602.206	151737
602.275	156836
602.343	156260
602.412	157509
602.481	158519
602.550	159362
602.619	160259
602.688	161858
602.756	163004
602.825	165327
602.894	166727
602.963	167399
603.032	167478
603.100	172357
603.169	166186
603.238	171917
603.307	167474
603.375	164023
603.444	172929
603.513	167165
603.581	162274
603.650	174905
603.719	153594
603.787	142740
603.856	144810
603.924	148770
603.993	152007
604.061	154418
604.130	159026
604.198	163571
604.267	163632
604.335	170126
604.404	169413
604.472	175131
604.541	175321
604.609	179926
604.678	183921
604.746	186429
604.815	195409
604.883	192149
604.951	182298
605.020	190037
605.088	181757
605.156	171300
605.225	170109
605.293	170084
605.361	169775
605.429	171920
605.498	173257
605.566	174148
605.634	178920
605.702	184286
605.771	181066
605.839	189834
605.907	177986
605.975	179885
606.043	177679
606.111	168001
606.180	178962
606.248	178266
606.316	167669
606.384	175608
606.452	158077
606.520	130356
606.588	129628
606.656	132012
606.724	129682
606.792	123849
606.860	115835
606.928	105713
606.996	101345
607.064	99345
607.132	100406
607.200	105145
607.267	109242
607.335	111236
607.403	114826
607.471	112457
607.539	106879
607.607	111217
607.674	99005
607.742	97271
607.810	94738
607.878	96678
607.946	97083
608.013	101753
608.081	103264
608.149	103285
608.216	106110
608.284	109879
608.352	107715
608.419	108537
608.487	105960
608.555	103094
608.622	104735
608.690	108310
608.757	116189
608.825	121506
608.893	117683
608.960	113701
609.028	109273
609.095	109583
609.163	106638
609.230	102564
609.298	91463
609.365	94895
609.432	100276
609.500	108337
609.567	121390
609.635	136672
609.702	146847
609.769	144251
609.837	122406
609.904	101627
609.971	101875
610.039	109903
610.106	128652
610.173	196794
610.241	395791
610.308	437251
610.375	214909
610.442	129972
610.509	107645
610.577	105042
610.644	104223
610.711	107561
610.778	108614
610.845	112679
610.912	118240
610.980	123758
611.047	129615
611.114	129790
611.181	119192
611.248	118507
611.315	121182
611.382	125468
611.449	128580
611.516	132925
611.583	130345
611.650	130519
611.717	133278
611.784	134989
611.851	139675
611.918	145195
611.984	159880
612.051	201083
612.118	318629
612.185	662478
612.252	736452
612.319	267866
612.386	181321
612.452	162038
612.519	153046
612.586	148676
612.653	149054
612.719	152382
612.786	149658
612.853	141448
612.919	134783
612.986	136895
613.053	131987
613.120	125751
613.186	119649
613.253	122386
613.319	119938
613.386	121553
613.453	122497
613.519	125660
613.586	121786
613.652	126892
613.719	124873
613.785	125469
613.852	124649
613.918	126252
613.985	126886
614.051	133859
614.118	143838
614.184	152730
614.250	127126
614.317	129002
614.383	126101
614.449	128473
614.516	126891
614.582	128900
614.648	125932
614.715	125453
614.781	124615
614.847	124308
614.914	124959
614.980	121800
615.046	120361
615.112	123653
615.179	125171
615.245	129123
615.311	130397
615.377	146707
615.443	160145
615.509	146242
615.575	138054
615.642	135720
615.708	136239
615.774	144000
615.840	149991
615.906	162767
615.972	188889
616.038	264461
616.104	427037
616.170	774298
616.236	959487
616.302	393966
616.368	228902
616.434	185281
616.500	162329
616.565	160032
616.631	178865
616.697	178778
616.763	169060
616.829	194882
616.895	285232
616.961	345325
617.026	231961
617.092	158759
617.158	141137
617.224	138794
617.289	129459
617.355	124412
617.421	122445
617.487	122168
617.552	116978
617.618	115345
617.684	115574
617.749	117523
617.815	111560
617.880	112352
617.946	110167
618.012	112674
618.077	115360
618.143	113403
618.208	111672
618.274	116863
618.339	120404
618.405	107551
618.470	102341
618.536	105757
618.601	102682
618.667	100861
618.732	95842
618.798	95255
618.863	93859
618.928	95195
618.994	94990
619.059	94032
619.124	97504
619.190	97337
619.255	94693
619.320	95180
619.386	95380
619.451	93848
619.516	93110
619.581	94850
619.647	95338
619.712	97595
619.777	94021
619.842	94215
619.907	94310
619.972	98157
620.038	96543
620.103	93968
620.168	93605
620.233	98031
620.298	96262
620.363	96629
620.428	96473
620.493	99879
620.558	100245
620.623	101971
620.688	101747
620.753	102538
620.818	100773
620.883	103345
620.948	103592
621.013	103102
621.078	102478
621.143	100983
621.207	104177
621.272	102633
621.337	102301
621.402	103064
621.467	102024
621.532	103358
621.596	102664
621.661	101834
621.726	99738
621.791	99710
621.855	99944
621.920	100419
621.985	100182
622.049	102234
622.114	101294
622.179	103447
622.243	103726
622.308	106538
622.373	108758
622.437	109449
622.502	103301
622.566	103719
622.631	101867
622.695	104843
622.760	103922
622.824	103621
622.889	104151
622.953	105399
623.018	107334
623.082	112102
623.147	106698
623.211	105442
623.276	105688
623.340	104201
623.404	101778
623.469	102656
623.533	100031
623.597	99509
623.662	100744
623.726	97714
623.790	91411
623.854	90377
623.919	90185
623.983	91449
624.047	91520
624.111	92750
624.176	92739
624.240	95078
624.304	96244
624.368	92905
624.432	92703
624.496	94047
624.560	95575
624.625	99106
624.689	95060
624.753	98325
624.817	95200
624.881	94096
624.945	90066
625.009	86121
625.073	86044
625.137	88257
625.201	89592
625.265	91891
625.329	87531
625.393	89110
625.456	88307
625.520	88129
625.584	89252
625.648	91202
625.712	94590
625.776	105184
625.839	108471
625.903	90125
625.967	73932
626.031	80271
626.095	92071
626.158	85432
626.222	71700
626.286	66040
626.349	62909
626.413	61899
626.477	60766
626.540	61029
626.604	59733
626.668	58949
626.731	59046
626.795	59316
626.858	57370
626.922	55910
626.986	55556
627.049	55787
627.113	55971
627.176	57072
627.240	54325
627.303	53163
627.366	51778
627.430	53904
627.493	53080
627.557	52240
627.620	51833
627.684	53205
627.747	53181
627.810	50229
627.874	46366
627.937	45076
628.000	46272
628.064	45829
628.127	40909
628.190	41303
628.253	40529
628.317	38954
628.380	38354
628.443	37669
628.506	37867
628.569	36522
628.632	34462
628.696	34266
628.759	34322
628.822	34039
628.885	31157
628.948	32662
629.011	31423
629.074	32441
629.137	30549
629.200	30948
629.263	31049
629.326	29815
629.389	29207
629.452	29505
629.515	29041
629.578	29207
629.641	29008
629.704	28563
629.767	28463
629.830	27568
629.892	27823
629.955	27796
630.018	29385
630.081	28209
630.144	27410
630.207	27311
630.269	28019
630.332	27294
630.395	25302
630.458	26088
630.520	23723
630.583	26167
630.646	24870
630.708	26302
630.771	25047
630.834	25818
630.896	24520
630.959	25622
631.021	24303
631.084	24758
631.146	23718
631.209	26544
631.272	24834
631.334	25013
631.397	24509
631.459	25300
631.522	25228
631.584	25276
631.646	25754
631.709	26904
631.771	26499
631.834	26017
631.896	24011
631.958	23717
632.021	24194
632.083	24373
632.145	23810
632.208	23188
632.270	23558
632.332	23741
632.395	21771
632.457	23878
632.519	22254
632.581	23405
632.643	20572
632.706	23355
632.768	21749
632.830	22034
632.892	22289
632.954	22505
633.016	23242
633.078	22676
633.141	21005
633.203	22779
633.265	21559
633.327	22358
633.389	21459
633.451	22870
633.513	22167
633.575	23848
633.637	22693
633.698	22997
633.760	23439
633.822	24302
633.884	24801
633.946	24186
634.008	24438
634.070	25417
634.132	26630
634.193	27286
634.255	26784
634.317	26398
634.379	26698
634.441	25259
634.502	24310
634.564	24937
634.626	22813
634.687	22481
634.749	22060
634.811	21455
634.873	20525
634.934	21295
634.996	22091
635.057	21632
635.119	21051
635.181	22339
635.242	21474
635.304	20657
635.365	23332
635.427	21634
635.488	21556
635.550	22022
635.611	21049
635.673	21634
635.734	22672
635.796	23371
635.857	24380
635.918	24445
635.980	24610
636.041	26481
636.102	25141
636.164	26570
636.225	27262
636.286	24267
636.348	24178
636.409	22931
636.470	20904
636.531	22000
636.593	22202
636.654	22482
636.715	20641
636.776	21206
636.838	20847
636.899	20376
636.960	19171
637.021	19916
637.082	18776
637.143	19708
637.204	18436
637.265	19149
637.326	19421
637.387	20027
637.448	18910
637.509	20212
637.570	19063
637.631	18614
637.692	17916
637.753	18413
637.814	18801
637.875	18624
637.936	18797
637.997	19238
638.058	18715
638.119	19658
638.179	18123
638.240	17679
638.301	17929
638.362	18525
638.423	17170
638.483	19267
638.544	17154
638.605	19313
638.666	17273
638.726	19777
638.787	18601
638.848	19323
638.908	18536
638.969	19396
639.030	17334
639.090	17410
639.151	16569
639.211	18600
639.272	17952
639.332	19981
639.393	19111
639.453	18113
639.514	18127
639.574	18772
639.635	16149
639.695	18202
639.756	15415
639.816	17228
639.877	17131
639.937	18235
639.997	19942
640.058	18573
640.118	16260
640.178	18060
640.239	16265
640.299	16407
640.359	16357
640.420	17024
640.480	17455
640.540	18172
640.600	17346
640.661	19058
640.721	16851
640.781	19781
640.841	19410
640.901	19181
640.961	16986
641.021	17397
641.082	17923
641.142	17921
641.202	17933
641.262	15782
641.322	17238
641.382	16320
641.442	16893
641.502	16206
641.562	16784
641.622	16481
641.682	16565
641.742	17637
641.802	17756
641.861	16955
641.921	16430
641.981	17357
642.041	15527
642.101	16827
642.161	15448
642.221	15556
642.280	16077
642.340	16201
642.400	15134
642.460	16527
642.519	15286
642.579	16023
642.639	16241
642.698	15301
642.758	17871
642.818	16388
642.877	15386
642.937	16802
642.997	16717
643.056	17645
643.116	15363
643.175	17632
643.235	15691
643.294	17339
643.354	17894
643.414	18359
643.473	18603
643.532	22063
643.592	25728
643.651	35039
643.711	53732
643.770	92728
643.830	184817
643.889	465447
643.948	256238
644.008	48695
644.067	26424
644.126	22405
644.186	18851
644.245	19245
644.304	14843
644.363	18279
644.423	15249
644.482	16721
644.541	15736
644.600	15950
644.659	18964
644.719	19950
644.778	24538
644.837	34947
644.896	58017
644.955	139430
645.014	99759
645.073	26466
645.132	18910
645.191	18539
645.250	16054
645.309	17852
645.368	16475
645.427	20105
645.486	22840
645.545	41395
645.604	23882
645.663	17080
645.722	15436
645.781	17078
645.840	17729
645.898	18887
645.957	24519
646.016	31890
646.075	49812
646.134	84737
646.192	184119
646.251	398516
646.310	137242
646.369	32659
646.427	24002
646.486	20296
646.545	16520
646.603	17022
646.662	14792
646.721	15375
646.779	12976
646.838	14158
646.896	16727
646.955	18602
647.014	23939
647.072	36190
647.131	84153
647.189	84313
647.248	18969
647.306	14737
647.365	12799
647.423	12728
647.481	13625
647.540	11778
647.598	11969
647.657	11668
647.715	12092
647.773	11734
647.832	11767
647.890	10608
647.948	10248
648.007	11441
648.065	9876
648.123	11742
648.181	12416
648.240	12678
648.298	12829
648.356	12015
648.414	11057
648.472	11592
648.531	10331
648.589	10956
648.647	9796
648.705	11175
648.763	10976
648.821	10241
648.879	10043
648.937	12251
648.995	12442
649.053	14565
649.111	17593
649.169	25796
649.227	40488
649.285	70462
649.343	189202
649.401	192122
649.459	35655
649.516	20994
649.574	15367
649.632	20119
649.690	26387
649.748	20177
649.806	20702
649.863	36593
649.921	58558
649.979	72180
650.037	17766
650.094	10249
650.152	10700
650.210	8855
650.268	9667
650.325	10820
650.383	10836
650.440	9854
650.498	9871
650.556	8517
650.613	7300
650.671	9208
650.728	8279
650.786	8930
650.843	8909
650.901	8410
650.958	7337
651.016	8886
651.073	7257
651.131	8444
651.188	6309
651.246	7236
651.303	7047
651.360	8127
651.418	6544
651.475	7889
651.532	6242
651.590	8238
651.647	5791
651.704	7287
651.762	6669
651.819	7691
651.876	6158
651.933	7205
651.990	6392
652.048	6562
652.105	6031
652.162	6903
652.219	5903
652.276	7959
652.333	6221
652.390	7201
652.448	7283
652.505	6957
652.562	6913
652.619	7630
652.676	8640
652.733	12294
652.790	7125
652.847	6302
652.904	6978
652.961	5699
653.017	4999
653.074	7924
653.131	6379
653.188	5616
653.245	6197
653.302	6998
653.359	5730
653.415	7223
653.472	5113
653.529	7072
653.586	5626
653.642	6164
653.699	5722
653.756	5354
653.813	5186
653.869	6417
653.926	5465
653.983	6143
654.039	5789
654.096	6716
654.152	6118
654.209	5578
654.266	5775
654.322	5514
654.379	6428
654.435	6607
654.492	6021
654.548	6749
654.605	6170
654.661	8558
654.717	5549
654.774	6572
654.830	6392
654.887	6243
654.943	6174
655.000	6908
655.056	6902
655.112	6573
655.168	4595
655.225	6233
655.281	6680
655.337	5783
655.394	6265
655.450	7233
655.506	6207
655.562	7480
655.618	7670
655.675	5364
655.731	5443
655.787	5533
655.843	6569
655.899	5453
655.955	5564
656.011	5460
656.067	4885
656.123	6806
656.179	5710
656.235	6587
656.291	4853
656.347	6789
656.403	4761
656.459	6169
656.515	4983
656.571	5906
656.627	5700
656.683	6179
656.739	6352
656.795	6361
656.850	5531
656.906	6549
656.962	6973
657.018	5023
657.074	5525
657.129	6518
657.185	7939
657.241	12149
657.297	12308
657.352	6776
657.408	4714
657.464	6588
657.519	4933
657.575	5253
657.630	3924
657.686	5900
657.742	4910
657.797	6429
657.853	5037
657.908	7078
657.964	5138
658.019	5799
658.075	5842
658.130	6257
658.186	3942
658.241	5950
658.297	4200
658.352	5657
658.407	5884
658.463	4996
658.518	5656
658.573	5607
658.629	3767
658.684	6086
658.739	5603
658.795	4695
658.850	4598
658.905	5519
658.960	4513
659.016	5155
659.071	4811
659.126	6096
659.181	4933
659.236	7018
659.291	6982
659.346	5675
659.401	6037
659.457	7172
659.512	7801
659.567	7937
659.622	5602
659.677	4964
659.732	4331
659.787	5723
659.842	4229
659.897	5736
659.952	5394
660.007	6066
660.061	4886
660.116	4980
660.171	4460
660.226	4753
660.281	6152
660.336	4943
660.391	5940
660.445	4115
660.500	4554
660.555	5684
660.610	4725
660.664	6916
660.719	5094
660.774	6006
660.828	4446
660.883	5873
660.938	4734
660.992	4487
661.047	4783
661.101	5361
661.156	4561
661.211	5749
661.265	4402
661.320	4850
661.374	4308
661.429	4837
661.483	5498
661.538	5417
661.592	5265
661.647	5591
661.701	5685
661.755	6196
661.810	4826
661.864	5314
661.919	4374
661.973	4927
662.027	4484
662.081	5137
662.136	3774
662.190	5511
662.244	5610
662.299	4331
662.353	5520
662.407	4784
662.461	4645
662.515	5899
662.569	4235
662.624	5975
662.678	4006
662.732	4873
662.786	4226
662.840	5043
662.894	4768
662.948	5779
663.002	4767
663.056	5553
663.110	3700
663.164	5239
663.218	4820
663.272	5505
663.326	5063
663.380	5743
663.434	4963
663.488	4459
663.542	4535
663.595	5534
663.649	4268
663.703	5601
663.757	4833
663.811	4868
663.864	3989
663.918	5498
663.972	4289
664.026	5301
664.079	4381
664.133	4689
664.187	4844
664.240	4849
664.294	4767
664.348	5224
664.401	5339
664.455	5423
664.508	3180
664.562	4667
664.615	4198
664.669	4674
664.722	4954
664.776	4305
664.829	4213
664.883	4584
664.936	4121
664.990	5022
665.043	4158
665.097	4977
665.150	6049
665.203	4786
665.257	4719
665.310	5206
665.363	4405
665.417	6054
665.470	5090
665.523	5032
665.576	4724
665.630	4952
665.683	4204
665.736	5450
665.789	5335
665.842	5568
665.895	3699
665.949	5719
666.002	4819
666.055	5038
666.108	4412
666.161	5623
666.214	5590
666.267	5250
666.320	4537
666.373	5836
666.426	3954
666.479	4905
666.532	4739
666.585	4985
666.638	4926
666.691	5291
666.744	4712
666.796	5072
666.849	5260
666.902	5284
666.955	4649
667.008	4680
667.060	4499
667.113	4974
667.166	4723
667.219	5579
667.271	5289
667.324	5518
667.377	4100
667.430	5090
667.482	4834
667.535	7300
667.587	4658
667.640	4924
667.693	4377
667.745	5423
667.798	5853
667.850	4652
667.903	4641
667.955	5010
668.008	4993
668.060	5760
668.113	5121
668.165	6014
668.218	4835
668.270	5463
668.322	4047
668.375	5828
668.427	5551
668.479	4729
668.532	5267
668.584	5165
668.636	4992
668.689	5342
668.741	4250
668.793	4634
668.845	4009
668.898	4561
668.950	5043
669.002	5557
669.054	4164
669.106	5143
669.158	5365
669.211	5111
669.263	4833
669.315	5649
669.367	6421
669.419	6092
669.471	5459
669.523	5899
669.575	6370
669.627	6344
669.679	5589
669.731	6114
669.783	5527
669.835	6103
669.886	5551
669.938	5818
669.990	5243
670.042	5381
670.094	6033
670.146	7108
670.197	7861
670.249	9484
670.301	10752
670.353	15199
670.404	19402
670.456	27378
670.508	39056
670.560	60335
670.611	92018
670.663	148584
670.715	281890
670.766	541565
670.818	400296
670.869	99886
670.921	34359
670.972	22046
671.024	15211
671.075	12997
671.127	9626
671.178	9260
671.230	8029
671.281	8359
671.333	6990
671.384	7227
671.436	8022
671.487	8358
671.538	9300
671.590	11626
671.641	15017
671.692	20911
671.744	36130
671.795	43054
671.846	22761
671.897	13261
671.949	8816
672.000	7942
672.051	6618
672.102	6814
672.153	5019
672.204	5734
672.256	4386
672.307	5339
672.358	4320
672.409	5457
672.460	4984
672.511	4632
672.562	3619
672.613	4324
672.664	3891
672.715	4324
672.766	4593
672.817	5323
672.868	3106
672.919	4557
672.970	3282
673.021	3855
673.071	2518
673.122	4727
673.173	2973
673.224	4730
673.275	3625
673.326	4002
673.376	4008
673.427	3976
673.478	3624
673.528	4773
673.579	3681
673.630	3644
673.680	3164
673.731	4570
673.782	3253
673.832	4609
673.883	2731
673.934	4744
673.984	3530
674.035	4690
674.085	3709
674.136	3829
674.186	3843
674.237	4361
674.287	3624
674.338	4628
674.388	3376
674.438	4291
674.489	3194
674.539	4409
674.589	3826
674.640	4587
674.690	3909
674.740	3688
674.791	3001
674.841	4543
674.891	3163
674.942	3593
674.992	3129
675.042	3423
675.092	3505
675.142	3807
675.193	2773
675.243	2707
675.293	3385
675.343	3468
675.393	3063
675.443	4605
675.493	2181
675.543	2997
675.593	2908
675.643	3557
675.693	3009
675.743	3319
675.793	3162
675.843	3280
675.893	3100
675.943	3948
675.993	2245
676.043	3796
676.093	2516
676.142	3158
676.192	3624
676.242	3626
676.292	2952
676.341	3546
676.391	2880
676.441	3507
676.491	2026
676.540	2740
676.590	2469
676.640	3544
676.689	2055
676.739	2988
676.789	2392
676.838	2605
676.888	3441
676.937	3323
676.987	3101
677.037	3114
677.086	1815
677.136	3638
677.185	2420
677.235	3759
677.284	2668
677.333	2778
677.383	2716
677.432	2924
677.482	2174
677.531	3105
677.580	2366
677.630	3576
677.679	1700
677.728	2726
677.778	2349
677.827	3177
677.876	2722
677.925	2818
677.975	2587
678.024	3389
678.073	2206
678.122	3097
678.171	1942
678.220	4071
678.269	2926
678.319	3728
678.368	2372
678.417	3190
678.466	2807
678.515	3678
678.564	2378
678.613	3499
678.662	2208
678.711	4352
678.760	2441
678.809	3488
678.857	2297
678.906	3111
678.955	2608
679.004	3283
679.053	3210
679.102	2913
679.151	1892
679.199	3488
679.248	2277
679.297	2673
679.346	2095
679.394	2792
679.443	2275
679.492	3564
679.540	2611
679.589	3012
679.638	2356
679.686	3376
679.735	2608
679.784	2856
679.832	2508
679.881	2738
679.929	2041
679.978	2510
680.026	2426
680.075	2762
680.123	1941
680.172	3021
680.220	1715
680.268	3036
680.317	1228
680.365	2761
680.414	2033
680.462	2713
680.510	2786
680.559	2929
680.607	1527
680.655	2775
680.703	2076
680.752	2815
680.800	2334
680.848	2364
680.896	2158
680.945	3232
680.993	2129
681.041	2556
681.089	1364
681.137	2283
681.185	1835
681.233	2689
681.258	2504
681.281	2314
681.329	2279
681.377	1776
681.380	1855
681.425	3039
681.473	2644
681.502	2695
681.521	2702
681.569	2688
681.617	2901
681.624	2736
681.665	1565
681.713	3309
681.745	2744
681.761	2450
681.809	2691
681.857	3133
681.867	3112
681.904	2993
681.952	2004
681.989	3177
682.000	3507
682.048	2667
682.096	3980
682.111	3520
682.143	2502
682.191	3272
682.233	2856
682.239	2777
682.286	3252
682.334	2333
682.354	2726
682.382	3235
682.430	3112
682.476	2693
682.477	2669
682.525	2880
682.572	3051
682.598	2745
682.620	2483
682.667	4083
682.715	2320
682.720	2451
682.763	3492
682.810	3444
682.841	3515
682.857	3533
682.905	2701
682.952	3619
682.963	3428
683.000	2704
683.047	3766
683.085	3360
683.095	3237
683.142	3839
683.190	3676
683.206	3610
683.237	3435
683.284	3948
683.328	3985
683.332	3976
683.379	2903
683.426	3326
683.449	3155
683.473	2979
683.521	3395
683.568	3482
683.571	3541
683.615	4188
683.662	3325
683.693	3659
683.709	3804
683.757	2744
683.804	4215
683.814	3966
683.851	3090
683.898	4307
683.936	3435
683.945	3207
683.992	3635
684.039	3428
684.057	3750
684.086	4268
684.133	3885
684.179	3801
684.180	3787
684.227	3731
684.274	4450
684.300	4417
684.321	4379
684.368	3801
684.415	4365
684.422	4284
684.462	3694
684.509	3665
684.543	4009
684.556	4142
684.603	3932
684.649	4289
684.665	4296
684.696	4235
684.743	4177
684.786	3984
684.790	3970
684.837	4650
684.883	3959
684.908	4400
684.930	4741
684.977	3979
685.023	5390
685.029	5210
685.070	3864
685.117	4846
685.150	4345
685.164	4135
685.210	4367
685.257	4484
685.272	4785
685.303	5349
685.350	4372
685.393	5005
685.396	5055
685.443	4245
685.490	5221
685.514	4733
685.536	4332
685.583	5084
685.629	4775
685.636	4780
685.675	4689
685.722	4737
685.757	5384
685.768	5566
685.815	4118
685.861	5402
685.878	5213
685.908	5010
685.954	5375
686.000	5326
686.000	5321
686.047	5807
686.093	5328
686.121	5884
686.139	6140
686.185	5371
686.232	5486
686.242	5350
686.278	4858
686.324	5630
686.363	4948
686.370	4833
686.416	5451
686.463	4609
686.484	5047
686.509	5674
686.555	5165
686.601	5922
686.606	5872
686.647	5165
686.693	6015
686.727	5630
686.739	5507
686.785	6199
686.831	5077
686.848	5339
686.877	5719
686.923	4837
686.969	5171
686.969	5173
687.015	4812
687.061	6173
687.090	5573
687.107	5190
687.153	6142
687.199	5726
687.211	5664
687.245	5535
687.291	5139
687.332	5736
687.336	5796
687.382	5731
687.428	6104
687.453	6270
687.474	6320
687.520	6424
687.565	5691
687.574	5712
687.611	5961
687.657	6338
687.695	6482
687.702	6595
687.748	6743
687.794	8997
687.816	8690
687.839	7945
687.885	7842
687.931	7020
687.937	7049
687.976	7070
688.022	5927
688.058	6099
688.067	6229
688.113	5948
688.158	6289
688.179	6153
688.204	5959
688.249	6404
688.295	6028
688.300	6076
688.340	6577
688.386	6011
688.421	6794
688.431	6982
688.477	6189
688.522	6554
688.542	6303
688.567	6107
688.613	6991
688.658	6760
688.663	6764
688.703	6765
688.749	6393
688.784	7087
688.794	7287
688.839	6534
688.884	7273
688.905	6992
688.930	6475
688.975	6666
689.020	6204
689.026	6207
689.065	6612
689.110	5859
689.146	6562
689.155	6773
689.201	6600
689.246	7174
689.267	7011
689.291	6665
689.336	7057
689.381	6592
689.388	6608
689.426	6758
689.471	6782
689.509	6598
689.516	6590
689.561	6341
689.606	6895
689.630	6779
689.651	6672
689.696	7091
689.741	6553
689.750	6654
689.785	7133
689.830	7207
689.871	7441
689.875	7449
689.920	6769
689.965	7037
689.992	6760
690.010	6677
690.054	7201
690.099	6637
690.112	6877
690.144	7484
690.189	6829
690.233	7599
690.233	7611
690.278	6929
690.323	7424
690.354	7574
690.367	7653
690.412	7871
690.457	7731
690.474	7866
690.501	8022
690.546	7938
690.590	8471
690.595	8397
690.635	8281
690.680	9284
690.716	9682
690.724	9811
690.769	10371
690.813	11357
690.836	11689
690.857	12727
690.902	15119
690.946	18068
690.957	18602
690.991	24048
691.035	33292
691.077	42428
691.080	42698
691.124	45167
691.168	42684
691.198	42425
691.213	39218
691.257	30211
691.301	21873
691.318	18572
691.346	16813
691.390	14334
691.434	11523
691.439	11255
691.478	11013
691.522	10125
691.559	10142
691.567	10253
691.611	9363
691.655	9963
691.680	9674
691.699	9348
691.743	9560
691.787	8552
691.800	8594
691.831	8907
691.875	8523
691.919	9040
691.921	8996
691.964	8149
692.008	8996
692.041	8743
692.052	8702
692.096	9201
692.139	8672
692.162	9037
692.183	9255
692.227	8674
692.271	8745
692.282	8557
692.315	8263
692.359	8711
692.402	8664
692.403	8680
692.447	9033
692.490	8947
692.523	9085
692.534	9115
692.578	8975
692.622	9087
692.643	9025
692.666	8871
692.709	9045
692.753	8376
692.763	8472
692.797	9235
692.840	8652
692.884	9474
692.884	9496
692.928	9395
692.971	9716
693.004	9440
693.015	9336
693.059	9782
693.102	9420
693.124	9428
693.146	9594
693.189	9671
693.233	10153
693.245	10069
693.276	10084
693.320	10862
693.363	11286
693.365	11287
693.407	12195
693.450	12742
693.485	13439
693.493	13837
693.537	15923
693.580	18072
693.605	18949
693.624	21077
693.667	27163
693.710	32842
693.725	34864
693.753	46566
693.797	65245
693.840	86768
693.845	88907
693.883	91585
693.926	90372
693.966	89497
693.970	87540
694.013	67446
694.056	47363
694.086	33955
694.099	32303
694.142	26389
694.185	21010
694.206	18239
694.229	17323
694.272	15980
694.315	14017
694.326	13677
694.358	13537
694.401	12817
694.444	12427
694.446	12353
694.487	11854
694.530	11954
694.566	11623
694.573	11496
694.616	10863
694.659	10073
694.686	9554
694.702	9611
694.745	9703
694.787	9838
694.806	9911
694.830	10040
694.873	10018
694.916	10228
694.926	10221
694.959	10241
695.002	10104
695.044	10334
695.046	10309
695.087	9913
695.130	9642
695.166	9159
695.172	9216
695.215	9891
695.258	10164
695.286	10511
695.301	10644
695.343	10559
695.386	11164
695.406	11117
695.428	10894
695.471	10727
695.514	10444
695.526	10378
695.556	10598
695.599	10818
695.641	11010
695.646	11001
695.684	11083
695.726	11188
695.766	11234
695.769	11243
695.811	11172
695.854	10770
695.886	10749
695.896	10869
695.938	10737
695.981	11092
696.005	11111
696.023	11046
696.065	11022
696.108	10794
696.125	10723
696.150	10915
696.192	11123
696.235	11466
696.245	11496
696.277	11469
696.319	11402
696.361	11292
696.365	11264
696.404	11631
696.446	11782
696.485	12257
696.488	12274
696.530	11757
696.572	11420
696.604	11145
696.614	11233
696.656	11503
696.698	11567
696.724	11817
696.740	11873
696.783	11448
696.825	11520
696.844	11350
696.867	11402
696.909	11735
696.951	11815
696.964	11881
696.992	11905
697.034	11602
697.076	11674
697.083	11608
697.118	11726
697.160	12064
697.202	12045
697.203	12025
697.244	11901
697.286	11324
697.323	10977
697.327	11035
697.369	11211
697.411	11469
697.442	11633
697.453	11725
697.494	11975
697.536	12151
697.562	12331
697.578	12358
697.620	12112
697.661	12071
697.682	11969
697.703	11962
697.744	11943
697.786	11880
697.801	11864
697.828	12181
697.869	12491
697.911	12881
697.921	12945
697.952	12567
697.994	12024
698.035	11445
698.040	11346
698.077	11649
698.118	11997
698.160	12340
698.160	12311
698.201	12013
698.243	11704
698.279	11341
698.284	11430
698.325	12059
698.367	12631
698.399	13067
698.408	13077
698.449	12952
698.491	12871
698.518	12749
698.532	12777
698.573	12816
698.614	12799
698.638	12773
698.656	12834
698.697	12882
698.738	12955
698.757	12952
698.779	13073
698.820	13237
698.862	13406
698.877	13442
698.903	13598
698.944	13769
698.985	13958
698.996	13975
699.026	13857
699.067	13655
699.116	13380
699.235	12709
699.354	13413
699.474	12439
699.593	13260
699.713	13532
699.832	13288
699.951	13267
700.070	13787
700.190	13098
700.309	12911
700.428	12328
700.547	12859
700.667	12120
700.786	12779
700.905	11835
701.024	12688
701.143	12025
701.262	11931
701.381	12163
701.500	12343
701.619	12573
701.738	11958
701.857	11983
701.976	11965
702.095	11574
702.214	13052
702.333	12888
702.452	12204
702.571	12742
702.690	11548
702.809	11529
702.928	11893
703.047	11854
703.165	12002
703.284	11710
703.403	12202
703.522	12201
703.640	11983
703.759	12091
703.878	14349
703.997	12108
704.115	11541
704.234	11731
704.353	10846
704.471	10561
704.590	11211
704.708	11389
704.827	11434
704.946	10418
705.064	11619
705.183	11467
705.301	12243
705.420	14200
705.538	14186
705.656	13197
705.775	13760
705.893	20182
706.012	34133
706.130	14304
706.249	12484
706.367	12652
706.485	12745
706.604	12046
706.722	12471
706.840	14769
706.958	17663
707.077	16217
707.195	12905
707.313	12038
707.431	11430
707.549	11342
707.668	11023
707.786	11834
707.904	11646
708.022	11006
708.140	11224
708.258	10273
708.376	11987
708.494	11521
708.612	12453
708.730	14437
708.848	14589
708.966	13606
709.084	13356
709.202	12675
709.320	13138
709.438	12485
709.556	13356
709.674	12157
709.791	12217
709.909	12224
710.027	13146
710.145	11744
710.263	12454
710.380	12439
710.498	11949
710.616	12534
710.733	11809
710.851	11544
710.969	12092
711.086	12056
711.204	12319
711.322	11967
711.439	11923
711.557	12076
711.674	11960
711.792	11343
711.909	12457
712.027	14304
712.144	12262
712.262	11628
712.379	12267
712.497	14163
712.614	15836
712.732	13822
712.849	13025
712.966	13598
713.084	14330
713.201	13945
713.318	13399
713.436	12566
713.553	13279
713.670	13868
713.787	15114
713.905	14722
714.022	13762
714.139	12832
714.256	16000
714.373	19193
714.490	30302
714.608	57153
714.725	235490
714.842	480314
714.959	54234
715.076	18782
715.193	15093
715.310	14846
715.427	13651
715.544	11997
715.661	13081
715.778	12495
715.895	12780
716.011	12423
716.128	12429
716.245	12086
716.362	12943
716.479	12952
716.596	11909
716.713	11607
716.829	11717
716.946	10882
717.063	11721
717.180	10998
717.296	10470
717.413	10861
717.530	10480
717.646	11093
717.763	11268
717.880	9667
717.996	10472
718.113	11449
718.229	10542
718.346	10691
718.462	10140
718.579	11257
718.695	13885
718.812	13997
718.928	12667
719.045	11118
719.161	9932
719.277	10281
719.394	10774
719.510	11378
719.626	11219
719.743	12846
719.859	16609
719.975	24633
720.092	69911
720.208	237710
720.324	65516
720.440	13940
720.557	12310
720.673	13080
720.789	15846
720.905	23748
721.021	17378
721.137	10984
721.253	9507
721.369	10324
721.486	11293
721.602	12166
721.718	10224
721.834	8807
721.950	10163
722.066	9067
722.181	9153
722.297	9713
722.413	10750
722.529	9115
722.645	9684
722.761	9216
722.877	10328
722.993	9210
723.108	9959
723.224	9265
723.340	9437
723.456	9271
723.571	9385
723.687	8833
723.803	8938
723.918	8937
724.034	8210
724.150	9084
724.265	9437
724.381	10845
724.497	16852
724.612	9626
724.728	8661
724.843	8675
724.959	9118
725.074	11621
725.190	15270
725.305	8899
725.421	8108
725.536	8375
725.651	8402
725.767	8706
725.882	8696
725.997	7527
726.113	9275
726.228	8229
726.343	8550
726.459	7627
726.574	8222
726.689	7915
726.804	8355
726.920	8516
727.035	8493
727.150	7576
727.265	7979
727.380	8708
727.495	9295
727.610	8127
727.725	8500
727.841	8286
727.956	14900
728.071	15994
728.186	8350
728.301	7065
728.416	8574
728.531	7614
728.645	7630
728.760	7922
728.875	8628
728.990	8423
729.105	8218
729.220	8082
729.335	8205
729.449	7961
729.564	7045
729.679	8134
729.794	7874
729.908	7574
730.023	9038
730.138	7251
730.253	7851
730.367	6838
730.482	8230
730.596	7799
730.711	8315
730.826	8660
730.940	8951
731.055	8029
731.169	7938
731.284	7677
731.398	7807
731.513	8126
731.627	8061
731.742	8767
731.856	10425
731.970	9668
732.085	11090
732.199	13630
732.313	18742
732.428	36914
732.542	103797
732.656	105248
732.771	24360
732.885	13487
732.999	11402
733.113	10855
733.227	11066
733.342	10165
733.456	9917
733.570	9769
733.684	9747
733.798	9489
733.912	9789
734.026	9587
734.140	9631
734.254	9525
734.368	9760
734.482	13364
734.596	8994
734.710	9464
734.824	8795
734.938	8279
735.052	9090
735.166	9447
735.280	9225
735.393	8953
735.507	9557
735.621	9324
735.735	11276
735.849	10206
735.962	8003
736.076	9298
736.190	8415
736.303	9271
736.417	10903
736.531	8669
736.644	8381
736.758	8369
736.872	8934
736.985	7642
737.099	8344
737.212	7795
737.326	8738
737.439	8918
737.553	8187
737.666	8327
737.780	8415
737.893	8048
738.007	8833
738.120	9040
738.233	8472
738.347	7864
738.460	7698
738.573	7833
738.687	8372
738.800	8333
738.913	8164
739.026	8403
739.140	8915
739.253	9153
739.366	7866
739.479	8006
739.592	7482
739.705	7626
739.818	8487
739.932	7861
740.045	8085
740.158	7348
740.271	8600
740.384	8274
740.497	8337
740.610	8726
740.723	8795
740.836	8854
740.949	9157
741.062	8006
741.174	8543
741.287	7588
741.400	7990
741.513	7776
741.626	8027
741.739	8594
741.851	8258
741.964	8404
742.077	7898
742.189	7905
742.302	8540
742.415	8792
742.527	9000
742.640	9150
742.753	7128
742.865	7934
742.978	7588
743.090	7301
743.203	7778
743.316	6872
743.428	6950
743.541	7022
743.653	6918
743.766	6970
743.878	7547
743.990	7682
744.103	8726
744.215	8599
744.327	8449
744.440	8878
744.552	9359
744.664	7638
744.777	7759
744.889	7433
745.001	7138
745.113	6719
745.226	7333
745.338	6729
745.450	7067
745.562	7006
745.674	6599
745.786	8177
745.898	7754
746.010	6699
746.122	6223
746.234	7289
746.347	7422
746.459	7479
746.570	6869
746.682	7675
746.794	9918
746.906	8589
747.018	6501
747.130	7080
747.242	6692
747.354	7679
747.466	7731
747.577	7427
747.689	7717
747.801	7456
747.913	6443
748.024	7106
748.136	7767
748.248	6179
748.359	6367
748.471	6981
748.583	6971
748.694	7336
748.806	7770
748.918	7369
749.029	7539
749.141	7070
749.252	7674
749.364	6739
749.475	8977
749.587	8669
749.698	7402
749.809	7483
749.921	7608
750.032	6796
750.144	7015
750.255	6404
750.366	7667
750.478	7646
750.589	6380
750.700	6735
750.811	7816
750.923	7459
751.034	8147
751.145	9646
751.256	7802
751.367	7067
751.479	7844
751.590	7045
751.701	6588
751.812	6333
751.923	8258
752.034	6766
752.145	7374
752.256	6433
752.367	6352
752.478	6993
752.589	7355
752.700	7255
752.811	7612
752.922	6840
753.032	7007
753.143	7183
753.254	7307
753.365	7568
753.476	7309
753.586	7511
753.697	7706
753.808	7415
753.919	7431
754.029	6818
754.140	7100
754.251	6714
754.361	7702
754.472	7157
754.582	7758
754.693	7074
754.804	7721
754.914	6614
755.025	7339
755.135	8010
755.246	8076
755.356	7390
755.466	7703
755.577	6924
755.687	8442
755.798	7924
755.908	7523
756.018	7445
756.129	7503
756.239	7619
756.349	8121
756.460	7799
756.570	9002
756.680	8486
756.790	8961
756.900	9112
757.011	8053
757.121	8745
757.231	8053
757.341	8377
757.451	7836
757.561	7618
757.671	8569
757.781	8984
757.891	9342
758.001	8995
758.111	9205
758.221	9260
758.331	8952
758.441	8830
758.551	9980
758.661	10603
758.771	10443
758.880	9983
758.990	10558
759.100	10492
759.210	9827
759.320	9785
759.429	11218
759.539	10713
759.649	10716
759.758	11241
759.868	11940
759.978	10762
760.087	11665
760.197	12009
760.307	12367
760.416	12211
760.526	12254
760.635	12391
760.745	13886
760.854	14132
760.964	14205
761.073	14626
761.182	15324
761.292	13944
761.401	14444
761.511	14764
761.620	14315
761.729	14882
761.839	14765
761.948	16497
762.057	15292
762.166	16590
762.276	16348
762.385	17301
762.494	17587
762.603	17844
762.712	19472
762.822	19579
762.931	20382
763.040	20231
763.149	21922
763.258	22963
763.367	23619
763.476	24279
763.585	25885
763.694	26938
763.803	27825
763.912	29343
764.021	31184
764.130	33727
764.238	33942
764.347	36831
764.456	39489
764.565	43492
764.674	47208
764.783	52140
764.891	57634
765.000	63541
765.109	71582
765.217	83063
765.326	94435
765.435	113638
765.543	137966
765.652	168856
765.761	217285
765.869	284572
765.978	387073
766.086	539714
766.195	749305
766.303	968989
766.412	932545
766.520	900737
766.629	1063746
766.737	792618
766.846	543523
766.954	384377
767.062	283438
767.171	217460
767.279	172391
767.387	139610
767.496	116757
767.604	100600
767.712	87049
767.820	79439
767.928	71298
768.037	67242
768.145	62716
768.253	60513
768.361	57594
768.469	57392
768.577	58900
768.685	60995
768.793	64936
768.901	70769
769.009	81096
769.117	97478
769.225	123559
769.333	167120
769.441	243539
769.549	375926
769.657	602543
769.765	858401
769.873	852554
769.981	932276
770.088	663578
770.196	397641
770.304	261757
770.412	187946
770.519	143726
770.627	113104
770.735	93775
770.842	78211
770.950	67708
771.058	59790
771.165	52387
771.273	48026
771.380	44434
771.488	39791
771.595	37503
771.703	35111
771.810	31510
771.918	30010
772.025	29642
772.133	27407
772.240	26471
772.348	26332
772.455	24436
772.562	23216
772.670	22086
772.777	21573
772.884	21040
772.991	19374
773.099	19656
773.206	17864
773.313	18647
773.420	17722
773.528	17539
773.635	15851
773.742	16781
773.849	15547
773.956	15404
774.063	14886
774.170	14598
774.277	14416
774.384	13902
774.491	14372
774.598	14420
774.705	13495
774.812	12726
774.919	13062
775.026	12727
775.133	12186
775.239	11771
775.346	11805
775.453	11680
775.560	10977
775.667	11732
775.773	11927
775.880	11246
775.987	10747
776.093	10884
776.200	10655
776.307	10260
776.413	9690
776.520	10454
776.627	10381
776.733	9665
776.840	9351
776.946	9599
777.053	10042
777.159	12507
777.266	12789
777.372	12393
777.478	12785
777.585	12096
777.691	8901
777.798	8915
777.904	9183
778.010	9736
778.117	9416
778.223	8954
778.329	7474
778.435	7914
778.542	7810
778.648	8566
778.754	7801
778.860	7024
778.966	7368
779.072	7774
779.178	7760
779.284	8281
779.391	8882
779.497	9115
779.603	12701
779.708	18142
779.815	37737
779.920	118368
780.026	246283
780.132	57549
780.238	14372
780.344	10560
780.450	10106
780.556	8616
780.661	7701
780.767	8271
780.873	7011
780.979	7193
781.085	6350
781.190	6325
781.296	7127
781.402	6776
781.507	6501
781.613	5656
781.719	5437
781.824	5892
781.930	6443
782.035	6077
782.141	6379
782.246	6074
782.352	5392
782.457	5841
782.563	5863
782.668	5710
782.773	4474
782.879	5971
782.984	6452
783.090	5926
783.195	6500
783.300	6911
783.405	5672
783.511	5429
783.616	5825
783.721	6007
783.826	4949
783.932	5520
784.037	4836
784.142	5396
784.247	4470
784.352	5067
784.457	4820
784.562	5224
784.667	4650
784.772	4999
784.877	4280
784.982	5041
785.087	4978
785.192	5143
785.297	4525
785.402	4903
785.507	4472
785.611	5092
785.716	4863
785.821	4356
785.926	3779
786.031	4268
786.135	4149
786.240	5036
786.345	3510
786.450	4916
786.554	3363
786.659	4726
786.763	3709
786.868	4853
786.973	4438
787.077	4558
787.182	4547
787.286	5504
787.391	4146
787.495	4908
787.600	3339
787.704	4164
787.809	4002
787.913	3966
788.017	4151
788.122	3983
788.226	3964
788.330	3884
788.435	3970
788.539	4512
788.643	3213
788.747	2962
788.852	2704
788.956	3533
789.060	3896
789.164	4363
789.268	4081
789.372	3706
789.476	3953
789.580	2985
789.684	2481
789.788	3992
789.892	3246
789.996	3683
790.100	3187
790.204	2578
790.308	3194
790.412	3730
790.516	4263
790.620	3642
790.724	5152
790.828	3577
790.931	2666
791.035	4573
791.139	3965
791.242	3073
791.346	3827
791.450	3956
791.554	2781
791.657	2485
791.761	3261
791.864	3887
791.968	4138
792.072	3302
792.175	3360
792.279	3479
792.382	3016
792.486	3379
792.589	3074
792.693	3362
792.796	2492
792.899	3965
793.003	3989
793.106	2555
793.209	2295
793.313	3182
793.416	1577
793.519	3914
793.623	4069
793.726	4988
793.829	3529
793.932	2257
794.035	2436
794.138	4389
794.242	4772
794.345	6212
794.448	9864
794.551	21370
794.654	68281
794.757	146186
794.860	35462
794.963	6579
795.066	3978
795.169	4504
795.272	3264
795.375	3550
795.477	3303
795.580	2782
795.683	1395
795.786	3316
795.889	2112
795.991	4200
796.094	3372
796.197	2719
796.300	2953
796.402	2469
796.505	2446
796.608	2813
796.710	2540
796.813	2645
796.915	2870
797.018	3029
797.120	2051
797.223	2023
797.326	2731
797.428	3041
797.530	1962
797.633	2237
797.735	3190
797.838	2949
797.940	3358
798.042	2884
798.145	1513
798.247	2682
798.349	1733
798.452	2336
798.554	2508
798.656	1588
798.758	2752
798.860	2335
798.962	1752
799.065	1996
799.167	1088
799.269	2358
799.371	2653
799.473	2652
799.575	1963
799.677	2059
799.779	2688
799.881	2307
799.983	2382
800.085	2046
800.187	2298
800.289	2125
800.390	2631
800.492	2331
800.594	2724
800.696	1726
800.798	1243
800.899	1400
801.001	2225
801.103	2316
801.205	2189
801.306	2019
801.408	1668
801.509	2463
801.611	1904
801.713	2079
801.814	870
801.916	1295
802.017	1913
802.119	1291
802.220	1116
802.322	575
802.423	1986
802.525	1386
802.626	1760
802.727	1346
802.829	1896
802.930	606
803.031	2487
803.133	2047
803.234	1152
803.335	1978
803.436	938
803.538	2005
803.639	1371
803.740	1705
803.841	840
803.942	2364
804.043	1368
804.144	1348
804.245	1375
804.346	1934
804.447	1696
804.548	1189
804.649	2026
804.750	1965
804.851	1324
804.952	1319
805.053	1749
805.154	1555
805.255	1746
805.355	1130
805.456	1331
805.557	852
805.658	1142
805.758	1950
805.859	1128
805.960	1618
806.061	886
806.161	692
806.262	644
806.362	1653
806.463	1928
806.564	1079
806.664	1417
806.765	1607
806.865	1437
806.966	2338
807.066	960
807.166	1670
807.267	1411
807.367	564
807.468	1054
807.568	1302
807.668	1955
807.769	1645
807.869	1071
807.969	960
808.069	1661
808.170	1251
808.270	1501
808.370	2253
808.470	1889
808.570	1382
808.670	1603
808.770	1656
808.870	1243
808.970	1462
809.070	339
809.170	294
809.271	1662
809.370	1412
809.470	778
809.570	671
809.670	-77
809.770	1336
809.870	1618
809.970	1080
810.070	1050
810.169	2054
810.269	-785
810.369	2291
810.469	1170
810.568	1429
810.668	937
810.768	864
810.867	1495
810.967	1584
811.066	1006
811.166	1284
811.265	1110
811.365	1244
811.464	743
811.564	1764
811.663	1345
811.763	638
811.862	1416
811.962	875
812.061	564
812.160	1844
812.260	1473
812.359	1883
812.458	1584
812.557	3930
812.657	7095
812.756	3809
812.855	1079
812.954	1275
813.053	287
813.153	1412
813.252	789
813.351	1542
813.450	1117
813.549	1261
813.648	1204
813.747	1079
813.846	1552
813.945	1064
814.044	761
814.143	1661
814.242	1349
814.341	607
814.439	1349
814.538	1582
814.637	1655
814.736	2044
814.835	1179
814.933	1992
815.032	2132
815.131	1937
815.229	2153
815.328	3364
815.427	2131
815.525	2774
815.624	1480
815.722	2749
815.821	2915
815.919	2557
816.018	2930
816.116	2985
816.215	3059
816.313	3210
816.412	3396
816.510	3585
816.609	4335
816.707	4592
816.805	3549
816.904	3856
817.002	4072
817.100	4598
817.198	5451
817.296	5033
817.395	5100
817.493	6777
817.591	7121
817.689	9594
817.787	11175
817.885	16785
817.983	28104
818.081	54274
818.179	120856
818.277	278239
818.375	339381
818.473	139787
818.571	52158
818.669	30649
818.767	24926
818.865	23447
818.963	25163
819.061	33610
819.158	53163
819.256	102124
819.354	211376
819.452	436432
819.549	407355
819.647	177351
819.745	72745
819.842	41305
819.940	27127
820.038	19857
820.135	15339
820.233	12866
820.330	9300
820.428	8398
820.525	8010
820.623	7132
820.720	5534
820.818	5793
820.915	5276
821.012	5266
821.110	3831
821.207	4789
821.304	3301
821.402	4282
821.499	4049
821.596	5262
821.693	4740
821.791	3278
821.888	3464
821.985	5033
822.082	3767
822.179	4119
822.276	2817
822.373	3018
822.470	2330
822.567	2790
822.664	1915
822.761	2183
822.858	1807
822.955	2996
823.052	2037
823.149	2327
823.246	1217
823.343	1720
823.440	1946
823.536	2180
823.633	1129
823.730	2330
823.827	1541
823.923	1856
824.020	1947
824.117	2038
824.213	1882
824.310	3076
824.407	1857
824.503	1714
824.600	2064
824.696	1948
824.793	2514
824.889	2074
824.986	1310
825.082	1538
825.179	1937
825.275	1769
825.371	1320
825.468	2526
825.564	712
825.660	1212
825.757	1378
825.853	1111
825.949	916
826.045	1508
826.142	842
826.238	1568
826.334	1089
826.430	1300
826.526	1718
826.622	1015
826.718	1063
826.814	518
826.910	1347
827.006	617
827.102	1265
827.198	2133
827.294	522
827.390	1398
827.486	1473
827.582	68
827.678	186
827.774	1537
827.869	-347
827.965	1952
828.061	415
828.157	765
828.252	1456
828.348	489
828.444	1848
828.539	835
828.635	431
828.731	1245
828.826	220
828.922	1115
829.017	411
829.113	1083
829.208	564
829.304	1153
829.399	1824
829.495	1084
829.590	1915
829.685	1235
829.781	1009
829.876	1043
829.971	732
830.066	843
830.162	47
830.257	589
830.352	807
830.447	2195
830.543	1042
830.638	348
830.733	1545
830.828	638
830.923	936
831.018	507
831.113	949
831.208	1748
831.303	-252
831.398	1387
831.493	-32
831.588	2021
831.683	349
831.778	806
831.873	548
831.967	1083
832.062	146
832.157	493
832.252	839
832.346	918
832.441	1085
832.536	1625
832.631	2222
832.725	2514
832.820	29
832.914	227
833.009	165
833.104	1211
833.198	1192
833.293	217
833.387	520
833.482	1243
833.576	523
833.670	704
833.765	249
833.859	223
833.954	816
834.048	771
834.142	397
834.237	846
834.331	-441
834.425	449
834.519	201
834.613	433
834.708	593
834.802	868
834.896	685
834.990	1020
835.084	950
835.178	485
835.272	34
835.366	949
835.460	488
835.554	1106
835.648	673
835.742	231
835.836	-279
835.930	-107
836.024	639
836.117	619
836.211	669
836.305	1327
836.399	1351
836.493	77
836.586	380
836.680	-591
836.774	221
836.867	1314
836.961	-209
837.055	-136
837.148	-163
837.242	695
837.335	541
837.429	558
837.522	162
837.616	691
837.709	1199
837.803	480
837.896	-512
837.989	519
838.083	663
838.176	1015
838.269	1681
838.363	1541
838.456	835
838.549	1853
838.642	868
838.735	1773
838.829	779
838.922	281
839.015	131
839.108	200
839.201	534
839.294	329
839.387	42
839.480	600
839.573	344
839.666	141
839.759	822
839.852	-27
839.945	-76
840.038	53
840.131	-246
840.223	42
840.316	493
840.409	351
840.502	-63
840.594	549
840.687	-410
840.780	297
840.873	-727
840.965	228
841.058	861
841.150	1468
841.243	322
841.336	855
841.428	37
841.521	-269
841.613	104
841.706	408
841.798	367
841.890	668
841.983	-414
842.075	538
842.167	390
842.260	629
842.352	1049
842.444	612
842.537	772
842.629	2839
842.721	978
842.813	-351
842.905	511
842.997	87
843.090	399
843.182	756
843.274	1231
843.366	3459
843.458	6910
843.550	5596
843.642	1392
843.734	792
843.826	-193
843.918	319
844.009	139
844.101	116
844.193	193
844.285	270
844.377	722
844.469	673
844.560	776
844.652	1429
844.744	445
844.835	1572
844.927	471
845.019	992
845.110	647
845.202	330
845.293	-1013
845.385	-197
845.476	105
845.568	918
845.659	-516
845.751	675
845.842	-874
845.934	2
846.025	-32
846.116	-234
846.208	175
846.299	402
846.390	301
846.482	-207
846.573	143
846.664	804
846.755	-83
846.846	1437
846.937	27
847.029	462
847.120	-158
847.211	-424
847.302	1258
847.393	-1145
847.484	438
847.575	-278
847.666	-598
847.757	281
847.847	-631
847.938	59
848.029	-254
848.120	-513
848.211	386
848.302	65
848.392	-930
848.483	531
848.574	-810
848.664	-708
848.755	913
848.846	-133
848.936	-736
849.027	1014
849.118	50
849.208	-258
849.299	1341
849.389	1702
849.480	4311
849.570	9137
849.661	16146
849.751	32574
849.841	19612
849.932	2650
850.022	814
850.112	767
850.203	-428
850.293	-58
850.383	1016
850.474	-406
850.564	-236
850.654	383
850.744	-207
850.834	174
850.924	-527
851.014	736
851.104	12
851.194	457
851.284	470
851.374	815
851.464	200
851.554	103
851.644	239
851.734	1812
851.824	1990
851.914	1765
852.004	6253
852.094	6416
852.183	1777
852.273	743
852.363	-8
852.452	809
852.542	209
852.632	-848
852.721	-912
852.811	121
852.901	-343
852.990	330
853.080	299
853.169	797
853.259	1021
853.348	262
853.438	954
853.527	2514
853.617	2609
853.706	6793
853.795	10570
853.885	25997
853.974	50792
854.063	87527
854.152	160941
854.242	102017
854.331	21449
854.420	6705
854.509	3323
854.598	3463
854.687	1496
854.777	2291
854.866	1008
854.955	1247
855.044	387
855.133	639
855.222	450
855.311	432
855.400	892
855.488	196
855.577	-248
855.666	380
855.755	393
855.844	369
855.933	638
856.021	672
856.110	711
856.199	220
856.288	-691
856.376	-51
856.465	-785
856.554	69
856.642	-958
856.731	341
856.819	-458
856.908	-186
856.996	-215
857.085	-616
857.173	-790
857.262	342
857.350	-332
857.438	-473
857.527	7
857.615	-603
857.703	274
857.792	-618
857.880	167
857.968	-410
858.056	-321
858.145	-595
858.233	-1128
858.321	-69
858.409	-396
858.497	-827
858.585	-136
858.673	381
858.761	-1462
858.849	-209
858.937	-151
859.025	-99
859.113	-515
859.201	-570
859.289	3
859.377	414
859.465	456
859.552	-310
859.640	-546
859.728	-100
859.816	59
859.903	-747
859.991	-894
860.079	19
860.166	25
860.254	157
860.342	96
860.429	-410
860.517	-68
860.604	-56
860.692	-110
860.779	522
860.867	-823
860.954	-670
861.042	-709
861.129	294
861.216	-421
861.304	-532
861.391	-467
861.478	256
861.565	-1283
861.653	301
861.740	-676
861.827	56
861.914	-413
862.001	-247
862.089	-637
862.176	-678
862.263	-404
862.350	-368
862.437	-150
862.524	-271
862.611	-1171
862.698	-243
862.785	560
862.871	269
862.958	-240
863.045	38
863.132	-168
863.219	-504
863.306	-1124
863.392	440
863.479	-180
863.566	-523
863.652	-55
863.739	-622
863.826	217
863.912	-638
863.999	-170
864.086	-98
864.172	-718
864.259	-78
864.345	-777
864.432	-62
864.518	-176
864.604	494
864.691	-500
864.777	-213
864.863	194
864.950	679
865.036	226
865.122	1861
865.209	2117
865.295	2005
865.381	1073
865.467	2654
865.553	2736
865.639	3509
865.726	7395
865.812	14152
865.898	27269
865.984	42290
866.070	70163
866.156	104563
866.242	44788
866.328	10259
866.414	3213
866.499	3918
866.585	2279
866.671	3244
866.757	1661
866.843	1534
866.928	1400
867.014	830
867.100	991
867.186	1278
867.271	1045
867.357	1478
867.442	908
867.528	1723
867.614	1316
867.699	1189
867.785	2623
867.870	1922
867.956	3046
868.041	1393
868.127	1749
868.212	1539
868.297	1807
868.383	1611
868.468	1713
868.553	1890
868.639	1944
868.724	3010
868.809	3033
868.894	2050
868.979	418
869.065	1009
869.150	178
869.235	942
869.320	-243
869.405	689
869.490	253
869.575	352
869.660	223
869.745	1293
869.830	-232
869.915	-469
870.000	1212
870.085	144
870.169	921
870.254	1843
870.339	-49
870.424	170
870.509	610
870.593	1646
870.678	-182
870.763	287
870.847	-217
870.932	91
871.016	1371
871.101	607
871.186	-13
871.270	1356
871.355	-92
871.439	658
871.523	-107
871.608	295
871.692	-589
871.777	1685
871.861	1090
871.945	577
872.030	1399
872.114	580
872.198	170
872.282	-62
872.367	300
872.451	660
872.535	-161
872.619	332
872.703	316
872.787	528
872.871	575
872.955	365
873.039	-191
873.123	354
873.207	-398
873.291	158
873.375	640
873.459	422
873.543	670
873.627	185
873.711	-58
873.794	511
873.878	-269
873.962	-137
874.045	198
874.129	308
874.137	264
874.213	-177
874.245	-36
874.296	197
874.352	109
874.380	58
874.460	18
874.464	16
874.547	376
874.568	286
874.631	13
874.676	270
874.714	477
874.784	419
874.798	415
874.881	265
874.892	249
874.965	99
874.999	-119
875.048	-412
875.107	49
875.131	232
875.215	252
875.215	252
875.298	436
875.323	280
875.381	-118
875.430	102
875.465	289
875.538	345
875.548	340
875.631	1027
875.646	662
875.714	-986
875.753	-505
875.798	33
875.861	80
875.881	79
875.964	437
875.968	403
876.047	-189
876.076	-12
876.130	363
876.183	40
876.213	-142
876.291	832
876.296	890
876.379	-349
876.398	-307
876.462	9
876.506	204
876.545	285
876.613	464
876.628	517
876.711	587
876.721	595
876.794	661
876.828	731
876.877	819
876.935	315
876.960	136
877.043	698
877.043	698
877.125	684
877.150	693
877.208	695
877.258	546
877.291	484
877.365	1199
877.374	1302
877.456	867
877.472	842
877.539	483
877.579	656
877.622	933
877.687	1006
877.704	1019
877.787	870
877.794	805
877.869	278
877.901	466
877.952	378
878.008	-11
878.034	16
878.115	232
878.117	234
878.199	457
878.222	569
878.282	907
878.329	1008
878.364	1003
878.437	742
878.447	713
878.529	365
878.544	332
878.611	187
878.651	230
878.694	370
878.758	914
878.776	1003
878.858	458
878.865	430
878.941	386
878.972	447
879.023	355
879.078	-23
879.105	-38
879.185	826
879.187	841
879.269	706
879.292	725
879.351	655
879.399	654
879.433	691
879.506	788
879.516	803
879.598	474
879.613	381
879.680	-100
879.720	414
879.762	983
879.827	221
879.844	45
879.926	536
879.933	532
880.007	442
880.040	447
880.089	582
880.147	43
880.171	-196
880.253	1317
880.254	1314
880.335	744
880.360	843
880.417	2037
880.467	2810
880.499	3188
880.574	5474
880.580	5547
880.662	3385
880.680	2948
880.744	1110
880.787	480
880.825	552
880.893	376
880.907	307
880.989	605
881.000	618
881.070	862
881.106	802
881.152	759
881.213	837
881.233	795
881.315	730
881.319	704
881.396	525
881.426	477
881.478	370
881.532	662
881.559	822
881.639	438
881.641	431
881.722	593
881.745	492
881.803	463
881.852	648
881.885	612
881.958	746
881.966	773
882.047	891
882.064	858
882.129	979
882.171	955
882.210	894
882.277	1402
882.291	1448
882.372	808
882.383	797
882.454	913
882.489	813
882.535	828
882.596	934
882.616	820
882.697	214
882.702	196
882.778	709
882.808	880
882.859	893
882.914	613
882.940	602
883.020	855
883.021	856
883.102	545
883.127	406
883.183	612
883.233	618
883.264	321
883.339	202
883.345	256
883.426	347
883.445	478
883.507	639
883.551	487
883.587	563
883.657	1087
883.668	1122
883.749	1244
883.763	1185
883.830	585
883.869	185
883.910	-19
883.975	299
883.991	506
884.072	1460
884.081	1484
884.152	853
884.187	646
884.233	775
884.292	1151
884.314	1230
884.394	852
884.398	864
884.475	786
884.504	609
884.555	579
884.610	452
884.636	409
884.716	684
884.716	691
884.797	931
884.821	962
884.877	1049
884.927	1061
884.958	951
885.033	727
885.038	712
885.118	232
885.139	156
885.199	223
885.244	351
885.279	635
885.350	1121
885.359	1127
885.439	1204
885.456	1139
885.520	1207
885.561	1452
885.600	1185
885.667	421
885.680	479
885.760	1127
885.773	1175
885.840	789
885.878	760
885.920	1029
885.984	942
886.000	800
886.080	578
886.089	539
886.160	1517
886.195	1923
886.240	1308
886.300	542
886.320	617
886.400	924
886.406	927
886.480	793
886.511	839
886.560	1306
886.616	1756
886.640	1525
886.720	737
886.722	708
886.800	1364
886.827	1680
886.879	1148
886.932	677
886.959	1075
887.038	1915
887.039	1912
887.119	1151
887.143	972
887.198	1293
887.248	1459
887.278	1257
887.354	567
887.358	565
887.437	568
887.459	623
887.517	1041
887.564	1194
887.596	1249
887.669	1547
887.676	1518
887.755	941
887.774	809
887.835	1071
887.880	1324
887.914	1176
887.985	588
887.994	664
888.073	1499
888.090	1667
888.153	1756
888.195	1772
888.232	1559
888.300	1197
888.311	1271
888.391	1741
888.405	1812
888.470	1749
888.510	1699
888.549	1728
888.615	1765
888.628	1724
888.708	1434
888.720	1385
888.787	1398
888.825	1339
888.866	1268
888.930	1210
888.945	1209
889.024	1213
889.035	1205
889.103	1736
889.140	1996
889.182	1979
889.245	1934
889.261	1875
889.340	1589
889.349	1549
889.419	1270
889.454	1123
889.498	1234
889.559	1388
889.577	1518
889.656	2060
889.664	2110
889.735	1726
889.768	1532
889.814	1561
889.873	1593
889.978	1638
890.083	1711
890.187	2112
890.292	2235
890.397	1340
890.501	1994
890.606	1716
890.710	1937
890.815	2368
890.919	2168
891.024	2111
891.128	2175
891.233	2821
891.337	2037
891.442	1742
891.546	1450
891.650	1380
891.755	632
891.859	2105
891.963	2166
892.068	2064
892.172	839
892.276	978
892.380	2049
892.484	2233
892.589	2568
892.693	2765
892.797	1447
892.901	1191
893.005	1066
893.109	1464
893.213	1543
893.317	1646
893.421	1200
893.525	1301
893.629	1179
893.733	1155
893.837	600
893.941	1819
894.045	2031
894.148	2201
894.252	5755
894.356	3320
894.460	2467
894.564	1628
894.667	908
894.771	706
894.875	551
894.978	812
895.082	1663
895.186	1487
895.289	2130
895.393	857
895.496	1649
895.600	896
895.703	715
895.807	706
895.910	1244
896.014	837
896.117	1276
896.221	1082
896.324	2005
896.427	1585
896.531	393
896.634	745
896.737	1015
896.840	977
896.944	1475
897.047	1279
897.150	816
897.253	960
897.356	388
897.460	898
897.563	481
897.666	614
897.769	561
897.872	1388
897.975	999
898.078	1149
898.181	1213
898.284	1216
898.387	1579
898.490	1540
898.593	1299
898.695	1149
898.798	1078
898.901	1554
899.004	937
899.107	1288
899.209	413
899.312	1520
899.415	654
899.518	539
899.620	1258
899.723	988
899.826	1000
899.928	1672
900.031	938
900.133	557
900.236	332
900.338	570
900.441	610
900.543	1497
900.646	1569
900.748	1089
900.851	920
900.953	972
901.055	1203
901.158	-51
901.260	1097
901.362	794
901.465	1046
901.567	641
901.669	1167
901.771	1116
901.873	501
901.976	598
902.078	702
902.180	1162
902.282	765
902.384	39
902.486	1425
902.588	400
902.690	1528
902.792	1451
902.894	294
902.996	1015
903.098	944
903.200	1117
903.302	275
903.404	1429
903.505	468
903.607	795
903.709	1630
903.811	522
903.913	930
904.014	1366
904.116	917
904.218	1095
904.319	1745
904.421	1301
904.523	2170
904.624	1545
904.726	1000
904.827	819
904.929	724
905.030	862
905.132	717
905.233	1105
905.335	1414
905.436	467
905.537	1033
905.639	755
905.740	1012
905.841	606
905.943	2032
906.044	1068
906.145	1688
906.247	1270
906.348	490
906.449	157
906.550	1014
906.651	748
906.752	1332
906.854	-46
906.955	838
907.056	923
907.157	1286
907.258	904
907.359	579
907.460	595
907.561	325
907.662	1042
907.762	1727
907.863	643
907.964	1422
908.065	841
908.166	878
908.267	468
908.367	1131
908.468	1198
908.569	1089
908.670	1667
908.770	1181
908.871	1176
908.971	1904
909.072	1926
909.173	571
909.273	503
909.374	1257
909.474	1144
909.575	1441
909.675	1255
909.776	1040
909.876	1307
909.977	715
910.077	1148
910.177	835
910.278	1044
910.378	504
910.478	398
910.579	1007
910.679	1008
910.779	318
910.879	546
910.980	600
911.080	1281
911.180	398
911.280	359
911.380	1006
911.480	1047
911.580	1182
911.680	1035
911.780	1313
911.880	1292
911.980	733
912.080	904
912.180	1179
912.280	1448
912.380	917
912.480	215
912.580	805
912.679	53
912.779	1228
912.879	846
912.979	855
913.078	1091
913.178	791
913.278	201
913.377	787
913.477	639
913.577	914
913.676	735
913.776	972
913.875	473
913.975	671
914.074	564
914.174	883
914.273	-69
914.373	932
914.472	995
914.572	432
914.671	342
914.770	494
914.870	1470
914.969	242
915.068	483
915.167	939
915.267	1007
915.366	416
915.465	-92
915.564	213
915.663	684
915.763	718
915.862	676
915.961	1080
916.060	649
916.159	-129
916.258	648
916.357	815
916.456	850
916.555	251
916.654	-28
916.752	352
916.851	48
916.950	434
917.049	198
917.148	819
917.247	607
917.345	476
917.444	305
917.543	-178
917.642	-231
917.740	-117
917.839	356
917.937	315
918.036	923
918.135	307
918.233	971
918.332	460
918.430	464
918.529	579
918.627	427
918.726	306
918.824	889
918.923	1031
919.021	1215
919.119	-119
919.218	738
919.316	514
919.414	1381
919.512	59
919.611	332
919.709	238
919.807	651
919.905	1247
920.003	742
920.102	955
920.200	480
920.298	666
920.396	804
920.494	1030
920.592	1015
920.690	317
920.788	737
920.886	487
920.984	1260
921.082	713
921.180	79
921.277	1335
921.375	763
921.473	954
921.571	1376
921.669	1562
921.766	1438
921.864	1302
921.962	608
922.060	840
922.157	1416
922.255	1937
922.352	749
922.450	1991
922.548	1415
922.645	2055
922.743	2085
922.840	2302
922.938	3773
923.035	3505
923.133	3093
923.230	2757
923.327	3988
923.425	4418
923.522	3582
923.619	2780
923.717	3275
923.814	2858
923.911	2976
924.008	3701
924.106	3110
924.203	2849
924.300	3636
924.397	2334
924.494	3535
924.591	2700
924.688	2312
924.786	2985
924.883	3294
924.979	2910
925.077	3734
925.173	3885
925.270	3131
925.367	2827
925.464	3527
925.561	3658
925.658	3637
925.755	3353
925.852	3597
925.948	3447
926.045	3326
926.142	3071
926.239	4228
926.335	3296
926.432	3851
926.529	3727
926.625	4142
926.722	3929
926.818	2948
926.915	3335
927.011	2900
927.108	3633
927.204	2995
927.301	2128
927.397	2813
927.494	3064
927.590	2142
927.687	2272
927.783	2736
927.879	2745
927.976	3029
928.072	3299
928.168	2361
928.264	2895
928.361	2113
928.457	3081
928.553	2404
928.649	2610
928.745	2222
928.841	3483
928.937	1605
929.033	2736
929.129	2349
929.225	2500
929.321	1958
929.417	2071
929.513	2474
929.609	2022
929.705	1698
929.801	3206
929.897	2384
929.993	2262
930.089	2481
930.184	2198
930.280	2958
930.376	2777
930.471	1948
930.567	1937
930.663	1607
930.758	1876
930.854	1827
930.950	1434
931.045	2629
931.141	2183
931.236	2502
931.332	1728
931.427	1526
931.523	2675
931.618	2344
931.714	1015
931.809	1377
931.905	2375
932.000	1332
932.095	2699
932.191	2327
932.286	2909
932.381	1860
932.476	1811
932.572	2036
932.667	2166
932.762	2192
932.857	2415
932.952	2440
933.047	1770
933.142	753
933.237	1601
933.332	2818
933.427	2694
933.522	1505
933.617	2062
933.712	2002
933.807	2738
933.902	2586
933.997	2682
934.092	1729
934.187	1243
934.282	1618
934.376	1842
934.471	2255
934.566	2043
934.661	1771
934.755	2407
934.850	2149
934.945	2930
935.039	822
935.134	2117
935.228	2244
935.323	3060
935.417	1606
935.512	1462
935.606	1658
935.701	1679
935.795	1942
935.890	1706
935.984	1798
936.079	1697
936.173	1915
936.267	1478
936.362	1654
936.456	1386
936.550	2520
936.644	2002
936.738	2171
936.833	2291
936.927	1942
937.021	1388
937.115	2673
937.209	1327
937.303	1676
937.397	1415
937.491	1573
937.585	1979
937.679	2466
937.773	1226
937.867	562
937.961	1147
938.055	1783
938.149	1956
938.243	1557
938.337	1285
938.430	1237
938.524	2360
938.618	1370
938.712	2699
938.805	2333
938.899	1994
938.993	1910
939.086	1458
939.180	2828
939.274	3314
939.367	2576
939.461	1467
939.554	2186
939.648	1002
939.741	2553
939.835	1312
939.928	2061
940.022	2096
940.115	2093
940.208	1435
940.302	1856
940.395	2407
940.488	2127
940.582	1438
940.675	1365
940.768	1425
940.861	1687
940.954	1463
941.048	1501
941.141	1138
941.234	1276
941.327	2687
941.420	3582
941.513	2536
941.606	1376
941.699	2243
941.792	1692
941.885	2325
941.978	1393
942.071	994
942.164	979
942.257	1163
942.349	1712
942.442	1621
942.535	1046
942.628	1329
942.721	1022
942.813	1675
942.906	1115
942.999	1089
943.091	1688
943.184	1520
943.277	1219
943.369	1187
943.462	1110
943.554	1507
943.647	511
943.739	1562
943.832	1346
943.924	-26
944.017	1424
944.109	83
944.201	1072
944.294	1191
944.386	1436
944.478	1055
944.571	965
944.663	1670
944.755	831
944.847	1372
944.940	1762
945.032	1178
945.124	849
945.216	1360
945.308	1254
945.400	2302
945.492	690
945.584	1797
945.676	1230
945.768	1245
945.860	1753
945.952	1840
946.044	1646
946.136	1830
946.228	1598
946.320	1464
946.412	1107
946.503	1068
946.595	1720
946.687	1489
946.779	598
946.870	1708
946.962	1306
947.054	1162
947.145	1905
947.237	937
947.329	1452
947.420	1038
947.512	1192
947.603	220
947.695	714
947.786	1578
947.878	1452
947.969	1615
948.061	1449
948.152	1610
948.243	888
948.335	405
948.426	971
948.517	1099
948.609	1218
948.700	1319
948.791	1102
948.882	763
948.973	1321
949.065	1593
949.156	999
949.247	598
949.338	826
949.429	582
949.520	581
949.611	913
949.702	1450
949.793	779
949.884	1014
949.975	1164
950.066	469
950.157	1467
950.247	835
950.338	1103
950.429	79
950.520	806
950.611	879
950.701	1087
950.792	1667
950.883	1542
950.973	1468
951.064	964
951.155	1200
951.245	1668
951.336	1973
951.427	1002
951.517	1653
951.608	1498
951.698	1122
951.788	747
951.879	983
951.969	1141
952.060	1402
952.150	818
952.240	1441
952.331	879
952.421	1980
952.511	632
952.602	294
952.692	849
952.782	629
952.872	654
952.962	1047
953.052	274
953.143	516
953.233	415
953.323	621
953.413	1435
953.503	1567
953.593	1254
953.683	1178
953.773	1489
953.863	705
953.953	88
954.042	1199
954.132	962
954.222	1042
954.312	618
954.402	1298
954.492	572
954.581	1591
954.671	954
954.761	829
954.850	1191
954.940	210
955.030	442
955.119	278
955.209	807
955.298	377
955.388	698
955.477	1076
955.567	286
955.656	1019
955.746	855
955.835	847
955.925	991
956.014	856
956.103	1078
956.193	1310
956.282	1114
956.371	294
956.461	335
956.550	345
956.639	331
956.728	-23
956.817	1339
956.906	740
956.995	1088
957.085	717
957.174	1060
957.263	711
957.352	543
957.441	999
957.530	1062
957.619	681
957.708	1326
957.796	745
957.885	-641
957.974	1045
958.063	808
958.152	323
958.241	637
958.329	546
958.418	1370
958.507	741
958.596	1896
958.684	324
958.773	581
958.861	995
958.950	672
959.039	864
959.127	1193
959.216	305
959.304	1359
959.393	1277
959.481	1386
959.570	1114
959.658	1272
959.746	707
959.835	1921
959.923	1977
960.011	1022
960.100	1214
960.188	1315
960.276	394
960.365	714
960.453	18
960.541	-3
960.629	642
960.717	403
960.805	-157
960.893	727
960.981	261
961.069	249
961.158	485
961.245	940
961.333	964
961.421	-84
961.509	457
961.597	60
961.685	369
961.773	338
961.861	-237
961.949	666
962.036	213
962.124	-69
962.212	-32
962.299	593
962.387	-397
962.475	270
962.562	-400
962.650	-198
962.738	258
962.825	-348
962.913	704
963.000	-209
963.088	-60
963.175	644
963.263	83
963.350	130
963.438	753
963.525	135
963.612	1615
963.700	2420
963.787	5969
963.874	4678
963.962	697
964.049	259
964.136	114
964.223	-49
964.310	-68
964.398	-141
964.485	-629
964.572	426
964.659	330
964.746	945
964.833	326
964.920	-30
965.007	50
965.094	5
965.181	-20
965.268	-151
965.355	91
965.441	263
965.528	-1031
965.615	828
965.702	-288
965.789	-110
965.875	-243
965.962	-417
966.049	-168
966.136	477
966.222	-155
966.309	530
966.395	416
966.482	5
966.569	541
966.655	183
966.742	-212
966.828	-489
966.915	-41
967.001	-820
967.087	-164
967.174	-684
967.260	620
967.347	-32
967.433	1184
967.519	4438
967.605	2263
967.692	538
967.778	-161
967.864	-600
967.950	70
968.036	-1049
968.123	132
968.209	393
968.295	-755
968.381	-51
968.467	123
968.553	-924
968.639	-325
968.725	139
968.811	818
968.897	643
968.983	-27
969.069	-384
969.154	346
969.240	-469
969.326	-508
969.412	-273
969.497	-827
969.583	-325
969.669	-7
969.755	-928
969.840	-112
969.926	475
970.012	238
970.097	1180
970.183	778
970.268	302
970.354	690
970.439	754
970.525	2320
970.610	651
970.696	182
970.781	-69
970.866	-1142
970.952	-133
971.037	-1047
971.122	473
971.208	-440
971.293	-46
971.378	-398
971.463	-984
971.549	-886
971.634	-518
971.719	-505
971.804	-77
971.889	708
971.974	-803
972.059	-159
972.144	-407
972.229	-488
972.314	-345
972.399	-742
972.484	-478
972.569	-426
972.654	-630
972.739	1315
972.824	1512
972.908	338
972.993	-516
973.078	-323
973.163	-700
973.247	-51
973.332	-973
973.417	220
973.501	-1191
973.586	15
973.671	-264
973.755	-516
973.840	-199
973.924	-188
974.009	-676
974.093	-117
974.178	193
974.262	649
974.346	-61
974.431	417
974.515	-267
974.600	-773
974.684	-467
974.768	-430
974.852	-360
974.937	-139
975.021	353
975.105	-759
975.189	-751
975.273	-18
975.358	-589
975.442	-936
975.526	-623
975.610	-1373
975.694	-1251
975.778	322
975.862	-727
975.946	-1306
976.030	-94
976.114	-1253
976.198	-503
976.281	-278
976.365	-423
976.449	-1080
976.533	-661
976.617	-923
976.700	82
976.784	-636
976.868	-1262
976.951	-205
977.035	-671
977.119	-625
977.202	-397
977.286	-123
977.369	-302
977.453	418
977.536	-694
977.620	-373
977.703	161
977.787	-905
977.870	-37
977.953	-310
978.037	-490
978.120	-654
978.203	-15
978.287	207
978.370	-88
978.453	-1098
978.536	-1339
978.620	-787
978.703	502
978.786	263
978.869	-1730
978.952	-917
979.035	121
979.118	-240
979.201	-380
979.284	-667
979.367	-586
979.450	-839
979.533	-752
979.616	-253
979.699	-477
979.782	-305
979.865	-704
979.948	-1275
980.030	-1242
980.113	-975
980.196	-1151
980.279	-275
980.361	-1053
980.444	-973
980.526	-471
980.609	-630
980.692	-82
980.774	-213
980.857	-1691
980.939	-282
981.022	-1300
981.104	-1188
981.187	-693
981.269	-795
981.352	-684
981.434	-1537
981.516	-957
981.599	-183
981.681	-620
981.763	-22
981.846	-1194
981.928	-171
982.010	-1435
982.092	-1539
982.174	-385
982.256	-328
982.339	-929
982.421	-869
982.503	-656
982.585	-1116
982.667	-460
982.749	-1244
982.831	-1154
982.913	-1851
982.995	32
983.077	-1159
983.158	-21
983.240	-752
983.322	-203
983.404	-635
983.486	-614
983.568	-53
983.649	-1186
983.731	-749
983.813	-1198
983.894	287
983.976	-1735
984.058	-117
984.139	-755
984.221	-1174
984.302	39
984.384	-715
984.465	-382
984.547	-758
984.628	-385
984.710	-401
984.791	-573
984.872	-815
984.954	-927
985.035	-1062
985.116	-813
985.198	-1496
985.279	-49
985.360	-1030
985.441	-730
985.522	265
985.604	-100
985.685	-2253
985.766	21
985.847	161
985.928	-1183
986.009	-501
986.090	-1113
986.171	-604
986.252	-543
986.333	-709
986.414	-227
986.495	-47
986.576	-1128
986.656	-320
986.737	-605
986.818	-477
986.899	-683
986.980	-435
987.060	-122
987.141	-863
987.222	-481
987.302	-488
987.383	-103
987.464	-601
987.544	-261
987.625	-715
987.705	-483
987.786	-1392
987.866	-1325
987.947	-501
988.027	-827
988.108	-634
988.188	-270
988.268	-1240
988.349	-656
988.429	-1019
988.509	-655
988.589	-361
988.670	-1632
988.750	56
988.830	-518
988.910	-206
988.990	-839
989.070	-1086
989.151	-739
989.231	-978
989.311	-516
989.391	-766
989.471	5
989.551	-515
989.631	-795
989.711	-260
989.791	-1242
989.870	-1085
989.950	-342
990.030	-93
990.110	-645
990.190	-1149
990.269	-794
990.349	-1111
990.429	-744
990.509	-185
990.588	-1358
990.668	-884
990.747	-1162
990.827	-620
990.907	-288
990.986	-369
991.066	-1671
991.145	-1239
991.225	-1034
991.304	-955
991.383	-1042
991.463	-757
991.542	-1514
991.622	-846
991.701	-1393
991.780	-1061
991.859	-685
991.939	-1397
992.018	-1254
992.097	-1268
992.176	-1172
992.256	-1167
992.335	-1846
992.414	-818
992.493	-1042
992.572	-1262
992.651	69
992.730	-1773
992.809	-1038
992.888	-1209
992.967	-1164
993.046	-1426
993.125	-1198
993.203	-1323
993.282	-1048
993.361	-522
993.440	-1503
993.519	-1859
993.597	-1620
993.676	-1744
993.755	-928
993.834	-1487
993.912	-1386
993.991	-773
994.069	-1283
994.148	-988
994.226	-1710
994.305	-1294
994.384	-2220
994.462	-651
994.540	-1371
994.619	-1564
994.697	-1086
994.776	-1656
994.854	-1756
994.932	-1139
995.011	-1743
995.089	-338
995.167	-1535
995.245	-995
995.324	-1645
995.402	-579
995.480	-2358
995.558	-1567
995.636	-2303
995.714	-2007
995.792	-1079
995.870	-1718
995.948	-1600
996.026	-1675
996.104	-2009
996.182	-1263
996.260	-1530
996.338	-1174
996.416	-2322
996.494	-2011
996.572	-725
996.649	-1255
996.727	-2120
996.805	-1040
996.883	-2147
996.960	-2364
997.038	-1008
997.116	-1064
997.193	-2400
997.271	-1906
997.348	-1429
997.426	-1353
997.504	-1877
997.581	-849
997.658	-988
997.736	-2470
997.813	-2170
997.891	-1007
997.968	-2688
998.046	-1795
998.123	-2326
998.200	-1505
998.277	-1870
998.355	-983
998.432	-2190
998.509	-1605
998.586	-1537
998.663	-970
998.741	-1777
998.818	-1889
998.895	-2453
998.972	-1278
999.049	-2144
999.126	-2445
999.203	-2046
999.280	-2114
999.357	-1740
999.434	-1619
999.511	-1294
999.587	-2129
999.664	-2151
999.741	-2075
999.818	-1828
999.895	-1555
999.971	-1984
1000.048	-2145
1000.125	-2318
1000.202	-1635
1000.278	-1901
1000.355	-1568
1000.431	-2393
1000.508	-1684
1000.584	-1406
1000.661	-2157
1000.738	-2460
1000.814	-2256
1000.890	-1457
1000.967	-1952
1001.043	-1496
1001.120	-2937
1001.196	-1933
1001.272	-2093
1001.349	-1339
1001.425	-1107
1001.501	-1722
1001.577	-2298
1001.654	-1566
1001.730	-1921
1001.806	-2424
1001.882	-2565
1001.958	-1755
1002.034	-2076
1002.110	-2531
1002.186	-2769
1002.262	-2099
1002.338	-2276
1002.414	-1417
1002.490	-1514
1002.566	-1869
1002.642	-2494
1002.718	-2049
1002.794	-2776
1002.870	-1072
1002.945	-851
1003.021	-2373
1003.097	-1954
1003.173	-1302
1003.248	-2329
1003.324	-1582
1003.400	-1759
1003.475	-2471
1003.551	-2297
1003.626	-1645
1003.702	-2674
1003.777	-1791
1003.853	-2464
1003.928	-2404
1004.004	-2443
1004.079	-1761
1004.155	-2425
1004.230	-2610
1004.305	-1893
1004.381	-2130
1004.456	-2383
1004.531	-2019
1004.607	-1792
1004.682	-1836
1004.757	-2424
1004.832	-2614
1004.907	-2190
1004.982	-1485
1005.057	-1311
1005.133	-2633
1005.208	-2493
1005.283	-1437
1005.358	-2067
1005.433	-2037
1005.508	-1857
1005.583	-2861
1005.657	-2832
1005.732	-1548
1005.807	-2381
1005.882	-2654
1005.957	-1670
1006.032	-2134
1006.106	-2599
1006.181	-1939
1006.256	-1634
1006.331	-2842
1006.405	-1825
1006.480	-2335
1006.554	-2200
1006.629	-2708
1006.704	-2747
1006.778	-1970
1006.853	-1834
1006.927	-1927
1007.002	-1960
1007.076	-1863
1007.150	-1930
1007.225	-2883
1007.299	-2519
1007.373	-3038
1007.448	-2826
1007.522	-2007
1007.596	-2192
1007.671	-2210
1007.745	-2117
1007.819	-2508
1007.893	-2470
1007.967	-1836
1008.041	-3174
1008.115	-1994
1008.190	-3232
1008.264	-2240
1008.338	-3078
1008.412	-2383
1008.486	-2356
1008.560	-2007
1008.633	-2854
1008.707	-1934
1008.781	-2235
1008.855	-3108
1008.929	-1940
1009.003	-1787
1009.076	-2347
1009.150	-2277
1009.224	-2382
1009.298	-2325
1009.371	-2378
1009.445	-1659
1009.519	-2636
1009.592	-2908
1009.666	-2744
1009.739	-2659
1009.813	-2608
1009.886	-1947
1009.960	-3280
1010.033	-2908
1010.107	-2170
1010.180	-3136
1010.253	-2565
1010.327	-2693
1010.400	-2270
1010.473	-1409
1010.547	-1406
1010.620	-3255
1010.693	-2271
1010.766	-2202
1010.840	-2497
1010.913	-2161
1010.986	-2347
1011.059	-3046
1011.132	-2063
1011.205	-2227
1011.278	-2607
1011.351	-2200
1011.424	-2214
1011.497	-2434
1011.570	-1953
1011.643	-1815
1011.716	-2497
1011.789	-2397
1011.862	-1957
1011.934	-2912
1012.007	-3496
1012.080	-2755
1012.153	-2535
1012.225	-1562
1012.298	-3146
1012.371	-2783
1012.443	-2066
1012.516	-2581
1012.588	-2153
1012.661	-2594
1012.733	-2944
1012.806	-1969
1012.879	-2733
1012.951	-3114
1013.023	-2489
1013.096	-2742
1013.168	-2317
1013.241	-2380
1013.313	-2305
1013.385	-2845
1013.458	-2386
1013.530	-2658
1013.602	-3055
1013.674	-2401
1013.746	-2417
1013.819	-3797
1013.891	-2079
1013.963	-3067
1014.035	-2136
1014.107	-1980
1014.179	-2444
1014.251	-2565
1014.323	-2781
1014.395	-3091
1014.467	-2833
1014.539	-1931
1014.611	-2866
1014.683	-2624
1014.754	-2785
1014.826	-2828
1014.898	-2717
1014.970	-3353
1015.042	-1652
1015.113	-2908
1015.185	-1696
1015.257	-3198
1015.328	-2689
1015.400	-3055
1015.471	-2774
1015.543	-2869
1015.615	-1999
1015.686	-2930
1015.757	-3023
1015.829	-2912
1015.901	-2703
1015.972	-2362
1016.043	-3100
1016.115	-2375
1016.186	-1817
1016.257	-2812
1016.328	-2560
1016.400	-2985
1016.471	-2693
1016.542	-2175
1016.613	-2722
1016.685	-2828
1016.756	-2507
1016.827	-1653
1016.898	-3085
1016.969	-2154
1017.040	-2290
1017.111	-3121
1017.182	-3166
1017.253	-2833
1017.324	-3604
1017.395	-3040
1017.466	-2725
1017.537	-2182
1017.608	-3556
1017.678	-2791
1017.749	-3081
1017.820	-2855
1017.891	-3311
1017.961	-2953
1018.032	-2107
1018.103	-2940
1018.173	-2191
1018.244	-3124
1018.315	-2506
1018.385	-2630
1018.456	-2349
1018.526	-3356
1018.597	-3249
1018.667	-3105
1018.738	-2904
1018.808	-2694
1018.878	-3131
1018.949	-3369
1019.019	-2526
1019.089	-2631
1019.160	-2876
1019.230	-3549
1019.300	-2197
1019.371	-3660
1019.441	-2668
1019.511	-3027
1019.581	-3752
1019.651	-2554
1019.721	-2966
1019.791	-3616
1019.861	-2626
1019.931	-2142
1020.001	-2893
1020.071	-2739
1020.141	-2721
1020.211	-3223
1020.281	-3596
1020.351	-2860
1020.421	-2282
1020.491	-2676
1020.560	-3228
1020.630	-2743
1020.700	-3091
1020.770	-3204
1020.839	-3090
1020.909	-3053
1020.979	-3281
1021.048	-3309
1021.118	-3292
1021.187	-2857
1021.257	-2633
1021.326	-3317
1021.396	-2394
1021.465	-3489
1021.535	-3041
1021.604	-3026
1021.674	-3341
1021.743	-2963
1021.812	-3067
1021.882	-3264
1021.951	-3403
1022.020	-3081
1022.089	-2352
1022.159	-2914
1022.228	-3277
1022.297	-3061
1022.366	-3323
1022.435	-3901
1022.504	-2691
1022.573	-3558
1022.642	-2857
1022.711	-3337
1022.781	-3110
1022.849	-3166
1022.918	-4103
1022.987	-3151
1023.056	-3160
1023.125	-3209
1023.194	-3728
1023.263	-3095
1023.331	-3301
1023.400	-4086
1023.469	-3432
1023.538	-3685
1023.606	-3952
1023.675	-3496
1023.744	-3424
1023.812	-2912
1023.881	-2941
1023.949	-2521
1024.018	-2848
1024.086	-3520
1024.155	-2526
1024.223	-3841
1024.292	-2686
1024.360	-3692
1024.429	-3236
1024.497	-3348
1024.565	-3216
1024.634	-3425
1024.702	-3677
1024.770	-3848
1024.838	-3736
1024.907	-3059
1024.975	-3533
1025.043	-3455
1025.111	-3212
1025.179	-2755
1025.247	-3041
1025.315	-3229
1025.383	-2841
1025.451	-3582
1025.519	-2578
1025.587	-2996
1025.655	-3275
1025.723	-3614
1025.791	-3518
1025.859	-2885
1025.927	-3517
1025.995	-3611
1026.062	-2848
1026.130	-3602
1026.198	-3053
1026.266	-3269
1026.333	-3505
1026.401	-3319
1026.469	-3771
1026.536	-3284
1026.604	-3677
1026.671	-3927
1026.739	-2714
1026.806	-2446
1026.874	-3452
1026.941	-2952
1027.009	-3751
1027.076	-3316
1027.144	-2683
1027.211	-3257
1027.278	-3228
1027.345	-3157
1027.413	-3873
1027.480	-3648
1027.547	-3531
1027.614	-4238
1027.682	-3752
1027.749	-4066
1027.816	-3197
1027.883	-2701
1027.950	-3396
1028.017	-3770
1028.084	-3064
1028.151	-3837
1028.218	-3686
1028.285	-2916
1028.352	-3573
1028.419	-4037
1028.486	-3475
1028.553	-3441
1028.619	-3497
1028.686	-3961
1028.753	-3524
1028.820	-3195
1028.886	-3296
1028.953	-3861
1029.020	-2784
1029.086	-3494
1029.153	-3682
1029.220	-3902
1029.286	-3993
1029.353	-3436
1029.419	-4318
1029.486	-4452
1029.552	-3761
1029.619	-3144
1029.685	-3308
1029.751	-3927
1029.818	-3098
1029.884	-3370
1029.951	-3607
1030.017	-4287
1030.083	-3736
1030.149	-3425
1030.216	-3357
1030.282	-3601
1030.348	-3367
1030.414	-4284
1030.480	-3451
1030.546	-3553
1030.612	-3651
1030.678	-2989
1030.744	-3189
1030.810	-3855
1030.876	-3808
1030.942	-3884
1031.008	-3931
1031.074	-3567
1031.140	-4116
1031.206	-3793
1031.272	-3838
1031.337	-3087
1031.403	-3486
1031.469	-4074
1031.534	-3726
1031.600	-3407
1031.666	-2948
1031.731	-3596
1031.797	-4432
1031.863	-3922
1031.928	-3922
1031.994	-3611
1032.059	-2865
1032.125	-3393
1032.190	-4230
1032.256	-4253
1032.321	-3743
1032.386	-3590
1032.452	-2970
1032.517	-3670
1032.582	-3514
1032.647	-4365
1032.713	-3659
1032.778	-3572
1032.843	-2823
1032.908	-3871
1032.974	-3403
1033.039	-3576
1033.104	-2978
1033.169	-3797
1033.234	-3727
1033.299	-3383
1033.364	-3088
1033.429	-3938
1033.494	-3363
1033.559	-3804
1033.624	-3797
1033.688	-2829
1033.753	-4124
1033.818	-2885
1033.883	-3391
1033.948	-3228
1034.013	-3728
1034.077	-3434
1034.142	-2253
1034.207	-2871
1034.271	-2186
1034.336	-1875
1034.400	-1775
1034.465	-2488
1034.530	-3021
1034.594	-3059
1034.658	-3395
1034.723	-3302
1034.787	-3187
1034.852	-3778
1034.916	-3712
1034.981	-4067
1035.045	-3851
1035.109	-4171
1035.173	-3258
1035.238	-3813
1035.302	-2802
1035.366	-3807
1035.430	-3133
1035.495	-4416
1035.559	-2865
1035.623	-3494
1035.687	-3342
1035.751	-3265
1035.815	-3510
1035.879	-3765
1035.943	-3690
1036.007	-4427
1036.071	-3487
1036.135	-3652
1036.198	-3166
1036.262	-4052
1036.326	-3972
1036.390	-3453
1036.454	-3513
1036.517	-3800
1036.581	-4477
1036.645	-3345
1036.709	-3343
1036.772	-3418
1036.836	-4024
1036.900	-3623
1036.963	-4182
1037.026	-3538
1037.090	-3230
1037.154	-3433
1037.217	-3484
1037.280	-3588
1037.344	-2855
1037.407	-3466
1037.471	-3942
1037.534	-3765
1037.597	-3441
1037.661	-3710
1037.724	-3912
1037.787	-4406
1037.850	-3573
1037.913	-4531
1037.977	-3390
1038.040	-3673
1038.103	-4099
1038.166	-3814
1038.229	-4549
1038.292	-3251
1038.355	-3708
1038.418	-2919
1038.481	-3759
1038.544	-3926
1038.607	-3074
1038.670	-3635
1038.732	-3448
1038.795	-3943
1038.858	-3648
1038.921	-3247
1038.984	-3329
1039.046	-4019
1039.109	-3319
1039.172	-3252
1039.234	-4241
1039.297	-4300
1039.360	-3558
1039.422	-3247
1039.485	-3892
1039.547	-4505
1039.610	-3722
1039.672	-3865
1039.734	-3442
1039.797	-3541
1039.859	-3748
1039.922	-4107
1039.984	-3915
1040.046	-4387
1040.109	-3648
1040.171	-4038
1040.233	-3707
1040.295	-2862
1040.358	-3968
1040.420	-3748
1040.482	-4138
1040.544	-4098
1040.606	-2764
1040.668	-3120
1040.730	-3526
1040.792	-3031
1040.854	-4016
1040.916	-2704
1040.978	-3533
1041.040	-3610
1041.102	-3685
1041.164	-3566
1041.225	-3469
1041.287	-3750
1041.349	-4080
1041.411	-3250
1041.472	-3713
1041.534	-3478
1041.596	-3826
1041.657	-3301
1041.719	-3454
1041.781	-3908
1041.842	-3256
1041.904	-4353
1041.965	-3760
1042.027	-3311
1042.088	-4162
1042.150	-3096
1042.211	-2998
1042.272	-4005
1042.334	-3354
1042.395	-3369
1042.456	-3207
1042.518	-3606
1042.579	-2141
1042.640	-4104
1042.701	-4238
1042.763	-3582
1042.824	-3461
1042.885	-3993
1042.946	-3170
1043.007	-3803
1043.068	-3362
1043.129	-3815
1043.190	-4029
1043.251	-3628
1043.312	-3170
1043.373	-3876
1043.434	-2893
1043.495	-3805
1043.556	-3131
1043.616	-2854
1043.677	-3736
1043.738	-3336
1043.799	-4424
1043.859	-3317
1043.920	-4090
1043.981	-3190
1044.041	-3124
1044.102	-3454
1044.162	-3359
1044.223	-3558
1044.284	-2926
1044.344	-3195
1044.405	-3399
1044.465	-3428
1044.525	-3836
1044.586	-3333
1044.646	-3387
1044.707	-3798
1044.767	-3171
1044.827	-3890
1044.887	-3719
1044.948	-2994
1045.008	-3269
1045.068	-3044
1045.128	-2834
1045.188	-3550
1045.249	-2932
1045.309	-3625
1045.369	-3339
1045.429	-4121
1045.489	-2899
1045.549	-3431
1045.609	-2390
1045.669	-3629
1045.729	-3451
1045.789	-3273
1045.848	-3137
1045.908	-2297
1045.968	-2901
1046.028	-2615
1046.088	-2926
1046.147	-2904
1046.207	-2519
1046.267	-2756
1046.326	-3609
1046.386	-2808
1046.446	-2716
1046.505	-2098
1046.565	-2756
1046.624	-2640
1046.684	-2415
1046.743	-2154
1046.803	-1756
1046.862	-1939
1046.922	0
