'Start Wavelength	183.907
'End Wavelength	1046.922
'Gate Delay	5.000
'Gate Width (ms)	1.050
'Laser Output Level	0.000
'X Position	0.000
'Y Position	0.000
'Z Position	0.000
'Grid Point Number	1.000
'Shot Number	100.000
183.907	482.000
183.977	114.000
184.047	731
184.116	477
184.186	236
184.256	609
184.325	459
184.395	-12
184.465	602
184.534	373
184.604	-437
184.674	1125
184.743	-164
184.813	999
184.883	46
184.952	1046
185.022	242
185.092	1113
185.161	139
185.231	1414
185.301	1631
185.370	1465
185.440	546
185.509	335
185.579	99
185.649	1345
185.718	424
185.788	1094
185.857	722
185.927	514
185.996	465
186.066	1070
186.136	477
186.205	395
186.275	1501
186.344	2208
186.414	905
186.483	866
186.553	2691
186.622	3859
186.692	1485
186.761	1738
186.831	584
186.900	1058
186.970	1162
187.039	1980
187.109	3224
187.178	1685
187.248	1483
187.317	2113
187.387	1357
187.456	1980
187.526	2651
187.595	2458
187.664	1585
187.734	2404
187.803	2395
187.873	3309
187.942	3026
188.012	2755
188.081	1919
188.150	2208
188.220	3741
188.289	4005
188.358	2017
188.428	1795
188.497	1100
188.567	2146
188.636	1636
188.705	2041
188.775	1781
188.844	2211
188.913	2646
188.983	2381
189.052	1946
189.121	2111
189.191	2565
189.260	4239
189.329	3719
189.399	3142
189.468	2464
189.537	3024
189.606	2004
189.676	3220
189.745	3286
189.814	3926
189.883	2785
189.953	3922
190.022	6757
190.091	14647
190.161	17065
190.230	7309
190.299	4147
190.368	3583
190.437	2661
190.507	3290
190.576	2699
190.645	2533
190.714	2252
190.783	2387
190.853	2344
190.922	3255
190.991	2775
191.060	2409
191.129	2114
191.198	2556
191.268	2210
191.337	2688
191.406	4065
191.475	3240
191.544	2021
191.613	2398
191.682	2045
191.752	2550
191.821	2878
191.890	3226
191.959	2862
192.028	2161
192.097	2816
192.166	2738
192.235	2130
192.304	2588
192.373	2963
192.442	2391
192.511	1798
192.580	2625
192.650	2837
192.719	3267
192.788	2901
192.857	4492
192.926	2949
192.995	4754
193.064	9695
193.133	9333
193.202	9179
193.271	7895
193.340	7094
193.409	7569
193.478	7252
193.547	10745
193.615	13618
193.684	12706
193.753	9203
193.822	6486
193.891	4447
193.960	5081
194.029	3808
194.098	5112
194.167	3876
194.236	3929
194.305	3218
194.374	3527
194.443	3112
194.512	4513
194.580	3539
194.649	5526
194.718	4947
194.787	3952
194.856	3001
194.925	4562
194.994	4379
195.062	4681
195.131	5129
195.200	6630
195.269	7398
195.338	4844
195.407	4025
195.475	4506
195.544	6080
195.613	5185
195.682	3779
195.751	6777
195.819	6906
195.888	5945
195.957	7003
196.026	7441
196.094	6456
196.163	7276
196.232	6360
196.301	6969
196.369	6675
196.438	6021
196.507	5787
196.576	5340
196.644	4195
196.713	4329
196.782	4199
196.850	5037
196.919	4387
196.988	5030
197.056	4200
197.125	4812
197.194	4563
197.262	4429
197.331	4983
197.400	4474
197.468	4218
197.537	5389
197.606	5737
197.674	11157
197.743	19893
197.812	9273
197.880	20127
197.949	13555
198.017	17892
198.086	12563
198.155	7588
198.223	9938
198.292	23579
198.360	11552
198.429	7614
198.497	7923
198.566	16569
198.635	20719
198.703	8711
198.772	11711
198.840	28145
198.909	26557
198.977	9245
199.046	8726
199.114	8559
199.183	8615
199.251	6478
199.320	6356
199.388	6008
199.457	5108
199.525	6057
199.594	6320
199.662	6157
199.731	6482
199.799	6270
199.867	6918
199.936	6204
200.004	5836
200.073	6653
200.141	6331
200.210	4428
200.278	5834
200.346	6478
200.415	9676
200.483	8668
200.552	8055
200.620	6464
200.688	6736
200.757	5642
200.825	5973
200.893	6049
200.962	6424
201.030	4885
201.098	6368
201.167	6127
201.235	6247
201.303	6572
201.372	6491
201.440	5528
201.508	7156
201.577	7147
201.645	7441
201.713	6128
201.781	8053
201.850	9237
201.918	7222
201.986	6604
202.055	6333
202.123	6016
202.191	6712
202.259	6437
202.327	7373
202.396	6633
202.464	7538
202.532	10002
202.600	24573
202.669	14139
202.737	8178
202.805	7246
202.873	7068
202.941	7359
203.009	6762
203.078	6310
203.146	7341
203.214	6960
203.282	6982
203.350	6704
203.418	8456
203.487	6621
203.555	6872
203.623	6682
203.691	6982
203.759	6230
203.827	7001
203.895	7761
203.963	7891
204.031	7641
204.099	8632
204.168	7185
204.236	8478
204.304	8617
204.372	8751
204.440	8125
204.508	7714
204.576	6968
204.644	7898
204.712	6100
204.780	7066
204.848	8031
204.916	7796
204.984	7767
205.052	8486
205.120	7922
205.188	8445
205.256	8170
205.324	8493
205.392	8111
205.460	10565
205.528	10292
205.596	9407
205.664	8700
205.732	11449
205.799	28137
205.867	41734
205.935	15849
206.003	11379
206.071	9421
206.139	11303
206.207	9912
206.275	8362
206.343	9151
206.411	8214
206.478	8449
206.546	9719
206.614	9520
206.682	9476
206.750	9386
206.818	12769
206.885	11594
206.953	9091
207.021	8971
207.089	8718
207.157	8755
207.225	10321
207.292	9078
207.360	9928
207.428	10398
207.496	10164
207.563	8539
207.631	9224
207.699	8223
207.767	9651
207.834	9106
207.902	10904
207.970	10607
208.038	9680
208.105	10394
208.173	12235
208.241	15047
208.309	13917
208.376	13868
208.444	21585
208.512	15102
208.579	10170
208.647	12758
208.715	13258
208.782	10852
208.850	10727
208.918	12335
208.985	15300
209.053	12503
209.120	11884
209.188	10235
209.256	11050
209.323	11424
209.391	14313
209.459	11958
209.526	11022
209.594	11240
209.661	10952
209.729	11581
209.796	12139
209.864	12315
209.932	12256
209.999	11657
210.067	13806
210.134	12473
210.202	13362
210.269	15852
210.337	17065
210.404	12731
210.472	12322
210.539	10932
210.607	13053
210.674	15159
210.742	12091
210.809	12310
210.877	14456
210.944	15212
211.012	13862
211.079	13621
211.146	13392
211.214	13823
211.281	19795
211.349	17631
211.416	15245
211.484	14366
211.551	14579
211.618	13727
211.686	13701
211.753	12328
211.821	14250
211.888	13155
211.955	14866
212.023	14513
212.090	15834
212.157	16315
212.225	18875
212.292	33333
212.359	64783
212.427	125021
212.494	63092
212.561	28565
212.629	22482
212.696	18849
212.763	18234
212.831	16631
212.898	15850
212.965	13629
213.032	14816
213.100	16596
213.167	16585
213.234	16047
213.301	14683
213.369	14694
213.436	14186
213.503	14363
213.570	15441
213.638	16691
213.705	13406
213.772	13897
213.839	18332
213.906	17790
213.973	17719
214.041	15326
214.108	15583
214.175	15563
214.242	15835
214.309	15161
214.376	17337
214.444	16431
214.511	17263
214.578	16220
214.645	17712
214.712	16903
214.779	18047
214.846	17091
214.913	18373
214.980	18494
215.048	19297
215.115	20795
215.182	20651
215.249	17562
215.316	17677
215.383	14886
215.450	16458
215.517	14954
215.584	15417
215.651	15828
215.718	15221
215.785	18472
215.852	17856
215.919	18390
215.986	18298
216.053	15709
216.120	16049
216.187	18030
216.254	18561
216.321	16961
216.388	19658
216.455	19627
216.522	19506
216.589	23032
216.656	34101
216.722	32235
216.789	23410
216.856	22397
216.923	21200
216.990	22073
217.057	21887
217.124	25380
217.191	24581
217.258	25117
217.324	27960
217.391	25323
217.458	23382
217.525	21429
217.592	21515
217.659	19714
217.725	22562
217.792	29040
217.859	25604
217.926	18624
217.993	16251
218.059	16582
218.126	16560
218.193	15989
218.260	15386
218.327	14162
218.393	16541
218.460	15877
218.527	15590
218.594	17616
218.660	29000
218.727	26746
218.794	16880
218.860	15980
218.927	14737
218.994	14395
219.061	16040
219.127	18962
219.194	26393
219.261	16181
219.327	13592
219.394	14158
219.461	14393
219.527	13308
219.594	22450
219.661	17818
219.727	14144
219.794	16316
219.860	16210
219.927	18369
219.994	26652
220.060	38009
220.127	30199
220.193	25844
220.260	26730
220.326	33020
220.393	38927
220.460	40781
220.526	33668
220.593	29627
220.659	31886
220.726	35343
220.792	70852
220.859	58075
220.925	59984
220.992	63320
221.058	80256
221.125	84437
221.191	66290
221.258	34224
221.324	26168
221.391	24959
221.457	21648
221.524	23067
221.590	32094
221.657	87366
221.723	59287
221.789	55105
221.856	44769
221.922	29779
221.989	22930
222.055	21274
222.121	19841
222.188	22459
222.254	22409
222.321	18465
222.387	16133
222.453	15712
222.520	15473
222.586	14461
222.652	15230
222.719	14456
222.785	15669
222.851	14223
222.918	14840
222.984	15565
223.050	15583
223.116	14328
223.183	15260
223.249	13105
223.315	13377
223.382	14080
223.448	13453
223.514	12079
223.580	13146
223.647	12769
223.713	13343
223.779	14198
223.845	13392
223.911	13871
223.978	13178
224.044	13666
224.110	13928
224.176	13137
224.242	13276
224.309	13183
224.375	13002
224.441	12488
224.507	12640
224.573	13122
224.639	13005
224.705	11310
224.772	12963
224.838	13682
224.904	15620
224.970	13572
225.036	13808
225.102	15738
225.168	15188
225.234	14256
225.300	15495
225.366	12728
225.432	14298
225.499	14836
225.565	17067
225.631	18501
225.697	19574
225.763	20415
225.829	23217
225.895	24830
225.961	35075
226.027	33562
226.093	31855
226.159	39238
226.225	56757
226.291	92163
226.357	107746
226.423	72735
226.489	51902
226.554	41058
226.620	39788
226.686	49222
226.752	71185
226.818	101614
226.884	141068
226.950	118611
227.016	71753
227.082	49971
227.148	39628
227.214	36580
227.279	31540
227.345	26980
227.411	28770
227.477	30931
227.543	51363
227.609	53111
227.674	34451
227.740	27246
227.806	25444
227.872	22684
227.938	22673
228.003	28762
228.069	20103
228.135	18578
228.201	18293
228.267	18420
228.332	22362
228.398	26190
228.464	19635
228.530	15847
228.595	15947
228.661	17375
228.727	27657
228.792	22654
228.858	18586
228.924	19551
228.990	22339
229.055	22225
229.121	23614
229.187	16459
229.252	19987
229.318	15025
229.384	17865
229.449	19930
229.515	14673
229.581	12919
229.646	15749
229.712	19077
229.777	38220
229.843	37617
229.909	29351
229.974	29605
230.040	28953
230.105	25090
230.171	29308
230.236	33831
230.302	43529
230.368	36526
230.433	27691
230.499	24903
230.564	24663
230.630	21150
230.695	20954
230.761	19457
230.826	19238
230.892	27181
230.957	20474
231.023	17988
231.088	20301
231.154	19480
231.219	21145
231.284	27004
231.350	27174
231.415	20011
231.481	18170
231.546	16761
231.612	17761
231.677	16010
231.742	16329
231.808	18548
231.873	17352
231.939	16842
232.004	29299
232.069	26611
232.135	22265
232.200	20302
232.265	17204
232.331	15673
232.396	15317
232.461	14524
232.527	15970
232.592	16788
232.657	18119
232.723	31693
232.788	23692
232.853	16934
232.918	16230
232.984	16571
233.049	17410
233.114	29428
233.179	28816
233.245	40211
233.310	44542
233.375	19595
233.440	18599
233.506	19255
233.571	18395
233.636	15819
233.701	17665
233.766	34056
233.832	37477
233.897	20962
233.962	20979
234.027	22939
234.092	22103
234.157	20887
234.222	24910
234.288	35781
234.353	88715
234.418	74065
234.483	44324
234.548	35858
234.613	30431
234.678	29487
234.743	35854
234.808	90883
234.873	59444
234.938	30735
235.004	27298
235.069	26658
235.134	24788
235.199	24083
235.264	22658
235.329	21877
235.394	23711
235.459	29838
235.524	28385
235.589	23932
235.654	21825
235.719	20884
235.784	21980
235.849	28753
235.913	51625
235.978	56977
236.043	58856
236.108	30037
236.173	31304
236.238	30076
236.303	26523
236.368	28259
236.433	43245
236.498	67062
236.563	54481
236.627	100093
236.692	212650
236.757	187445
236.822	101732
236.887	78328
236.952	62040
237.017	56707
237.081	58131
237.146	77717
237.211	137876
237.276	228326
237.341	295707
237.405	193777
237.470	100095
237.535	73088
237.600	51895
237.664	43370
237.729	39206
237.794	47541
237.859	72599
237.923	61569
237.988	39868
238.053	50338
238.118	52836
238.182	129970
238.247	97923
238.312	58746
238.376	41885
238.441	38831
238.506	32049
238.570	23165
238.635	24711
238.700	23705
238.764	25928
238.829	59915
238.893	64581
238.958	35541
239.023	35534
239.087	26563
239.152	29528
239.216	24728
239.281	24605
239.346	23185
239.410	25247
239.475	34187
239.539	117547
239.604	86560
239.668	34703
239.733	30848
239.797	50231
239.862	100188
239.926	110169
239.991	47390
240.055	30870
240.120	27598
240.184	26239
240.249	24234
240.313	23662
240.378	27007
240.442	72837
240.507	100260
240.571	38051
240.635	58834
240.700	63934
240.764	30509
240.829	24419
240.893	20328
240.957	24690
241.022	68123
241.086	101900
241.151	51819
241.215	27321
241.279	36457
241.344	60261
241.408	36447
241.472	32394
241.537	32829
241.601	30809
241.665	28888
241.730	29906
241.794	30864
241.858	29383
241.922	29306
241.987	29410
242.051	27011
242.115	27986
242.179	26596
242.244	26599
242.308	27836
242.372	32183
242.436	37904
242.501	30664
242.565	26215
242.629	25450
242.693	25201
242.757	24518
242.822	27566
242.886	28833
242.950	29116
243.014	32928
243.078	32648
243.142	33765
243.206	33157
243.271	37507
243.335	41318
243.399	64144
243.463	204018
243.527	356704
243.591	122812
243.655	60440
243.719	43056
243.783	44677
243.847	65817
243.911	78236
243.975	87272
244.040	57298
244.104	35673
244.168	31585
244.232	48796
244.296	61562
244.360	65228
244.424	42166
244.488	36039
244.552	34329
244.615	27615
244.679	26825
244.743	35999
244.807	33277
244.871	24379
244.935	25412
244.999	24194
245.063	26602
245.127	29828
245.191	51581
245.255	45555
245.319	38678
245.383	34685
245.446	29369
245.510	25435
245.574	27215
245.638	26868
245.702	31649
245.766	60071
245.829	38494
245.893	37419
245.957	31391
246.021	34091
246.085	35412
246.149	43996
246.212	89856
246.276	117172
246.340	57005
246.404	44721
246.467	48201
246.531	66094
246.595	42311
246.659	39425
246.722	40426
246.786	45102
246.850	48466
246.913	56123
246.977	33582
247.041	34509
247.104	38690
247.168	37972
247.232	86174
247.295	158502
247.359	73588
247.423	44831
247.486	69217
247.550	43863
247.614	40141
247.677	46994
247.741	33895
247.804	33589
247.868	44801
247.932	85993
247.995	142804
248.059	60224
248.122	40648
248.186	51417
248.249	95855
248.313	256901
248.376	239054
248.440	157819
248.503	68795
248.567	58566
248.630	85071
248.694	105642
248.757	141058
248.821	262313
248.884	150291
248.948	159975
249.011	210246
249.075	304507
249.138	240514
249.202	104318
249.265	79633
249.328	103440
249.392	74881
249.455	57755
249.519	50903
249.582	62703
249.645	102229
249.709	93355
249.772	106601
249.835	70460
249.899	67932
249.962	53434
250.025	53098
250.089	115595
250.152	125512
250.215	70366
250.279	59951
250.342	61343
250.405	59371
250.468	58536
250.532	76659
250.595	127406
250.658	403474
250.721	525932
250.785	214475
250.848	115320
250.911	81321
250.974	75060
251.038	104992
251.101	164624
251.164	101406
251.227	102225
251.290	97983
251.354	169165
251.417	513910
251.480	477239
251.543	420612
251.606	802364
251.669	623046
251.732	296435
251.795	277199
251.859	291065
251.922	558410
251.985	317025
252.048	139542
252.111	111505
252.174	110951
252.237	181066
252.300	325327
252.363	396181
252.426	619030
252.489	291765
252.552	163944
252.615	124093
252.678	133895
252.741	269293
252.804	384567
252.867	681118
252.930	408405
252.993	215824
253.056	135301
253.119	102975
253.182	90643
253.245	147437
253.308	110219
253.371	104408
253.434	90817
253.497	85447
253.559	144276
253.622	103866
253.685	137660
253.748	115480
253.811	71460
253.874	98324
253.937	89633
254.000	67113
254.062	119566
254.125	151311
254.188	137270
254.251	108821
254.314	69286
254.376	118661
254.439	110929
254.502	94028
254.565	122225
254.628	172004
254.690	102836
254.753	61535
254.816	57988
254.878	69714
254.941	125318
255.004	108247
255.067	59921
255.129	55702
255.192	37906
255.255	36990
255.317	42879
255.380	31409
255.443	29242
255.505	29786
255.568	30487
255.631	30509
255.693	33287
255.756	28643
255.819	28516
255.881	27180
255.944	27192
256.006	29175
256.069	29932
256.132	28664
256.194	43782
256.257	101084
256.319	74315
256.382	70557
256.444	44635
256.507	39362
256.569	38557
256.632	44603
256.694	77587
256.757	162759
256.819	354048
256.882	170161
256.944	81414
257.007	63463
257.069	67909
257.132	47314
257.194	41695
257.257	42491
257.319	46787
257.381	60563
257.444	139968
257.506	409476
257.569	422455
257.631	216502
257.693	123849
257.756	76475
257.818	70063
257.880	47395
257.943	42950
258.005	38792
258.067	36687
258.130	35642
258.192	44797
258.254	79344
258.317	51913
258.379	40975
258.441	90796
258.503	75338
258.566	121184
258.628	125496
258.690	44639
258.753	47232
258.815	70259
258.877	49689
258.939	37956
259.001	35462
259.064	35979
259.126	48014
259.188	58097
259.250	45052
259.312	54065
259.375	94831
259.437	62682
259.499	37790
259.561	36323
259.623	36743
259.685	35805
259.747	42308
259.809	120366
259.872	183427
259.934	295515
259.996	205582
260.058	66031
260.120	44304
260.182	37165
260.244	33898
260.306	31572
260.368	32859
260.430	32884
260.492	57774
260.554	85675
260.616	72687
260.678	154031
260.740	172254
260.802	54838
260.864	44165
260.926	41388
260.988	38931
261.050	43127
261.112	82203
261.174	190963
261.236	136352
261.298	56881
261.359	99688
261.421	115480
261.483	46199
261.545	40109
261.607	30659
261.669	34340
261.731	69956
261.793	127484
261.854	59584
261.916	42664
261.978	37637
262.040	41019
262.102	36029
262.164	60097
262.225	44294
262.287	35374
262.349	79627
262.411	53590
262.472	35441
262.534	73756
262.596	117289
262.658	44330
262.719	34019
262.781	49776
262.843	118158
262.904	53959
262.966	49147
263.028	72075
263.090	294291
263.151	531757
263.213	171552
263.275	89208
263.336	49783
263.398	40695
263.459	33707
263.521	36404
263.583	70481
263.644	45363
263.706	26612
263.767	24116
263.829	22879
263.891	22431
263.952	21157
264.014	22573
264.075	39469
264.137	62879
264.198	36786
264.260	24092
264.321	25889
264.383	64219
264.444	94050
264.506	36614
264.567	31927
264.629	55365
264.690	77562
264.752	40613
264.813	30851
264.875	26613
264.936	25734
264.998	24648
265.059	26810
265.120	32903
265.182	58036
265.243	204347
265.305	179125
265.366	58352
265.427	36842
265.489	33128
265.550	28163
265.611	35167
265.673	31330
265.734	26887
265.795	24296
265.857	27811
265.918	36312
265.979	80231
266.040	310006
266.102	241164
266.163	84212
266.224	61273
266.286	39991
266.347	33997
266.408	32405
266.469	37289
266.530	29066
266.592	27819
266.653	53996
266.714	71184
266.775	29663
266.836	24421
266.898	24983
266.959	37431
267.020	27014
267.081	24550
267.142	23273
267.203	24109
267.264	23177
267.326	27021
267.387	23453
267.448	22092
267.509	24809
267.570	23007
267.631	22631
267.692	24343
267.753	26772
267.814	27188
267.875	54901
267.936	89388
267.997	55585
268.058	48128
268.119	33552
268.180	31237
268.241	26557
268.302	25246
268.363	23165
268.424	26523
268.485	29688
268.546	22909
268.607	19557
268.668	21304
268.729	20770
268.790	24405
268.851	28136
268.912	64072
268.972	63035
269.033	37430
269.094	24697
269.155	22201
269.216	23228
269.277	30094
269.338	24377
269.398	25699
269.459	30530
269.520	37814
269.581	44831
269.642	46380
269.702	39322
269.763	32396
269.824	29948
269.885	38814
269.945	45760
270.006	27884
270.067	23403
270.128	23692
270.188	23564
270.249	25012
270.310	20312
270.370	25854
270.431	26811
270.492	22970
270.553	27860
270.613	53481
270.674	81684
270.734	39851
270.795	29506
270.856	41807
270.916	31780
270.977	26880
271.038	31302
271.098	32239
271.159	51884
271.219	44664
271.280	27008
271.340	24976
271.401	36769
271.462	73042
271.522	40440
271.583	29275
271.643	31904
271.704	29686
271.764	39363
271.825	86214
271.885	236082
271.946	257956
272.006	99562
272.066	153191
272.127	202131
272.187	74875
272.248	51929
272.308	60212
272.369	148327
272.429	75909
272.489	72046
272.550	64020
272.610	71591
272.671	52658
272.731	61661
272.791	88462
272.852	49140
272.912	44046
272.972	30222
273.033	32368
273.093	50666
273.153	42096
273.214	33626
273.274	42795
273.334	123480
273.394	185991
273.455	81941
273.515	92225
273.575	166600
273.635	74611
273.696	120498
273.756	188812
273.816	76300
273.876	55893
273.936	134592
273.997	182386
274.057	58399
274.117	52283
274.177	80524
274.237	255219
274.297	193850
274.358	165036
274.418	162172
274.478	110334
274.538	56130
274.598	62659
274.658	183146
274.718	204413
274.778	79490
274.838	55687
274.898	125305
274.958	294934
275.018	224099
275.078	121286
275.138	61709
275.198	43177
275.258	37998
275.318	51612
275.378	77444
275.438	68627
275.498	56212
275.558	153918
275.618	249685
275.678	131772
275.738	93671
275.798	66096
275.858	40186
275.918	32863
275.978	38682
276.038	34819
276.098	32517
276.157	68947
276.217	134368
276.277	63942
276.337	49722
276.397	34215
276.457	40349
276.517	30578
276.576	26856
276.636	30839
276.696	49265
276.756	99995
276.815	63870
276.875	38490
276.935	46912
276.995	37334
277.055	30097
277.114	32341
277.174	49014
277.234	102874
277.293	48114
277.353	34765
277.413	27786
277.472	32783
277.532	33691
277.592	39663
277.651	118069
277.711	156237
277.771	75803
277.830	217456
277.890	144779
277.950	152902
278.009	316025
278.069	119667
278.128	142791
278.188	159139
278.248	91191
278.307	204692
278.367	106645
278.426	51661
278.486	39832
278.545	34193
278.605	32507
278.664	33295
278.724	40656
278.783	98033
278.843	177048
278.902	61313
278.962	48154
279.021	54608
279.081	93806
279.140	85061
279.199	61190
279.259	54683
279.318	56249
279.378	79428
279.437	153941
279.496	434990
279.556	1062714
279.615	747351
279.675	244242
279.734	163196
279.793	251474
279.853	299354
279.912	114808
279.971	77431
280.031	70093
280.090	123270
280.149	172469
280.208	209515
280.268	761117
280.327	645982
280.386	185979
280.445	141069
280.505	111796
280.564	68995
280.623	60058
280.682	83100
280.742	91284
280.801	42027
280.860	35524
280.919	33464
280.978	30792
281.037	30656
281.097	28239
281.156	30488
281.215	30584
281.274	42571
281.333	128129
281.392	79582
281.451	32800
281.510	29382
281.569	28819
281.628	27373
281.688	26248
281.747	28816
281.806	27712
281.865	24108
281.924	24469
281.983	23698
282.042	20803
282.101	20909
282.160	21504
282.219	23210
282.278	29857
282.337	73964
282.396	43953
282.454	29968
282.513	39620
282.572	103224
282.631	52281
282.690	28856
282.749	26003
282.808	31225
282.867	31287
282.926	29601
282.985	22632
283.043	21723
283.102	24339
283.161	32998
283.220	67253
283.279	104846
283.338	42633
283.396	30788
283.455	29432
283.514	35251
283.573	47528
283.631	35876
283.690	27735
283.749	30455
283.808	57556
283.866	52795
283.925	30867
283.984	30296
284.043	41209
284.101	39576
284.160	31149
284.219	35940
284.277	38427
284.336	61218
284.395	145222
284.453	101520
284.512	52996
284.570	69303
284.629	56059
284.688	55731
284.746	58796
284.805	67524
284.863	83662
284.922	103802
284.981	134044
285.039	201545
285.098	346098
285.156	664000
285.215	962502
285.273	953966
285.332	609608
285.390	361259
285.449	234721
285.507	169249
285.566	131785
285.624	102993
285.683	81276
285.741	69357
285.799	59292
285.858	56249
285.916	50151
285.975	40877
286.033	38263
286.091	33987
286.150	32395
286.208	34200
286.267	36782
286.325	37541
286.383	51204
286.442	41826
286.500	30179
286.558	28022
286.616	26820
286.675	36129
286.733	31753
286.791	31785
286.850	35008
286.908	44540
286.966	57477
287.024	32148
287.083	27547
287.141	24801
287.199	29852
287.257	38805
287.315	32218
287.374	40282
287.432	70490
287.490	44465
287.548	36109
287.606	30968
287.664	32412
287.723	42936
287.781	44790
287.839	38950
287.897	45848
287.955	64836
288.013	108643
288.071	242471
288.129	732131
288.187	1337233
288.245	685468
288.303	271338
288.361	158493
288.419	118016
288.477	85346
288.535	66778
288.593	52599
288.651	43084
288.709	36019
288.767	33267
288.825	30543
288.883	27036
288.941	27021
288.999	26291
289.057	23716
289.115	23396
289.173	23348
289.231	23798
289.289	25211
289.346	24473
289.404	29807
289.462	44856
289.520	39577
289.578	24667
289.636	19896
289.694	20830
289.751	19956
289.809	20003
289.867	21907
289.925	27654
289.983	29315
290.040	21270
290.098	20181
290.156	25873
290.214	26250
290.271	21292
290.329	19904
290.387	19273
290.444	18029
290.502	16180
290.560	16837
290.617	18233
290.675	19149
290.733	19969
290.790	21044
290.848	18400
290.906	21600
290.963	20943
291.021	20267
291.078	20481
291.136	25193
291.194	60940
291.251	89476
291.309	31751
291.366	20927
291.424	20172
291.481	20814
291.539	22923
291.596	20799
291.654	17359
291.711	16973
291.769	24044
291.826	41972
291.884	26932
291.941	17765
291.999	19256
292.056	23179
292.114	23955
292.171	19261
292.228	24007
292.286	26861
292.343	43389
292.401	47046
292.458	31805
292.515	25437
292.573	28790
292.630	28639
292.687	30548
292.745	26507
292.802	35008
292.859	67659
292.917	112079
292.974	61166
293.031	29265
293.089	23573
293.146	20743
293.203	21229
293.260	20008
293.318	27097
293.375	28332
293.432	20691
293.489	21350
293.546	24912
293.604	41014
293.661	104635
293.718	186222
293.775	83292
293.832	47606
293.889	39650
293.947	43457
294.004	32605
294.061	36085
294.118	64391
294.175	102450
294.232	95030
294.289	46658
294.346	38766
294.403	38757
294.460	34160
294.517	28175
294.574	25118
294.631	25675
294.688	34865
294.745	78525
294.802	205298
294.859	166397
294.916	74145
294.973	50466
295.030	40350
295.087	35345
295.144	29880
295.201	27095
295.258	26129
295.315	38251
295.372	93304
295.429	139863
295.486	64209
295.542	46443
295.599	87104
295.656	112289
295.713	96596
295.770	121661
295.827	50941
295.883	34613
295.940	34076
295.997	51299
296.054	45065
296.111	28506
296.167	22364
296.224	20426
296.281	21395
296.338	20372
296.394	23998
296.451	32987
296.508	75084
296.564	111073
296.621	88659
296.678	190698
296.734	220314
296.791	84883
296.848	53035
296.904	60654
296.961	109877
297.018	154027
297.074	103058
297.131	50553
297.187	45261
297.244	65552
297.301	178932
297.357	248662
297.414	90567
297.470	45109
297.527	34377
297.583	31260
297.640	31906
297.696	27096
297.753	22484
297.809	20847
297.866	19430
297.922	20884
297.979	21369
298.035	27686
298.092	42073
298.148	96860
298.204	79832
298.261	53618
298.317	91990
298.374	197028
298.430	109508
298.486	66096
298.543	54289
298.599	51365
298.656	60079
298.712	90723
298.768	191173
298.824	128139
298.881	51795
298.937	35701
298.993	32562
299.050	38903
299.106	33810
299.162	30646
299.218	30514
299.275	28204
299.331	36653
299.387	67501
299.443	190432
299.500	181385
299.556	80202
299.612	47242
299.668	47664
299.724	68146
299.780	63839
299.837	45233
299.893	63183
299.949	168356
300.005	174302
300.061	160196
300.117	233026
300.173	112494
300.229	63587
300.285	74588
300.341	73487
300.397	43420
300.453	33111
300.510	32746
300.566	37575
300.622	52967
300.678	131194
300.734	182146
300.790	150697
300.845	171444
300.901	124683
300.957	166738
301.013	109483
301.069	51263
301.125	43117
301.181	42723
301.237	34235
301.293	26899
301.349	26598
301.405	26502
301.461	29957
301.516	37450
301.572	36819
301.628	52497
301.684	47181
301.740	73815
301.796	98619
301.851	74378
301.907	119912
301.963	126059
302.019	214052
302.074	481210
302.130	433591
302.186	197285
302.242	92011
302.297	66276
302.353	67623
302.409	109182
302.464	92702
302.520	87772
302.576	179425
302.631	179961
302.687	100626
302.743	49186
302.798	36561
302.854	31846
302.910	33569
302.965	41984
303.021	66086
303.076	61271
303.132	76591
303.187	79636
303.243	44894
303.299	31038
303.354	27642
303.410	26915
303.465	24085
303.521	25147
303.576	27798
303.632	36285
303.687	65586
303.743	156531
303.798	117979
303.853	53653
303.909	35108
303.964	34511
304.020	49730
304.075	68702
304.130	63083
304.186	101797
304.241	97150
304.297	76694
304.352	45829
304.358	44476
304.407	33506
304.449	32921
304.463	32742
304.518	33408
304.539	32678
304.573	31549
304.629	36200
304.630	36577
304.684	55657
304.720	104077
304.739	128203
304.794	167233
304.811	142562
304.850	82241
304.902	45897
304.905	43698
304.960	34353
304.992	36407
305.015	37843
305.071	36713
305.083	34888
305.126	28026
305.173	23364
305.181	22697
305.236	21017
305.264	22986
305.292	25145
305.347	31797
305.354	32007
305.402	33472
305.445	36559
305.457	37376
305.512	44328
305.535	43988
305.567	43493
305.622	48615
305.626	50043
305.678	86601
305.716	158441
305.733	183021
305.788	182446
305.807	160988
305.843	125092
305.897	163925
305.898	164303
305.953	149588
305.988	103348
306.008	78345
306.063	51642
306.078	46600
306.118	36602
306.168	29081
306.173	28508
306.228	25124
306.259	23924
306.283	23415
306.338	23223
306.349	23786
306.393	27121
306.440	33506
306.448	34298
306.503	33107
306.530	34650
306.558	43393
306.613	81939
306.620	86887
306.668	121122
306.711	162483
306.723	165570
306.778	122556
306.801	95546
306.833	65329
306.888	36663
306.892	35369
306.943	28686
306.982	26284
306.997	25861
307.052	26061
307.072	26021
307.107	27986
307.162	34991
307.163	35075
307.217	46388
307.253	54031
307.272	55072
307.327	55962
307.343	53486
307.381	48757
307.434	49098
307.436	50558
307.491	94049
307.524	131858
307.546	140901
307.600	139306
307.614	127521
307.655	83129
307.704	50195
307.710	49729
307.765	57743
307.795	68050
307.819	80067
307.874	112577
307.885	114796
307.929	101366
307.975	91792
307.984	97070
308.038	149496
308.065	189352
308.093	303149
308.148	585649
308.156	638157
308.202	908586
308.246	1072155
308.257	1032149
308.312	613645
308.336	443807
308.366	344014
308.421	208960
308.426	197385
308.475	135292
308.517	97763
308.530	92243
308.585	79568
308.607	75361
308.639	74688
308.694	77844
308.697	78367
308.748	116952
308.787	154794
308.803	153770
308.857	126441
308.877	115393
308.912	109683
308.967	112275
308.967	112351
309.021	157912
309.058	197708
309.076	249548
309.130	432891
309.148	503162
309.185	806418
309.238	1287720
309.239	1292420
309.293	1382984
309.328	1336688
309.348	1168490
309.402	633471
309.418	492286
309.457	361233
309.508	224412
309.511	221219
309.566	188097
309.598	172891
309.620	180164
309.674	206286
309.688	213644
309.729	208548
309.778	192812
309.783	189956
309.837	154998
309.868	136756
309.892	157292
309.946	215312
309.959	232583
310.001	283196
310.049	323460
310.055	312184
310.109	186797
310.139	118731
310.163	97478
310.218	62731
310.229	56532
310.272	47818
310.319	40016
310.326	39441
310.381	36366
310.409	34967
310.435	33514
310.489	30583
310.499	30196
310.543	31024
310.589	32139
310.598	32045
310.652	31567
310.679	30896
310.706	27996
310.760	22504
310.769	21675
310.814	20510
310.859	19672
310.868	19769
310.923	20116
310.948	20580
310.977	23110
311.031	27950
311.038	28612
311.085	27253
311.128	25458
311.139	25183
311.193	23934
311.218	23309
311.247	21910
311.301	19363
311.308	19053
311.356	19713
311.398	20435
311.410	20104
311.464	18365
311.488	17628
311.518	19085
311.572	21634
311.578	21968
311.626	29217
311.668	35466
311.680	35001
311.734	32215
311.758	31003
311.788	30842
311.842	30573
311.847	30513
311.896	38103
311.937	44767
311.950	44545
312.004	43065
312.027	42306
312.058	36325
312.112	25591
312.117	24488
312.165	23260
312.207	22182
312.297	29940
312.386	23620
312.476	29057
312.566	59001
312.656	30576
312.745	18141
312.835	20917
312.925	25109
313.015	24534
313.104	25736
313.194	21588
313.284	22941
313.374	30823
313.463	28498
313.553	20656
313.643	19757
313.732	17594
313.822	18515
313.912	21525
314.001	26435
314.091	26983
314.180	35265
314.270	35435
314.360	39080
314.449	35092
314.539	22937
314.628	20873
314.718	24792
314.808	31257
314.897	21587
314.987	22872
315.076	32221
315.166	39912
315.255	35335
315.345	37352
315.434	37664
315.524	34976
315.613	46188
315.703	65161
315.792	119897
315.881	392633
315.971	176779
316.060	81675
316.150	89462
316.239	87803
316.328	39871
316.418	26624
316.507	27672
316.597	37510
316.686	36244
316.775	48065
316.865	90168
316.954	29013
317.043	21400
317.133	26386
317.222	23993
317.311	24102
317.400	27996
317.490	39494
317.579	50510
317.668	47412
317.757	81449
317.847	208402
317.936	718328
318.025	301551
318.114	148337
318.203	90613
318.293	76712
318.382	126391
318.471	101157
318.560	127918
318.649	188484
318.738	54894
318.828	43734
318.917	49344
319.006	53457
319.095	127077
319.184	254620
319.273	164629
319.362	96384
319.451	41724
319.540	39994
319.629	88861
319.718	131377
319.807	62361
319.896	118334
319.985	317623
320.074	136483
320.163	44532
320.252	63917
320.341	49597
320.430	45512
320.519	67839
320.608	43279
320.697	33982
320.786	35786
320.875	48775
320.964	68517
321.053	104914
321.142	146144
321.230	151477
321.319	117459
321.408	225867
321.497	100481
321.586	96098
321.675	103699
321.764	102330
321.852	77937
321.941	137809
322.030	100482
322.119	113123
322.207	238642
322.296	146623
322.385	84316
322.474	117343
322.562	295530
322.651	152067
322.740	117459
322.829	149335
322.917	132265
323.006	92905
323.095	77875
323.183	61723
323.272	95881
323.361	154898
323.449	376924
323.538	146670
323.626	252772
323.715	167746
323.804	78315
323.892	232029
323.981	146822
324.069	51887
324.158	121979
324.246	119688
324.335	57691
324.424	85868
324.512	37257
324.601	50358
324.689	106300
324.778	179886
324.866	105852
324.954	37989
325.043	36352
325.131	63047
325.220	94324
325.308	109950
325.397	84329
325.485	56484
325.574	23840
325.662	23549
325.750	29323
325.839	23238
325.927	21742
326.015	31625
326.104	48350
326.192	67199
326.280	25510
326.369	24808
326.457	40589
326.545	69824
326.634	33872
326.722	19680
326.810	23006
326.898	20278
326.987	28220
327.075	68818
327.163	66003
327.251	39211
327.340	66578
327.428	88175
327.516	26498
327.604	26447
327.692	26481
327.781	29785
327.869	48391
327.957	36153
328.045	37064
328.133	20838
328.221	27609
328.309	26029
328.397	22552
328.485	34189
328.574	54750
328.662	158234
328.750	92852
328.838	38015
328.926	23520
329.014	22329
329.102	36781
329.190	77346
329.278	56548
329.366	21351
329.454	21583
329.542	21208
329.630	22662
329.718	25752
329.806	37182
329.893	41187
329.981	58543
330.069	130170
330.157	447290
330.245	930616
330.333	492896
330.421	112351
330.509	82679
330.597	202527
330.684	132219
330.772	47410
330.860	49536
330.948	55154
331.036	32584
331.123	19567
331.211	20221
331.299	27055
331.387	56667
331.475	83295
331.562	32891
331.650	20248
331.738	23534
331.825	29182
331.913	19391
332.001	18583
332.089	27803
332.176	52358
332.264	114152
332.352	94944
332.439	34587
332.527	25606
332.614	22984
332.702	28234
332.790	25583
332.877	62414
332.965	109422
333.052	43026
333.140	44747
333.228	89432
333.315	36698
333.403	31193
333.490	68654
333.578	73686
333.665	105235
333.753	67248
333.840	29731
333.928	35726
334.015	79093
334.103	137644
334.190	333157
334.278	101294
334.365	49003
334.452	39409
334.540	34208
334.627	43224
334.715	60275
334.802	116611
334.889	454696
334.977	451016
335.064	74371
335.151	44639
335.239	39436
335.326	54699
335.413	178702
335.501	203519
335.588	48676
335.675	37881
335.762	47797
335.850	67138
335.937	70785
336.024	149104
336.111	448365
336.199	195548
336.286	55353
336.373	34975
336.460	27260
336.547	26722
336.635	32706
336.722	32336
336.809	27650
336.896	45892
336.983	121950
337.070	250366
337.157	324344
337.245	274781
337.332	199049
337.419	35982
337.506	24405
337.593	29632
337.680	90782
337.767	188189
337.854	74590
337.941	76762
338.028	99297
338.115	45302
338.202	43803
338.289	86723
338.376	267668
338.463	100614
338.550	134255
338.637	120769
338.724	55504
338.811	78563
338.898	24922
338.984	20641
339.071	25712
339.158	36970
339.245	90037
339.332	55901
339.419	60692
339.506	56236
339.593	18820
339.679	20765
339.766	21896
339.853	33697
339.940	67654
340.027	26209
340.113	25761
340.200	37263
340.287	28812
340.374	39612
340.460	63176
340.547	34002
340.634	56136
340.720	186437
340.807	110753
340.894	24146
340.980	24591
341.067	24431
341.154	26452
341.240	48936
341.327	92484
341.414	34532
341.500	35675
341.587	24116
341.674	23510
341.760	63074
341.847	73019
341.933	27214
342.020	14844
342.106	15448
342.193	29291
342.279	50922
342.366	41717
342.452	64619
342.539	41424
342.625	92362
342.712	201949
342.798	87921
342.885	36990
342.971	16851
343.058	15062
343.144	19738
343.230	18441
343.317	22877
343.403	19907
343.490	15215
343.576	16014
343.662	20508
343.749	26349
343.835	36887
343.921	72102
344.008	367054
344.094	718827
344.180	172251
344.267	76059
344.353	206769
344.439	201250
344.525	98702
344.612	55332
344.698	52950
344.784	36288
344.870	22871
344.957	26307
345.043	37153
345.129	33582
345.215	56558
345.301	38393
345.387	27181
345.474	15625
345.560	18252
345.646	24336
345.732	21916
345.818	28392
345.904	25524
345.990	28604
346.076	27930
346.162	45219
346.249	26585
346.335	21045
346.421	29756
346.507	101745
346.593	276333
346.679	73270
346.765	24042
346.851	26965
346.937	25578
347.023	20047
347.108	28284
347.194	23838
347.280	23286
347.366	35903
347.452	107532
347.538	347747
347.624	253948
347.710	185558
347.796	38157
347.882	23292
347.967	19751
348.053	26241
348.139	22086
348.225	20431
348.311	21670
348.397	18512
348.482	27797
348.568	31450
348.654	20416
348.740	30046
348.825	39103
348.911	52085
348.997	176604
349.083	295360
349.168	57106
349.254	25945
349.340	25331
349.425	19145
349.511	32998
349.597	35830
349.682	75807
349.768	197262
349.854	91714
349.939	20990
350.025	19907
350.110	21148
350.196	19210
350.282	16306
350.367	15545
350.453	33978
350.538	38635
350.624	33585
350.709	27354
350.795	18977
350.880	21783
350.966	23455
351.051	36458
351.137	28359
351.222	26624
351.308	78223
351.393	173636
351.479	52321
351.564	22219
351.649	20860
351.735	18163
351.820	16127
351.906	21556
351.991	34348
352.076	128305
352.162	167295
352.247	41102
352.332	32154
352.418	59044
352.503	78262
352.588	258321
352.673	206048
352.759	56839
352.844	31181
352.929	37064
353.014	45874
353.100	30844
353.185	47795
353.270	80872
353.355	72563
353.441	27683
353.526	33478
353.611	72643
353.696	79680
353.781	47247
353.866	26659
353.952	28955
354.037	75101
354.122	151281
354.207	136853
354.292	56086
354.377	26316
354.462	24910
354.547	33378
354.632	30094
354.717	39220
354.802	50271
354.887	24315
354.972	18292
355.057	16997
355.142	18367
355.227	28847
355.312	52023
355.397	117634
355.482	235509
355.567	124529
355.652	83848
355.737	95466
355.822	250994
355.907	191632
355.991	38983
356.076	25416
356.161	20792
356.246	20737
356.331	27776
356.416	76612
356.501	396367
356.585	395806
356.670	71956
356.755	45415
356.840	76167
356.924	326538
357.009	949063
357.094	369341
357.179	92831
357.263	59635
357.348	57235
357.433	58774
357.517	55619
357.602	44409
357.687	39154
357.771	70890
357.856	189210
357.941	121158
358.025	263157
358.110	929648
358.195	449645
358.279	84528
358.364	66431
358.448	201908
358.533	469851
358.617	345680
358.702	323678
358.787	128490
358.871	76167
358.956	62126
359.040	27758
359.125	23434
359.209	30861
359.294	101259
359.378	148481
359.462	69186
359.547	37567
359.631	26353
359.716	21624
359.800	24618
359.885	33864
359.969	29624
360.053	24188
360.138	26447
360.222	43528
360.306	77395
360.391	63812
360.475	124071
360.559	234571
360.644	205409
360.728	150918
360.812	240282
360.896	582311
360.981	258221
361.065	124836
361.149	43425
361.233	39974
361.318	36005
361.402	37403
361.486	33710
361.570	31779
361.654	43591
361.739	113918
361.823	418944
361.907	574853
361.991	123171
362.075	82059
362.159	165813
362.243	126202
362.327	123395
362.411	110393
362.495	70655
362.580	47918
362.664	40041
362.748	46091
362.832	65623
362.916	117197
363.000	252684
363.084	525562
363.168	697091
363.252	194953
363.336	78196
363.420	92701
363.503	249952
363.587	251881
363.671	70663
363.755	61265
363.839	78299
363.923	54088
364.007	99184
364.091	112466
364.175	159856
364.258	431645
364.342	400507
364.426	374264
364.510	205456
364.594	119617
364.677	150071
364.761	526807
364.845	362167
364.929	140806
365.013	111892
365.096	95302
365.180	110158
365.264	125899
365.347	347879
365.431	145882
365.515	48482
365.598	34024
365.682	29660
365.766	46272
365.849	47723
365.933	38396
366.017	41118
366.100	29948
366.184	21007
366.267	24353
366.351	24043
366.435	22787
366.518	19625
366.602	19642
366.685	23876
366.769	30300
366.852	46113
366.936	78042
367.019	51232
367.103	39240
367.186	48873
367.270	23601
367.353	19677
367.436	22880
367.520	22968
367.603	34151
367.687	55305
367.770	92205
367.853	57372
367.937	154568
368.020	228225
368.104	68026
368.187	69971
368.270	91737
368.353	79082
368.437	103682
368.520	190977
368.603	135730
368.687	198717
368.770	319857
368.853	91194
368.936	80138
369.020	67079
369.103	35174
369.186	25723
369.269	30656
369.352	63265
369.436	80197
369.519	53993
369.602	30598
369.685	28515
369.768	36374
369.851	28202
369.934	23799
370.018	36079
370.101	76509
370.184	54132
370.267	41770
370.350	71850
370.433	113277
370.516	279493
370.599	368065
370.682	161216
370.765	189386
370.848	228994
370.931	396047
371.014	143109
371.097	40094
371.180	28101
371.263	20141
371.346	18263
371.429	21632
371.511	25274
371.594	49910
371.677	67360
371.760	64281
371.843	80005
371.926	359558
372.009	739783
372.091	234492
372.174	169355
372.257	345856
372.340	137999
372.423	101960
372.505	96745
372.588	54624
372.671	143745
372.754	398782
372.836	196255
372.919	125717
373.002	193412
373.085	80655
373.167	76611
373.250	190372
373.332	370825
373.415	533618
373.498	1024324
373.580	411858
373.663	584261
373.746	732695
373.828	183196
373.911	74106
373.993	82881
374.076	214974
374.159	182693
374.241	126062
374.324	344243
374.406	228576
374.489	317149
374.571	781414
374.654	321355
374.736	180067
374.819	500058
374.901	726141
374.983	722324
375.066	143091
375.148	62554
375.231	190202
375.313	298596
375.395	117830
375.478	39951
375.560	32706
375.643	49808
375.725	178888
375.807	637644
375.890	463191
375.972	192047
376.054	111976
376.136	151297
376.219	83226
376.301	200881
376.383	538304
376.465	214201
376.548	155767
376.630	186294
376.712	455805
376.794	208955
376.877	35412
376.959	25009
377.041	30517
377.123	49679
377.205	47429
377.287	21293
377.369	20027
377.452	24928
377.534	23028
377.616	24518
377.698	23794
377.780	21241
377.862	26557
377.944	24238
378.026	17618
378.108	19367
378.190	20344
378.272	18423
378.354	16435
378.436	17862
378.518	40889
378.600	107146
378.682	105325
378.764	241074
378.846	173829
378.928	58473
379.010	77041
379.091	42998
379.173	26107
379.255	26429
379.337	41128
379.419	133467
379.501	327855
379.583	129209
379.664	45016
379.746	107874
379.828	237758
379.910	317932
379.991	260531
380.073	55939
380.155	38765
380.237	30256
380.318	24043
380.400	28187
380.482	65752
380.564	98333
380.645	91668
380.727	81998
380.809	48642
380.890	38223
380.972	30879
381.053	30512
381.135	37137
381.217	96548
381.298	240695
381.380	123725
381.461	122504
381.543	493371
381.624	571374
381.706	119810
381.787	62444
381.869	72067
381.951	237800
382.032	775629
382.113	477763
382.195	122630
382.276	80321
382.358	172954
382.439	418140
382.521	477750
382.602	710924
382.684	370829
382.765	663056
382.846	736830
382.928	862049
383.009	523581
383.090	529670
383.172	1432284
383.253	1734269
383.334	714572
383.416	701182
383.497	386064
383.578	254808
383.659	493911
383.741	1437137
383.822	2641511
383.903	1378161
383.984	603708
384.066	832091
384.147	512879
384.228	134105
384.309	102331
384.390	79081
384.471	61063
384.553	65411
384.634	84402
384.715	84265
384.796	52675
384.877	73145
384.958	230277
385.039	262853
385.120	101414
385.201	54031
385.282	62911
385.363	61885
385.444	65899
385.525	116090
385.606	326585
385.687	263975
385.768	78313
385.849	104351
385.930	380524
386.011	599458
386.092	174478
386.173	56389
386.254	44008
386.335	43093
386.416	54039
386.496	157395
386.577	229744
386.658	88106
386.739	62330
386.820	51333
386.901	44109
386.981	43573
387.062	39070
387.143	80564
387.224	238596
387.304	201566
387.385	81082
387.466	57063
387.547	57981
387.627	51091
387.708	108643
387.789	406416
387.869	466343
387.950	130652
388.031	41740
388.111	43884
388.192	72670
388.273	90602
388.353	67237
388.434	48998
388.514	100335
388.595	374380
388.676	465617
388.756	232144
388.837	228459
388.917	138794
388.998	40659
389.078	36237
389.159	37516
389.239	38322
389.320	52921
389.400	53248
389.480	96574
389.561	231168
389.641	111584
389.722	54710
389.802	80578
389.883	112800
389.963	269068
390.043	165175
390.124	63339
390.204	105093
390.284	283797
390.365	188028
390.445	234481
390.525	708498
390.605	667297
390.686	179804
390.766	59115
390.846	38653
390.927	33682
391.007	37184
391.087	37784
391.167	37115
391.247	33766
391.328	51212
391.408	64192
391.488	46239
391.568	32134
391.648	48851
391.728	62094
391.808	61510
391.888	76425
391.969	146690
392.049	212456
392.129	98304
392.209	126012
392.289	270940
392.369	154615
392.449	117612
392.529	92231
392.609	94045
392.689	125156
392.769	296862
392.849	261173
392.929	220286
393.009	433674
393.089	414717
393.169	536733
393.248	1532048
393.328	3524139
393.408	3565169
393.488	1480553
393.568	491777
393.648	249482
393.728	161061
393.807	118936
393.887	100214
393.967	90680
394.047	100205
394.127	118191
394.206	189943
394.286	570569
394.366	1843233
394.446	1939476
394.525	572718
394.605	177774
394.685	125793
394.764	178420
394.844	257077
394.924	185375
395.003	90221
395.083	69755
395.163	64468
395.242	62875
395.322	62556
395.402	54262
395.481	66395
395.561	142943
395.640	302999
395.720	282059
395.799	338360
395.879	271385
395.958	278924
396.038	830210
396.117	2342519
396.197	2549139
396.276	942846
396.356	346773
396.435	232970
396.515	192450
396.594	244690
396.673	461408
396.753	1483864
396.832	3331618
396.912	2681943
396.991	765194
397.070	247428
397.150	144242
397.229	103447
397.308	128263
397.388	179970
397.467	105334
397.546	58522
397.625	51320
397.705	58936
397.784	60288
397.863	40535
397.942	33533
398.022	38695
398.101	102244
398.180	224586
398.259	110332
398.338	44712
398.417	40846
398.497	31353
398.576	30380
398.655	26701
398.734	24060
398.813	29063
398.892	94760
398.971	245232
399.050	112607
399.129	26531
399.208	20723
399.287	22138
399.366	20758
399.445	21857
399.524	23082
399.603	25128
399.682	47593
399.761	116666
399.840	279025
399.919	184054
399.998	34517
400.077	19765
400.156	19444
400.235	22416
400.313	20832
400.392	34668
400.471	136747
400.550	200248
400.629	61739
400.708	30405
400.786	29790
400.865	59236
400.944	61595
401.023	33164
401.102	15551
401.180	16195
401.259	18712
401.338	21869
401.416	31332
401.495	30631
401.574	20989
401.652	21698
401.731	28057
401.810	26579
401.888	17508
401.967	14638
402.046	18011
402.124	27267
402.203	37121
402.281	22791
402.360	31739
402.438	68311
402.517	48972
402.596	24140
402.674	21196
402.753	17645
402.831	17605
402.910	25143
402.988	86786
403.066	231285
403.145	125645
403.223	87494
403.302	193018
403.380	136885
403.459	128086
403.537	55241
403.615	28068
403.694	17050
403.772	15998
403.850	16466
403.929	16065
404.007	20505
404.085	38240
404.164	44827
404.242	33335
404.320	84366
404.398	228633
404.477	288276
404.555	637419
404.633	536556
404.711	195345
404.789	99209
404.868	38564
404.946	23735
405.024	17153
405.102	16447
405.180	17064
405.258	16606
405.336	16561
405.415	19379
405.493	35827
405.571	31975
405.649	17655
405.727	19376
405.805	28488
405.883	27211
405.961	27180
406.039	28755
406.117	21160
406.195	39878
406.273	165533
406.351	518868
406.429	286625
406.507	51619
406.585	24446
406.663	26561
406.740	35438
406.818	31652
406.896	19921
406.974	23090
407.052	65412
407.130	320006
407.208	413047
407.285	88417
407.363	26228
407.441	25546
407.519	25371
407.596	38233
407.674	139096
407.752	460392
407.830	342521
407.907	79129
407.985	32388
408.063	21137
408.141	17445
408.218	27251
408.296	28810
408.373	26027
408.451	28255
408.529	27851
408.606	16720
408.684	14933
408.762	12574
408.839	13082
408.917	13359
408.994	16286
409.072	18198
409.149	18600
409.227	26862
409.304	31226
409.382	29308
409.459	33316
409.537	41082
409.614	43074
409.692	36738
409.769	37057
409.846	44726
409.924	53502
410.001	51131
410.079	39595
410.156	33046
410.233	32020
410.311	30217
410.388	24205
410.465	26329
410.543	25181
410.620	18520
410.697	24163
410.775	28870
410.852	17838
410.929	25400
411.006	31907
411.083	23658
411.161	45493
411.238	41348
411.315	24399
411.392	18572
411.469	27540
411.547	27366
411.624	19019
411.701	18088
411.778	25732
411.855	53242
411.932	31638
412.009	17910
412.086	17110
412.163	20547
412.240	22865
412.317	27111
412.394	24031
412.471	13413
412.548	14405
412.625	16599
412.702	23980
412.779	38306
412.856	26990
412.933	14449
413.010	16334
413.087	34651
413.164	131125
413.241	165959
413.318	48566
413.395	31598
413.471	47023
413.548	22575
413.625	17195
413.702	22702
413.779	16431
413.855	10431
413.932	11120
414.009	10423
414.086	11735
414.162	13490
414.239	29161
414.316	128494
414.393	262888
414.469	92633
414.546	17256
414.623	12691
414.699	13865
414.776	19127
414.853	13765
414.929	16339
415.006	16332
415.082	17649
415.159	15393
415.236	14111
415.312	17900
415.389	34099
415.465	47889
415.542	25568
415.618	20185
415.695	32070
415.771	22777
415.848	20428
415.924	18281
416.000	13583
416.077	12665
416.153	9350
416.230	8923
416.306	9661
416.383	12877
416.459	10491
416.535	9667
416.612	11094
416.688	10126
416.764	11372
416.841	11995
416.917	12747
416.993	13210
417.069	18694
417.146	30749
417.222	43116
417.298	24733
417.374	14701
417.451	17170
417.527	23979
417.603	27770
417.679	19080
417.755	16870
417.831	11397
417.908	10613
417.984	10476
418.060	14426
418.136	39864
418.212	50711
418.288	20681
418.364	12516
418.440	16841
418.516	25542
418.592	31139
418.668	58973
418.744	90049
418.820	65979
418.896	22630
418.972	13128
419.048	16276
419.124	41713
419.200	35210
419.276	14190
419.352	9522
419.428	11958
419.504	18049
419.579	23890
419.655	18892
419.731	21492
419.807	62195
419.883	111620
419.959	78137
420.034	26421
420.110	52692
420.186	169850
420.262	121755
420.337	30603
420.413	24637
420.489	16675
420.565	15357
420.640	15742
420.716	17013
420.792	14442
420.867	17650
420.943	19687
421.019	33205
421.094	29433
421.170	19319
421.245	18323
421.321	21600
421.397	30406
421.472	93163
421.548	263753
421.623	151103
421.699	43911
421.774	36644
421.850	38434
421.925	56242
422.001	54138
422.076	49309
422.152	62097
422.227	89636
422.302	110130
422.378	165950
422.453	303684
422.529	666920
422.604	1475051
422.679	2071977
422.755	1558744
422.830	647012
422.905	275497
422.981	158697
423.056	105994
423.131	77990
423.207	61536
423.282	60947
423.357	81143
423.432	60275
423.508	56658
423.583	103455
423.658	79301
423.733	36013
423.808	36748
423.883	41386
423.959	40022
424.034	31135
424.109	26083
424.184	20830
424.259	18928
424.334	17273
424.409	16193
424.484	17069
424.559	19959
424.634	18647
424.709	25223
424.784	30477
424.859	23842
424.934	36975
425.009	122448
425.084	191799
425.159	70174
425.234	17902
425.309	18189
425.384	56609
425.459	83996
425.534	28695
425.609	15468
425.683	14495
425.758	13392
425.833	15128
425.908	22170
425.983	82496
426.058	204760
426.132	93219
426.207	23293
426.282	26618
426.357	23665
426.431	13466
426.506	13586
426.581	14152
426.655	13718
426.730	13321
426.805	15316
426.879	16550
426.954	16473
427.029	39757
427.103	192705
427.178	438196
427.253	184224
427.327	31377
427.402	43524
427.476	90490
427.551	43278
427.625	19020
427.700	17669
427.774	13953
427.849	16412
427.923	13624
427.998	15673
428.072	20317
428.147	45703
428.221	203339
428.296	518197
428.370	247639
428.444	43767
428.519	38004
428.593	58071
428.667	48255
428.742	61314
428.816	84625
428.890	337368
428.965	480616
429.039	144113
429.113	67646
429.188	28988
429.262	17324
429.336	34906
429.410	91009
429.485	58103
429.559	50553
429.633	38915
429.707	25127
429.781	75260
429.855	345586
429.930	462455
430.004	211846
430.078	256711
430.152	294883
430.226	704219
430.300	636746
430.374	118897
430.448	45714
430.522	106598
430.596	242208
430.670	187629
430.744	550776
430.818	686087
430.892	145521
430.966	32483
431.040	18543
431.114	14248
431.188	12899
431.262	14699
431.336	14676
431.410	32384
431.484	75905
431.557	50901
431.631	19016
431.705	27390
431.779	127110
431.853	464604
431.927	285101
432.000	42173
432.074	16373
432.148	18347
432.222	16527
432.295	12314
432.369	13630
432.443	30120
432.516	174708
432.590	419758
432.664	149662
432.737	25082
432.811	11496
432.885	8517
432.958	8546
433.032	9024
433.106	6578
433.179	6932
433.253	8170
433.326	8326
433.400	7399
433.473	8263
433.547	6679
433.620	10514
433.694	24149
433.767	22639
433.841	11790
433.914	9450
433.988	8761
434.061	9804
434.134	9074
434.208	7601
434.281	6318
434.355	8007
434.428	10692
434.501	9064
434.575	7616
434.648	9091
434.721	7921
434.795	7385
434.868	7684
434.941	6419
435.014	7245
435.088	10148
435.161	16677
435.234	25154
435.307	29664
435.381	16885
435.454	15862
435.527	17896
435.600	19592
435.673	19723
435.746	16100
435.819	15057
435.892	14970
435.966	12316
436.039	12227
436.112	10961
436.185	8055
436.258	7650
436.331	7561
436.404	7206
436.477	6357
436.550	6851
436.623	7466
436.696	8135
436.769	11016
436.842	10342
436.915	11748
436.987	16771
437.060	9816
437.133	7949
437.206	7137
437.279	8354
437.352	7090
437.425	8664
437.498	11137
437.570	23981
437.643	21388
437.716	9780
437.789	8025
437.861	22496
437.934	51832
438.007	22574
438.080	9843
438.152	14483
438.225	35506
438.298	222461
438.370	562265
438.443	223527
438.516	52485
438.588	16230
438.661	8994
438.734	9950
438.806	12850
438.879	14813
438.951	19147
439.024	28238
439.096	12057
439.169	8948
439.241	7402
439.314	8650
439.386	13944
439.459	20237
439.531	30944
439.604	13524
439.676	6761
439.749	6402
439.821	5894
439.893	7135
439.966	7780
440.038	12848
440.110	13380
440.183	10696
440.255	10043
440.327	18672
440.400	91618
440.472	356422
440.544	214907
440.617	32613
440.689	22136
440.761	30572
440.833	43540
440.905	26538
440.978	8830
441.050	8062
441.122	7996
441.194	7625
441.266	8880
441.338	9557
441.411	22830
441.483	118427
441.555	158044
441.627	35943
441.699	20245
441.771	18293
441.843	10747
441.915	8415
441.987	8786
442.059	9214
442.131	14147
442.203	21726
442.275	26670
442.347	28736
442.419	56979
442.491	246015
442.563	473738
442.635	180749
442.706	87286
442.778	55924
442.850	19184
442.922	15782
442.994	18239
443.066	25826
443.137	24289
443.209	26464
443.281	41818
443.353	92218
443.425	327292
443.496	926487
443.568	796769
443.640	273836
443.711	65798
443.783	31631
443.855	22710
443.926	16540
443.998	16107
444.070	17912
444.141	17544
444.213	26051
444.285	29467
444.356	25325
444.428	20451
444.499	12961
444.571	9755
444.642	11641
444.714	16859
444.785	26542
444.857	28150
444.928	49530
445.000	32216
445.071	40488
445.143	48317
445.214	46541
445.285	79523
445.357	211215
445.428	680958
445.500	1264375
445.571	764440
445.642	380335
445.714	141218
445.785	90587
445.856	39653
445.928	37578
445.999	30688
446.070	23167
446.141	22868
446.213	26103
446.284	16802
446.355	16304
446.426	11831
446.497	13296
446.569	19638
446.640	30391
446.711	25025
446.782	10664
446.853	15527
446.924	16209
446.995	14145
447.066	13183
447.138	19149
447.209	11018
447.280	6849
447.351	6658
447.422	6976
447.493	11405
447.564	15355
447.635	22847
447.706	11108
447.777	7430
447.847	6471
447.918	6957
447.989	12544
448.060	16095
448.131	32828
448.202	28609
448.273	22003
448.344	10217
448.414	8562
448.485	9681
448.556	7335
448.627	6375
448.698	6266
448.768	5268
448.839	8836
448.910	17412
448.981	14870
449.051	9703
449.122	6987
449.193	6790
449.263	6897
449.334	7566
449.405	12340
449.475	29178
449.546	19004
449.616	20761
449.687	15895
449.758	9422
449.828	7458
449.899	7898
449.969	6843
450.040	7399
450.110	9882
450.181	12280
450.251	8157
450.322	7642
450.392	8137
450.463	7509
450.533	6594
450.604	7966
450.674	6751
450.744	7867
450.815	7030
450.885	7576
450.955	8214
451.026	6816
451.096	7664
451.166	9482
451.237	21581
451.307	39549
451.377	15397
451.447	7976
451.518	6841
451.588	7124
451.658	7206
451.728	14148
451.799	45308
451.869	40729
451.939	10979
452.009	6975
452.079	6446
452.149	7762
452.219	15784
452.289	51462
452.360	30180
452.430	11194
452.500	12503
452.570	17375
452.640	23620
452.710	53071
452.780	67573
452.850	58534
452.920	52071
452.990	19044
453.060	13474
453.129	19086
453.199	20398
453.269	65354
453.339	109520
453.409	153742
453.479	178285
453.549	234790
453.619	233229
453.688	73356
453.758	15923
453.828	10541
453.898	8956
453.968	8427
454.037	7269
454.087	7561
454.107	7656
454.168	6417
454.177	6210
454.247	6364
454.249	6409
454.316	6799
454.330	7243
454.386	8892
454.411	15434
454.456	26035
454.492	29190
454.525	31910
454.574	18105
454.595	12140
454.655	8440
454.665	7886
454.734	10545
454.736	10796
454.804	18241
454.817	23613
454.873	44931
454.898	44483
454.943	42512
454.979	30635
455.013	20103
455.060	14010
455.082	11851
455.141	13314
455.152	13618
455.221	37014
455.222	37512
455.291	70309
455.303	75396
455.360	92881
455.384	133614
455.430	198753
455.465	143727
455.499	92303
455.546	61449
455.569	47998
455.627	28443
455.638	24900
455.707	9339
455.708	9364
455.777	7734
455.789	7668
455.846	7375
455.869	7131
455.916	6640
455.950	7098
455.985	7520
456.031	7759
456.054	7719
456.112	6763
456.124	6595
456.193	6434
456.193	6404
456.262	7593
456.274	8151
456.332	10325
456.355	10937
456.401	11431
456.436	10117
456.470	8740
456.516	6981
456.540	6238
456.597	6050
456.609	5997
456.678	5686
456.678	5659
456.747	5637
456.759	5639
456.817	5944
456.840	6098
456.886	5956
456.920	6047
456.955	6437
457.001	6994
457.024	7535
457.082	9728
457.093	10152
457.162	13906
457.163	13967
457.232	16336
457.243	15740
457.301	11208
457.324	9308
457.370	7045
457.405	7813
457.439	8799
457.485	8753
457.508	8705
457.566	10034
457.577	10434
457.646	12688
457.647	12767
457.715	20093
457.727	21762
457.784	33584
457.808	43152
457.853	58704
457.889	71158
457.922	74934
457.969	58343
457.991	55344
458.050	57249
458.060	58640
458.129	92529
458.130	93546
458.198	114587
458.211	108800
458.267	68090
458.292	51843
458.336	35080
458.372	30159
458.405	32413
458.453	40515
458.474	49799
458.533	87127
458.543	91620
458.611	158951
458.614	160032
458.680	128898
458.694	112847
458.749	57237
458.775	41668
458.818	27360
458.855	21236
458.887	18247
458.936	15600
458.955	14871
459.016	13271
459.024	13086
459.093	12906
459.097	12920
459.162	13503
459.177	13691
459.230	14542
459.257	15354
459.299	16362
459.338	16339
459.368	16278
459.418	17665
459.437	17280
459.499	13869
459.505	13693
459.574	12167
459.579	12161
459.643	11948
459.659	11963
459.711	12692
459.740	13026
459.780	13441
459.820	14322
459.849	14831
459.900	15464
459.917	15748
459.981	17233
459.986	17216
460.054	16311
460.061	16266
460.123	16496
460.141	16561
460.191	18834
460.222	20782
460.260	23097
460.302	26941
460.328	27049
460.382	23529
460.397	23222
460.462	22616
460.465	23037
460.534	35133
460.543	36838
460.602	106773
460.623	134532
460.671	208773
460.703	289305
460.739	311028
460.783	284897
460.808	229887
460.864	49376
460.876	34905
460.944	17940
460.945	17814
461.013	16038
461.024	15711
461.081	15095
461.104	15766
461.150	16191
461.184	15515
461.218	14502
461.264	13062
461.286	13090
461.345	13910
461.355	13709
461.423	12045
461.425	12007
461.491	13181
461.505	13529
461.559	18458
461.585	20889
461.628	31671
461.665	43036
461.696	49616
461.745	65448
461.764	60452
461.825	24447
461.832	22987
461.901	15582
461.905	15426
461.969	14938
461.985	14680
462.037	13666
462.065	12941
462.105	13418
462.145	14397
462.173	18302
462.225	26123
462.241	28180
462.305	39367
462.310	38968
462.378	30103
462.385	28347
462.446	18036
462.465	16173
462.514	16014
462.545	16110
462.582	15889
462.625	15516
462.650	14898
462.705	13146
462.718	13419
462.785	15369
462.786	15438
462.854	19048
462.865	19878
462.922	24356
462.945	26117
462.990	22184
463.025	17319
463.058	15123
463.104	13116
463.126	13167
463.184	13927
463.194	14087
463.262	14711
463.264	14753
463.330	15937
463.344	15968
463.398	16137
463.424	16403
463.466	16354
463.504	16516
463.533	16749
463.583	16667
463.601	16931
463.663	17709
463.669	18029
463.737	22209
463.743	22628
463.805	31047
463.823	33257
463.873	43494
463.903	50546
463.940	56166
463.982	63546
464.008	55124
464.062	30759
464.076	27962
464.142	15863
464.144	15827
464.211	16408
464.221	16552
464.279	18231
464.301	18743
464.347	18811
464.381	19188
464.414	20393
464.461	21657
464.482	23215
464.540	28268
464.550	28114
464.617	25435
464.620	25324
464.685	25208
464.699	25157
464.753	26563
464.779	27409
464.820	27963
464.859	28247
464.888	27710
464.938	26530
464.956	27022
465.018	29126
465.023	28917
465.091	25079
465.098	24675
465.158	25946
465.177	26415
465.226	26426
465.257	26176
465.293	26888
465.336	27800
465.361	29271
465.416	32515
465.428	33854
465.495	41300
465.496	41439
465.563	54023
465.575	56345
465.631	70495
465.654	76701
465.698	56984
465.734	38382
465.765	33577
465.813	27292
465.833	27280
465.893	27786
465.900	27906
465.968	28703
465.972	28716
466.035	29388
466.052	29501
466.102	30491
466.131	30993
466.170	31373
466.210	31653
466.237	32546
466.290	34269
466.304	34523
466.369	35192
466.372	35294
466.439	36758
466.449	36901
466.506	39425
466.528	40345
466.573	46509
466.607	50974
466.641	66355
466.687	87671
466.708	96599
466.766	121577
466.775	115730
466.842	69357
466.845	67035
466.909	51702
466.925	48133
466.977	46238
467.004	45158
467.044	45008
467.083	44765
467.111	45943
467.163	47893
467.178	49165
467.242	54096
467.245	54062
467.312	51369
467.321	50923
467.379	49933
467.400	49430
467.446	49743
467.480	49804
467.559	49156
467.638	42089
467.717	44420
467.796	46468
467.875	52491
467.955	47418
468.034	52923
468.113	94171
468.192	130926
468.271	67307
468.350	44407
468.429	45401
468.508	47394
468.588	41241
468.667	38419
468.746	38854
468.825	36692
468.904	33338
468.983	35178
469.062	46876
469.141	57550
469.220	36450
469.299	30271
469.378	31810
469.456	34489
469.535	32324
469.614	31419
469.693	32466
469.772	38242
469.851	45722
469.930	43073
470.009	30180
470.088	32755
470.166	34207
470.245	44838
470.324	52426
470.403	47303
470.482	37310
470.560	34996
470.639	35099
470.718	39463
470.797	33774
470.875	32877
470.954	41938
471.033	47126
471.111	27470
471.190	25504
471.269	23587
471.347	24456
471.426	24875
471.505	27457
471.583	28275
471.662	27818
471.740	26256
471.819	25880
471.898	24598
471.976	24691
472.055	24843
472.133	29951
472.212	39102
472.290	38657
472.369	27508
472.447	23390
472.526	22452
472.604	25423
472.683	27105
472.761	28897
472.839	27341
472.918	26549
472.996	24559
473.075	27817
473.153	28195
473.231	23759
473.310	26443
473.388	29568
473.466	26423
473.545	30738
473.623	40758
473.701	44550
473.780	29003
473.858	25220
473.936	27479
474.014	25869
474.093	30825
474.171	42531
474.249	50105
474.327	41800
474.405	23801
474.484	24580
474.562	26752
474.640	28225
474.718	28480
474.796	31791
474.874	30666
474.952	29849
475.030	29996
475.108	33128
475.187	36714
475.265	40270
475.343	46976
475.421	53808
475.499	36549
475.577	32647
475.655	34811
475.733	55727
475.811	87425
475.889	86897
475.966	71528
476.044	28272
476.122	29740
476.200	38442
476.278	35860
476.356	23771
476.434	23494
476.512	29336
476.590	35929
476.667	35866
476.745	23545
476.823	25055
476.901	22379
476.979	23577
477.056	23274
477.134	23313
477.212	24969
477.290	24322
477.367	21299
477.445	20343
477.523	20842
477.601	21119
477.678	22381
477.756	24360
477.834	28089
477.911	22763
477.989	21458
478.066	21772
478.144	23108
478.222	28277
478.299	40300
478.377	49925
478.454	29951
478.532	21319
478.609	23353
478.687	26539
478.764	21051
478.842	24179
478.919	27090
478.997	27173
479.074	20690
479.152	24267
479.229	29322
479.307	24263
479.384	18830
479.461	19109
479.539	19750
479.616	24237
479.694	23126
479.771	23864
479.848	25105
479.926	29086
480.003	36064
480.080	23562
480.157	20518
480.235	20534
480.312	20936
480.389	22743
480.467	31902
480.544	42087
480.621	28545
480.698	24229
480.775	26805
480.853	27454
480.930	23225
481.007	24566
481.084	35095
481.161	52378
481.238	47325
481.315	22530
481.392	21119
481.470	21737
481.547	21530
481.624	22587
481.701	20150
481.778	22480
481.855	23650
481.932	32367
482.009	49304
482.086	49222
482.163	26056
482.240	33810
482.317	52246
482.393	56068
482.470	28348
482.547	26126
482.624	24068
482.701	25954
482.778	26155
482.855	22680
482.932	22175
483.009	23926
483.085	29209
483.162	43875
483.239	46566
483.316	28349
483.393	25691
483.469	25191
483.546	26721
483.623	29484
483.699	23426
483.776	24607
483.853	26799
483.930	33015
484.006	71692
484.083	120857
484.160	83580
484.236	79593
484.313	73902
484.389	57721
484.466	51223
484.543	50685
484.619	49823
484.696	51918
484.772	53067
484.849	55107
484.925	47876
485.002	45289
485.078	47738
485.155	52172
485.231	45244
485.308	44090
485.384	45663
485.461	52267
485.537	80287
485.614	107202
485.690	55105
485.766	44275
485.843	46111
485.919	68926
485.995	84817
486.072	49090
486.148	41048
486.224	41412
486.301	42920
486.377	48970
486.453	54302
486.530	50347
486.606	53726
486.682	62703
486.758	73901
486.835	91629
486.911	77985
486.987	107283
487.063	150453
487.139	205016
487.215	173607
487.292	95866
487.368	58568
487.444	64753
487.520	84145
487.596	108040
487.672	134874
487.748	286498
487.824	520382
487.900	375198
487.976	152336
488.052	95203
488.128	88304
488.204	78676
488.280	56898
488.356	57062
488.432	92190
488.508	150412
488.584	84954
488.660	49801
488.736	49672
488.812	50474
488.888	61720
488.964	77046
489.039	166104
489.115	304505
489.191	242095
489.267	68565
489.343	47115
489.418	41298
489.494	38236
489.570	36781
489.646	39374
489.722	40050
489.797	40038
489.873	51991
489.949	102991
490.024	121553
490.100	46658
490.176	40285
490.251	48920
490.327	68562
490.403	53124
490.478	39815
490.554	35053
490.629	36461
490.705	35446
490.781	38898
490.856	39231
490.932	45050
491.007	47580
491.083	46306
491.158	42179
491.234	46499
491.309	79950
491.385	106413
491.460	48833
491.536	43830
491.611	42999
491.686	46484
491.762	59051
491.837	114763
491.913	206797
491.988	273397
492.063	413441
492.139	162996
492.214	67915
492.289	39676
492.365	37191
492.440	42556
492.515	42084
492.590	39737
492.666	33146
492.741	41462
492.816	58603
492.891	47326
492.967	36576
493.042	37509
493.117	40932
493.192	46793
493.267	75428
493.342	261618
493.418	463309
493.493	121793
493.568	37105
493.643	33823
493.718	38490
493.793	53264
493.868	71200
493.943	56234
494.018	38571
494.093	33344
494.168	33714
494.243	32441
494.318	29870
494.393	30461
494.468	31608
494.543	32755
494.618	38114
494.693	37919
494.768	32926
494.842	36210
494.917	33235
494.992	36493
495.067	36486
495.142	34118
495.217	37685
495.292	39227
495.366	43753
495.441	52456
495.516	61413
495.591	79713
495.665	217911
495.740	617465
495.815	467100
495.890	84913
495.964	54380
496.039	54128
496.114	57455
496.188	75952
496.263	80239
496.338	56218
496.412	56209
496.487	64267
496.561	69046
496.636	78976
496.710	67800
496.785	72502
496.860	76466
496.934	72264
497.009	71933
497.083	75960
497.158	82256
497.232	93217
497.307	102733
497.381	100021
497.455	105043
497.530	124569
497.604	120029
497.679	119397
497.753	145210
497.827	179957
497.902	186273
497.976	193448
498.050	265125
498.125	707439
498.199	1069616
498.273	327346
498.348	226899
498.422	204763
498.496	196272
498.570	189625
498.645	163335
498.719	154297
498.793	153674
498.867	166359
498.941	184441
499.016	305588
499.090	789908
499.164	581567
499.238	117678
499.312	96431
499.386	98987
499.460	97983
499.534	84004
499.609	86103
499.683	98868
499.757	103259
499.831	131146
499.905	439144
499.979	666114
500.053	148700
500.127	114564
500.201	109843
500.275	74666
500.349	65576
500.422	65229
500.496	81223
500.570	146784
500.644	288299
500.718	548665
500.792	264653
500.866	59240
500.940	60218
501.013	58864
501.087	53454
501.161	79613
501.235	109455
501.309	139825
501.382	388498
501.456	540655
501.530	140187
501.603	150153
501.677	108619
501.751	44350
501.825	49852
501.898	63336
501.972	162387
502.046	176706
502.119	51898
502.193	78338
502.266	187629
502.340	157536
502.413	82256
502.487	168745
502.561	129650
502.634	63179
502.708	43551
502.781	41313
502.855	36742
502.928	29641
503.002	29696
503.075	28732
503.149	31347
503.222	32139
503.295	33773
503.369	37553
503.442	46094
503.516	106619
503.589	313458
503.662	309918
503.736	106223
503.809	146437
503.882	184458
503.956	179358
504.029	259839
504.102	204100
504.175	286875
504.249	193999
504.322	104815
504.395	73029
504.468	51354
504.542	40740
504.615	35704
504.688	31410
504.761	30415
504.834	33075
504.907	41566
504.980	67982
505.053	46928
505.127	41140
505.200	52596
505.273	40050
505.346	33597
505.419	25673
505.492	25371
505.565	24241
505.638	22757
505.711	21648
505.784	23420
505.857	20926
505.930	23270
506.003	21282
506.076	25444
506.149	28051
506.221	37942
506.294	33512
506.367	58610
506.440	206195
506.513	214053
506.586	46113
506.659	33474
506.731	25186
506.804	28661
506.877	45950
506.950	38084
507.022	24585
507.095	27046
507.168	37714
507.241	29251
507.313	25105
507.386	26982
507.459	38185
507.531	31289
507.604	24602
507.677	24571
507.749	21083
507.822	26653
507.894	46124
507.967	60630
508.040	38345
508.112	31140
508.185	28509
508.257	28284
508.330	40527
508.402	33993
508.475	27584
508.547	29493
508.620	28110
508.692	39979
508.765	35936
508.837	23959
508.909	25469
508.982	25571
509.054	28532
509.127	28669
509.199	24486
509.271	23243
509.344	23700
509.416	23892
509.488	23583
509.560	25926
509.633	28266
509.705	33475
509.777	31903
509.849	44158
509.922	41909
509.994	29567
510.066	27438
510.138	27163
510.210	40185
510.283	43982
510.355	36783
510.427	34650
510.499	33230
510.571	34186
510.643	32441
510.715	45169
510.787	56341
510.859	34790
510.931	35101
511.003	46597
511.076	52212
511.148	32297
511.219	29748
511.291	38817
511.363	53951
511.435	34481
511.507	27878
511.579	28653
511.651	27976
511.723	28161
511.795	26740
511.867	27895
511.939	31142
512.010	50708
512.082	57606
512.154	32434
512.226	30271
512.298	35926
512.369	55623
512.441	50364
512.513	46260
512.585	40379
512.656	36132
512.728	40687
512.800	36177
512.871	31884
512.943	31772
513.015	30338
513.086	32093
513.158	35791
513.230	37751
513.301	49778
513.373	61359
513.444	40592
513.516	32243
513.588	32007
513.659	34713
513.731	42729
513.802	41005
513.874	64895
513.945	143219
514.016	84904
514.088	35380
514.159	35099
514.231	42572
514.302	55884
514.374	43142
514.445	39193
514.516	57793
514.588	66572
514.659	41919
514.730	61506
514.802	70031
514.873	63914
514.944	76386
515.016	77460
515.087	75993
515.158	73691
515.229	91099
515.301	79997
515.372	105414
515.443	115127
515.514	95602
515.585	75318
515.656	60661
515.728	51137
515.799	43668
515.870	43243
515.941	43791
516.012	42126
516.083	45265
516.154	51359
516.225	63118
516.296	62924
516.367	58429
516.438	64528
516.509	76612
516.580	100622
516.651	221015
516.722	883236
516.793	842379
516.864	155053
516.935	113839
517.006	109743
517.077	140005
517.148	273645
517.219	841320
517.289	2043326
517.360	828368
517.431	251229
517.502	74132
517.573	56283
517.643	52928
517.714	55299
517.785	58376
517.856	60096
517.926	74752
517.997	90315
518.068	112868
518.138	145898
518.209	202343
518.280	563419
518.350	2393381
518.421	2060665
518.492	330571
518.562	134321
518.633	115254
518.703	127997
518.774	179511
518.845	333230
518.915	400549
518.986	214210
519.056	125126
519.127	134644
519.197	178477
519.268	297540
519.338	286583
519.408	77121
519.479	83511
519.549	79424
519.620	46286
519.690	37485
519.760	35810
519.831	36158
519.901	41053
519.971	32619
520.042	34164
520.112	39135
520.182	44801
520.253	58033
520.323	42504
520.393	53675
520.463	110514
520.534	76284
520.604	142796
520.674	96520
520.744	52875
520.814	132235
520.885	193847
520.955	87465
521.025	275987
521.095	238104
521.165	42703
521.235	35437
521.305	32236
521.375	30007
521.445	32208
521.515	45638
521.585	52182
521.655	61195
521.725	42030
521.795	41242
521.865	29299
521.935	35945
522.005	41095
522.075	30049
522.145	31697
522.215	35517
522.285	46159
522.355	53512
522.424	86897
522.494	105681
522.564	68772
522.634	88454
522.704	292180
522.774	225919
522.843	44426
522.913	39557
522.983	49229
523.053	43829
523.122	37019
523.192	46702
523.262	135766
523.331	239665
523.401	68036
523.471	32600
523.540	31509
523.610	27415
523.680	25556
523.749	26491
523.819	31636
523.888	40680
523.958	28690
524.027	27251
524.097	29398
524.166	28570
524.236	31335
524.305	33290
524.375	27694
524.444	26160
524.514	27162
524.583	28126
524.653	32214
524.722	37624
524.791	32653
524.861	27817
524.930	27330
524.999	28601
525.069	39578
525.138	35662
525.207	36530
525.277	33727
525.346	31713
525.415	32823
525.484	32741
525.554	38596
525.623	44930
525.692	51037
525.761	55854
525.830	56337
525.900	66306
525.969	92486
526.038	150638
526.107	260053
526.176	775930
526.245	1007237
526.314	394045
526.383	396086
526.452	745388
526.522	853415
526.591	1405679
526.660	485653
526.729	221731
526.797	173608
526.867	254419
526.935	881168
527.004	2015706
527.073	2023338
527.142	374253
527.211	112013
527.280	71528
527.349	67770
527.418	44889
527.487	38601
527.555	33821
527.624	31172
527.693	28070
527.762	29288
527.831	27576
527.899	27875
527.968	27875
528.037	27223
528.106	31569
528.174	54488
528.243	57248
528.312	52422
528.380	96318
528.449	48796
528.518	28002
528.586	22556
528.655	22743
528.723	22470
528.792	21776
528.861	25004
528.929	23780
528.998	23322
529.066	24149
529.135	31744
529.203	32133
529.272	34420
529.340	44136
529.409	41948
529.477	38013
529.545	40876
529.614	46900
529.682	51056
529.751	63759
529.819	60454
529.887	64560
529.956	52119
530.024	49372
530.092	46545
530.161	48899
530.229	66111
530.297	63384
530.365	50808
530.434	47054
530.502	52219
530.570	48257
530.638	42187
530.707	42621
530.775	44396
530.843	40016
530.911	43938
530.979	42929
531.047	46049
531.115	49080
531.183	45420
531.252	42201
531.320	41523
531.388	41294
531.456	44549
531.524	46832
531.592	48650
531.660	55418
531.728	52484
531.796	47713
531.864	47012
531.932	48281
532.000	50140
532.067	52621
532.135	58604
532.203	61634
532.271	70258
532.339	82789
532.407	163644
532.475	167615
532.542	85206
532.610	77024
532.678	87528
532.746	190072
532.814	652794
532.881	334526
532.949	84529
533.017	63489
533.084	57971
533.152	53961
533.220	52967
533.287	58287
533.355	57545
533.423	53383
533.490	56794
533.558	55359
533.625	55060
533.693	55566
533.761	55298
533.828	55615
533.896	57173
533.963	78905
534.031	107538
534.098	126076
534.166	102664
534.233	64406
534.300	64061
534.368	63990
534.435	63770
534.503	63671
534.570	73124
534.637	78402
534.705	76855
534.772	84358
534.840	112131
534.907	318570
534.974	748810
535.041	208552
535.109	75712
535.176	57370
535.243	52394
535.310	51303
535.378	52752
535.445	46147
535.512	45014
535.579	42349
535.646	42686
535.714	42898
535.781	46994
535.848	49064
535.915	50581
535.982	52714
536.049	53889
536.116	55878
536.183	52115
536.250	51848
536.317	52030
536.384	56773
536.451	67453
536.518	73207
536.585	62711
536.652	67102
536.719	81421
536.786	76517
536.853	62033
536.920	70713
536.987	100858
537.053	97633
537.120	247394
537.187	408520
537.254	74540
537.321	44442
537.388	44106
537.454	37708
537.521	36514
537.588	34509
537.654	37772
537.721	41995
537.788	41467
537.855	37760
537.921	38620
537.988	40239
538.055	40069
538.121	38103
538.188	42301
538.254	55698
538.321	98678
538.388	79940
538.454	44240
538.521	38146
538.587	35594
538.654	34598
538.720	35678
538.787	33220
538.853	35091
538.920	38908
538.986	42389
539.053	37789
539.119	37327
539.185	37991
539.252	40613
539.318	61198
539.385	59720
539.451	45828
539.517	44458
539.583	45621
539.650	73439
539.716	237865
539.782	137010
539.849	40563
539.915	39103
539.981	39050
540.047	46707
540.114	44664
540.180	44493
540.246	44674
540.312	56580
540.378	91530
540.444	105434
540.510	86822
540.576	261544
540.643	169566
540.709	42523
540.775	38525
540.841	37408
540.907	43103
540.973	69697
541.039	71019
541.105	66212
541.171	45741
541.237	38218
541.303	39158
541.369	43571
541.435	53822
541.500	83513
541.566	67593
541.632	39838
541.698	33623
541.764	33147
541.830	31845
541.896	31737
541.961	32900
542.027	35111
542.093	36168
542.159	38958
542.224	42453
542.290	55763
542.356	81446
542.421	102463
542.487	58331
542.553	42436
542.618	41922
542.684	39848
542.750	38314
542.815	42353
542.881	57626
542.947	190286
543.012	263192
543.078	50813
543.143	35420
543.209	36633
543.274	36943
543.340	41055
543.405	67511
543.471	172337
543.536	66481
543.602	34533
543.667	32446
543.732	33074
543.798	30192
543.863	32889
543.928	29934
543.994	30213
544.059	31077
544.124	31864
544.190	31562
544.255	35176
544.320	35608
544.386	38495
544.451	47845
544.516	56266
544.581	52984
544.646	106542
544.712	278564
544.777	92690
544.842	41858
544.907	40671
544.972	37748
545.037	35923
545.102	41823
545.168	41374
545.233	41929
545.298	43160
545.363	49690
545.428	55830
545.493	76076
545.558	187193
545.623	135569
545.688	46416
545.753	40664
545.818	38928
545.883	39829
545.947	39381
546.012	42043
546.077	45624
546.142	43166
546.207	43575
546.272	53726
546.337	59576
546.401	49460
546.466	46266
546.531	43544
546.596	47413
546.661	49264
546.725	47824
546.790	45142
546.855	46636
546.919	46888
546.984	51862
547.049	55223
547.113	61865
547.178	62093
547.243	67714
547.307	74337
547.372	86276
547.436	93683
547.501	83988
547.565	85513
547.630	93537
547.695	96210
547.759	90431
547.823	91171
547.888	83273
547.952	82904
548.017	86918
548.081	112108
548.146	121905
548.210	105689
548.274	92065
548.339	91676
548.403	85017
548.468	79615
548.532	79334
548.596	81457
548.660	85842
548.725	85704
548.789	96606
548.853	100489
548.917	90252
548.982	95625
549.046	102145
549.110	77202
549.174	74393
549.238	78724
549.303	87604
549.367	90853
549.431	90172
549.495	84451
549.559	83544
549.623	89447
549.687	103062
549.751	121925
549.815	124549
549.879	116562
549.943	109487
550.007	111862
550.071	119992
550.135	124454
550.199	117358
550.263	103291
550.327	103751
550.391	119951
550.455	131291
550.519	117088
550.582	122275
550.646	143715
550.710	169435
550.774	142462
550.838	141069
550.901	145835
550.965	158692
551.029	169663
551.093	189330
551.156	215919
551.220	272443
551.284	327958
551.347	229379
551.411	222467
551.475	271925
551.538	169675
551.602	141413
551.666	129859
551.729	122312
551.793	116317
551.856	117101
551.920	116501
551.983	117277
552.047	113426
552.110	114102
552.174	120061
552.237	124001
552.301	111926
552.364	105113
552.428	104048
552.491	104870
552.554	111891
552.618	110755
552.681	113732
552.745	116285
552.808	133552
552.871	166430
552.934	156248
552.998	132049
553.061	122188
553.124	119658
553.187	115728
553.251	121417
553.314	126137
553.377	128073
553.440	152493
553.503	280340
553.567	658782
553.630	280774
553.693	125034
553.756	115247
553.819	109497
553.882	104675
553.945	102104
554.008	105732
554.071	103098
554.134	104675
554.197	98727
554.260	95623
554.323	99429
554.386	100678
554.449	102478
554.512	102185
554.575	98259
554.638	100082
554.701	99559
554.764	98708
554.827	93708
554.889	92208
554.952	86165
555.015	85264
555.078	84932
555.141	88252
555.203	87135
555.266	86198
555.329	87881
555.391	84978
555.454	85553
555.517	88986
555.580	81845
555.642	79654
555.705	77738
555.768	78826
555.830	78069
555.893	74785
555.955	72837
556.018	72591
556.080	72752
556.143	73678
556.206	75532
556.268	76020
556.330	76531
556.393	77809
556.455	73072
556.518	81626
556.580	93009
556.643	72547
556.705	67825
556.767	66836
556.830	66841
556.892	72190
556.955	93281
557.017	96964
557.079	69896
557.142	68106
557.204	70813
557.266	108564
557.328	129733
557.391	73299
557.453	61707
557.515	63310
557.577	68777
557.639	80335
557.701	69087
557.764	67702
557.826	71096
557.888	78432
557.950	83550
558.012	89662
558.074	111643
558.136	211882
558.198	698358
558.260	516372
558.322	130001
558.384	112690
558.446	122876
558.508	143846
558.570	173209
558.632	234479
558.694	350417
558.756	414917
558.818	930075
558.880	3017204
558.942	2022012
559.003	872907
559.065	699593
559.127	223090
559.189	180921
559.251	186742
559.312	235004
559.374	473721
559.436	1751645
559.498	1831997
559.559	358028
559.621	200282
559.683	186349
559.744	252399
559.806	682388
559.868	1749636
559.929	679281
559.991	201828
560.052	224913
560.114	602109
560.176	715510
560.237	344296
560.299	766303
560.360	351229
560.422	91021
560.483	67525
560.545	58882
560.606	53292
560.667	50344
560.729	48725
560.790	46379
560.852	46292
560.913	45719
560.974	45082
561.036	43978
561.097	46086
561.158	46078
561.220	47616
561.281	46850
561.342	48895
561.403	52815
561.465	60923
561.526	110514
561.587	208426
561.648	97792
561.709	51390
561.771	45183
561.832	45053
561.893	43567
561.954	43236
562.015	41825
562.076	42900
562.137	41393
562.198	42911
562.259	42892
562.320	43926
562.381	46530
562.442	61770
562.503	65518
562.564	46249
562.625	44316
562.686	42746
562.747	46889
562.808	49702
562.869	41915
562.930	45968
562.991	45869
563.051	45565
563.112	43561
563.173	43210
563.234	42829
563.294	44030
563.355	42366
563.416	44618
563.477	43585
563.537	44561
563.598	46702
563.659	45638
563.720	45983
563.780	47235
563.841	49778
563.901	48060
563.962	45402
564.023	46049
564.083	45582
564.144	48959
564.204	47823
564.265	48812
564.325	51817
564.386	70413
564.446	86451
564.507	52818
564.567	49730
564.628	51004
564.688	49744
564.749	50258
564.809	53551
564.869	59974
564.930	57008
564.990	54686
565.050	53300
565.111	55362
565.171	55664
565.231	55896
565.292	58477
565.352	58622
565.412	60798
565.472	63258
565.532	66780
565.593	68269
565.653	67266
565.713	71089
565.773	74119
565.833	81506
565.893	96331
565.953	88242
566.013	80124
566.074	84551
566.134	91245
566.194	108903
566.254	127426
566.314	116836
566.374	105680
566.434	109025
566.494	110810
566.554	117969
566.614	122903
566.673	130477
566.733	137498
566.793	144480
566.853	150088
566.913	154052
566.973	156326
567.033	159624
567.092	159288
567.152	158451
567.212	162520
567.272	166152
567.331	171970
567.391	176971
567.451	182071
567.511	186286
567.570	188827
567.630	169710
567.690	162367
567.749	163772
567.809	172174
567.868	189002
567.928	208692
567.988	234104
568.047	271477
568.107	317628
568.166	380941
568.226	490475
568.285	627632
568.345	702819
568.404	705026
568.464	691430
568.523	677878
568.582	678249
568.642	699659
568.701	758718
568.761	863615
568.820	1059723
568.879	1197864
568.939	1181460
568.998	1091411
569.057	974510
569.116	864900
569.176	759444
569.235	665882
569.294	586621
569.353	516329
569.413	457319
569.472	408213
569.531	364705
569.590	327882
569.649	296125
569.708	269703
569.767	246279
569.827	234335
569.886	220212
569.945	192937
570.004	178087
570.063	166174
570.122	158035
570.181	151610
570.240	141376
570.299	138166
570.358	136643
570.417	121706
570.475	112276
570.534	108252
570.593	106270
570.652	102847
570.711	102202
570.770	94014
570.829	92743
570.887	90225
570.946	92511
571.005	82600
571.064	76736
571.122	77150
571.181	78054
571.240	75716
571.299	67063
571.357	67294
571.416	68933
571.475	66439
571.533	71225
571.592	62709
571.650	61740
571.709	60882
571.768	59793
571.826	59669
571.885	56845
571.943	55163
572.002	53037
572.060	54104
572.119	50269
572.177	50317
572.236	49222
572.294	47803
572.352	48240
572.411	48245
572.469	47501
572.528	47000
572.586	48136
572.644	49954
572.703	62596
572.761	54080
572.819	46258
572.877	43880
572.936	43390
572.994	42757
573.052	41971
573.110	44913
573.169	45632
573.227	42976
573.285	42119
573.343	40891
573.401	41961
573.459	40442
573.517	41879
573.576	39530
573.634	41832
573.692	43345
573.750	43915
573.808	41006
573.866	41422
573.924	46067
573.982	48067
574.040	41104
574.098	40509
574.155	39874
574.213	39311
574.271	37387
574.329	40458
574.387	39895
574.445	38922
574.503	37085
574.560	36337
574.618	36471
574.676	35834
574.734	35677
574.792	37091
574.849	35933
574.907	36385
574.965	34102
575.022	34808
575.080	35176
575.138	35856
575.195	36270
575.253	36452
575.311	39230
575.368	37949
575.426	33591
575.483	34774
575.541	34386
575.598	34643
575.656	34484
575.713	37224
575.771	35641
575.828	34681
575.886	35283
575.943	36806
576.001	35076
576.058	36081
576.115	36605
576.173	38439
576.230	42561
576.287	47600
576.345	46141
576.402	38369
576.459	37058
576.517	37373
576.574	37988
576.631	38642
576.688	35897
576.746	35933
576.803	36259
576.860	35725
576.917	35150
576.974	36273
577.031	35090
577.089	36068
577.146	36553
577.203	36582
577.260	38339
577.317	39089
577.374	37613
577.431	40086
577.488	38664
577.545	38676
577.602	37596
577.659	39773
577.716	40038
577.773	43499
577.830	43931
577.886	42837
577.943	40864
578.000	41820
578.057	43253
578.114	46877
578.171	47231
578.227	55437
578.284	60719
578.341	61477
578.398	58330
578.454	55203
578.511	53065
578.568	52121
578.625	49523
578.681	45900
578.738	43227
578.794	42350
578.851	41084
578.908	42098
578.964	41534
579.021	41746
579.077	41368
579.134	41542
579.190	40627
579.247	39468
579.303	40486
579.360	40082
579.416	41055
579.473	40849
579.529	40868
579.586	41305
579.642	41901
579.698	43013
579.755	45020
579.811	45590
579.867	46506
579.924	48314
579.980	50910
580.036	55446
580.093	60126
580.149	71630
580.205	85686
580.261	87635
580.317	80216
580.374	76799
580.430	72665
580.486	68561
580.542	64788
580.598	60772
580.619	59318
580.654	56858
580.692	55484
580.710	54899
580.765	52588
580.767	52573
580.823	52595
580.838	52095
580.879	50967
580.911	50722
580.935	50622
580.984	50888
580.991	50986
581.047	50711
581.057	50497
581.103	49794
581.130	51326
581.159	53051
581.203	54036
581.215	54337
581.270	57244
581.276	57042
581.326	55524
581.349	55290
581.382	55027
581.422	54544
581.438	54414
581.494	53267
581.494	53234
581.550	53782
581.567	53682
581.606	53481
581.640	53107
581.661	52949
581.713	52826
581.717	52852
581.773	50934
581.786	51032
581.829	51438
581.859	51226
581.885	51158
581.932	51264
581.940	51303
581.996	52209
582.004	52261
582.052	52583
582.077	52179
582.107	51774
582.150	52738
582.163	53086
582.219	53017
582.223	53102
582.274	54334
582.296	54519
582.330	54956
582.368	55974
582.386	56370
582.441	54987
582.441	54999
582.497	56422
582.514	57006
582.552	58559
582.587	60349
582.608	61364
582.659	61535
582.663	61536
582.719	60477
582.732	60101
582.774	59300
582.805	60435
582.830	61343
582.877	62662
582.885	62882
582.941	64648
582.950	65078
582.996	67814
583.023	69795
583.052	71881
583.095	73856
583.107	74542
583.162	79436
583.168	79976
583.218	84425
583.240	84758
583.273	84434
583.313	81362
583.328	80233
583.384	79015
583.385	78954
583.439	77113
583.458	76509
583.494	75834
583.531	75424
583.549	75071
583.603	72991
583.605	72925
583.660	73297
583.676	73127
583.715	72878
583.748	72588
583.770	72477
583.820	73174
583.825	73218
583.881	73964
583.893	74185
583.936	74775
583.965	74205
583.991	73761
584.038	75377
584.046	75726
584.101	75027
584.110	75320
584.156	76374
584.183	76784
584.211	77240
584.255	78107
584.266	78359
584.321	79243
584.328	79405
584.376	80781
584.400	81237
584.431	81744
584.472	82657
584.486	82988
584.541	84269
584.545	84442
584.596	86762
584.617	87147
584.651	88213
584.689	89452
584.706	89829
584.761	91008
584.762	91036
584.816	93016
584.834	93546
584.871	94997
584.906	96859
584.926	97668
584.978	99528
584.980	99611
585.035	103939
585.051	104818
585.090	107586
585.123	110803
585.145	112787
585.195	116983
585.200	117540
585.254	125722
585.267	128629
585.309	140143
585.340	149789
585.364	156212
585.412	161780
585.419	162426
585.473	171235
585.484	174130
585.528	193111
585.556	211283
585.583	239851
585.628	315057
585.637	345663
585.692	600823
585.700	661483
585.747	998682
585.772	1031052
585.801	876116
585.845	486099
585.856	413990
585.910	240492
585.917	226745
585.965	193029
585.989	182191
586.019	173539
586.061	166712
586.074	165410
586.128	163075
586.133	163078
586.183	165169
586.205	166082
586.237	167074
586.277	168068
586.292	168196
586.346	169110
586.349	169227
586.401	173504
586.421	175018
586.455	177124
586.493	182140
586.509	185937
586.564	197345
586.565	197796
586.618	224202
586.637	231632
586.672	232126
586.709	220192
586.727	216013
586.781	219501
586.781	219522
586.835	225039
586.853	226477
586.889	228861
586.925	231969
586.944	234678
586.996	242549
586.998	242795
587.052	252523
587.068	255956
587.106	263797
587.140	270544
587.161	274955
587.212	286802
587.215	287513
587.269	303912
587.284	308518
587.323	321082
587.356	331598
587.377	338409
587.427	355077
587.431	356412
587.485	376025
587.499	381756
587.539	399596
587.571	414073
587.593	426267
587.643	454703
587.648	457389
587.702	489106
587.715	497338
587.755	527313
587.786	550265
587.810	567695
587.858	606728
587.864	611853
587.917	664422
587.930	677304
587.971	727154
588.001	765480
588.025	798508
588.073	866570
588.079	876397
588.133	968370
588.145	990419
588.187	1077504
588.217	1141117
588.241	1202401
588.288	1328834
588.295	1348122
588.348	1517014
588.360	1555028
588.402	1723110
588.431	1843480
588.456	1958448
588.503	2189281
588.510	2229351
588.564	2565835
588.575	2637662
588.617	2956465
588.646	3178924
588.671	3376957
588.718	3751014
588.725	3794604
588.778	4093983
588.789	4138442
588.832	4253718
588.861	4280698
588.886	4229786
588.932	4055545
588.939	4022293
588.993	3772710
589.004	3756492
589.047	4012613
589.075	4219366
589.100	4288912
589.147	4346014
589.154	4340883
589.207	4182608
589.218	4139109
589.261	4006834
589.290	3924424
589.314	3914787
589.361	3929096
589.368	3947350
589.421	4104921
589.433	4133410
589.475	4237516
589.504	4252456
589.528	4179686
589.576	3968716
589.582	3962289
589.635	4032862
589.647	4064785
589.689	4119434
589.718	4079593
589.742	3902788
589.790	3446881
589.795	3385580
589.849	2782877
589.861	2645504
589.902	2314928
589.932	2079540
589.955	1939276
590.004	1654328
590.009	1632770
590.062	1411642
590.075	1359275
590.115	1230548
590.146	1135551
590.168	1085804
590.218	979456
590.222	971804
590.275	876522
590.289	852446
590.328	796999
590.360	753256
590.381	726915
590.431	667142
590.435	664072
590.488	613015
590.503	599514
590.541	572058
590.574	547470
590.594	531920
590.645	494751
590.647	493704
590.700	465069
590.716	456538
590.753	436921
590.787	419476
590.806	411559
590.859	390031
590.859	389781
590.912	370260
590.930	363987
590.965	352429
591.001	340989
591.018	335950
591.071	320360
591.072	320117
591.124	307812
591.143	303283
591.177	296426
591.214	288930
591.230	285867
591.283	275911
591.285	275401
591.336	268578
591.356	265697
591.389	260573
591.427	254227
591.442	251264
591.495	239967
591.498	239014
591.547	231388
591.569	227919
591.600	224595
591.640	219831
591.653	218746
591.706	213788
591.711	213114
591.759	207058
591.782	203898
591.811	203644
591.853	203099
591.864	201782
591.917	194180
591.924	192925
591.969	189180
591.995	186952
592.022	184448
592.066	179912
592.075	179891
592.127	179041
592.137	178755
592.180	180189
592.208	180887
592.233	177381
592.279	169963
592.285	169297
592.338	162683
592.350	161039
592.390	157608
592.421	154842
592.443	154697
592.491	153964
592.495	153936
592.548	151665
592.562	150903
592.600	149510
592.633	148033
592.653	147273
592.704	144122
592.705	144925
592.775	143826
592.846	142827
592.916	140380
592.987	142096
593.058	136153
593.128	132504
593.199	127994
593.270	125889
593.341	123570
593.411	122827
593.482	125629
593.553	120762
593.623	119399
593.694	118049
593.764	120447
593.835	117206
593.906	114166
593.976	114703
594.047	113788
594.117	117948
594.188	120868
594.258	112409
594.329	108043
594.399	110097
594.470	109258
594.540	109295
594.611	108896
594.681	108607
594.751	108712
594.822	111775
594.892	115096
594.963	114846
595.033	110968
595.103	111443
595.174	112692
595.244	121955
595.314	139837
595.384	116958
595.455	108995
595.525	111007
595.595	113338
595.665	112701
595.736	110335
595.806	110282
595.876	108703
595.946	110364
596.016	110207
596.087	112575
596.157	111241
596.227	112272
596.297	115107
596.367	118334
596.437	124289
596.507	130641
596.577	142747
596.647	127642
596.717	124338
596.787	126156
596.857	124018
596.927	125451
596.997	126740
597.067	128579
597.137	135960
597.207	132747
597.277	129338
597.347	125063
597.417	123500
597.487	122852
597.557	128009
597.626	128983
597.696	130705
597.766	135022
597.836	143306
597.906	127582
597.975	119213
598.045	118907
598.115	122297
598.185	126116
598.254	135131
598.324	143380
598.394	147396
598.464	144878
598.533	140680
598.603	137528
598.672	135553
598.742	135504
598.812	135217
598.881	136214
598.951	135965
599.020	135435
599.090	139200
599.159	141124
599.229	139061
599.299	136502
599.368	139273
599.437	140294
599.507	135411
599.576	132916
599.646	136209
599.715	138834
599.785	135538
599.854	132374
599.924	135956
599.993	135018
600.062	133238
600.132	137843
600.201	140257
600.270	156409
600.340	159343
600.409	157958
600.478	156099
600.547	155585
600.617	155400
600.686	142028
600.755	137566
600.824	137683
600.894	135045
600.963	132464
601.032	132223
601.101	133184
601.170	131841
601.239	133284
601.308	135228
601.378	136788
601.447	135688
601.516	139199
601.585	140958
601.654	148300
601.723	147649
601.792	151962
601.861	157764
601.930	169940
601.999	173636
602.068	165477
602.137	167198
602.206	168802
602.275	168297
602.343	175730
602.412	180717
602.481	171033
602.550	167780
602.619	170420
602.688	172225
602.756	172276
602.825	168600
602.894	172170
602.963	171540
603.032	173474
603.100	174250
603.169	169585
603.238	175116
603.307	171961
603.375	168034
603.444	176642
603.513	170422
603.581	170800
603.650	179732
603.719	162809
603.787	156520
603.856	157723
603.924	161769
603.993	166555
604.061	167472
604.130	172874
604.198	177580
604.267	177733
604.335	179588
604.404	178996
604.472	183702
604.541	186869
604.609	188156
604.678	193754
604.746	195830
604.815	204180
604.883	199381
604.951	191831
605.020	195227
605.088	190609
605.156	182606
605.225	180476
605.293	181132
605.361	183856
605.429	181882
605.498	186454
605.566	188597
605.634	194650
605.702	194321
605.771	194402
605.839	198276
605.907	189019
605.975	188545
606.043	188792
606.111	177142
606.180	189139
606.248	187345
606.316	185741
606.384	183265
606.452	172838
606.520	162783
606.588	156007
606.656	145663
606.724	145294
606.792	136739
606.860	128571
606.928	117888
606.996	114521
607.064	112863
607.132	114115
607.200	118117
607.267	123226
607.335	123632
607.403	126629
607.471	123473
607.539	120899
607.607	122651
607.674	113117
607.742	111949
607.810	113968
607.878	113318
607.946	112596
608.013	114520
608.081	117997
608.149	120031
608.216	119810
608.284	121970
608.352	122705
608.419	122904
608.487	126753
608.555	122444
608.622	118868
608.690	123460
608.757	132032
608.825	138373
608.893	133825
608.960	136001
609.028	134522
609.095	133242
609.163	125173
609.230	116052
609.298	107808
609.365	110999
609.432	118904
609.500	126462
609.567	139434
609.635	156959
609.702	166103
609.769	168525
609.837	156775
609.904	150302
609.971	177396
610.039	227421
610.106	310843
610.173	517755
610.241	1119055
610.308	1267909
610.375	647938
610.442	258243
610.509	168468
610.577	142837
610.644	133949
610.711	130558
610.778	131723
610.845	133370
610.912	137661
610.980	147014
611.047	161142
611.114	153933
611.181	135736
611.248	131317
611.315	135269
611.382	138731
611.449	142680
611.516	147662
611.583	148262
611.650	152029
611.717	160573
611.784	171088
611.851	198278
611.918	239336
611.984	310162
612.051	439127
612.118	770611
612.185	1833220
612.252	1869119
612.319	458953
612.386	246262
612.452	205631
612.519	183253
612.586	178244
612.653	174039
612.719	169469
612.786	166737
612.853	152331
612.919	145602
612.986	146527
613.053	140954
613.120	131305
613.186	127422
613.253	129084
613.319	128922
613.386	128329
613.453	133175
613.519	139077
613.586	146000
613.652	173352
613.719	160213
613.785	154574
613.852	140299
613.918	138916
613.985	146351
614.051	169782
614.118	241767
614.184	287358
614.250	151602
614.317	138320
614.383	133982
614.449	135214
614.516	132290
614.582	135035
614.648	133060
614.715	131300
614.781	131372
614.847	129255
614.914	133364
614.980	131237
615.046	132988
615.112	141095
615.179	148743
615.245	164572
615.311	187900
615.377	248045
615.443	326324
615.509	253307
615.575	197072
615.642	183955
615.708	191145
615.774	217195
615.840	260925
615.906	341490
615.972	485563
616.038	782083
616.104	1306907
616.170	2325420
616.236	2838985
616.302	824877
616.368	402605
616.434	293177
616.500	237032
616.565	234687
616.631	290573
616.697	281316
616.763	267092
616.829	340950
616.895	576485
616.961	706723
617.026	387378
617.092	206411
617.158	161941
617.224	148523
617.289	134213
617.355	127573
617.421	122987
617.487	120962
617.552	116042
617.618	112603
617.684	111196
617.749	112666
617.815	106508
617.880	105131
617.946	104954
618.012	106664
618.077	107133
618.143	105810
618.208	103592
618.274	110077
618.339	111090
618.405	98441
618.470	95629
618.536	95296
618.601	96863
618.667	92755
618.732	85691
618.798	86692
618.863	86149
618.928	86917
618.994	89712
619.059	95146
619.124	111943
619.190	102672
619.255	87292
619.320	85219
619.386	85225
619.451	84362
619.516	81659
619.581	80598
619.647	83217
619.712	83934
619.777	80385
619.842	81065
619.907	83073
619.972	83538
620.038	85717
620.103	79940
620.168	79890
620.233	80857
620.298	80795
620.363	80984
620.428	83015
620.493	84045
620.558	87277
620.623	86750
620.688	87263
620.753	85262
620.818	86942
620.883	88182
620.948	86959
621.013	85639
621.078	86516
621.143	86501
621.207	91258
621.272	89932
621.337	91204
621.402	89593
621.467	91949
621.532	95687
621.596	90249
621.661	87250
621.726	84016
621.791	84476
621.855	87375
621.920	90612
621.985	88542
622.049	92269
622.114	92559
622.179	89305
622.243	90269
622.308	91213
622.373	94396
622.437	94167
622.502	89963
622.566	87532
622.631	89046
622.695	89870
622.760	90764
622.824	89945
622.889	93128
622.953	96381
623.018	114275
623.082	129381
623.147	96130
623.211	92401
623.276	94478
623.340	87756
623.404	84425
623.469	83622
623.533	85134
623.597	83765
623.662	83087
623.726	79388
623.790	77432
623.854	74672
623.919	76193
623.983	77844
624.047	78780
624.111	78027
624.176	78779
624.240	83023
624.304	88769
624.368	81821
624.432	79471
624.496	80767
624.560	87424
624.625	96194
624.689	85212
624.753	84082
624.817	81757
624.881	79396
624.945	77155
625.009	73312
625.073	75486
625.137	79412
625.201	90028
625.265	96201
625.329	78772
625.393	80276
625.456	81565
625.520	81866
625.584	87616
625.648	94597
625.712	105225
625.776	147764
625.839	178871
625.903	119150
625.967	75010
626.031	83909
626.095	117390
626.158	89840
626.222	63372
626.286	57888
626.349	56126
626.413	54897
626.477	57425
626.540	56213
626.604	54057
626.668	53217
626.731	51709
626.795	51958
626.858	53773
626.922	51978
626.986	51439
627.049	51240
627.113	51542
627.176	51042
627.240	48725
627.303	51393
627.366	49089
627.430	50220
627.493	50459
627.557	49016
627.620	50410
627.684	49742
627.747	50139
627.810	47775
627.874	45554
627.937	43547
628.000	45647
628.064	45612
628.127	41445
628.190	40325
628.253	41009
628.317	39703
628.380	39412
628.443	37733
628.506	38939
628.569	37229
628.632	35074
628.696	36017
628.759	34756
628.822	33317
628.885	32961
628.948	34433
629.011	34541
629.074	34247
629.137	33956
629.200	31989
629.263	34445
629.326	31454
629.389	31645
629.452	31104
629.515	31483
629.578	31366
629.641	33124
629.704	33316
629.767	33800
629.830	31706
629.892	31315
629.955	30877
630.018	34276
630.081	35922
630.144	43806
630.207	37539
630.269	35121
630.332	32553
630.395	32519
630.458	29038
630.520	28492
630.583	29910
630.646	27823
630.708	28412
630.771	28471
630.834	28833
630.896	29358
630.959	28823
631.021	28795
631.084	29119
631.146	31103
631.209	33592
631.272	30944
631.334	30727
631.397	31649
631.459	32009
631.522	34710
631.584	35903
631.646	36792
631.709	38443
631.771	44851
631.834	41029
631.896	34160
631.958	31241
632.021	30912
632.083	30212
632.145	30074
632.208	29446
632.270	31307
632.332	27820
632.395	27783
632.457	28685
632.519	26869
632.581	27797
632.643	26492
632.706	28334
632.768	26466
632.830	26777
632.892	27452
632.954	27064
633.016	28154
633.078	28133
633.141	27723
633.203	27563
633.265	28762
633.327	28142
633.389	28346
633.451	29944
633.513	37186
633.575	35070
633.637	34960
633.698	36880
633.760	31804
633.822	31870
633.884	33606
633.946	34084
634.008	34256
634.070	37743
634.132	41970
634.193	43577
634.255	42955
634.317	43492
634.379	44232
634.441	41015
634.502	39044
634.564	36855
634.626	38880
634.687	42329
634.749	34612
634.811	30146
634.873	27949
634.934	28876
634.996	29047
635.057	28298
635.119	28919
635.181	29138
635.242	29581
635.304	27832
635.365	31413
635.427	29531
635.488	30559
635.550	30329
635.611	31247
635.673	30242
635.734	33800
635.796	33724
635.857	39799
635.918	38941
635.980	42078
636.041	44875
636.102	46644
636.164	46828
636.225	47425
636.286	42790
636.348	39258
636.409	35679
636.470	32748
636.531	30683
636.593	31436
636.654	30403
636.715	27026
636.776	26050
636.838	24650
636.899	25854
636.960	25891
637.021	26371
637.082	28742
637.143	28721
637.204	23354
637.265	22773
637.326	25047
637.387	23522
637.448	23594
637.509	24270
637.570	24583
637.631	22234
637.692	21365
637.753	21344
637.814	21483
637.875	22023
637.936	23874
637.997	22655
638.058	24710
638.119	23486
638.179	21694
638.240	21810
638.301	21162
638.362	20991
638.423	20687
638.483	22056
638.544	20804
638.605	21185
638.666	21729
638.726	20194
638.787	21962
638.848	20359
638.908	20778
638.969	20190
639.030	21012
639.090	20359
639.151	21816
639.211	23364
639.272	26893
639.332	40178
639.393	35638
639.453	23382
639.514	24550
639.574	22244
639.635	20059
639.695	21935
639.756	20898
639.816	22628
639.877	25782
639.937	34650
639.997	55194
640.058	32264
640.118	20452
640.178	20080
640.239	20817
640.299	20130
640.359	20536
640.420	21321
640.480	22893
640.540	25964
640.600	28381
640.661	27218
640.721	27549
640.781	36131
640.841	42777
640.901	28044
640.961	22408
641.021	23499
641.082	26927
641.142	35057
641.202	30218
641.262	18712
641.322	20171
641.382	18884
641.442	19367
641.502	18186
641.562	19438
641.622	19456
641.682	20889
641.742	23114
641.802	25092
641.861	22516
641.921	22165
641.981	23659
642.041	24488
642.101	26854
642.161	26012
642.221	19133
642.280	18676
642.340	17894
642.400	17756
642.460	18943
642.519	18432
642.579	18743
642.639	19645
642.698	16684
642.758	21838
642.818	20377
642.877	20255
642.937	21039
642.997	23454
643.056	31056
643.116	28069
643.175	22627
643.235	22258
643.294	25075
643.354	29425
643.414	35677
643.473	47380
643.532	65341
643.592	95021
643.651	140518
643.711	206280
643.770	323779
643.830	607967
643.889	1610615
643.948	945077
644.008	139744
644.067	63248
644.126	45212
644.186	36782
644.245	31595
644.304	27026
644.363	27739
644.423	25051
644.482	26411
644.541	28129
644.600	32194
644.659	41215
644.719	50691
644.778	66828
644.837	92942
644.896	153659
644.955	376412
645.014	303856
645.073	59442
645.132	35108
645.191	30579
645.250	27827
645.309	28519
645.368	29376
645.427	34837
645.486	44457
645.545	89199
645.604	57861
645.663	29023
645.722	30065
645.781	34555
645.840	44119
645.898	60371
645.957	89215
646.016	125840
646.075	185439
646.134	292903
646.192	595843
646.251	1382268
646.310	517551
646.369	87367
646.427	50963
646.486	39831
646.545	31330
646.603	28109
646.662	25624
646.721	25028
646.779	26849
646.838	30241
646.896	37231
646.955	45982
647.014	58855
647.072	89292
647.131	214031
647.189	255610
647.248	46737
647.306	24279
647.365	21591
647.423	17618
647.481	18510
647.540	16081
647.598	17657
647.657	15814
647.715	16324
647.773	15012
647.832	16304
647.890	14656
647.948	14592
648.007	16118
648.065	15095
648.123	15863
648.181	19222
648.240	19705
648.298	21695
648.356	17109
648.414	16856
648.472	16387
648.531	15776
648.589	16600
648.647	16538
648.705	17421
648.763	18060
648.821	19204
648.879	21920
648.937	26720
648.995	36380
649.053	48273
649.111	69065
649.169	97862
649.227	137969
649.285	229048
649.343	587618
649.401	698585
649.459	149497
649.516	86938
649.574	55133
649.632	73115
649.690	116670
649.748	69368
649.806	61056
649.863	93678
649.921	156142
649.979	217743
650.037	54541
650.094	20982
650.152	20340
650.210	17456
650.268	17989
650.325	17843
650.383	25122
650.440	19820
650.498	14803
650.556	12777
650.613	13145
650.671	12724
650.728	13200
650.786	14116
650.843	16409
650.901	16114
650.958	12767
651.016	11799
651.073	12164
651.131	11130
651.188	11383
651.246	11599
651.303	10784
651.360	12706
651.418	10972
651.475	11885
651.532	10614
651.590	11361
651.647	10773
651.704	11925
651.762	11449
651.819	12611
651.876	10714
651.933	10691
651.990	11112
652.048	9555
652.105	10328
652.162	10890
652.219	10532
652.276	10962
652.333	10963
652.390	10329
652.448	11575
652.505	11757
652.562	12677
652.619	12813
652.676	17440
652.733	25195
652.790	14177
652.847	9983
652.904	10713
652.961	8745
653.017	9099
653.074	11992
653.131	11766
653.188	9344
653.245	9980
653.302	10147
653.359	9780
653.415	11688
653.472	10314
653.529	11074
653.586	10088
653.642	9929
653.699	10614
653.756	10668
653.813	9977
653.869	10302
653.926	10126
653.983	9846
654.039	10791
654.096	9817
654.152	11371
654.209	9560
654.266	11661
654.322	9877
654.379	12192
654.435	12117
654.492	12757
654.548	14909
654.605	22429
654.661	20808
654.717	11464
654.774	11584
654.830	12277
654.887	13023
654.943	12925
655.000	15230
655.056	16043
655.112	12854
655.168	11761
655.225	12071
655.281	13536
655.337	13069
655.394	16980
655.450	18639
655.506	14659
655.562	17686
655.618	21337
655.675	12970
655.731	12645
655.787	13379
655.843	14301
655.899	13443
655.955	14990
656.011	15645
656.067	16702
656.123	20089
656.179	21704
656.235	23885
656.291	22689
656.347	22597
656.403	19590
656.459	17606
656.515	17331
656.571	16284
656.627	14942
656.683	13921
656.739	13447
656.795	13764
656.850	13395
656.906	15531
656.962	15122
657.018	12382
657.074	13302
657.129	13586
657.185	15842
657.241	22528
657.297	27030
657.352	14749
657.408	11710
657.464	11863
657.519	11699
657.575	8719
657.630	10040
657.686	10219
657.742	9123
657.797	10104
657.853	9831
657.908	10746
657.964	9736
658.019	9912
658.075	9389
658.130	9856
658.186	9281
658.241	9895
658.297	9434
658.352	8712
658.407	9751
658.463	8970
658.518	10081
658.573	10061
658.629	7997
658.684	8935
658.739	10365
658.795	8547
658.850	10146
658.905	8762
658.960	10055
659.016	9530
659.071	9601
659.126	11351
659.181	12271
659.236	15255
659.291	22610
659.346	15346
659.401	13970
659.457	14250
659.512	18545
659.567	16865
659.622	10463
659.677	9484
659.732	9226
659.787	9942
659.842	10204
659.897	12110
659.952	11755
660.007	9980
660.061	9218
660.116	8699
660.171	9043
660.226	9094
660.281	10444
660.336	8914
660.391	10270
660.445	9080
660.500	10130
660.555	8925
660.610	8998
660.664	9324
660.719	9850
660.774	8805
660.828	10324
660.883	8953
660.938	10348
660.992	7433
661.047	10071
661.101	8960
661.156	9342
661.211	8988
661.265	9913
661.320	9250
661.374	8878
661.429	9352
661.483	9980
661.538	9239
661.592	9723
661.647	10516
661.701	13631
661.755	13807
661.810	10343
661.864	8644
661.919	8560
661.973	9715
662.027	9177
662.081	8171
662.136	8844
662.190	9907
662.244	9855
662.299	10196
662.353	9282
662.407	9031
662.461	9388
662.515	9922
662.569	9339
662.624	9501
662.678	9157
662.732	8881
662.786	8840
662.840	9112
662.894	9645
662.948	9112
663.002	9488
663.056	10017
663.110	8762
663.164	8910
663.218	10266
663.272	10145
663.326	9740
663.380	10952
663.434	10037
663.488	8640
663.542	9682
663.595	9312
663.649	9399
663.703	9672
663.757	9109
663.811	8821
663.864	9050
663.918	9938
663.972	9724
664.026	9601
664.079	9477
664.133	9906
664.187	9925
664.240	9352
664.294	9633
664.348	10646
664.401	10888
664.455	9113
664.508	8737
664.562	9362
664.615	8573
664.669	9996
664.722	8977
664.776	8759
664.829	10326
664.883	9386
664.936	9848
664.990	9874
665.043	9839
665.097	8769
665.150	10646
665.203	9125
665.257	9586
665.310	9938
665.363	9495
665.417	10315
665.470	10038
665.523	9531
665.576	9445
665.630	9280
665.683	10248
665.736	10174
665.789	10745
665.842	9549
665.895	9970
665.949	9366
666.002	9677
666.055	9965
666.108	10598
666.161	10542
666.214	10588
666.267	10835
666.320	12109
666.373	11654
666.426	10832
666.479	10306
666.532	11397
666.585	11977
666.638	11747
666.691	11226
666.744	11987
666.796	11646
666.849	11934
666.902	10733
666.955	11186
667.008	9905
667.060	8801
667.113	9253
667.166	10209
667.219	10033
667.271	10675
667.324	10307
667.377	11414
667.430	11405
667.482	12294
667.535	14604
667.587	12750
667.640	12495
667.693	12882
667.745	17273
667.798	25232
667.850	16415
667.903	11511
667.955	10721
668.008	11511
668.060	10028
668.113	10425
668.165	11061
668.218	10733
668.270	11039
668.322	10935
668.375	10418
668.427	9991
668.479	9538
668.532	10820
668.584	10776
668.636	11450
668.689	10724
668.741	10378
668.793	9879
668.845	10743
668.898	11211
668.950	11560
669.002	11769
669.054	11437
669.106	10931
669.158	12393
669.211	12455
669.263	13179
669.315	14548
669.367	16974
669.419	15694
669.471	17141
669.523	17069
669.575	19535
669.627	21349
669.679	17549
669.731	16197
669.783	17371
669.835	18206
669.886	19785
669.938	18757
669.990	19528
670.042	20603
670.094	23514
670.146	27760
670.197	33507
670.249	43935
670.301	56331
670.353	77262
670.404	107259
670.456	151593
670.508	208794
670.560	285201
670.611	394332
670.663	583659
670.715	1020674
670.766	1830340
670.818	1426347
670.869	526028
670.921	187377
670.972	105321
671.024	73205
671.075	53838
671.127	43589
671.178	36004
671.230	32198
671.281	30108
671.333	28481
671.384	27601
671.436	30552
671.487	33949
671.538	36709
671.590	42908
671.641	52453
671.692	71344
671.744	112648
671.795	147467
671.846	98958
671.897	52218
671.949	33991
672.000	25006
672.051	20772
672.102	17652
672.153	16228
672.204	15657
672.256	14527
672.307	13621
672.358	12995
672.409	12559
672.460	12786
672.511	12041
672.562	11855
672.613	11110
672.664	11995
672.715	11210
672.766	11691
672.817	10983
672.868	11319
672.919	10436
672.970	10241
673.021	10558
673.071	9841
673.122	10218
673.173	9845
673.224	9641
673.275	9941
673.326	9625
673.376	10118
673.427	9993
673.478	9275
673.528	10166
673.579	9474
673.630	8498
673.680	10283
673.731	10130
673.782	9169
673.832	8819
673.883	10348
673.934	9468
673.984	10358
674.035	9589
674.085	10045
674.136	10177
674.186	9638
674.237	11423
674.287	13234
674.338	14190
674.388	10498
674.438	9218
674.489	10140
674.539	9830
674.589	11273
674.640	10934
674.690	11060
674.740	9813
674.791	10562
674.841	10162
674.891	10708
674.942	10130
674.992	10279
675.042	9867
675.092	9524
675.142	9139
675.193	9896
675.243	8901
675.293	9294
675.343	8780
675.393	9686
675.443	9320
675.493	9382
675.543	8252
675.593	8843
675.643	8746
675.693	8504
675.743	8928
675.793	8807
675.843	8280
675.893	9061
675.943	8438
675.993	7902
676.043	8548
676.093	9312
676.142	7817
676.192	8347
676.242	8004
676.292	7958
676.341	7961
676.391	9012
676.441	7860
676.491	7734
676.540	7316
676.590	7867
676.640	7242
676.689	8184
676.739	7352
676.789	7783
676.838	7145
676.888	7142
676.937	7804
676.987	7504
677.037	7453
677.086	7093
677.136	7429
677.185	8057
677.235	7499
677.284	6622
677.333	6298
677.383	7356
677.432	6972
677.482	7257
677.531	7200
677.580	7778
677.630	6824
677.679	6540
677.728	6836
677.778	8033
677.827	6817
677.876	7260
677.925	6637
677.975	6433
678.024	7063
678.073	7022
678.122	7433
678.171	8600
678.220	8521
678.269	9071
678.319	9468
678.368	9892
678.417	9833
678.466	9324
678.515	8742
678.564	8492
678.613	8428
678.662	8137
678.711	7495
678.760	7829
678.809	7422
678.857	7610
678.906	7851
678.955	7633
679.004	7676
679.053	8209
679.102	9245
679.151	9694
679.199	7634
679.248	7480
679.297	7193
679.346	7391
679.394	6928
679.443	7412
679.492	7486
679.540	8111
679.589	7084
679.638	8144
679.686	7292
679.735	7414
679.784	6823
679.832	8778
679.881	8451
679.929	7800
679.978	7422
680.026	7218
680.075	6960
680.123	6687
680.172	7310
680.220	6613
680.268	6785
680.317	7240
680.365	6511
680.414	7282
680.462	6336
680.510	7128
680.559	6719
680.607	6512
680.655	6624
680.703	7045
680.752	7591
680.800	7031
680.848	6745
680.896	5967
680.945	7187
680.993	7278
681.041	7164
681.089	7182
681.137	6066
681.185	5988
681.233	6090
681.258	6135
681.281	6177
681.329	7216
681.377	5774
681.380	5775
681.425	5749
681.473	6676
681.502	6988
681.521	7196
681.569	7683
681.617	6548
681.624	6604
681.665	6960
681.713	6638
681.745	6623
681.761	6611
681.809	6270
681.857	6909
681.867	6845
681.904	6610
681.952	6767
681.989	6626
682.000	6587
682.048	6670
682.096	6567
682.111	6634
682.143	6743
682.191	6558
682.233	7157
682.239	7248
682.286	6612
682.334	6964
682.354	6870
682.382	6740
682.430	6488
682.476	6609
682.477	6609
682.525	5597
682.572	6074
682.598	5751
682.620	5490
682.667	6165
682.715	6869
682.720	6833
682.763	6423
682.810	6990
682.841	6663
682.857	6480
682.905	5814
682.952	5610
682.963	5764
683.000	6299
683.047	5707
683.085	6425
683.095	6622
683.142	6363
683.190	5704
683.206	5912
683.237	6267
683.284	6139
683.328	5322
683.332	5248
683.379	5755
683.426	5918
683.449	5977
683.473	6057
683.521	5226
683.568	6377
683.571	6346
683.615	5837
683.662	7124
683.693	6543
683.709	6221
683.757	6475
683.804	6116
683.814	6045
683.851	5786
683.898	5772
683.936	6221
683.945	6345
683.992	6576
684.039	6573
684.057	6831
684.086	7241
684.133	7289
684.179	6715
684.180	6686
684.227	6960
684.274	6731
684.300	6861
684.321	7030
684.368	6542
684.415	6688
684.422	6671
684.462	6382
684.509	6529
684.543	6012
684.556	5857
684.603	6485
684.649	6239
684.665	6332
684.696	6489
684.743	5771
684.786	6407
684.790	6469
684.837	6161
684.883	6716
684.908	6547
684.930	6366
684.977	7434
685.023	6684
685.029	6596
685.070	5787
685.117	5969
685.150	6177
685.164	6289
685.210	6919
685.257	7215
685.272	7198
685.303	7082
685.350	6294
685.393	6567
685.396	6602
685.443	6387
685.490	7773
685.514	7945
685.536	8010
685.583	7763
685.629	7345
685.636	7230
685.675	6533
685.722	7047
685.757	7148
685.768	7159
685.815	7225
685.861	7005
685.878	6890
685.908	6739
685.954	6720
686.000	7226
686.000	7236
686.047	7036
686.093	7890
686.121	8437
686.139	8672
686.185	7289
686.232	7226
686.242	7067
686.278	6539
686.324	6645
686.363	7030
686.370	7120
686.416	6316
686.463	7053
686.484	7081
686.509	7087
686.555	6358
686.601	6259
686.606	6328
686.647	6877
686.693	6516
686.727	6653
686.739	6722
686.785	6557
686.831	6071
686.848	6246
686.877	6536
686.923	6153
686.969	6441
686.969	6442
687.015	6489
687.061	6077
687.090	6174
687.107	6269
687.153	6509
687.199	6748
687.211	6565
687.245	6074
687.291	6204
687.332	6305
687.336	6314
687.382	7152
687.428	6639
687.453	6822
687.474	6899
687.520	6337
687.565	6599
687.574	6553
687.611	6675
687.657	7531
687.695	8219
687.702	8405
687.748	9160
687.794	11497
687.816	12333
687.839	12548
687.885	9968
687.931	7044
687.937	6984
687.976	6960
688.022	7363
688.058	6989
688.067	6911
688.113	7048
688.158	6183
688.179	6209
688.204	6329
688.249	5944
688.295	6910
688.300	6821
688.340	6211
688.386	7356
688.421	6757
688.431	6611
688.477	6281
688.522	6451
688.542	6761
688.567	7162
688.613	6893
688.658	7292
688.663	7237
688.703	6503
688.749	6596
688.784	6476
688.794	6514
688.839	6342
688.884	6616
688.905	6561
688.930	6472
688.975	6626
689.020	7074
689.026	7028
689.065	6793
689.110	7263
689.146	7332
689.155	7307
689.201	7487
689.246	6989
689.267	6844
689.291	6781
689.336	6760
689.381	6908
689.388	6971
689.426	7268
689.471	6821
689.509	6976
689.516	7019
689.561	7185
689.606	6943
689.630	7007
689.651	6959
689.696	6463
689.741	6416
689.750	6508
689.785	7172
689.830	7002
689.871	7450
689.875	7467
689.920	7308
689.965	7320
689.992	7182
690.010	7201
690.054	7160
690.099	7285
690.112	7424
690.144	7583
690.189	6948
690.233	7227
690.233	7234
690.278	7349
690.323	7209
690.354	7217
690.367	7328
690.412	7819
690.457	8391
690.474	8479
690.501	8444
690.546	8428
690.590	8992
690.595	8991
690.635	9241
690.680	9350
690.716	10041
690.724	10326
690.769	11733
690.813	13385
690.836	14201
690.857	15378
690.902	18298
690.946	21114
690.957	22007
690.991	28371
691.035	37646
691.077	49477
691.080	49766
691.124	54021
691.168	48632
691.198	44362
691.213	40637
691.257	31136
691.301	22521
691.318	19553
691.346	17480
691.390	14332
691.434	12509
691.439	12241
691.478	11281
691.522	10561
691.559	9926
691.567	9893
691.611	10163
691.655	9940
691.680	9979
691.699	9803
691.743	9369
691.787	8446
691.800	8308
691.831	8277
691.875	8279
691.919	8266
691.921	8257
691.964	8262
692.008	8400
692.041	8347
692.052	8362
692.096	8230
692.139	8293
692.162	8314
692.183	8210
692.227	8395
692.271	7900
692.282	7840
692.315	8060
692.359	8384
692.402	8832
692.403	8844
692.447	8704
692.490	9009
692.523	8930
692.534	8830
692.578	8955
692.622	8645
692.643	8561
692.666	8583
692.709	8490
692.753	8596
692.763	8571
692.797	8655
692.840	8552
692.884	8559
692.884	8569
692.928	8930
692.971	8881
693.004	9333
693.015	9508
693.059	9209
693.102	9421
693.124	9436
693.146	9484
693.189	9545
693.233	9971
693.245	10067
693.276	10573
693.320	11078
693.363	11544
693.365	11570
693.407	13033
693.450	14121
693.485	15128
693.493	15536
693.537	18119
693.580	20985
693.605	22453
693.624	25138
693.667	31450
693.710	38470
693.725	41010
693.753	53111
693.797	73418
693.840	96601
693.845	99466
693.883	101027
693.926	93459
693.966	83546
693.970	81552
694.013	61318
694.056	42575
694.086	30494
694.099	28651
694.142	23806
694.185	19126
694.206	17190
694.229	16493
694.272	14671
694.315	13610
694.326	13247
694.358	13091
694.401	13066
694.444	13100
694.446	13089
694.487	12660
694.530	11966
694.566	11463
694.573	11389
694.616	10705
694.659	10291
694.686	9877
694.702	9736
694.745	9541
694.787	9097
694.806	9042
694.830	9344
694.873	9296
694.916	9754
694.926	9812
694.959	9659
695.002	9622
695.044	9199
695.046	9180
695.087	9572
695.130	9838
695.166	10119
695.172	10076
695.215	9365
695.258	9127
695.286	8747
695.301	8772
695.343	8923
695.386	8965
695.406	8994
695.428	8958
695.471	8933
695.514	8739
695.526	8710
695.556	8861
695.599	9087
695.641	9250
695.646	9248
695.684	9129
695.726	9002
695.766	8928
695.769	8949
695.811	9111
695.854	9144
695.886	9191
695.896	9182
695.938	9007
695.981	8732
696.005	8603
696.023	8617
696.065	8735
696.108	8853
696.125	8850
696.150	8894
696.192	9055
696.235	9117
696.245	9117
696.277	9442
696.319	9865
696.361	10300
696.365	10325
696.404	10413
696.446	10386
696.485	10387
696.488	10397
696.530	10188
696.572	10113
696.604	10003
696.614	10028
696.656	10019
696.698	10077
696.724	10114
696.740	10034
696.783	9624
696.825	9307
696.844	9166
696.867	9215
696.909	9174
696.951	9255
696.964	9267
696.992	9306
697.034	9168
697.076	9130
697.083	9111
697.118	9422
697.160	9694
697.202	10029
697.203	10018
697.244	9746
697.286	9478
697.323	9221
697.327	9278
697.369	9541
697.411	9874
697.442	10083
697.453	10159
697.494	10455
697.536	10706
697.562	10848
697.578	10823
697.620	10678
697.661	10540
697.682	10463
697.703	10772
697.744	11325
697.786	11967
697.801	12131
697.828	12307
697.869	12625
697.911	12865
697.921	12903
697.952	12462
697.994	11919
698.035	11275
698.040	11182
698.077	10965
698.118	10683
698.160	10370
698.160	10347
698.201	10224
698.243	10046
698.279	9870
698.284	9947
698.325	10496
698.367	11053
698.399	11428
698.408	11418
698.449	11303
698.491	11189
698.518	11101
698.532	11145
698.573	11170
698.614	11231
698.638	11237
698.656	11129
698.697	10813
698.738	10522
698.757	10360
698.779	10512
698.820	10758
698.862	11019
698.877	11086
698.903	11201
698.944	11369
698.985	11527
698.996	11549
699.026	11330
699.067	11002
699.116	10588
699.235	10766
699.354	10371
699.474	10269
699.593	12791
699.713	12207
699.832	11858
699.951	13357
700.070	12344
700.190	11823
700.309	12156
700.428	12961
700.547	12429
700.667	11846
700.786	12541
700.905	11137
701.024	11723
701.143	11562
701.262	12124
701.381	9870
701.500	12063
701.619	13127
701.738	11737
701.857	11251
701.976	10249
702.095	11032
702.214	12229
702.333	12941
702.452	12203
702.571	10329
702.690	10945
702.809	10114
702.928	9779
703.047	11430
703.165	11056
703.284	10929
703.403	11252
703.522	11097
703.640	12413
703.759	13180
703.878	15807
703.997	11554
704.115	10993
704.234	10484
704.353	10387
704.471	10413
704.590	9506
704.708	9584
704.827	9512
704.946	10339
705.064	10037
705.183	9661
705.301	11448
705.420	13892
705.538	12012
705.656	12312
705.775	14246
705.893	27779
706.012	32876
706.130	13232
706.249	11382
706.367	11641
706.485	12848
706.604	12038
706.722	12629
706.840	17518
706.958	25605
707.077	17429
707.195	12288
707.313	11644
707.431	11271
707.549	10688
707.668	10959
707.786	11528
707.904	10797
708.022	10754
708.140	11403
708.258	10635
708.376	12386
708.494	11102
708.612	12414
708.730	14607
708.848	13953
708.966	13806
709.084	13366
709.202	13535
709.320	13078
709.438	12563
709.556	11731
709.674	12923
709.791	12536
709.909	11784
710.027	11264
710.145	11707
710.263	12949
710.380	12636
710.498	11581
710.616	12378
710.733	11981
710.851	13251
710.969	12782
711.086	12656
711.204	12499
711.322	11880
711.439	13677
711.557	12393
711.674	12391
711.792	12591
711.909	13850
712.027	15798
712.144	12024
712.262	11990
712.379	12649
712.497	16260
712.614	15667
712.732	15952
712.849	13949
712.966	16163
713.084	18746
713.201	15094
713.318	15093
713.436	14347
713.553	14702
713.670	15188
713.787	16590
713.905	16407
714.022	15519
714.139	15401
714.256	19887
714.373	26905
714.490	51557
714.608	137910
714.725	609743
714.842	576197
714.959	44929
715.076	20819
715.193	18431
715.310	17848
715.427	14631
715.544	15291
715.661	17482
715.778	15216
715.895	15628
716.011	14440
716.128	14768
716.245	13898
716.362	17201
716.479	18636
716.596	13377
716.713	14808
716.829	13760
716.946	12967
717.063	12056
717.180	12378
717.296	12454
717.413	12979
717.530	12135
717.646	12073
717.763	11696
717.880	12068
717.996	11694
718.113	12639
718.229	12654
718.346	12044
718.462	12141
718.579	17427
718.695	30074
718.812	21055
718.928	16189
719.045	13511
719.161	11129
719.277	11150
719.394	12554
719.510	13689
719.626	14446
719.743	16639
719.859	24765
719.975	47684
720.092	179245
720.208	383768
720.324	46887
720.440	16064
720.557	16671
720.673	26326
720.789	28074
720.905	45653
721.021	17682
721.137	11618
721.253	11814
721.369	11553
721.486	13398
721.602	16720
721.718	11188
721.834	10434
721.950	11279
722.066	10711
722.181	10146
722.297	11456
722.413	11140
722.529	9943
722.645	11128
722.761	11396
722.877	10811
722.993	11224
723.108	12297
723.224	11112
723.340	10930
723.456	10933
723.571	11354
723.687	9589
723.803	9821
723.918	10820
724.034	9642
724.150	9641
724.265	12021
724.381	21119
724.497	22929
724.612	10436
724.728	10266
724.843	10334
724.959	12029
725.074	21318
725.190	21534
725.305	10759
725.421	11004
725.536	9707
725.651	10565
725.767	8652
725.882	8904
725.997	9649
726.113	9374
726.228	9002
726.343	8810
726.459	8723
726.574	9007
726.689	8041
726.804	9023
726.920	9414
727.035	9648
727.150	10222
727.265	9459
727.380	10824
727.495	10287
727.610	9079
727.725	9722
727.841	12311
727.956	24822
728.071	18176
728.186	9600
728.301	9505
728.416	10211
728.531	9601
728.645	9122
728.760	11219
728.875	13299
728.990	11878
729.105	10795
729.220	10708
729.335	10628
729.449	9072
729.564	8935
729.679	7650
729.794	8443
729.908	9613
730.023	8139
730.138	8445
730.253	9028
730.367	8201
730.482	8259
730.596	9427
730.711	10095
730.826	13030
730.940	13845
731.055	11060
731.169	8919
731.284	9045
731.398	9430
731.513	10325
731.627	10188
731.742	12270
731.856	12310
731.970	12072
732.085	15141
732.199	20237
732.313	35109
732.428	86609
732.542	241793
732.656	124703
732.771	24939
732.885	15249
732.999	13216
733.113	12952
733.227	12026
733.342	11610
733.456	10250
733.570	9986
733.684	10377
733.798	10323
733.912	9944
734.026	9371
734.140	10325
734.254	10375
734.368	14639
734.482	16339
734.596	9681
734.710	9484
734.824	9403
734.938	9259
735.052	9860
735.166	11133
735.280	10088
735.393	9385
735.507	9835
735.621	11294
735.735	17221
735.849	10551
735.962	9232
736.076	10687
736.190	10219
736.303	12586
736.417	14614
736.531	9495
736.644	10016
736.758	8742
736.872	8908
736.985	9197
737.099	8402
737.212	9224
737.326	9264
737.439	8395
737.553	8886
737.666	9827
737.780	8765
737.893	8352
738.007	7852
738.120	8997
738.233	8784
738.347	8545
738.460	8940
738.573	10771
738.687	9344
738.800	9805
738.913	12873
739.026	11135
739.140	9740
739.253	9671
739.366	8431
739.479	8244
739.592	8054
739.705	8339
739.818	8833
739.932	8444
740.045	8774
740.158	9020
740.271	8768
740.384	8879
740.497	9751
740.610	11963
740.723	10794
740.836	10970
740.949	11807
741.062	14908
741.174	11571
741.287	9276
741.400	9224
741.513	11490
741.626	12405
741.739	11083
741.851	10038
741.964	9487
742.077	9483
742.189	10877
742.302	20411
742.415	23769
742.527	10883
742.640	9594
742.753	8330
742.865	9104
742.978	8165
743.090	7594
743.203	7907
743.316	7070
743.428	7664
743.541	7385
743.653	7065
743.766	8206
743.878	9100
743.990	11032
744.103	15431
744.215	32240
744.327	20872
744.440	12943
744.552	17246
744.664	9960
744.777	8380
744.889	6905
745.001	8004
745.113	7610
745.226	7015
745.338	7822
745.450	7519
745.562	7457
745.674	7607
745.786	7298
745.898	7974
746.010	7783
746.122	7269
746.234	8353
746.347	7825
746.459	9114
746.570	8905
746.682	15743
746.794	39676
746.906	33657
747.018	10092
747.130	8589
747.242	7553
747.354	7616
747.466	8378
747.577	7511
747.689	7694
747.801	7729
747.913	6367
748.024	6773
748.136	7565
748.248	7352
748.359	7131
748.471	7839
748.583	6911
748.694	7710
748.806	9670
748.918	9566
749.029	7734
749.141	9361
749.252	8774
749.364	10551
749.475	19449
749.587	12774
749.698	7362
749.809	7309
749.921	6781
750.032	7459
750.144	6764
750.255	7276
750.366	7088
750.478	7956
750.589	7910
750.700	7756
750.811	8288
750.923	10679
751.034	22285
751.145	20226
751.256	7205
751.367	7136
751.479	8114
751.590	7072
751.701	8048
751.812	6678
751.923	6888
752.034	6975
752.145	7275
752.256	6599
752.367	6959
752.478	6476
752.589	6621
752.700	6792
752.811	6301
752.922	7689
753.032	9110
753.143	9393
753.254	6798
753.365	7600
753.476	7727
753.586	6799
753.697	6132
753.808	6894
753.919	6626
754.029	6770
754.140	6364
754.251	7543
754.361	6768
754.472	6808
754.582	7153
754.693	7398
754.804	6948
754.914	7586
755.025	6330
755.135	7654
755.246	6087
755.356	7493
755.466	7814
755.577	7933
755.687	7377
755.798	7167
755.908	7610
756.018	6574
756.129	6194
756.239	8048
756.349	7375
756.460	7279
756.570	7888
756.680	8630
756.790	8198
756.900	9001
757.011	7462
757.121	7863
757.231	8022
757.341	8098
757.451	7002
757.561	7623
757.671	7521
757.781	7450
757.891	7896
758.001	8219
758.111	8138
758.221	9032
758.331	10537
758.441	9944
758.551	13229
758.661	11743
758.771	10019
758.880	10146
758.990	9394
759.100	9600
759.210	9551
759.320	10010
759.429	9098
759.539	10562
759.649	10569
759.758	11365
759.868	10953
759.978	11454
760.087	12251
760.197	12063
760.307	12441
760.416	11933
760.526	11350
760.635	12183
760.745	12498
760.854	12875
760.964	14427
761.073	14303
761.182	13713
761.292	13556
761.401	13503
761.511	13120
761.620	13135
761.729	13367
761.839	13332
761.948	14016
762.057	14357
762.166	14464
762.276	12731
762.385	14556
762.494	13912
762.603	14571
762.712	15309
762.822	14755
762.931	16571
763.040	16613
763.149	17105
763.258	18044
763.367	18058
763.476	19424
763.585	20740
763.694	21774
763.803	23352
763.912	23718
764.021	23759
764.130	25867
764.238	27060
764.347	29588
764.456	31396
764.565	32769
764.674	36005
764.783	40296
764.891	44648
765.000	49757
765.109	56649
765.217	63436
765.326	77412
765.435	91993
765.543	112056
765.652	142260
765.761	187041
765.869	259160
765.978	384138
766.086	604331
766.195	987284
766.303	1530759
766.412	1581743
766.520	1735630
766.629	1436938
766.737	815008
766.846	493467
766.954	332244
767.062	236495
767.171	183963
767.279	140655
767.387	110357
767.496	93571
767.604	78293
767.712	69497
767.820	62097
767.928	57290
768.037	53517
768.145	50278
768.253	48839
768.361	47158
768.469	47303
768.577	47916
768.685	50446
768.793	53264
768.901	60285
769.009	68773
769.117	82946
769.225	108601
769.333	153969
769.441	243559
769.549	414345
769.657	783517
769.765	1354399
769.873	1479894
769.981	1314369
770.088	630048
770.196	332369
770.304	209035
770.412	149379
770.519	111033
770.627	87370
770.735	70961
770.842	58754
770.950	51101
771.058	45627
771.165	40201
771.273	35846
771.380	33039
771.488	30427
771.595	29210
771.703	25963
771.810	24437
771.918	23631
772.025	22640
772.133	22685
772.240	20771
772.348	20061
772.455	18781
772.562	17444
772.670	18060
772.777	17140
772.884	17002
772.991	16638
773.099	15906
773.206	15038
773.313	14877
773.420	14475
773.528	12779
773.635	12894
773.742	14298
773.849	13269
773.956	12832
774.063	11929
774.170	12570
774.277	12058
774.384	12165
774.491	10663
774.598	11738
774.705	12140
774.812	13748
774.919	11118
775.026	10991
775.133	11380
775.239	10262
775.346	10363
775.453	10480
775.560	9529
775.667	10261
775.773	10376
775.880	10039
775.987	9912
776.093	10089
776.200	9801
776.307	9190
776.413	9880
776.520	9161
776.627	9801
776.733	9254
776.840	9472
776.946	14706
777.053	25122
777.159	70673
777.266	65217
777.372	57361
777.478	68005
777.585	41898
777.691	14071
777.798	11094
777.904	9708
778.010	14742
778.117	11661
778.223	8756
778.329	8458
778.435	7451
778.542	8173
778.648	7314
778.754	7738
778.860	7078
778.966	9154
779.072	8020
779.178	7530
779.284	7237
779.391	8359
779.497	9387
779.603	12650
779.708	18345
779.815	42209
779.920	146065
780.026	247435
780.132	35161
780.238	10983
780.344	8385
780.450	8744
780.556	7248
780.661	7123
780.767	7464
780.873	6424
780.979	7186
781.085	6588
781.190	6511
781.296	5951
781.402	5828
781.507	6113
781.613	6129
781.719	6194
781.824	6603
781.930	6082
782.035	5658
782.141	5451
782.246	5895
782.352	5917
782.457	5650
782.563	5615
782.668	5922
782.773	6854
782.879	6113
782.984	6115
783.090	7632
783.195	11201
783.300	8755
783.405	6503
783.511	5345
783.616	6238
783.721	6040
783.826	6333
783.932	5330
784.037	6013
784.142	6120
784.247	6030
784.352	6560
784.457	5773
784.562	5325
784.667	5160
784.772	6047
784.877	5119
784.982	5681
785.087	4955
785.192	5254
785.297	4508
785.402	5056
785.507	5283
785.611	4714
785.716	5036
785.821	5048
785.926	5904
786.031	4489
786.135	5113
786.240	5362
786.345	4164
786.450	4781
786.554	4513
786.659	4391
786.763	3340
786.868	4555
786.973	5587
787.077	3840
787.182	3937
787.286	4385
787.391	4033
787.495	4163
787.600	4600
787.704	4301
787.809	3980
787.913	4618
788.017	4681
788.122	3835
788.226	2985
788.330	3473
788.435	3674
788.539	4492
788.643	3706
788.747	3450
788.852	4726
788.956	3521
789.060	4148
789.164	3998
789.268	3315
789.372	4290
789.476	3949
789.580	3624
789.684	3278
789.788	3928
789.892	4148
789.996	4674
790.100	3590
790.204	4508
790.308	4469
790.412	3961
790.516	5242
790.620	4566
790.724	4482
790.828	4169
790.931	2974
791.035	5174
791.139	4299
791.242	3001
791.346	4269
791.450	4026
791.554	3377
791.657	3868
791.761	4342
791.864	4335
791.968	4249
792.072	4163
792.175	4171
792.279	3730
792.382	3851
792.486	4038
792.589	3922
792.693	4117
792.796	3489
792.899	4013
793.003	4644
793.106	3753
793.209	3733
793.313	4640
793.416	3111
793.519	4647
793.623	7388
793.726	10035
793.829	5053
793.932	4077
794.035	3517
794.138	5678
794.242	5322
794.345	7685
794.448	12949
794.551	27825
794.654	77121
794.757	135095
794.860	23681
794.963	5888
795.066	5486
795.169	6279
795.272	4436
795.375	3600
795.477	3327
795.580	3390
795.683	2265
795.786	4020
795.889	1101
795.991	3658
796.094	4153
796.197	2887
796.300	3347
796.402	2951
796.505	1916
796.608	2714
796.710	3420
796.813	2879
796.915	3421
797.018	4014
797.120	2319
797.223	2265
797.326	3496
797.428	1714
797.530	2761
797.633	3082
797.735	4623
797.838	5344
797.940	4660
798.042	2641
798.145	2538
798.247	2751
798.349	1758
798.452	2474
798.554	3306
798.656	2186
798.758	3874
798.860	3323
798.962	2714
799.065	1529
799.167	2700
799.269	3192
799.371	4133
799.473	3960
799.575	4145
799.677	2963
799.779	5255
799.881	6840
799.983	3972
800.085	2647
800.187	2257
800.289	2830
800.390	2691
800.492	2965
800.594	3496
800.696	2216
800.798	2878
800.899	2032
801.001	2063
801.103	2715
801.205	3115
801.306	2651
801.408	1956
801.509	2538
801.611	2507
801.713	2496
801.814	1702
801.916	1904
802.017	1746
802.119	2233
802.220	2502
802.322	1974
802.423	3960
802.525	1974
802.626	2707
802.727	2446
802.829	3053
802.930	951
803.031	2894
803.133	1764
803.234	2144
803.335	1703
803.436	2466
803.538	1860
803.639	1682
803.740	2595
803.841	1221
803.942	2092
804.043	2261
804.144	1541
804.245	2255
804.346	2377
804.447	2225
804.548	4608
804.649	5152
804.750	1748
804.851	1858
804.952	1292
805.053	2056
805.154	1226
805.255	2515
805.355	1659
805.456	2044
805.557	1429
805.658	1485
805.758	2598
805.859	1678
805.960	1403
806.061	1332
806.161	1522
806.262	2473
806.362	1060
806.463	1884
806.564	2836
806.664	2691
806.765	2501
806.865	1946
806.966	1805
807.066	1463
807.166	1668
807.267	1197
807.367	1568
807.468	2356
807.568	609
807.668	2105
807.769	1966
807.869	1509
807.969	2434
808.069	1926
808.170	2236
808.270	1347
808.370	2692
808.470	4667
808.570	2312
808.670	1333
808.770	1577
808.870	1434
808.970	1863
809.070	2049
809.170	1044
809.271	1619
809.370	2352
809.470	2225
809.570	1523
809.670	2025
809.770	1750
809.870	2124
809.970	1378
810.070	1497
810.169	2325
810.269	225
810.369	2959
810.469	1480
810.568	2242
810.668	1284
810.768	1673
810.867	1294
810.967	1554
811.066	2185
811.166	1736
811.265	2221
811.365	1326
811.464	1829
811.564	2477
811.663	2422
811.763	1562
811.862	2262
811.962	2185
812.061	1970
812.160	2329
812.260	2966
812.359	4919
812.458	8024
812.557	19526
812.657	25362
812.756	6841
812.855	3390
812.954	3417
813.053	3315
813.153	2802
813.252	2113
813.351	3018
813.450	1896
813.549	2163
813.648	2780
813.747	2144
813.846	2201
813.945	2039
814.044	2278
814.143	2713
814.242	3299
814.341	1505
814.439	2824
814.538	3295
814.637	2778
814.736	3330
814.835	3692
814.933	3753
815.032	4605
815.131	3589
815.229	4345
815.328	4616
815.427	3979
815.525	4805
815.624	4851
815.722	4294
815.821	5427
815.919	4686
816.018	4647
816.116	5777
816.215	6515
816.313	6214
816.412	6741
816.510	6735
816.609	7582
816.707	7540
816.805	8216
816.904	9280
817.002	10008
817.100	10917
817.198	12610
817.296	13805
817.395	16789
817.493	18665
817.591	22423
817.689	31644
817.787	43012
817.885	69049
817.983	127011
818.081	248243
818.179	532324
818.277	1057328
818.375	898024
818.473	319515
818.571	141315
818.669	94770
818.767	87847
818.865	88535
818.963	95878
819.061	138560
819.158	231999
819.256	439921
819.354	858951
819.452	1422101
819.549	1054389
819.647	407799
819.745	186565
819.842	113233
819.940	79074
820.038	59272
820.135	45344
820.233	36407
820.330	28216
820.428	22803
820.525	21048
820.623	18651
820.720	15292
820.818	14872
820.915	14495
821.012	15166
821.110	14991
821.207	12637
821.304	10523
821.402	12353
821.499	16290
821.596	30580
821.693	28557
821.791	12614
821.888	10857
821.985	14120
822.082	12364
822.179	10893
822.276	15448
822.373	13839
822.470	6055
822.567	4921
822.664	4290
822.761	5517
822.858	3662
822.955	4744
823.052	4725
823.149	3884
823.246	5084
823.343	3574
823.440	3812
823.536	3652
823.633	3748
823.730	3255
823.827	4125
823.923	3760
824.020	5588
824.117	7189
824.213	11893
824.310	10642
824.407	3851
824.503	3445
824.600	3483
824.696	2611
824.793	4432
824.889	2962
824.986	2282
825.082	2924
825.179	2815
825.275	2856
825.371	2413
825.468	2761
825.564	1601
825.660	2782
825.757	3017
825.853	2607
825.949	1552
826.045	1794
826.142	1912
826.238	1902
826.334	1616
826.430	1360
826.526	1623
826.622	1278
826.718	2374
826.814	1714
826.910	2162
827.006	299
827.102	2086
827.198	3000
827.294	1502
827.390	1902
827.486	1782
827.582	970
827.678	1018
827.774	1905
827.869	561
827.965	1870
828.061	1209
828.157	2125
828.252	992
828.348	1072
828.444	1699
828.539	832
828.635	1258
828.731	2288
828.826	737
828.922	2245
829.017	1257
829.113	1613
829.208	971
829.304	1018
829.399	2096
829.495	1200
829.590	1639
829.685	320
829.781	813
829.876	841
829.971	862
830.066	1296
830.162	1041
830.257	1038
830.352	693
830.447	2073
830.543	1637
830.638	520
830.733	2239
830.828	1207
830.923	1520
831.018	1181
831.113	1608
831.208	-74
831.303	517
831.398	543
831.493	874
831.588	1545
831.683	1274
831.778	600
831.873	1040
831.967	1618
832.062	957
832.157	835
832.252	2461
832.346	1780
832.441	2478
832.536	3332
832.631	7598
832.725	5661
832.820	1149
832.914	670
833.009	1015
833.104	2044
833.198	3764
833.293	1454
833.387	1479
833.482	1039
833.576	713
833.670	1688
833.765	1306
833.859	1496
833.954	1668
834.048	1106
834.142	1144
834.237	519
834.331	612
834.425	837
834.519	368
834.613	1053
834.708	1033
834.802	1093
834.896	812
834.990	102
835.084	349
835.178	733
835.272	1343
835.366	853
835.460	1102
835.554	1319
835.648	552
835.742	583
835.836	402
835.930	-73
836.024	467
836.117	1386
836.211	1247
836.305	1645
836.399	1605
836.493	1123
836.586	1532
836.680	165
836.774	79
836.867	1271
836.961	818
837.055	-427
837.148	-7
837.242	363
837.335	1394
837.429	702
837.522	1108
837.616	646
837.709	2988
837.803	1591
837.896	918
837.989	337
838.083	1871
838.176	2950
838.269	2065
838.363	1988
838.456	1064
838.549	2220
838.642	3566
838.735	8054
838.829	3627
838.922	-199
839.015	160
839.108	862
839.201	729
839.294	785
839.387	886
839.480	-113
839.573	1794
839.666	1490
839.759	389
839.852	235
839.945	-57
840.038	513
840.131	209
840.223	832
840.316	1105
840.409	-119
840.502	-685
840.594	1071
840.687	-909
840.780	1258
840.873	562
840.965	627
841.058	2319
841.150	3195
841.243	1549
841.336	651
841.428	1091
841.521	228
841.613	-42
841.706	778
841.798	345
841.890	545
841.983	272
842.075	1206
842.167	679
842.260	873
842.352	1915
842.444	1186
842.537	3928
842.629	4158
842.721	1287
842.813	515
842.905	-580
842.997	1086
843.090	944
843.182	2349
843.274	4099
843.366	8412
843.458	14449
843.550	8677
843.642	1340
843.734	561
843.826	1832
843.918	1923
844.009	1237
844.101	1323
844.193	771
844.285	2507
844.377	4770
844.469	9751
844.560	17710
844.652	23469
844.744	9948
844.835	1747
844.927	1751
845.019	2433
845.110	1784
845.202	827
845.293	162
845.385	132
845.476	845
845.568	472
845.659	-281
845.751	694
845.842	612
845.934	45
846.025	393
846.116	361
846.208	-145
846.299	220
846.390	484
846.482	128
846.573	1484
846.664	1331
846.755	2964
846.846	2473
846.937	17
847.029	-91
847.120	162
847.211	600
847.302	1106
847.393	124
847.484	833
847.575	-176
847.666	878
847.757	651
847.847	535
847.938	1170
848.029	754
848.120	113
848.211	193
848.302	375
848.392	-268
848.483	107
848.574	359
848.664	-21
848.755	331
848.846	1165
848.936	287
849.027	1121
849.118	642
849.208	1591
849.299	2602
849.389	6692
849.480	13120
849.570	25572
849.661	45271
849.751	79468
849.841	29200
849.932	4140
850.022	1570
850.112	1564
850.203	1038
850.293	71
850.383	930
850.474	428
850.564	253
850.654	1115
850.744	665
850.834	458
850.924	-207
851.014	548
851.104	732
851.194	816
851.284	1802
851.374	1932
851.464	640
851.554	916
851.644	1324
851.734	2478
851.824	1799
851.914	2211
852.004	4233
852.094	3984
852.183	927
852.273	885
852.363	829
852.452	190
852.542	613
852.632	517
852.721	756
852.811	195
852.901	935
852.990	563
853.080	1301
853.169	2041
853.259	2207
853.348	2014
853.438	3967
853.527	6512
853.617	8927
853.706	19384
853.795	38094
853.885	83457
853.974	159744
854.063	266739
854.152	444613
854.242	183196
854.331	28778
854.420	9903
854.509	8343
854.598	6222
854.687	4949
854.777	4172
854.866	2917
854.955	2637
855.044	1891
855.133	1472
855.222	2099
855.311	819
855.400	1367
855.488	1461
855.577	1514
855.666	1775
855.755	2319
855.844	1868
855.933	1827
856.021	185
856.110	1459
856.199	336
856.288	234
856.376	624
856.465	596
856.554	462
856.642	1385
856.731	2665
856.819	2032
856.908	366
856.996	266
857.085	163
857.173	41
857.262	-120
857.350	-274
857.438	958
857.527	502
857.615	-90
857.703	705
857.792	408
857.880	-209
857.968	594
858.056	-28
858.145	283
858.233	-214
858.321	519
858.409	725
858.497	-444
858.585	-4
858.673	9
858.761	317
858.849	-119
858.937	48
859.025	715
859.113	1692
859.201	1084
859.289	3472
859.377	4027
859.465	1675
859.552	342
859.640	578
859.728	878
859.816	-86
859.903	-127
859.991	-465
860.079	332
860.166	-255
860.254	521
860.342	339
860.429	-30
860.517	114
860.604	446
860.692	62
860.779	-261
860.867	14
860.954	360
861.042	830
861.129	532
861.216	52
861.304	-341
861.391	-600
861.478	130
861.565	12
861.653	1259
861.740	-657
861.827	-157
861.914	-356
862.001	-206
862.089	727
862.176	-420
862.263	74
862.350	335
862.437	738
862.524	501
862.611	2145
862.698	3619
862.785	5521
862.871	10374
862.958	6368
863.045	420
863.132	415
863.219	-123
863.306	-389
863.392	236
863.479	-200
863.566	47
863.652	232
863.739	357
863.826	342
863.912	-143
863.999	-255
864.086	944
864.172	-153
864.259	1324
864.345	495
864.432	403
864.518	81
864.604	305
864.691	555
864.777	649
864.863	1152
864.950	1791
865.036	954
865.122	2807
865.209	2630
865.295	3479
865.381	3728
865.467	5382
865.553	8185
865.639	10555
865.726	19952
865.812	40051
865.898	77487
865.984	111482
866.070	199919
866.156	238219
866.242	68994
866.328	13388
866.414	6118
866.499	5242
866.585	3673
866.671	3098
866.757	2782
866.843	1784
866.928	1826
867.014	1307
867.100	3274
867.186	1793
867.271	1840
867.357	3042
867.442	3171
867.528	3751
867.614	3897
867.699	6798
867.785	11165
867.870	15708
867.956	27475
868.041	19306
868.127	11365
868.212	13435
868.297	17376
868.383	8944
868.468	6722
868.553	10542
868.639	8665
868.724	9543
868.809	9385
868.894	2799
868.979	1751
869.065	1677
869.150	828
869.235	1160
869.320	763
869.405	697
869.490	554
869.575	15
869.660	1453
869.745	1213
869.830	1308
869.915	1895
870.000	2258
870.085	2504
870.169	4067
870.254	6393
870.339	3042
870.424	334
870.509	1066
870.593	579
870.678	1334
870.763	720
870.847	2007
870.932	3530
871.016	5344
871.101	6877
871.186	2761
871.270	1659
871.355	349
871.439	356
871.523	1849
871.608	2119
871.692	2018
871.777	5346
871.861	4696
871.945	628
872.030	1495
872.114	517
872.198	277
872.282	571
872.367	1290
872.451	623
872.535	-15
872.619	768
872.703	641
872.787	1156
872.871	1019
872.955	538
873.039	-426
873.123	313
873.207	897
873.291	909
873.375	657
873.459	-2
873.543	-117
873.627	103
873.711	74
873.794	1170
873.878	394
873.962	-361
874.045	66
874.129	1116
874.137	1048
874.213	368
874.245	275
874.296	121
874.352	599
874.380	827
874.460	671
874.464	664
874.547	632
874.568	627
874.631	585
874.676	991
874.714	1333
874.784	585
874.798	441
874.881	1024
874.892	945
874.965	378
874.999	623
875.048	933
875.107	890
875.131	877
875.215	845
875.215	845
875.298	499
875.323	715
875.381	1216
875.430	1314
875.465	1405
875.538	299
875.548	137
875.631	1265
875.646	1076
875.714	162
875.753	174
875.798	253
875.861	309
875.881	288
875.964	942
875.968	941
876.047	1033
876.076	1283
876.130	1766
876.183	1429
876.213	1227
876.291	1407
876.296	1418
876.379	1531
876.398	1518
876.462	1427
876.506	1338
876.545	1363
876.613	1588
876.628	1613
876.711	1247
876.721	1331
876.794	2024
876.828	1866
876.877	1577
876.935	1546
876.960	1570
877.043	1837
877.043	1837
877.125	2329
877.150	2539
877.208	2903
877.258	2670
877.291	2495
877.365	2244
877.374	2226
877.456	3051
877.472	3012
877.539	2820
877.579	3193
877.622	3590
877.687	2959
877.704	2769
877.787	2747
877.794	2707
877.869	2437
877.901	2561
877.952	2777
878.008	2576
878.034	2459
878.115	2181
878.117	2184
878.199	2389
878.222	2428
878.282	2381
878.329	2536
878.364	2593
878.437	2327
878.447	2308
878.529	2308
878.544	2301
878.611	2436
878.651	2520
878.694	2713
878.758	2983
878.776	2958
878.858	2194
878.865	2177
878.941	2230
878.972	2383
879.023	2719
879.078	2618
879.105	2629
879.185	3335
879.187	3352
879.269	3441
879.292	3319
879.351	2751
879.399	2485
879.433	2387
879.506	2370
879.516	2421
879.598	2673
879.613	2763
879.680	2787
879.720	2812
879.762	3105
879.827	3042
879.844	2951
879.926	2528
879.933	2516
880.007	2726
880.040	3042
880.089	3611
880.147	4454
880.171	4851
880.253	6091
880.254	6096
880.335	9296
880.360	9893
880.417	13254
880.467	18487
880.499	22832
880.574	30493
880.580	29929
880.662	13812
880.680	11136
880.744	6105
880.787	4139
880.825	3781
880.893	2980
880.907	2954
880.989	3192
881.000	3209
881.070	3375
881.106	3258
881.152	2983
881.213	2692
881.233	2717
881.315	3219
881.319	3210
881.396	3221
881.426	3279
881.478	3208
881.532	3133
881.559	3180
881.639	3039
881.641	3044
881.722	3018
881.745	3053
881.803	3536
881.852	3718
881.885	3606
881.958	3724
881.966	3761
882.047	3389
882.064	3540
882.129	4907
882.171	5152
882.210	6243
882.277	9282
882.291	9206
882.372	6650
882.383	6346
882.454	4584
882.489	3702
882.535	3417
882.596	3538
882.616	3625
882.697	3241
882.702	3230
882.778	3388
882.808	3537
882.859	3841
882.914	3886
882.940	3859
883.020	3598
883.021	3612
883.102	3613
883.127	3650
883.183	3750
883.233	3858
883.264	3761
883.339	3537
883.345	3522
883.426	3359
883.445	3198
883.507	3445
883.551	3624
883.587	3629
883.657	3998
883.668	4185
883.749	4883
883.763	5024
883.830	4384
883.869	3982
883.910	4025
883.975	3999
883.991	4013
884.072	3920
884.081	3913
884.152	4360
884.187	4574
884.233	4719
884.292	4600
884.314	4443
884.394	4067
884.398	4034
884.475	4003
884.504	3863
884.555	4249
884.610	5009
884.636	5130
884.716	4757
884.716	4772
884.797	4905
884.821	4740
884.877	4765
884.927	4738
884.958	4620
885.033	4653
885.038	4651
885.118	4079
885.139	3901
885.199	4203
885.244	4462
885.279	4510
885.350	4629
885.359	4749
885.439	5466
885.456	5628
885.520	5393
885.561	5271
885.600	5002
885.667	4364
885.680	4508
885.760	5178
885.773	5264
885.840	5205
885.878	5213
885.920	5326
885.984	5369
886.000	5470
886.080	5722
886.089	5756
886.160	5878
886.195	5823
886.240	5802
886.300	5843
886.320	5833
886.400	5701
886.406	5667
886.480	5735
886.511	5777
886.560	6566
886.616	7260
886.640	7122
886.720	6627
886.722	6590
886.800	6014
886.827	5825
886.879	5852
886.932	5752
886.959	5832
887.038	5988
887.039	6010
887.119	6065
887.143	6003
887.198	6376
887.248	6683
887.278	6551
887.354	6313
887.358	6314
887.437	5678
887.459	5517
887.517	6446
887.564	7128
887.596	6784
887.669	5883
887.676	5889
887.755	5692
887.774	5636
887.835	5831
887.880	5890
887.914	6069
887.985	6407
887.994	6441
888.073	6671
888.090	6651
888.153	6967
888.195	7182
888.232	7192
888.300	7039
888.311	6965
888.391	6333
888.405	6203
888.470	6285
888.510	6238
888.549	6251
888.615	6252
888.628	6480
888.708	7756
888.720	7917
888.787	7194
888.825	6749
888.866	6536
888.930	6142
888.945	6228
889.024	6577
889.035	6594
889.103	7356
889.140	7738
889.182	7766
889.245	7738
889.261	7706
889.340	7414
889.349	7355
889.419	7398
889.454	7386
889.498	7593
889.559	7815
889.577	7768
889.656	7442
889.664	7386
889.735	7816
889.768	7975
889.814	7987
889.873	7941
889.978	7979
890.083	7528
890.187	8160
890.292	7983
890.397	8496
890.501	7177
890.606	7968
890.710	7713
890.815	8570
890.919	8300
891.024	7723
891.128	8809
891.233	8167
891.337	8749
891.442	8559
891.546	7447
891.650	7157
891.755	7956
891.859	9277
891.963	8512
892.068	7398
892.172	7819
892.276	6595
892.380	6273
892.484	8128
892.589	8870
892.693	9009
892.797	7463
892.901	6556
893.005	6499
893.109	7758
893.213	6594
893.317	7303
893.421	7105
893.525	6510
893.629	5788
893.733	6723
893.837	6632
893.941	7561
894.045	8589
894.148	11087
894.252	24637
894.356	16537
894.460	8810
894.564	6724
894.667	6875
894.771	5868
894.875	5771
894.978	6235
895.082	6909
895.186	7267
895.289	5650
895.393	6396
895.496	6124
895.600	5643
895.703	5601
895.807	6317
895.910	6233
896.014	7081
896.117	5856
896.221	6284
896.324	6114
896.427	6322
896.531	5288
896.634	6519
896.737	5961
896.840	5214
896.944	7086
897.047	6059
897.150	6265
897.253	5229
897.356	6031
897.460	5215
897.563	6145
897.666	6330
897.769	5159
897.872	6168
897.975	4821
898.078	5930
898.181	5268
898.284	4879
898.387	6175
898.490	6258
898.593	5307
898.695	5833
898.798	5722
898.901	5908
899.004	5589
899.107	5139
899.209	5463
899.312	5741
899.415	6375
899.518	5054
899.620	4832
899.723	5625
899.826	10076
899.928	11742
900.031	5538
900.133	6482
900.236	4175
900.338	4316
900.441	4512
900.543	4483
900.646	4875
900.748	5271
900.851	5842
900.953	5837
901.055	5808
901.158	6166
901.260	5852
901.362	4774
901.465	4879
901.567	5103
901.669	5486
901.771	5732
901.873	4929
901.976	5157
902.078	6190
902.180	5009
902.282	4695
902.384	6285
902.486	5561
902.588	6191
902.690	6150
902.792	5431
902.894	4817
902.996	5938
903.098	5677
903.200	5035
903.302	6319
903.404	5475
903.505	5169
903.607	4751
903.709	6261
903.811	6242
903.913	5106
904.014	5422
904.116	4410
904.218	4956
904.319	5654
904.421	6095
904.523	5836
904.624	5520
904.726	5738
904.827	4667
904.929	4561
905.030	4667
905.132	6078
905.233	4787
905.335	4580
905.436	4617
905.537	4391
905.639	4773
905.740	5318
905.841	5925
905.943	5428
906.044	4958
906.145	5921
906.247	5168
906.348	4982
906.449	4663
906.550	6264
906.651	4948
906.752	5236
906.854	3951
906.955	4523
907.056	4696
907.157	5459
907.258	4966
907.359	4157
907.460	4469
907.561	5547
907.662	4898
907.762	5324
907.863	4638
907.964	5561
908.065	5117
908.166	5535
908.267	5303
908.367	4450
908.468	5063
908.569	5800
908.670	5665
908.770	6862
908.871	7341
908.971	6961
909.072	5560
909.173	4447
909.273	5425
909.374	5150
909.474	5112
909.575	4415
909.675	5165
909.776	5375
909.876	4126
909.977	4699
910.077	5734
910.177	4941
910.278	5060
910.378	5119
910.478	5569
910.579	5199
910.679	4711
910.779	5351
910.879	6004
910.980	5571
911.080	5366
911.180	4670
911.280	5123
911.380	4064
911.480	4315
911.580	4552
911.680	5298
911.780	6410
911.880	5820
911.980	4319
912.080	4844
912.180	4846
912.280	5598
912.380	3905
912.480	3964
912.580	4343
912.679	4265
912.779	4607
912.879	4753
912.979	3956
913.078	4480
913.178	4788
913.278	3650
913.377	3596
913.477	4079
913.577	4240
913.676	4868
913.776	4663
913.875	5103
913.975	4659
914.074	4723
914.174	4569
914.273	3983
914.373	5092
914.472	4800
914.572	4691
914.671	4829
914.770	4711
914.870	4071
914.969	4447
915.068	4457
915.167	4147
915.267	4532
915.366	4865
915.465	4195
915.564	4936
915.663	4540
915.763	5088
915.862	5357
915.961	5456
916.060	4096
916.159	4555
916.258	4531
916.357	4382
916.456	5101
916.555	4459
916.654	4692
916.752	5108
916.851	5020
916.950	5283
917.049	4771
917.148	3900
917.247	5291
917.345	4830
917.444	3676
917.543	4340
917.642	4919
917.740	4166
917.839	4580
917.937	4861
918.036	5032
918.135	3772
918.233	4449
918.332	3874
918.430	3896
918.529	4406
918.627	4327
918.726	5002
918.824	4075
918.923	5099
919.021	4132
919.119	4425
919.218	4118
919.316	4606
919.414	4733
919.512	4035
919.611	4297
919.709	4853
919.807	4852
919.905	5620
920.003	5567
920.102	4482
920.200	4627
920.298	5070
920.396	5159
920.494	4752
920.592	4615
920.690	5057
920.788	4718
920.886	5302
920.984	6294
921.082	4604
921.180	5629
921.277	6530
921.375	6518
921.473	6586
921.571	5147
921.669	5499
921.766	5706
921.864	6474
921.962	6052
922.060	5939
922.157	5369
922.255	6270
922.352	4990
922.450	6029
922.548	6692
922.645	5949
922.743	7546
922.840	9788
922.938	8901
923.035	8833
923.133	8404
923.230	9666
923.327	10108
923.425	10110
923.522	10327
923.619	9675
923.717	8516
923.814	9789
923.911	9029
924.008	9089
924.106	7356
924.203	9027
924.300	9052
924.397	8556
924.494	8932
924.591	8882
924.688	8171
924.786	8089
924.883	8452
924.979	8166
925.077	8495
925.173	8845
925.270	8451
925.367	8265
925.464	9556
925.561	8876
925.658	10110
925.755	10141
925.852	9913
925.948	9766
926.045	9671
926.142	10155
926.239	11200
926.335	9736
926.432	9718
926.529	10312
926.625	11626
926.722	10322
926.818	8840
926.915	9201
927.011	8533
927.108	7851
927.204	8085
927.301	7517
927.397	8662
927.494	8614
927.590	6800
927.687	7991
927.783	8696
927.879	8011
927.976	7080
928.072	7786
928.168	7751
928.264	8010
928.361	7599
928.457	8427
928.553	7814
928.649	7052
928.745	7837
928.841	7240
928.937	7131
929.033	8057
929.129	6986
929.225	8303
929.321	6987
929.417	7874
929.513	7908
929.609	6359
929.705	7794
929.801	7937
929.897	6087
929.993	7067
930.089	6762
930.184	7268
930.280	7219
930.376	7286
930.471	5836
930.567	6370
930.663	6451
930.758	6137
930.854	7325
930.950	6468
931.045	6144
931.141	7136
931.236	8737
931.332	6722
931.427	6333
931.523	7730
931.618	6914
931.714	5550
931.809	6077
931.905	6641
932.000	5243
932.095	5091
932.191	7152
932.286	7209
932.381	6051
932.476	5758
932.572	6567
932.667	5735
932.762	7184
932.857	5881
932.952	7378
933.047	6635
933.142	5716
933.237	5839
933.332	6644
933.427	6712
933.522	6452
933.617	7123
933.712	6311
933.807	6801
933.902	7334
933.997	7605
934.092	5828
934.187	6152
934.282	6370
934.376	6712
934.471	6847
934.566	5960
934.661	5333
934.755	6684
934.850	6233
934.945	6836
935.039	5672
935.134	6091
935.228	6442
935.323	6917
935.417	5488
935.512	4866
935.606	4922
935.701	6585
935.795	6782
935.890	6057
935.984	5974
936.079	5530
936.173	5318
936.267	5902
936.362	5410
936.456	5364
936.550	6816
936.644	6130
936.738	5192
936.833	5905
936.927	6858
937.021	7293
937.115	6705
937.209	5794
937.303	5085
937.397	4257
937.491	5370
937.585	5818
937.679	4908
937.773	5057
937.867	5027
937.961	4701
938.055	5894
938.149	5420
938.243	4848
938.337	5822
938.430	5665
938.524	6642
938.618	6849
938.712	8776
938.805	6823
938.899	6317
938.993	5765
939.086	6217
939.180	5869
939.274	9706
939.367	8373
939.461	6874
939.554	4761
939.648	5035
939.741	5062
939.835	5595
939.928	6524
940.022	7005
940.115	5510
940.208	5719
940.302	5830
940.395	7196
940.488	4828
940.582	5384
940.675	4732
940.768	5137
940.861	5390
940.954	7114
941.048	5068
941.141	5472
941.234	6015
941.327	8819
941.420	10979
941.513	8815
941.606	6526
941.699	5702
941.792	5257
941.885	6598
941.978	6444
942.071	5063
942.164	5060
942.257	4835
942.349	5152
942.442	5740
942.535	4636
942.628	3978
942.721	5125
942.813	4623
942.906	5055
942.999	5246
943.091	4156
943.184	4768
943.277	4680
943.369	4305
943.462	4850
943.554	5122
943.647	4704
943.739	4595
943.832	4289
943.924	3926
944.017	4859
944.109	3632
944.201	3809
944.294	4891
944.386	3928
944.478	4950
944.571	4988
944.663	4710
944.755	4670
944.847	4315
944.940	3984
945.032	3853
945.124	3814
945.216	5423
945.308	5203
945.400	4585
945.492	4585
945.584	6104
945.676	4650
945.768	5337
945.860	4830
945.952	5380
946.044	4507
946.136	4271
946.228	4578
946.320	4360
946.412	4787
946.503	5001
946.595	4606
946.687	4466
946.779	4055
946.870	3775
946.962	4089
947.054	4581
947.145	4428
947.237	4417
947.329	4093
947.420	3687
947.512	4833
947.603	4249
947.695	4170
947.786	3760
947.878	4571
947.969	4722
948.061	4277
948.152	4111
948.243	3783
948.335	4071
948.426	3183
948.517	4585
948.609	4217
948.700	5065
948.791	3923
948.882	3943
948.973	4280
949.065	5382
949.156	4272
949.247	4338
949.338	4363
949.429	3851
949.520	3463
949.611	3870
949.702	5206
949.793	4143
949.884	4777
949.975	4410
950.066	3634
950.157	3808
950.247	3194
950.338	3824
950.429	4103
950.520	4116
950.611	4317
950.701	4132
950.792	5151
950.883	4764
950.973	4576
951.064	5217
951.155	5670
951.245	5270
951.336	4700
951.427	5215
951.517	4932
951.608	4897
951.698	4368
951.788	5114
951.879	3708
951.969	3974
952.060	3802
952.150	4909
952.240	4729
952.331	4152
952.421	5798
952.511	4298
952.602	3398
952.692	3913
952.782	3954
952.872	4293
952.962	3983
953.052	3362
953.143	4871
953.233	4834
953.323	5024
953.413	4783
953.503	4711
953.593	4203
953.683	3874
953.773	3678
953.863	4268
953.953	4856
954.042	4855
954.132	5309
954.222	5314
954.312	5258
954.402	5166
954.492	6291
954.581	7721
954.671	5247
954.761	4441
954.850	3987
954.940	4855
955.030	4268
955.119	3995
955.209	4269
955.298	4219
955.388	5800
955.477	5496
955.567	3639
955.656	5214
955.746	4189
955.835	4884
955.925	4686
956.014	5242
956.103	5205
956.193	5469
956.282	5277
956.371	5790
956.461	5379
956.550	4896
956.639	4813
956.728	5413
956.817	5356
956.906	5963
956.995	5625
957.085	5989
957.174	6038
957.263	4258
957.352	4969
957.441	6792
957.530	5338
957.619	5447
957.708	5155
957.796	5102
957.885	5952
957.974	6144
958.063	6109
958.152	5418
958.241	5573
958.329	6492
958.418	6248
958.507	6024
958.596	7391
958.684	6001
958.773	6618
958.861	6643
958.950	6932
959.039	7318
959.127	7479
959.216	6902
959.304	6794
959.393	7065
959.481	6356
959.570	6655
959.658	7047
959.746	7639
959.835	8199
959.923	10084
960.011	6861
960.100	6897
960.188	7089
960.276	6054
960.365	5892
960.453	6200
960.541	5457
960.629	5298
960.717	5918
960.805	3945
960.893	5949
960.981	4557
961.069	5688
961.158	5297
961.245	5274
961.333	5013
961.421	4644
961.509	5218
961.597	4538
961.685	4324
961.773	3860
961.861	4502
961.949	4778
962.036	4645
962.124	4913
962.212	5020
962.299	3931
962.387	4456
962.475	4079
962.562	3909
962.650	4410
962.738	4783
962.825	3413
962.913	3912
963.000	3695
963.088	4423
963.175	3655
963.263	4376
963.350	4159
963.438	4871
963.525	6309
963.612	8125
963.700	15610
963.787	21179
963.874	10064
963.962	4208
964.049	3621
964.136	3079
964.223	2868
964.310	2424
964.398	3199
964.485	3383
964.572	4674
964.659	5813
964.746	4952
964.833	3093
964.920	3434
965.007	3207
965.094	2741
965.181	3024
965.268	3250
965.355	3149
965.441	2447
965.528	2647
965.615	3253
965.702	2725
965.789	3583
965.875	3525
965.962	2774
966.049	3356
966.136	3808
966.222	3318
966.309	4150
966.395	2910
966.482	3898
966.569	2503
966.655	2991
966.742	2920
966.828	2979
966.915	2636
967.001	3768
967.087	3113
967.174	3679
967.260	3663
967.347	6103
967.433	11562
967.519	13716
967.605	6593
967.692	3210
967.778	2555
967.864	2577
967.950	2712
968.036	3161
968.123	2625
968.209	2564
968.295	2849
968.381	3564
968.467	3058
968.553	2055
968.639	3173
968.725	3664
968.811	6146
968.897	4974
968.983	2217
969.069	2165
969.154	2444
969.240	3150
969.326	1950
969.412	2067
969.497	1527
969.583	2530
969.669	3962
969.755	2830
969.840	3045
969.926	4388
970.012	4391
970.097	6530
970.183	5515
970.268	4069
970.354	4203
970.439	7270
970.525	8932
970.610	3364
970.696	2712
970.781	2329
970.866	1366
970.952	2279
971.037	2421
971.122	1875
971.208	2628
971.293	1521
971.378	1632
971.463	1762
971.549	2166
971.634	2511
971.719	2666
971.804	2654
971.889	3058
971.974	1981
972.059	1702
972.144	1498
972.229	2172
972.314	1679
972.399	2018
972.484	2697
972.569	2463
972.654	3905
972.739	6163
972.824	5305
972.908	2511
972.993	2035
973.078	1770
973.163	2712
973.247	1640
973.332	958
973.417	2902
973.501	1561
973.586	1215
973.671	2002
973.755	2206
973.840	2967
973.924	2845
974.009	3008
974.093	3562
974.178	4761
974.262	5399
974.346	3347
974.431	2893
974.515	2089
974.600	1895
974.684	2166
974.768	2021
974.852	2704
974.937	1198
975.021	2407
975.105	1906
975.189	1586
975.273	2251
975.358	1661
975.442	1890
975.526	1342
975.610	2022
975.694	1492
975.778	1324
975.862	1654
975.946	822
976.030	2596
976.114	2776
976.198	2401
976.281	1337
976.365	2306
976.449	2083
976.533	1413
976.617	1559
976.700	1355
976.784	2465
976.868	2546
976.951	2597
977.035	2464
977.119	1641
977.202	1885
977.286	1635
977.369	1999
977.453	1974
977.536	3194
977.620	1867
977.703	2632
977.787	1005
977.870	2330
977.953	2453
978.037	2111
978.120	2356
978.203	4746
978.287	4389
978.370	2932
978.453	2146
978.536	1774
978.620	2699
978.703	3629
978.786	2055
978.869	2095
978.952	818
979.035	2280
979.118	1424
979.201	1040
979.284	1640
979.367	1601
979.450	1609
979.533	1076
979.616	1110
979.699	919
979.782	1810
979.865	1586
979.948	1269
980.030	853
980.113	1655
980.196	822
980.279	785
980.361	1179
980.444	1470
980.526	1625
980.609	2750
980.692	2014
980.774	2112
980.857	1347
980.939	2690
981.022	1210
981.104	1209
981.187	1541
981.269	1352
981.352	1424
981.434	1162
981.516	1482
981.599	2261
981.681	1600
981.763	1851
981.846	1131
981.928	876
982.010	2229
982.092	1491
982.174	1894
982.256	1303
982.339	788
982.421	1196
982.503	1390
982.585	176
982.667	1163
982.749	1417
982.831	1106
982.913	1207
982.995	1757
983.077	925
983.158	1821
983.240	1420
983.322	1344
983.404	2764
983.486	1606
983.568	1592
983.649	1354
983.731	1547
983.813	964
983.894	1945
983.976	826
984.058	1125
984.139	1387
984.221	767
984.302	1399
984.384	1161
984.465	1285
984.547	1386
984.628	1468
984.710	1061
984.791	802
984.872	1476
984.954	1594
985.035	1382
985.116	827
985.198	1040
985.279	1850
985.360	1673
985.441	562
985.522	1214
985.604	804
985.685	-628
985.766	2497
985.847	2358
985.928	896
986.009	510
986.090	1210
986.171	1931
986.252	552
986.333	686
986.414	1867
986.495	1341
986.576	1830
986.656	825
986.737	1911
986.818	1883
986.899	847
986.980	1815
987.060	1178
987.141	1953
987.222	1044
987.302	1853
987.383	1583
987.464	1029
987.544	2003
987.625	2001
987.705	2150
987.786	1860
987.866	1694
987.947	1412
988.027	1294
988.108	1101
988.188	1706
988.268	1984
988.349	792
988.429	909
988.509	1922
988.589	1514
988.670	682
988.750	2009
988.830	1253
988.910	1643
988.990	1111
989.070	1418
989.151	1126
989.231	972
989.311	1886
989.391	1487
989.471	1635
989.551	1104
989.631	1247
989.711	1877
989.791	1004
989.870	830
989.950	1706
990.030	959
990.110	183
990.190	998
990.269	1254
990.349	769
990.429	1197
990.509	984
990.588	229
990.668	710
990.747	994
990.827	656
990.907	2435
990.986	1448
991.066	1120
991.145	368
991.225	1335
991.304	-181
991.383	430
991.463	1019
991.542	1470
991.622	644
991.701	573
991.780	710
991.859	737
991.939	-47
992.018	945
992.097	1111
992.176	767
992.256	947
992.335	542
992.414	524
992.493	510
992.572	894
992.651	1509
992.730	459
992.809	1090
992.888	986
992.967	605
993.046	1148
993.125	198
993.203	947
993.282	975
993.361	991
993.440	158
993.519	157
993.597	1621
993.676	299
993.755	431
993.834	555
993.912	270
993.991	691
994.069	-135
994.148	494
994.226	741
994.305	1059
994.384	439
994.462	694
994.540	-158
994.619	276
994.697	834
994.776	489
994.854	1090
994.932	1047
995.011	989
995.089	530
995.167	-1145
995.245	-5
995.324	-472
995.402	908
995.480	340
995.558	841
995.636	123
995.714	613
995.792	832
995.870	199
995.948	-10
996.026	-159
996.104	215
996.182	830
996.260	407
996.338	414
996.416	646
996.494	22
996.572	1412
996.649	526
996.727	208
996.805	511
996.883	618
996.960	-293
997.038	828
997.116	240
997.193	-385
997.271	124
997.348	123
997.426	-42
997.504	-1029
997.581	519
997.658	301
997.736	-548
997.813	246
997.891	1051
997.968	-240
998.046	556
998.123	192
998.200	936
998.277	-566
998.355	123
998.432	-830
998.509	-472
998.586	386
998.663	306
998.741	-669
998.818	143
998.895	-120
998.972	583
999.049	-385
999.126	40
999.203	359
999.280	-633
999.357	-17
999.434	-212
999.511	679
999.587	511
999.664	268
999.741	109
999.818	-281
999.895	-327
999.971	-180
1000.048	-38
1000.125	242
1000.202	149
1000.278	-691
1000.355	213
1000.431	-239
1000.508	-598
1000.584	-756
1000.661	-691
1000.738	-184
1000.814	-1091
1000.890	354
1000.967	-549
1001.043	67
1001.120	-1144
1001.196	30
1001.272	-693
1001.349	86
1001.425	257
1001.501	-850
1001.577	-182
1001.654	165
1001.730	-376
1001.806	-599
1001.882	-1414
1001.958	-343
1002.034	328
1002.110	250
1002.186	-930
1002.262	175
1002.338	-695
1002.414	-18
1002.490	216
1002.566	-251
1002.642	-296
1002.718	446
1002.794	-591
1002.870	315
1002.945	-515
1003.021	-394
1003.097	-200
1003.173	97
1003.248	-719
1003.324	330
1003.400	-185
1003.475	-971
1003.551	-458
1003.626	-137
1003.702	-1056
1003.777	-628
1003.853	-344
1003.928	-907
1004.004	-30
1004.079	-158
1004.155	-548
1004.230	-1020
1004.305	67
1004.381	-496
1004.456	-3
1004.531	-993
1004.607	-672
1004.682	-847
1004.757	-24
1004.832	-464
1004.907	-276
1004.982	38
1005.057	-313
1005.133	-338
1005.208	-593
1005.283	-530
1005.358	-716
1005.433	-630
1005.508	-574
1005.583	-1217
1005.657	-473
1005.732	448
1005.807	-1184
1005.882	-408
1005.957	-724
1006.032	-338
1006.106	-148
1006.181	-312
1006.256	-385
1006.331	-1422
1006.405	-1456
1006.480	-102
1006.554	-1380
1006.629	-446
1006.704	-830
1006.778	-600
1006.853	-20
1006.927	-217
1007.002	-815
1007.076	49
1007.150	-1089
1007.225	-683
1007.299	-638
1007.373	-314
1007.448	-878
1007.522	-355
1007.596	-495
1007.671	-958
1007.745	-427
1007.819	-1850
1007.893	-1274
1007.967	274
1008.041	-455
1008.115	-275
1008.190	-1151
1008.264	-366
1008.338	-1099
1008.412	-1548
1008.486	-691
1008.560	-817
1008.633	-656
1008.707	-1089
1008.781	-299
1008.855	-772
1008.929	-856
1009.003	-829
1009.076	-980
1009.150	-993
1009.224	-1238
1009.298	-1746
1009.371	-729
1009.445	-443
1009.519	-459
1009.592	-1681
1009.666	-830
1009.739	201
1009.813	-1648
1009.886	-57
1009.960	-833
1010.033	-79
1010.107	-164
1010.180	-1456
1010.253	-879
1010.327	-1096
1010.400	-223
1010.473	-1084
1010.547	-266
1010.620	-886
1010.693	-333
1010.766	-687
1010.840	-376
1010.913	40
1010.986	-1065
1011.059	-481
1011.132	-850
1011.205	462
1011.278	-520
1011.351	-162
1011.424	-140
1011.497	-1443
1011.570	-497
1011.643	15
1011.716	-1474
1011.789	-403
1011.862	-323
1011.934	74
1012.007	-1758
1012.080	-565
1012.153	-1397
1012.225	453
1012.298	-1368
1012.371	-1175
1012.443	-583
1012.516	-971
1012.588	-1061
1012.661	-737
1012.733	-1397
1012.806	-327
1012.879	-250
1012.951	-758
1013.023	-819
1013.096	-439
1013.168	-966
1013.241	-1045
1013.313	-936
1013.385	-1680
1013.458	-943
1013.530	-1276
1013.602	-1356
1013.674	-726
1013.746	-1164
1013.819	-1627
1013.891	-160
1013.963	-1456
1014.035	-635
1014.107	-1137
1014.179	-105
1014.251	-672
1014.323	-591
1014.395	-658
1014.467	-984
1014.539	-737
1014.611	-1313
1014.683	-603
1014.754	-895
1014.826	-1478
1014.898	-594
1014.970	-1110
1015.042	-467
1015.113	-484
1015.185	-669
1015.257	-1849
1015.328	-895
1015.400	-1177
1015.471	-1031
1015.543	-1530
1015.615	-579
1015.686	-1147
1015.757	-506
1015.829	-951
1015.901	-1805
1015.972	-823
1016.043	-741
1016.115	-1230
1016.186	-508
1016.257	-1679
1016.328	-1011
1016.400	-415
1016.471	-2156
1016.542	-727
1016.613	-1544
1016.685	-1184
1016.756	-1326
1016.827	-1400
1016.898	-1634
1016.969	-32
1017.040	-847
1017.111	-1085
1017.182	-1433
1017.253	-1114
1017.324	-497
1017.395	-740
1017.466	-483
1017.537	-1421
1017.608	-1747
1017.678	-65
1017.749	-1760
1017.820	-738
1017.891	-1602
1017.961	-655
1018.032	-1416
1018.103	-596
1018.173	-1042
1018.244	-782
1018.315	-740
1018.385	-866
1018.456	-997
1018.526	-840
1018.597	-1382
1018.667	-1013
1018.738	-836
1018.808	-573
1018.878	-807
1018.949	-1025
1019.019	-856
1019.089	-1470
1019.160	-1068
1019.230	-2038
1019.300	-706
1019.371	-1757
1019.441	-806
1019.511	-1233
1019.581	-549
1019.651	-1458
1019.721	-1808
1019.791	-992
1019.861	-1611
1019.931	-642
1020.001	-1516
1020.071	-778
1020.141	-1171
1020.211	-994
1020.281	-1347
1020.351	-1049
1020.421	-841
1020.491	-733
1020.560	-1578
1020.630	-683
1020.700	-280
1020.770	-1094
1020.839	-1473
1020.909	-229
1020.979	-1107
1021.048	-961
1021.118	-1143
1021.187	-982
1021.257	-1060
1021.326	-807
1021.396	-790
1021.465	-856
1021.535	-905
1021.604	-1479
1021.674	-1328
1021.743	-884
1021.812	-1238
1021.882	-1038
1021.951	-1396
1022.020	-756
1022.089	-1222
1022.159	-1246
1022.228	-1108
1022.297	-1368
1022.366	-965
1022.435	-1593
1022.504	-1758
1022.573	-612
1022.642	-587
1022.711	-1485
1022.781	-1386
1022.849	-388
1022.918	-949
1022.987	-1058
1023.056	-1139
1023.125	-1655
1023.194	-1287
1023.263	-1527
1023.331	-1664
1023.400	-1824
1023.469	-1183
1023.538	-864
1023.606	-1437
1023.675	-1244
1023.744	-2487
1023.812	-1632
1023.881	-1186
1023.949	-1327
1024.018	-1153
1024.086	-1475
1024.155	-1443
1024.223	-1217
1024.292	-743
1024.360	-1543
1024.429	-1083
1024.497	-1646
1024.565	-888
1024.634	-1234
1024.702	-1316
1024.770	-908
1024.838	-1640
1024.907	-81
1024.975	-1839
1025.043	-764
1025.111	-1518
1025.179	-575
1025.247	-1392
1025.315	-1207
1025.383	-1407
1025.451	-1986
1025.519	-1562
1025.587	-909
1025.655	-1363
1025.723	-2002
1025.791	-1623
1025.859	-786
1025.927	-1191
1025.995	-1441
1026.062	-1066
1026.130	-1287
1026.198	-1001
1026.266	-1434
1026.333	-983
1026.401	-559
1026.469	-1508
1026.536	-1024
1026.604	-1406
1026.671	-1032
1026.739	-1643
1026.806	-713
1026.874	-1123
1026.941	-728
1027.009	-1498
1027.076	-1584
1027.144	-922
1027.211	-1402
1027.278	-1329
1027.345	-1235
1027.413	-1142
1027.480	-1800
1027.547	-1351
1027.614	-1162
1027.682	-371
1027.749	-1936
1027.816	-1201
1027.883	-700
1027.950	-2199
1028.017	-1041
1028.084	-516
1028.151	-1632
1028.218	-1870
1028.285	-1145
1028.352	-1292
1028.419	-2087
1028.486	-1744
1028.553	-977
1028.619	-1809
1028.686	-992
1028.753	-1486
1028.820	-1911
1028.886	-1713
1028.953	-1151
1029.020	-1561
1029.086	-2048
1029.153	-1510
1029.220	-1701
1029.286	-1100
1029.353	-597
1029.419	-2082
1029.486	-1952
1029.552	-2037
1029.619	-1123
1029.685	-2282
1029.751	-1603
1029.818	-575
1029.884	-1857
1029.951	-544
1030.017	-1397
1030.083	-1645
1030.149	-1472
1030.216	-1904
1030.282	-1702
1030.348	-1672
1030.414	-1345
1030.480	-1709
1030.546	-1723
1030.612	-862
1030.678	-790
1030.744	-1523
1030.810	-837
1030.876	-1278
1030.942	-1458
1031.008	-1681
1031.074	-1483
1031.140	-1729
1031.206	-260
1031.272	-1505
1031.337	-1583
1031.403	-866
1031.469	-1360
1031.534	-2023
1031.600	-830
1031.666	-1972
1031.731	-1529
1031.797	-721
1031.863	-1631
1031.928	-2238
1031.994	-1875
1032.059	-1166
1032.125	-1435
1032.190	-2131
1032.256	-1327
1032.321	-1519
1032.386	-1563
1032.452	-829
1032.517	-1193
1032.582	-1280
1032.647	-143
1032.713	-1401
1032.778	-1740
1032.843	-1621
1032.908	-1477
1032.974	-1009
1033.039	-994
1033.104	-377
1033.169	-1254
1033.234	-998
1033.299	-857
1033.364	-1076
1033.429	-588
1033.494	-1124
1033.559	-399
1033.624	-1237
1033.688	-929
1033.753	-1553
1033.818	-1544
1033.883	-787
1033.948	-364
1034.013	-120
1034.077	174
1034.142	963
1034.207	1700
1034.271	2379
1034.336	3302
1034.400	3538
1034.465	2011
1034.530	1661
1034.594	-209
1034.658	-1295
1034.723	-1006
1034.787	-925
1034.852	-800
1034.916	-1486
1034.981	-1349
1035.045	-1048
1035.109	-927
1035.173	-1209
1035.238	-1699
1035.302	-2343
1035.366	-1621
1035.430	-1465
1035.495	-1923
1035.559	-1548
1035.623	-902
1035.687	-1072
1035.751	-943
1035.815	-1591
1035.879	-1812
1035.943	-1212
1036.007	-671
1036.071	-1549
1036.135	-2131
1036.198	-1561
1036.262	-1137
1036.326	-771
1036.390	-1168
1036.454	-1595
1036.517	-5
1036.581	-451
1036.645	703
1036.709	903
1036.772	-128
1036.836	-1103
1036.900	-1230
1036.963	-1052
1037.026	-951
1037.090	-1798
1037.154	-793
1037.217	-1058
1037.280	-1596
1037.344	-1298
1037.407	-2008
1037.471	-1534
1037.534	-1207
1037.597	-1249
1037.661	-1462
1037.724	-1275
1037.787	-1459
1037.850	-1447
1037.913	-980
1037.977	-1368
1038.040	-1726
1038.103	-1427
1038.166	-1681
1038.229	-1787
1038.292	-1503
1038.355	-1797
1038.418	-1156
1038.481	-1495
1038.544	-1147
1038.607	-1462
1038.670	-1506
1038.732	-1152
1038.795	-2082
1038.858	-1929
1038.921	-1117
1038.984	-1492
1039.046	-1770
1039.109	-743
1039.172	-2090
1039.234	-1554
1039.297	-2047
1039.360	-2260
1039.422	-2059
1039.485	-1830
1039.547	-1937
1039.610	-2112
1039.672	-1294
1039.734	-1503
1039.797	-1447
1039.859	-1547
1039.922	-1080
1039.984	-2163
1040.046	-1689
1040.109	-2350
1040.171	-1296
1040.233	-2168
1040.295	-1367
1040.358	-2655
1040.420	-1665
1040.482	-2039
1040.544	-1426
1040.606	-1917
1040.668	-2418
1040.730	-1483
1040.792	-1485
1040.854	-1402
1040.916	-1585
1040.978	-1486
1041.040	-1470
1041.102	-1449
1041.164	-1295
1041.225	-1216
1041.287	-2069
1041.349	-1529
1041.411	-1898
1041.472	-1565
1041.534	-2065
1041.596	-1148
1041.657	-1343
1041.719	-1886
1041.781	-1607
1041.842	-2043
1041.904	-1443
1041.965	-2111
1042.027	-1563
1042.088	-1278
1042.150	-1494
1042.211	-2111
1042.272	-1030
1042.334	-1792
1042.395	-1138
1042.456	-2215
1042.518	-1127
1042.579	-1233
1042.640	-1688
1042.701	-1177
1042.763	-2382
1042.824	-1771
1042.885	-2110
1042.946	-2111
1043.007	-1616
1043.068	-2368
1043.129	-1325
1043.190	-1273
1043.251	-2019
1043.312	-1899
1043.373	-1504
1043.434	-2096
1043.495	-1015
1043.556	-1073
1043.616	-1288
1043.677	-1243
1043.738	-1683
1043.799	-2604
1043.859	-1597
1043.920	-1790
1043.981	-1579
1044.041	-1503
1044.102	-1887
1044.162	-1368
1044.223	-1083
1044.284	-1648
1044.344	-1263
1044.405	-911
1044.465	-1462
1044.525	-1568
1044.586	-1739
1044.646	-983
1044.707	-1295
1044.767	-1476
1044.827	-1428
1044.887	-1286
1044.948	-1706
1045.008	-1467
1045.068	-1316
1045.128	-871
1045.188	-1140
1045.249	-744
1045.309	-1459
1045.369	-1167
1045.429	-877
1045.489	-1554
1045.549	-1254
1045.609	-1664
1045.669	-955
1045.729	-1411
1045.789	-1390
1045.848	-2150
1045.908	-1032
1045.968	-2044
1046.028	-759
1046.088	-1284
1046.147	-1145
1046.207	-1718
1046.267	-1144
1046.326	-1210
1046.386	-332
1046.446	-1876
1046.505	-775
1046.565	-355
1046.624	-622
1046.684	-796
1046.743	-187
1046.803	68
1046.862	-695
1046.922	0
