'Start Wavelength	183.907
'End Wavelength	1046.922
'Gate Delay	5.000
'Gate Width (ms)	1.050
'Laser Output Level	0.000
'X Position	0.000
'Y Position	0.000
'Z Position	0.000
'Grid Point Number	1.000
'Shot Number	100.000
183.907	364.000
183.977	-263.000
184.047	-230
184.116	134
184.186	52
184.256	73
184.325	230
184.395	22
184.465	200
184.534	-686
184.604	-104
184.674	283
184.743	-335
184.813	-353
184.883	-133
184.952	632
185.022	-865
185.092	-69
185.161	-475
185.231	-220
185.301	109
185.370	-704
185.440	-114
185.509	-13
185.579	-343
185.649	185
185.718	-543
185.788	142
185.857	-254
185.927	-101
185.996	359
186.066	-563
186.136	-436
186.205	-220
186.275	-237
186.344	-134
186.414	-242
186.483	-1058
186.553	232
186.622	-383
186.692	-227
186.761	294
186.831	68
186.900	-234
186.970	188
187.039	-115
187.109	739
187.178	-462
187.248	-636
187.317	390
187.387	-549
187.456	-67
187.526	201
187.595	278
187.664	-81
187.734	270
187.803	54
187.873	279
187.942	502
188.012	-44
188.081	270
188.150	34
188.220	-39
188.289	441
188.358	177
188.428	-112
188.497	-634
188.567	516
188.636	-463
188.705	159
188.775	-29
188.844	-880
188.913	129
188.983	-140
189.052	47
189.121	392
189.191	712
189.260	-554
189.329	-464
189.399	-313
189.468	188
189.537	-969
189.606	-291
189.676	1003
189.745	183
189.814	374
189.883	129
189.953	-248
190.022	-175
190.091	934
190.161	1433
190.230	-44
190.299	-247
190.368	298
190.437	-616
190.507	184
190.576	-173
190.645	-182
190.714	-988
190.783	-44
190.853	998
190.922	668
190.991	-610
191.060	822
191.129	118
191.198	428
191.268	-362
191.337	-34
191.406	792
191.475	122
191.544	-277
191.613	322
191.682	-759
191.752	-22
191.821	-167
191.890	-542
191.959	-34
192.028	26
192.097	175
192.166	527
192.235	-548
192.304	136
192.373	-188
192.442	297
192.511	-118
192.580	13
192.650	-250
192.719	123
192.788	76
192.857	413
192.926	212
192.995	-269
193.064	-9
193.133	623
193.202	845
193.271	1032
193.340	661
193.409	-40
193.478	254
193.547	1236
193.615	493
193.684	702
193.753	88
193.822	716
193.891	-281
193.960	340
194.029	226
194.098	264
194.167	-977
194.236	-26
194.305	77
194.374	12
194.443	111
194.512	468
194.580	360
194.649	204
194.718	-286
194.787	-64
194.856	62
194.925	224
194.994	32
195.062	562
195.131	143
195.200	663
195.269	938
195.338	1078
195.407	-69
195.475	-125
195.544	842
195.613	-40
195.682	19
195.751	575
195.819	661
195.888	622
195.957	525
196.026	766
196.094	546
196.163	608
196.232	738
196.301	295
196.369	258
196.438	47
196.507	-242
196.576	217
196.644	-79
196.713	-144
196.782	-398
196.850	696
196.919	-1106
196.988	530
197.056	-36
197.125	50
197.194	-96
197.262	-10
197.331	-169
197.400	484
197.468	-26
197.537	-256
197.606	318
197.674	1360
197.743	1208
197.812	608
197.880	640
197.949	1084
198.017	1107
198.086	62
198.155	-14
198.223	993
198.292	1373
198.360	420
198.429	846
198.497	587
198.566	1200
198.635	1021
198.703	1530
198.772	1261
198.840	1401
198.909	1661
198.977	494
199.046	336
199.114	366
199.183	1021
199.251	-88
199.320	-447
199.388	-334
199.457	-293
199.525	229
199.594	297
199.662	-458
199.731	253
199.799	565
199.867	5
199.936	613
200.004	289
200.073	430
200.141	-44
200.210	-89
200.278	694
200.346	904
200.415	24
200.483	-107
200.552	564
200.620	-303
200.688	326
200.757	80
200.825	558
200.893	-395
200.962	242
201.030	-38
201.098	260
201.167	157
201.235	297
201.303	-470
201.372	-14
201.440	230
201.508	591
201.577	53
201.645	824
201.713	-52
201.781	205
201.850	678
201.918	652
201.986	-281
202.055	715
202.123	-241
202.191	526
202.259	46
202.327	370
202.396	693
202.464	469
202.532	488
202.600	2082
202.669	1377
202.737	-512
202.805	236
202.873	-394
202.941	1075
203.009	892
203.078	-75
203.146	563
203.214	-181
203.282	-221
203.350	962
203.418	163
203.487	-50
203.555	-280
203.623	375
203.691	726
203.759	433
203.827	130
203.895	15
203.963	94
204.031	-274
204.099	728
204.168	448
204.236	385
204.304	454
204.372	262
204.440	-15
204.508	295
204.576	-13
204.644	1395
204.712	-55
204.780	683
204.848	519
204.916	113
204.984	-223
205.052	193
205.120	92
205.188	345
205.256	685
205.324	364
205.392	25
205.460	172
205.528	136
205.596	52
205.664	638
205.732	568
205.799	1792
205.867	2613
205.935	302
206.003	818
206.071	7
206.139	105
206.207	92
206.275	307
206.343	8
206.411	761
206.478	560
206.546	-401
206.614	-269
206.682	79
206.750	-552
206.818	871
206.885	950
206.953	106
207.021	392
207.089	326
207.157	-228
207.225	613
207.292	-164
207.360	760
207.428	-370
207.496	791
207.563	-456
207.631	706
207.699	-284
207.767	581
207.834	279
207.902	316
207.970	51
208.038	380
208.105	546
208.173	1070
208.241	491
208.309	1261
208.376	615
208.444	1071
208.512	717
208.579	-411
208.647	678
208.715	690
208.782	290
208.850	263
208.918	277
208.985	-100
209.053	60
209.120	-37
209.188	313
209.256	-196
209.323	-153
209.391	1145
209.459	1742
209.526	598
209.594	-70
209.661	762
209.729	251
209.796	584
209.864	993
209.932	199
209.999	1176
210.067	637
210.134	721
210.202	816
210.269	827
210.337	1118
210.404	279
210.472	-55
210.539	951
210.607	897
210.674	1367
210.742	801
210.809	784
210.877	583
210.944	1038
211.012	692
211.079	835
211.146	787
211.214	311
211.281	441
211.349	987
211.416	527
211.484	372
211.551	-163
211.618	242
211.686	1085
211.753	66
211.821	1354
211.888	767
211.955	785
212.023	827
212.090	875
212.157	1430
212.225	1303
212.292	2055
212.359	4325
212.427	9815
212.494	3797
212.561	1104
212.629	1236
212.696	199
212.763	1109
212.831	998
212.898	773
212.965	201
213.032	933
213.100	535
213.167	-722
213.234	1699
213.301	1525
213.369	798
213.436	464
213.503	1149
213.570	939
213.638	445
213.705	647
213.772	-650
213.839	1448
213.906	966
213.973	771
214.041	579
214.108	1042
214.175	924
214.242	-208
214.309	388
214.376	1289
214.444	516
214.511	1336
214.578	1088
214.645	1054
214.712	1760
214.779	859
214.846	816
214.913	1216
214.980	1688
215.048	1146
215.115	951
215.182	1175
215.249	1059
215.316	1448
215.383	619
215.450	734
215.517	549
215.584	735
215.651	1109
215.718	892
215.785	1402
215.852	618
215.919	954
215.986	1655
216.053	399
216.120	-141
216.187	858
216.254	1082
216.321	678
216.388	1125
216.455	861
216.522	1141
216.589	853
216.656	2118
216.722	1791
216.789	1326
216.856	1894
216.923	1540
216.990	1249
217.057	1721
217.124	2597
217.191	1024
217.258	2325
217.324	2660
217.391	2180
217.458	2262
217.525	803
217.592	1816
217.659	995
217.725	1906
217.792	1731
217.859	2480
217.926	675
217.993	444
218.059	794
218.126	924
218.193	-76
218.260	14
218.327	336
218.393	960
218.460	143
218.527	748
218.594	-3
218.660	1578
218.727	2050
218.794	962
218.860	756
218.927	540
218.994	251
219.061	371
219.127	485
219.194	1434
219.261	135
219.327	646
219.394	813
219.461	232
219.527	830
219.594	1274
219.661	830
219.727	271
219.794	294
219.860	-37
219.927	929
219.994	907
220.060	1447
220.127	1144
220.193	1698
220.260	1244
220.326	1550
220.393	2893
220.460	4159
220.526	3166
220.593	1271
220.659	2270
220.726	1566
220.792	4490
220.859	3729
220.925	5282
220.992	7510
221.058	7898
221.125	6788
221.191	5260
221.258	1640
221.324	1574
221.391	908
221.457	308
221.524	678
221.590	1380
221.657	6181
221.723	2950
221.789	3284
221.856	3278
221.922	953
221.989	1825
222.055	612
222.121	-470
222.188	1352
222.254	-64
222.321	461
222.387	271
222.453	-194
222.520	630
222.586	-268
222.652	343
222.719	252
222.785	755
222.851	222
222.918	559
222.984	486
223.050	-19
223.116	-621
223.183	953
223.249	-512
223.315	106
223.382	95
223.448	404
223.514	-312
223.580	466
223.647	-427
223.713	-171
223.779	63
223.845	324
223.911	598
223.978	-528
224.044	631
224.110	166
224.176	-22
224.242	274
224.309	-35
224.375	-486
224.441	487
224.507	112
224.573	-28
224.639	-176
224.705	171
224.772	476
224.838	570
224.904	97
224.970	406
225.036	460
225.102	-155
225.168	-242
225.234	641
225.300	226
225.366	289
225.432	424
225.499	223
225.565	263
225.631	-174
225.697	446
225.763	467
225.829	1013
225.895	885
225.961	1432
226.027	1274
226.093	1406
226.159	1931
226.225	2993
226.291	6722
226.357	11699
226.423	5090
226.489	2837
226.554	1210
226.620	1931
226.686	1875
226.752	4028
226.818	6249
226.884	15844
226.950	11839
227.016	4793
227.082	2754
227.148	2390
227.214	1490
227.279	908
227.345	333
227.411	90
227.477	701
227.543	712
227.609	1741
227.674	1612
227.740	588
227.806	1067
227.872	41
227.938	-32
228.003	933
228.069	418
228.135	334
228.201	-181
228.267	-168
228.332	658
228.398	163
228.464	537
228.530	-20
228.595	-410
228.661	455
228.727	325
228.792	829
228.858	-579
228.924	-537
228.990	1266
229.055	79
229.121	1214
229.187	420
229.252	-355
229.318	75
229.384	639
229.449	682
229.515	-306
229.581	-1312
229.646	1795
229.712	480
229.777	1679
229.843	2252
229.909	1276
229.974	1418
230.040	1394
230.105	558
230.171	308
230.236	1803
230.302	2145
230.368	1670
230.433	664
230.499	1530
230.564	892
230.630	-270
230.695	609
230.761	1299
230.826	-262
230.892	1455
230.957	150
231.023	623
231.088	-246
231.154	-112
231.219	1286
231.284	1315
231.350	1429
231.415	-77
231.481	705
231.546	1140
231.612	111
231.677	-521
231.742	-690
231.808	928
231.873	-780
231.939	-1149
232.004	1501
232.069	674
232.135	280
232.200	685
232.265	319
232.331	220
232.396	460
232.461	133
232.527	-952
232.592	-542
232.657	102
232.723	343
232.788	20
232.853	355
232.918	333
232.984	-427
233.049	-143
233.114	1324
233.179	1329
233.245	2813
233.310	2122
233.375	203
233.440	814
233.506	-122
233.571	-352
233.636	310
233.701	560
233.766	1532
233.832	1832
233.897	16
233.962	-927
234.027	1450
234.092	278
234.157	615
234.222	673
234.288	1517
234.353	7541
234.418	6095
234.483	2705
234.548	1451
234.613	997
234.678	1002
234.743	801
234.808	7044
234.873	3476
234.938	2092
235.004	1924
235.069	644
235.134	-129
235.199	270
235.264	-177
235.329	48
235.394	672
235.459	1476
235.524	1249
235.589	830
235.654	602
235.719	69
235.784	883
235.849	772
235.913	2893
235.978	3158
236.043	4341
236.108	825
236.173	883
236.238	971
236.303	93
236.368	271
236.433	2545
236.498	3750
236.563	2010
236.627	5910
236.692	18988
236.757	14419
236.822	5697
236.887	3835
236.952	2260
237.017	1610
237.081	2293
237.146	3600
237.211	8582
237.276	18644
237.341	29785
237.405	13321
237.470	5612
237.535	4072
237.600	2592
237.664	2208
237.729	1155
237.794	2302
237.859	4601
237.923	2877
237.988	2060
238.053	3209
238.118	2745
238.182	9729
238.247	8874
238.312	2519
238.376	2590
238.441	513
238.506	1857
238.570	-160
238.635	1021
238.700	993
238.764	510
238.829	3725
238.893	3873
238.958	963
239.023	2050
239.087	760
239.152	1312
239.216	276
239.281	26
239.346	96
239.410	835
239.475	1562
239.539	10225
239.604	5997
239.668	1708
239.733	80
239.797	546
239.862	1485
239.926	6091
239.991	2164
240.055	215
240.120	278
240.184	567
240.249	396
240.313	429
240.378	1065
240.442	5184
240.507	8341
240.571	1508
240.635	3590
240.700	4071
240.764	1488
240.829	618
240.893	116
240.957	148
241.022	5004
241.086	8911
241.151	2711
241.215	470
241.279	2475
241.344	3556
241.408	1148
241.472	217
241.537	709
241.601	1166
241.665	629
241.730	684
241.794	1332
241.858	791
241.922	496
241.987	1088
242.051	344
242.115	367
242.179	598
242.244	373
242.308	829
242.372	1373
242.436	1286
242.501	390
242.565	151
242.629	363
242.693	1076
242.757	-60
242.822	446
242.886	1071
242.950	819
243.014	-431
243.078	1010
243.142	1624
243.206	16
243.271	1581
243.335	374
243.399	2615
243.463	10685
243.527	28040
243.591	6826
243.655	2986
243.719	1038
243.783	1906
243.847	2527
243.911	4742
243.975	4376
244.040	2658
244.104	1888
244.168	280
244.232	1659
244.296	3294
244.360	3491
244.424	1394
244.488	1475
244.552	1584
244.615	277
244.679	796
244.743	590
244.807	300
244.871	582
244.935	929
244.999	-653
245.063	416
245.127	1192
245.191	2575
245.255	1319
245.319	1951
245.383	-80
245.446	1758
245.510	-504
245.574	1613
245.638	967
245.702	-161
245.766	3981
245.829	2622
245.893	197
245.957	1672
246.021	373
246.085	1222
246.149	1354
246.212	5702
246.276	7266
246.340	2440
246.404	2161
246.467	3311
246.531	2007
246.595	2147
246.659	1903
246.722	678
246.786	2059
246.850	2446
246.913	3127
246.977	816
247.041	1385
247.104	1482
247.168	1164
247.232	5228
247.295	11050
247.359	4738
247.423	2533
247.486	3954
247.550	1724
247.614	1854
247.677	2094
247.741	755
247.804	477
247.868	1656
247.932	4873
247.995	11223
248.059	2978
248.122	1186
248.186	2522
248.249	4658
248.313	18785
248.376	18454
248.440	11305
248.503	2202
248.567	4082
248.630	3880
248.694	6468
248.757	8417
248.821	19585
248.884	10293
248.948	9500
249.011	15152
249.075	22266
249.138	18438
249.202	6697
249.265	3851
249.328	6008
249.392	3159
249.455	3206
249.519	1660
249.582	2767
249.645	5651
249.709	3841
249.772	3927
249.835	3231
249.899	3068
249.962	2154
250.025	2012
250.089	6502
250.152	9378
250.215	3381
250.279	2942
250.342	3813
250.405	2274
250.468	2209
250.532	3371
250.595	5931
250.658	27390
250.721	41638
250.785	13091
250.848	6661
250.911	3643
250.974	3770
251.038	5600
251.101	11857
251.164	4537
251.227	5924
251.290	4892
251.354	9003
251.417	37834
251.480	33728
251.543	24093
251.606	72779
251.669	47095
251.732	16327
251.795	17294
251.859	18211
251.922	44077
251.985	21723
252.048	8258
252.111	5675
252.174	4927
252.237	10373
252.300	24468
252.363	26797
252.426	55470
252.489	19674
252.552	10560
252.615	6324
252.678	7666
252.741	18444
252.804	24393
252.867	55834
252.930	29517
252.993	14577
253.056	9100
253.119	5794
253.182	4258
253.245	8454
253.308	5977
253.371	5839
253.434	5054
253.497	5582
253.559	10889
253.622	5749
253.685	8134
253.748	8346
253.811	4000
253.874	5904
253.937	4626
254.000	2986
254.062	7151
254.125	10556
254.188	9790
254.251	7292
254.314	3684
254.376	7812
254.439	7611
254.502	6661
254.565	6600
254.628	12510
254.690	5878
254.753	3751
254.816	2679
254.878	3107
254.941	8029
255.004	7949
255.067	2695
255.129	2587
255.192	2010
255.255	-146
255.317	2211
255.380	1462
255.443	84
255.505	920
255.568	297
255.631	203
255.693	1017
255.756	-698
255.819	1436
255.881	-243
255.944	723
256.006	1035
256.069	-234
256.132	509
256.194	1704
256.257	6531
256.319	4591
256.382	3640
256.444	2383
256.507	786
256.569	950
256.632	619
256.694	3003
256.757	11678
256.819	28717
256.882	9991
256.944	3388
257.007	3399
257.069	1988
257.132	1765
257.194	1846
257.257	1022
257.319	930
257.381	1397
257.444	8144
257.506	35720
257.569	34238
257.631	13089
257.693	7901
257.756	3714
257.818	3027
257.880	867
257.943	1181
258.005	1284
258.067	698
258.130	636
258.192	2035
258.254	3952
258.317	1177
258.379	1338
258.441	5858
258.503	5847
258.566	8972
258.628	11874
258.690	1658
258.753	2335
258.815	4283
258.877	1240
258.939	1218
259.001	709
259.064	412
259.126	678
259.188	3085
259.250	1976
259.312	1894
259.375	4535
259.437	2534
259.499	1195
259.561	692
259.623	1492
259.685	300
259.747	1571
259.809	8845
259.872	17352
259.934	26959
259.996	20076
260.058	4494
260.120	1775
260.182	1160
260.244	884
260.306	440
260.368	1196
260.430	815
260.492	1736
260.554	4767
260.616	3078
260.678	12447
260.740	16944
260.802	3419
260.864	2525
260.926	1002
260.988	2016
261.050	1444
261.112	4405
261.174	17580
261.236	12710
261.298	2853
261.359	6989
261.421	10269
261.483	1658
261.545	2017
261.607	-106
261.669	1022
261.731	3528
261.793	10680
261.854	1796
261.916	1542
261.978	683
262.040	1970
262.102	1513
262.164	3784
262.225	2054
262.287	1473
262.349	4059
262.411	4040
262.472	1897
262.534	4443
262.596	9442
262.658	2521
262.719	-241
262.781	2498
262.843	10017
262.904	3271
262.966	2179
263.028	3037
263.090	21487
263.151	48283
263.213	12952
263.275	5239
263.336	2565
263.398	1841
263.459	559
263.521	524
263.583	4618
263.644	2465
263.706	813
263.767	-335
263.829	914
263.891	427
263.952	-84
264.014	-107
264.075	804
264.137	4439
264.198	2400
264.260	79
264.321	945
264.383	3431
264.444	8252
264.506	1061
264.567	903
264.629	2809
264.690	4768
264.752	1730
264.813	1128
264.875	-506
264.936	535
264.998	-87
265.059	-323
265.120	1290
265.182	1955
265.243	15667
265.305	13771
265.366	2840
265.427	989
265.489	1758
265.550	-525
265.611	1220
265.673	850
265.734	340
265.795	477
265.857	-217
265.918	226
265.979	4822
266.040	26763
266.102	18416
266.163	4801
266.224	3161
266.286	1543
266.347	190
266.408	1001
266.469	1264
266.530	582
266.592	149
266.653	2167
266.714	4300
266.775	1418
266.836	-140
266.898	435
266.959	1282
267.020	48
267.081	772
267.142	27
267.203	150
267.264	-1184
267.326	1068
267.387	226
267.448	-241
267.509	-125
267.570	797
267.631	-761
267.692	-710
267.753	-272
267.814	-358
267.875	1890
267.936	4889
267.997	2151
268.058	1201
268.119	-21
268.180	1182
268.241	-397
268.302	179
268.363	-622
268.424	154
268.485	-19
268.546	-511
268.607	140
268.668	-152
268.729	-246
268.790	56
268.851	851
268.912	3342
268.972	4416
269.033	1552
269.094	-429
269.155	-12
269.216	288
269.277	358
269.338	17
269.398	-508
269.459	-448
269.520	412
269.581	1790
269.642	2215
269.702	296
269.763	1260
269.824	60
269.885	160
269.945	1710
270.006	490
270.067	-635
270.128	11
270.188	-801
270.249	-877
270.310	-492
270.370	716
270.431	537
270.492	-927
270.553	654
270.613	2392
270.674	5277
270.734	1899
270.795	-430
270.856	862
270.916	1198
270.977	200
271.038	742
271.098	779
271.159	1901
271.219	1661
271.280	804
271.340	1333
271.401	-179
271.462	4090
271.522	1763
271.583	287
271.643	453
271.704	-182
271.764	550
271.825	3754
271.885	17666
271.946	22394
272.006	5608
272.066	10270
272.127	17346
272.187	3352
272.248	2337
272.308	2387
272.369	12478
272.429	6016
272.489	2961
272.550	3582
272.610	4057
272.671	1905
272.731	2948
272.791	5547
272.852	1818
272.912	2185
272.972	303
273.033	694
273.093	1957
273.153	1974
273.214	702
273.274	1211
273.334	8234
273.394	16691
273.455	5662
273.515	6181
273.575	15417
273.635	5782
273.696	8386
273.756	16652
273.816	5342
273.876	2665
273.936	9671
273.997	16863
274.057	2370
274.117	1913
274.177	4695
274.237	22036
274.297	17642
274.358	12071
274.418	13552
274.478	9202
274.538	3042
274.598	2025
274.658	14196
274.718	17772
274.778	6087
274.838	2682
274.898	7548
274.958	25119
275.018	18489
275.078	10826
275.138	3464
275.198	1996
275.258	1737
275.318	2266
275.378	3781
275.438	3927
275.498	2574
275.558	12309
275.618	23167
275.678	11989
275.738	6702
275.798	4133
275.858	1903
275.918	18
275.978	1824
276.038	1155
276.098	384
276.157	3739
276.217	11398
276.277	4187
276.337	2725
276.397	1005
276.457	1493
276.517	894
276.576	843
276.636	-131
276.696	1951
276.756	6831
276.815	3184
276.875	1733
276.935	1950
276.995	722
277.055	175
277.114	-35
277.174	1674
277.234	9689
277.293	2461
277.353	1169
277.413	798
277.472	640
277.532	1743
277.592	1942
277.651	5976
277.711	10306
277.771	3588
277.830	14836
277.890	11130
277.950	8885
278.009	26965
278.069	8533
278.128	8407
278.188	11005
278.248	4189
278.307	11541
278.367	6880
278.426	1670
278.486	972
278.545	-41
278.605	784
278.664	-120
278.724	889
278.783	6828
278.843	17212
278.902	3695
278.962	1578
279.021	1904
279.081	3304
279.140	2971
279.199	1812
279.259	1976
279.318	2695
279.378	2782
279.437	7224
279.496	25705
279.556	88174
279.615	59355
279.675	13211
279.734	8010
279.793	12365
279.853	18750
279.912	5898
279.971	2743
280.031	2642
280.090	7251
280.149	11540
280.208	10905
280.268	61852
280.327	54619
280.386	10715
280.445	9448
280.505	8054
280.564	3123
280.623	2590
280.682	5131
280.742	8514
280.801	1551
280.860	918
280.919	670
280.978	-580
281.037	539
281.097	718
281.156	726
281.215	266
281.274	1705
281.333	11338
281.392	7182
281.451	1363
281.510	650
281.569	717
281.628	-66
281.688	98
281.747	615
281.806	303
281.865	-103
281.924	-388
281.983	-110
282.042	-399
282.101	94
282.160	391
282.219	-495
282.278	559
282.337	5156
282.396	3102
282.454	359
282.513	693
282.572	8322
282.631	3820
282.690	493
282.749	518
282.808	1535
282.867	553
282.926	528
282.985	-206
283.043	-229
283.102	-249
283.161	314
283.220	4181
283.279	10328
283.338	1866
283.396	511
283.455	545
283.514	1133
283.573	2255
283.631	830
283.690	155
283.749	385
283.808	1881
283.866	4241
283.925	411
283.984	755
284.043	1298
284.101	1012
284.160	-294
284.219	833
284.277	1173
284.336	3295
284.395	12263
284.453	9569
284.512	2234
284.570	3166
284.629	1500
284.688	989
284.746	2343
284.805	2788
284.863	3262
284.922	3708
284.981	4066
285.039	7173
285.098	15827
285.156	41101
285.215	102816
285.273	91099
285.332	40447
285.390	20736
285.449	12589
285.507	8698
285.566	5509
285.624	3948
285.683	2940
285.741	1695
285.799	1507
285.858	1006
285.916	1481
285.975	1048
286.033	997
286.091	719
286.150	131
286.208	282
286.267	708
286.325	984
286.383	2745
286.442	1874
286.500	647
286.558	253
286.616	-764
286.675	1125
286.733	654
286.791	764
286.850	795
286.908	1958
286.966	4064
287.024	1267
287.083	265
287.141	-393
287.199	590
287.257	1182
287.315	745
287.374	1137
287.432	4255
287.490	2638
287.548	893
287.606	482
287.664	805
287.723	1365
287.781	2251
287.839	1121
287.897	1422
287.955	2293
288.013	4041
288.071	13679
288.129	55952
288.187	140089
288.245	56514
288.303	18027
288.361	10091
288.419	6686
288.477	4609
288.535	3164
288.593	1716
288.651	1044
288.709	489
288.767	408
288.825	756
288.883	-236
288.941	-197
288.999	793
289.057	27
289.115	-519
289.173	81
289.231	361
289.289	-172
289.346	114
289.404	11
289.462	2227
289.520	1729
289.578	512
289.636	-618
289.694	-683
289.751	-180
289.809	124
289.867	162
289.925	1102
289.983	433
290.040	49
290.098	-252
290.156	-1026
290.214	743
290.271	-462
290.329	-1007
290.387	-827
290.444	-534
290.502	-1357
290.560	-411
290.617	-500
290.675	-640
290.733	38
290.790	393
290.848	448
290.906	425
290.963	285
291.021	-466
291.078	-273
291.136	25
291.194	4159
291.251	9483
291.309	1306
291.366	870
291.424	728
291.481	-82
291.539	-21
291.596	-71
291.654	-651
291.711	-1224
291.769	987
291.826	1044
291.884	457
291.941	-141
291.999	-46
292.056	25
292.114	29
292.171	161
292.228	413
292.286	-312
292.343	2181
292.401	3072
292.458	1448
292.515	696
292.573	534
292.630	93
292.687	628
292.745	-58
292.802	1748
292.859	4571
292.917	11274
292.974	4727
293.031	1321
293.089	-179
293.146	-122
293.203	-538
293.260	-201
293.318	88
293.375	817
293.432	-101
293.489	565
293.546	-17
293.604	1563
293.661	6917
293.718	18785
293.775	7441
293.832	3071
293.889	1355
293.947	1385
294.004	1588
294.061	1402
294.118	4499
294.175	10089
294.232	10593
294.289	3473
294.346	1669
294.403	2220
294.460	809
294.517	289
294.574	492
294.631	18
294.688	452
294.745	5332
294.802	20822
294.859	19355
294.916	6492
294.973	2833
295.030	2510
295.087	1675
295.144	1024
295.201	499
295.258	655
295.315	1400
295.372	8430
295.429	16046
295.486	5133
295.542	3527
295.599	7678
295.656	13368
295.713	10100
295.770	14451
295.827	4412
295.883	1140
295.940	2107
295.997	3457
296.054	2968
296.111	1310
296.167	812
296.224	-600
296.281	-693
296.338	66
296.394	229
296.451	1774
296.508	6040
296.564	11937
296.621	7911
296.678	17276
296.734	24183
296.791	8320
296.848	4034
296.904	4586
296.961	10801
297.018	17460
297.074	10944
297.131	3997
297.187	2894
297.244	5056
297.301	17590
297.357	30974
297.414	9225
297.470	3615
297.527	1377
297.583	1813
297.640	1363
297.696	706
297.753	428
297.809	313
297.866	-207
297.922	691
297.979	-824
298.035	348
298.092	1840
298.148	9798
298.204	8645
298.261	3649
298.317	7106
298.374	20837
298.430	11754
298.486	4157
298.543	2701
298.599	2795
298.656	3587
298.712	6894
298.768	17861
298.824	10601
298.881	2486
298.937	1532
298.993	1269
299.050	1811
299.106	1327
299.162	656
299.218	1357
299.275	974
299.331	1861
299.387	3851
299.443	18237
299.500	17476
299.556	4492
299.612	2113
299.668	1027
299.724	1174
299.780	1654
299.837	560
299.893	3814
299.949	14898
300.005	16826
300.061	13421
300.117	24362
300.173	11362
300.229	4818
300.285	5668
300.341	6699
300.397	3052
300.453	1368
300.510	906
300.566	203
300.622	1309
300.678	2873
300.734	10536
300.790	13165
300.845	18333
300.901	8833
300.957	12701
301.013	10409
301.069	3590
301.125	1986
301.181	2345
301.237	1670
301.293	698
301.349	780
301.405	1019
301.461	501
301.516	2041
301.572	1331
301.628	3183
301.684	2470
301.740	5344
301.796	10471
301.851	5858
301.907	11515
301.963	12160
302.019	19798
302.074	54385
302.130	52725
302.186	22645
302.242	8988
302.297	5598
302.353	5709
302.409	10929
302.464	9508
302.520	6869
302.576	18623
302.631	21892
302.687	11383
302.743	4210
302.798	2094
302.854	1739
302.910	1627
302.965	2570
303.021	5104
303.076	4747
303.132	6229
303.187	8244
303.243	2890
303.299	1559
303.354	1011
303.410	1208
303.465	1105
303.521	664
303.576	374
303.632	1618
303.687	5196
303.743	17751
303.798	14184
303.853	4695
303.909	1940
303.964	2470
304.020	3534
304.075	6629
304.130	4929
304.186	9089
304.241	10461
304.297	8029
304.352	4103
304.358	3865
304.407	1933
304.449	1285
304.463	1071
304.518	1826
304.539	1480
304.573	915
304.629	1427
304.630	1477
304.684	3898
304.720	9235
304.739	11934
304.794	19058
304.811	16119
304.850	8858
304.902	3477
304.905	3146
304.960	2120
304.992	2395
305.015	2566
305.071	1938
305.083	1757
305.126	1131
305.173	830
305.181	785
305.236	-136
305.264	447
305.292	1071
305.347	1108
305.354	1211
305.402	1838
305.445	1874
305.457	1894
305.512	2802
305.535	3191
305.567	3621
305.622	2650
305.626	2805
305.678	7071
305.716	16565
305.733	19938
305.788	21910
305.807	18843
305.843	13452
305.897	17264
305.898	17299
305.953	17308
305.988	11354
306.008	8069
306.063	4178
306.078	3599
306.118	2582
306.168	1855
306.173	1793
306.228	1103
306.259	1069
306.283	1082
306.338	1076
306.349	1142
306.393	1501
306.440	2030
306.448	2097
306.503	1517
306.530	1791
306.558	2748
306.613	6560
306.620	7127
306.668	11499
306.711	17129
306.723	17747
306.778	14538
306.801	11190
306.833	7161
306.888	3004
306.892	2837
306.943	1970
306.982	1520
306.997	1390
307.052	1531
307.072	1356
307.107	1362
307.162	2655
307.163	2671
307.217	4535
307.253	5046
307.272	5074
307.327	5271
307.343	5004
307.381	4109
307.434	3699
307.436	3881
307.491	9432
307.524	14214
307.546	15364
307.600	16330
307.614	14669
307.655	8523
307.704	3882
307.710	3741
307.765	4431
307.795	5461
307.819	6961
307.874	11927
307.885	12225
307.929	10005
307.975	7402
307.984	7518
308.038	10927
308.065	14255
308.093	24932
308.148	52350
308.156	58592
308.202	94617
308.246	116596
308.257	113097
308.312	62577
308.336	43704
308.366	33413
308.421	21241
308.426	20143
308.475	12357
308.517	8104
308.530	7480
308.585	6800
308.607	6418
308.639	6034
308.694	5851
308.697	5923
308.748	11658
308.787	16793
308.803	16387
308.857	12288
308.877	10366
308.912	8701
308.967	7592
308.967	7590
309.021	11149
309.058	14238
309.076	18142
309.130	33530
309.148	39964
309.185	74437
309.238	132795
309.239	133280
309.293	147616
309.328	138502
309.348	118686
309.402	57242
309.418	41796
309.457	29169
309.508	17105
309.511	16716
309.566	13813
309.598	12341
309.620	13251
309.674	16777
309.688	17829
309.729	16486
309.778	13346
309.783	13061
309.837	9753
309.868	8324
309.892	10860
309.946	18075
309.959	20368
310.001	28439
310.049	35334
310.055	34066
310.109	19613
310.139	11356
310.163	8735
310.218	4819
310.229	4131
310.272	3464
310.319	3072
310.326	2998
310.381	2780
310.409	2482
310.435	2282
310.489	2042
310.499	2038
310.543	2643
310.589	3116
310.598	2930
310.652	1932
310.679	1324
310.706	1560
310.760	2108
310.769	2189
310.814	1749
310.859	1339
310.868	1391
310.923	1521
310.948	1658
310.977	1657
311.031	1789
311.038	1793
311.085	2093
311.128	2164
311.139	2044
311.193	1661
311.218	1429
311.247	1537
311.301	1722
311.308	1741
311.356	1725
311.398	1709
311.410	1661
311.464	1410
311.488	1332
311.518	1294
311.572	1130
311.578	1112
311.626	2169
311.668	3150
311.680	3107
311.734	2801
311.758	2672
311.788	2819
311.842	3050
311.847	3069
311.896	3387
311.937	3667
311.950	3661
312.004	3591
312.027	3555
312.058	3111
312.112	2304
312.117	2223
312.165	2610
312.207	2940
312.297	2174
312.386	1526
312.476	2330
312.566	5506
312.656	2816
312.745	1678
312.835	1368
312.925	2035
313.015	1409
313.104	3029
313.194	958
313.284	1601
313.374	2290
313.463	2019
313.553	962
313.643	852
313.732	1186
313.822	1255
313.912	1146
314.001	1730
314.091	1099
314.180	2816
314.270	3163
314.360	3360
314.449	2638
314.539	1540
314.628	1154
314.718	1634
314.808	2982
314.897	919
314.987	1599
315.076	2421
315.166	2983
315.255	3282
315.345	2969
315.434	2977
315.524	2381
315.613	2430
315.703	2701
315.792	3947
315.881	3338
315.971	2268
316.060	6062
316.150	9244
316.239	8529
316.328	3781
316.418	1734
316.507	2061
316.597	2776
316.686	2706
316.775	3206
316.865	10375
316.954	1957
317.043	1243
317.133	880
317.222	1579
317.311	1074
317.400	708
317.490	2685
317.579	3177
317.668	1476
317.757	2532
317.847	3536
317.936	5797
318.025	7441
318.114	3542
318.203	2655
318.293	4187
318.382	7554
318.471	7038
318.560	9345
318.649	21934
318.738	4821
318.828	3327
318.917	3993
319.006	4567
319.095	11307
319.184	28204
319.273	17791
319.362	10596
319.451	3196
319.540	2641
319.629	6258
319.718	13277
319.807	5161
319.896	8579
319.985	36519
320.074	14944
320.163	3670
320.252	5998
320.341	4282
320.430	3629
320.519	5212
320.608	3038
320.697	1813
320.786	2198
320.875	3587
320.964	4808
321.053	7930
321.142	11311
321.230	12322
321.319	7783
321.408	20140
321.497	8398
321.586	8500
321.675	8923
321.764	10040
321.852	5783
321.941	11390
322.030	7919
322.119	6845
322.207	23295
322.296	14962
322.385	5813
322.474	7224
322.562	26528
322.651	13950
322.740	8556
322.829	12959
322.917	13629
323.006	7652
323.095	6488
323.183	4836
323.272	7771
323.361	13157
323.449	47762
323.538	15449
323.626	29193
323.715	20314
323.804	6609
323.892	26467
323.981	16703
324.069	4350
324.158	13351
324.246	14399
324.335	3386
324.424	7491
324.512	2832
324.601	3401
324.689	5644
324.778	9361
324.866	9001
324.954	2624
325.043	2585
325.131	4717
325.220	10407
325.308	12217
325.397	8610
325.485	5564
325.574	1626
325.662	1542
325.750	2088
325.839	1962
325.927	1363
326.015	1847
326.104	4464
326.192	6368
326.280	1618
326.369	1120
326.457	3067
326.545	5719
326.634	2423
326.722	835
326.810	1160
326.898	898
326.987	1110
327.075	4952
327.163	5955
327.251	2070
327.340	1789
327.428	3611
327.516	903
327.604	1124
327.692	2058
327.781	1320
327.869	5031
327.957	2153
328.045	2498
328.133	1375
328.221	2069
328.309	1774
328.397	1147
328.485	2747
328.574	3361
328.662	13144
328.750	7385
328.838	2377
328.926	1541
329.014	1030
329.102	2093
329.190	5726
329.278	4507
329.366	934
329.454	831
329.542	461
329.630	225
329.718	1199
329.806	1365
329.893	1155
329.981	1590
330.069	3512
330.157	11688
330.245	36778
330.333	20836
330.421	2966
330.509	3683
330.597	16555
330.684	11442
330.772	3260
330.860	3651
330.948	5055
331.036	2602
331.123	243
331.211	1249
331.299	1791
331.387	3041
331.475	7696
331.562	3141
331.650	1578
331.738	1642
331.825	1986
331.913	701
332.001	1159
332.089	1051
332.176	4092
332.264	12840
332.352	10956
332.439	2335
332.527	1263
332.614	1130
332.702	2177
332.790	1258
332.877	5103
332.965	12416
333.052	2646
333.140	2068
333.228	5765
333.315	2144
333.403	915
333.490	6154
333.578	5125
333.665	6000
333.753	3449
333.840	1087
333.928	2087
334.015	7685
334.103	11279
334.190	39033
334.278	10411
334.365	2427
334.452	1963
334.540	1506
334.627	1434
334.715	3079
334.802	7201
334.889	49197
334.977	54984
335.064	5835
335.151	1729
335.239	1860
335.326	2979
335.413	16179
335.501	25849
335.588	3281
335.675	2009
335.762	1620
335.850	3701
335.937	2440
336.024	9450
336.111	50018
336.199	19248
336.286	3250
336.373	1238
336.460	833
336.547	1051
336.635	1412
336.722	2125
336.809	1783
336.896	2773
336.983	9284
337.070	24578
337.157	40848
337.245	32598
337.332	26040
337.419	2633
337.506	2326
337.593	1874
337.680	6549
337.767	22374
337.854	7513
337.941	7264
338.028	10739
338.115	2998
338.202	2750
338.289	7570
338.376	32855
338.463	10407
338.550	12040
338.637	14042
338.724	5180
338.811	9015
338.898	1563
338.984	841
339.071	1117
339.158	2484
339.245	7314
339.332	4315
339.419	5330
339.506	6372
339.593	876
339.679	618
339.766	781
339.853	915
339.940	6157
340.027	1847
340.113	1484
340.200	3009
340.287	1885
340.374	1923
340.460	5106
340.547	1157
340.634	3579
340.720	16767
340.807	10351
340.894	1155
340.980	1552
341.067	1547
341.154	1431
341.240	2220
341.327	8668
341.414	2270
341.500	1259
341.587	2050
341.674	1223
341.760	4691
341.847	6067
341.933	934
342.020	165
342.106	152
342.193	1358
342.279	4541
342.366	2435
342.452	4912
342.539	3148
342.625	6399
342.712	19598
342.798	8214
342.885	2233
342.971	-228
343.058	1054
343.144	992
343.230	1731
343.317	1855
343.403	939
343.490	940
343.576	549
343.662	992
343.749	1895
343.835	2205
343.921	5508
344.008	33095
344.094	87036
344.180	20282
344.267	6277
344.353	20252
344.439	25073
344.525	9650
344.612	4400
344.698	3990
344.784	2942
344.870	694
344.957	1294
345.043	2677
345.129	2009
345.215	4681
345.301	2991
345.387	491
345.474	538
345.560	439
345.646	779
345.732	944
345.818	1030
345.904	972
345.990	2035
346.076	1650
346.162	3450
346.249	1404
346.335	235
346.421	1661
346.507	7276
346.593	33639
346.679	7986
346.765	1484
346.851	506
346.937	797
347.023	1619
347.108	773
347.194	956
347.280	1036
347.366	2405
347.452	7190
347.538	38888
347.624	27976
347.710	22901
347.796	3359
347.882	2171
347.967	752
348.053	1030
348.139	773
348.225	1243
348.311	821
348.397	340
348.482	1668
348.568	2159
348.654	378
348.740	57
348.825	601
348.911	3947
348.997	15287
349.083	37725
349.168	5861
349.254	1646
349.340	926
349.425	1258
349.511	1341
349.597	2029
349.682	4219
349.768	21699
349.854	10325
349.939	1339
350.025	380
350.110	1415
350.196	355
350.282	-179
350.367	885
350.453	2132
350.538	2168
350.624	1391
350.709	1844
350.795	801
350.880	336
350.966	834
351.051	2496
351.137	1959
351.222	1015
351.308	5031
351.393	17997
351.479	4429
351.564	643
351.649	1098
351.735	864
351.820	284
351.906	289
351.991	1706
352.076	9782
352.162	18263
352.247	2962
352.332	1443
352.418	3621
352.503	4760
352.588	24100
352.673	21483
352.759	4093
352.844	1668
352.929	679
353.014	2481
353.100	803
353.185	2199
353.270	4924
353.355	7080
353.441	936
353.526	1785
353.611	4445
353.696	7109
353.781	2849
353.866	852
353.952	1372
354.037	4510
354.122	12614
354.207	11521
354.292	4380
354.377	1364
354.462	583
354.547	1912
354.632	1843
354.717	2306
354.802	1776
354.887	1048
354.972	929
355.057	90
355.142	151
355.227	1207
355.312	2923
355.397	7585
355.482	20561
355.567	10487
355.652	6774
355.737	7541
355.822	24321
355.907	22765
355.991	2768
356.076	829
356.161	1380
356.246	684
356.331	1282
356.416	4722
356.501	41125
356.585	48569
356.670	5432
356.755	3435
356.840	4527
356.924	24592
357.009	103503
357.094	42364
357.179	7253
357.263	4912
357.348	3824
357.433	4078
357.517	3419
357.602	2876
357.687	2080
357.771	3439
357.856	11175
357.941	8360
358.025	18963
358.110	96414
358.195	47089
358.279	6612
358.364	3543
358.448	15029
358.533	45730
358.617	34484
358.702	32456
358.787	12494
358.871	5586
358.956	4777
359.040	869
359.125	1025
359.209	430
359.294	5341
359.378	9437
359.462	5014
359.547	2840
359.631	916
359.716	-13
359.800	1018
359.885	2638
359.969	1423
360.053	1083
360.138	1627
360.222	1901
360.306	5466
360.391	4232
360.475	6577
360.559	16615
360.644	17174
360.728	12918
360.812	19723
360.896	67909
360.981	25411
361.065	11355
361.149	3074
361.233	2334
361.318	1276
361.402	2777
361.486	2483
361.570	667
361.654	2656
361.739	7458
361.823	39526
361.907	68251
361.991	10553
362.075	4660
362.159	11539
362.243	7493
362.327	3372
362.411	3737
362.495	2598
362.580	1443
362.664	416
362.748	-559
362.832	985
362.916	388
363.000	5861
363.084	31515
363.168	75425
363.252	16305
363.336	4837
363.420	6337
363.503	22579
363.587	30399
363.671	5285
363.755	2213
363.839	4695
363.923	1146
364.007	4626
364.091	5598
364.175	5818
364.258	38056
364.342	18235
364.426	5453
364.510	3127
364.594	4835
364.677	9320
364.761	54038
364.845	42436
364.929	10398
365.013	8459
365.096	6642
365.180	8622
365.264	9232
365.347	41238
365.431	17070
365.515	3488
365.598	1228
365.682	2150
365.766	2025
365.849	3099
365.933	1183
366.017	3078
366.100	1060
366.184	5
366.267	1165
366.351	427
366.435	546
366.518	-65
366.602	255
366.685	851
366.769	1174
366.852	2749
366.936	5562
367.019	4642
367.103	787
367.186	3618
367.270	612
367.353	224
367.436	282
367.520	642
367.603	1021
367.687	2503
367.770	6145
367.853	3759
367.937	13229
368.020	27242
368.104	4923
368.187	4149
368.270	7053
368.353	5904
368.437	7440
368.520	21155
368.603	13005
368.687	15332
368.770	35763
368.853	8220
368.936	5750
369.020	5878
369.103	1056
369.186	285
369.269	978
369.352	3848
369.436	5851
369.519	3135
369.602	199
369.685	2252
369.768	1744
369.851	1635
369.934	46
370.018	1048
370.101	4571
370.184	4839
370.267	1967
370.350	4036
370.433	7239
370.516	23958
370.599	32750
370.682	7285
370.765	15062
370.848	21061
370.931	43012
371.014	16673
371.097	1898
371.180	1862
371.263	884
371.346	-99
371.429	-95
371.511	613
371.594	1815
371.677	5786
371.760	5338
371.843	4604
371.926	28522
372.009	77173
372.091	24043
372.174	13259
372.257	40744
372.340	15545
372.423	7088
372.505	8746
372.588	2666
372.671	10713
372.754	41383
372.836	22249
372.919	9845
373.002	21534
373.085	6779
373.167	5237
373.250	14949
373.332	38815
373.415	48582
373.498	112105
373.580	39559
373.663	40689
373.746	65398
373.828	13263
373.911	4831
373.993	4791
374.076	19669
374.159	20908
374.241	9525
374.324	33266
374.406	23229
374.489	26627
374.571	90107
374.654	38513
374.736	15342
374.819	52999
374.901	76554
374.983	85258
375.066	13737
375.148	3408
375.231	15633
375.313	35788
375.395	11592
375.478	2395
375.560	1705
375.643	2680
375.725	12590
375.807	70091
375.890	57420
375.972	20085
376.054	9886
376.136	17305
376.219	7183
376.301	15440
376.383	62139
376.465	23784
376.548	12463
376.630	14578
376.712	50949
376.794	25766
376.877	2262
376.959	884
377.041	887
377.123	2801
377.205	3822
377.287	602
377.369	377
377.452	888
377.534	453
377.616	1418
377.698	1014
377.780	151
377.862	669
377.944	1737
378.026	-878
378.108	1096
378.190	-406
378.272	315
378.354	-107
378.436	383
378.518	543
378.600	8387
378.682	7924
378.764	22171
378.846	19001
378.928	3273
379.010	4706
379.091	3219
379.173	1762
379.255	1210
379.337	1247
379.419	8261
379.501	33616
379.583	14278
379.664	2081
379.746	6501
379.828	21067
379.910	29455
379.991	29249
380.073	4751
380.155	2023
380.237	1649
380.318	502
380.400	878
380.482	3627
380.564	7016
380.645	5086
380.727	4799
380.809	2701
380.890	1482
380.972	45
381.053	1326
381.135	990
381.217	5639
381.298	22522
381.380	10601
381.461	7912
381.543	47347
381.624	65655
381.706	11114
381.787	3402
381.869	4072
381.951	17680
382.032	82438
382.113	54761
382.195	8523
382.276	5108
382.358	10702
382.439	41136
382.521	47814
382.602	80667
382.684	33342
382.765	55890
382.846	51623
382.928	51396
383.009	28972
383.090	15554
383.172	69069
383.253	124345
383.334	47359
383.416	64072
383.497	34180
383.578	8493
383.659	14763
383.741	57522
383.822	185338
383.903	102427
383.984	37457
384.066	80520
384.147	52071
384.228	8811
384.309	4932
384.390	3329
384.471	1862
384.553	1972
384.634	3972
384.715	4534
384.796	1240
384.877	2661
384.958	18407
385.039	25545
385.120	7883
385.201	3187
385.282	3205
385.363	2936
385.444	1715
385.525	5484
385.606	30455
385.687	30168
385.768	5473
385.849	4700
385.930	31638
386.011	65682
386.092	16510
386.173	3308
386.254	1167
386.335	1998
386.416	1719
386.496	10740
386.577	21926
386.658	5623
386.739	3133
386.820	3235
386.901	2212
386.981	1496
387.062	1018
387.143	2425
387.224	20246
387.304	20327
387.385	6065
387.466	1289
387.547	3221
387.627	1551
387.708	5860
387.789	36503
387.869	53082
387.950	13842
388.031	1557
388.111	-926
388.192	4213
388.273	6523
388.353	3616
388.434	3036
388.514	6805
388.595	37223
388.676	52755
388.756	23169
388.837	20241
388.917	12911
388.998	492
389.078	915
389.159	1950
389.239	-387
389.320	4244
389.400	1762
389.480	6619
389.561	22768
389.641	12391
389.722	2294
389.802	5068
389.883	7620
389.963	27893
390.043	17934
390.124	3492
390.204	5633
390.284	24240
390.365	15797
390.445	14759
390.525	48928
390.605	48518
390.686	12304
390.766	4019
390.846	1392
390.927	477
391.007	-161
391.087	1379
391.167	1370
391.247	-526
391.328	2340
391.408	4031
391.488	2239
391.568	-280
391.648	1159
391.728	2907
391.808	3204
391.888	2830
391.969	10362
392.049	20236
392.129	7395
392.209	7350
392.289	25844
392.369	13561
392.449	6377
392.529	3217
392.609	3530
392.689	4943
392.769	22934
392.849	21465
392.929	9641
393.009	31097
393.089	22321
393.169	6001
393.248	14983
393.328	112352
393.408	138862
393.488	23876
393.568	5136
393.648	3017
393.728	1419
393.807	1612
393.887	1467
393.967	1930
394.047	2728
394.127	4108
394.206	9163
394.286	35325
394.366	177275
394.446	206314
394.525	47419
394.605	9749
394.685	6104
394.764	11179
394.844	19504
394.924	15346
395.003	4270
395.083	3263
395.163	2825
395.242	1563
395.322	2432
395.402	93
395.481	3633
395.561	6972
395.640	23782
395.720	16515
395.799	25976
395.879	23363
395.958	13633
396.038	54081
396.117	233697
396.197	271545
396.276	76094
396.356	19692
396.435	10608
396.515	7142
396.594	4557
396.673	8716
396.753	24057
396.832	114005
396.912	100797
396.991	25865
397.070	4511
397.150	1638
397.229	1906
397.308	400
397.388	847
397.467	1346
397.546	556
397.625	-963
397.705	2320
397.784	1485
397.863	216
397.942	548
398.022	27
398.101	4163
398.180	20473
398.259	11112
398.338	2305
398.417	786
398.497	121
398.576	830
398.655	339
398.734	520
398.813	474
398.892	5029
398.971	24667
399.050	12571
399.129	829
399.208	530
399.287	228
399.366	-58
399.445	-382
399.524	455
399.603	-615
399.682	1950
399.761	6502
399.840	27321
399.919	23147
399.998	2325
400.077	-446
400.156	-1153
400.235	327
400.313	47
400.392	-33
400.471	9651
400.550	18536
400.629	3836
400.708	997
400.786	67
400.865	2662
400.944	3719
401.023	2729
401.102	21
401.180	-374
401.259	283
401.338	-289
401.416	950
401.495	-79
401.574	918
401.652	-373
401.731	1655
401.810	-717
401.888	-74
401.967	-906
402.046	851
402.124	718
402.203	1002
402.281	325
402.360	843
402.438	5290
402.517	2479
402.596	-34
402.674	328
402.753	-496
402.831	265
402.910	555
402.988	1978
403.066	12894
403.145	8470
403.223	3554
403.302	9423
403.380	7231
403.459	6878
403.537	1747
403.615	347
403.694	-1907
403.772	726
403.850	-528
403.929	186
404.007	-570
404.085	1637
404.164	1230
404.242	650
404.320	4409
404.398	17294
404.477	21061
404.555	62139
404.633	61929
404.711	17562
404.789	8403
404.868	847
404.946	426
405.024	-51
405.102	-755
405.180	-634
405.258	-1380
405.336	192
405.415	-663
405.493	1371
405.571	1099
405.649	-335
405.727	-1746
405.805	901
405.883	-46
405.961	708
406.039	784
406.117	-962
406.195	1243
406.273	9654
406.351	51751
406.429	34243
406.507	3308
406.585	590
406.663	152
406.740	1110
406.818	536
406.896	-406
406.974	829
407.052	1135
407.130	26635
407.208	44917
407.285	8557
407.363	-576
407.441	-113
407.519	-722
407.596	-207
407.674	1886
407.752	5917
407.830	6332
407.907	2217
407.985	-422
408.063	183
408.141	-612
408.218	194
408.296	459
408.373	-659
408.451	310
408.529	338
408.606	-348
408.684	-533
408.762	-611
408.839	-793
408.917	-594
408.994	-662
409.072	-1143
409.149	-1452
409.227	-285
409.304	-619
409.382	-59
409.459	-1865
409.537	-173
409.614	-913
409.692	-665
409.769	-1147
409.846	-693
409.924	-130
410.001	-1224
410.079	-695
410.156	726
410.233	-745
410.311	-561
410.388	-1005
410.465	-9
410.543	-1779
410.620	-443
410.697	-321
410.775	-746
410.852	-1888
410.929	147
411.006	1286
411.083	-793
411.161	540
411.238	1598
411.315	12
411.392	-1260
411.469	714
411.547	634
411.624	-1749
411.701	-1253
411.778	-422
411.855	2232
411.932	169
412.009	228
412.086	-879
412.163	-120
412.240	408
412.317	956
412.394	-866
412.471	373
412.548	-1021
412.625	-138
412.702	-98
412.779	1213
412.856	1049
412.933	-308
413.010	-709
413.087	1752
413.164	8068
413.241	14976
413.318	3131
413.395	1065
413.471	1094
413.548	1179
413.625	286
413.702	-250
413.779	-83
413.855	-531
413.932	-1358
414.009	-1193
414.086	-888
414.162	-367
414.239	937
414.316	7896
414.393	23009
414.469	8182
414.546	73
414.623	-1354
414.699	-928
414.776	31
414.853	-936
414.929	-167
415.006	-635
415.082	289
415.159	470
415.236	-788
415.312	91
415.389	1018
415.465	1014
415.542	535
415.618	-780
415.695	1522
415.771	267
415.848	-101
415.924	-690
416.000	-48
416.077	138
416.153	-1311
416.230	-2269
416.306	-959
416.383	-706
416.459	-302
416.535	-1016
416.612	-989
416.688	-32
416.764	-745
416.841	-1351
416.917	-57
416.993	-790
417.069	108
417.146	-124
417.222	974
417.298	132
417.374	-480
417.451	-308
417.527	-537
417.603	-68
417.679	667
417.755	163
417.831	-1177
417.908	-1117
417.984	-583
418.060	-1987
418.136	1781
418.212	2413
418.288	909
418.364	-562
418.440	-655
418.516	640
418.592	459
418.668	3369
418.744	6145
418.820	4291
418.896	172
418.972	-988
419.048	-298
419.124	1688
419.200	591
419.276	-300
419.352	-1055
419.428	-754
419.504	-189
419.579	-142
419.655	-402
419.731	-824
419.807	3708
419.883	6100
419.959	5244
420.034	315
420.110	1214
420.186	12049
420.262	11279
420.337	1082
420.413	587
420.489	-436
420.565	-223
420.640	-1117
420.716	-249
420.792	-1984
420.867	-393
420.943	-1880
421.019	73
421.094	-563
421.170	-65
421.245	-1277
421.321	-140
421.397	-661
421.472	342
421.548	896
421.623	2022
421.699	-121
421.774	194
421.850	-1381
421.925	1392
422.001	484
422.076	-430
422.152	-1307
422.227	1069
422.302	762
422.378	435
422.453	1091
422.529	4114
422.604	25769
422.679	73601
422.755	39682
422.830	6693
422.905	1050
422.981	-529
423.056	-650
423.131	-211
423.207	-398
423.282	-549
423.357	1995
423.432	1470
423.508	1395
423.583	4299
423.658	3598
423.733	307
423.808	-163
423.883	1157
423.959	224
424.034	-1056
424.109	-84
424.184	-1058
424.259	-604
424.334	-844
424.409	-1086
424.484	-1278
424.559	-391
424.634	-719
424.709	-327
424.784	817
424.859	-643
424.934	641
425.009	7722
425.084	15964
425.159	5818
425.234	436
425.309	-1776
425.384	924
425.459	2798
425.534	739
425.609	-1301
425.683	-925
425.758	-863
425.833	-460
425.908	-74
425.983	3828
426.058	15744
426.132	6376
426.207	-971
426.282	1113
426.357	-407
426.431	-206
426.506	-492
426.581	-1054
426.655	-565
426.730	-531
426.805	-1397
426.879	432
426.954	16
427.029	1114
427.103	12922
427.178	42709
427.253	20383
427.327	1875
427.402	110
427.476	4373
427.551	1061
427.625	-499
427.700	-292
427.774	-1404
427.849	335
427.923	-911
427.998	-1193
428.072	-1289
428.147	-93
428.221	2413
428.296	6381
428.370	2397
428.444	-435
428.519	-345
428.593	1979
428.667	2087
428.742	2526
428.816	1853
428.890	3905
428.965	7959
429.039	4089
429.113	3776
429.188	556
429.262	-907
429.336	797
429.410	5265
429.485	3758
429.559	1931
429.633	1683
429.707	-226
429.781	-716
429.855	6698
429.930	13616
430.004	10638
430.078	16896
430.152	13916
430.226	7386
430.300	8180
430.374	119
430.448	320
430.522	3958
430.596	18957
430.670	11816
430.744	20589
430.818	44519
430.892	10826
430.966	-273
431.040	159
431.114	-1705
431.188	-1632
431.262	-1440
431.336	-1220
431.410	557
431.484	4649
431.557	2850
431.631	-916
431.705	-1104
431.779	-332
431.853	2482
431.927	1804
432.000	-523
432.074	-510
432.148	-1050
432.222	-34
432.295	-982
432.369	-605
432.443	-288
432.516	13190
432.590	43748
432.664	17100
432.737	1163
432.811	-965
432.885	-1703
432.958	-877
433.032	-1037
433.106	-797
433.179	-1238
433.253	-1055
433.326	-1173
433.400	-534
433.473	-928
433.547	-1192
433.620	-1133
433.694	-14
433.767	408
433.841	-325
433.914	-824
433.988	-881
434.061	-988
434.134	-1328
434.208	-1597
434.281	-1098
434.355	-1505
434.428	-683
434.501	-953
434.575	-776
434.648	-1134
434.721	-598
434.795	-1091
434.868	-1644
434.941	-1620
435.014	-1232
435.088	-1655
435.161	-1121
435.234	-789
435.307	-204
435.381	-934
435.454	-1144
435.527	-1320
435.600	-1377
435.673	-1627
435.746	-950
435.819	-1744
435.892	-886
435.966	-1137
436.039	-1518
436.112	-1177
436.185	-1075
436.258	-1009
436.331	-1831
436.404	-1647
436.477	-1128
436.550	-2074
436.623	-799
436.696	-1525
436.769	-999
436.842	-951
436.915	-583
436.987	-445
437.060	-1153
437.133	-1336
437.206	-1405
437.279	-1015
437.352	-1656
437.425	-1979
437.498	-1255
437.570	-13
437.643	818
437.716	-645
437.789	-704
437.861	-631
437.934	1290
438.007	-482
438.080	-1101
438.152	-717
438.225	1532
438.298	17755
438.370	63559
438.443	27730
438.516	3282
438.588	-246
438.661	-1282
438.734	-841
438.806	-502
438.879	-336
438.951	-740
439.024	352
439.096	-1312
439.169	-1329
439.241	-855
439.314	-1796
439.386	63
439.459	-187
439.531	173
439.604	-1000
439.676	-584
439.749	-1759
439.821	-1200
439.893	-1736
439.966	-316
440.038	-422
440.110	-415
440.183	-271
440.255	-1594
440.327	-35
440.400	5636
440.472	34740
440.544	26143
440.617	2090
440.689	682
440.761	-233
440.833	1225
440.905	906
440.978	-1210
441.050	-1430
441.122	-125
441.194	-1759
441.266	-445
441.338	-1510
441.411	-370
441.483	7070
441.555	16163
441.627	1590
441.699	761
441.771	-195
441.843	-708
441.915	-2150
441.987	-1401
442.059	-1366
442.131	-790
442.203	-620
442.275	-416
442.347	126
442.419	-803
442.491	-1002
442.563	2067
442.635	2103
442.706	3459
442.778	3323
442.850	-447
442.922	-1175
442.994	-701
443.066	-887
443.137	-185
443.209	-1384
443.281	-819
443.353	-98
443.425	1598
443.496	4709
443.568	4892
443.640	916
443.711	-358
443.783	-1557
443.855	-760
443.926	-1502
443.998	-621
444.070	-772
444.141	-173
444.213	-86
444.285	627
444.356	-90
444.428	322
444.499	-1046
444.571	-1032
444.642	-1208
444.714	-832
444.785	-463
444.857	432
444.928	1983
445.000	394
445.071	872
445.143	936
445.214	-832
445.285	553
445.357	3883
445.428	5246
445.500	11432
445.571	9850
445.642	2816
445.714	2265
445.785	4921
445.856	-367
445.928	371
445.999	468
446.070	-1031
446.141	-1022
446.213	366
446.284	-502
446.355	-1181
446.426	-1138
446.497	-599
446.569	17
446.640	428
446.711	463
446.782	-256
446.853	-579
446.924	-37
446.995	-668
447.066	-65
447.138	-435
447.209	-582
447.280	-1485
447.351	-1185
447.422	-1785
447.493	-1138
447.564	-25
447.635	68
447.706	-921
447.777	-1150
447.847	-1155
447.918	-1813
447.989	-192
448.060	-3
448.131	658
448.202	790
448.273	1356
448.344	-291
448.414	-433
448.485	-1234
448.556	-466
448.627	-1650
448.698	-418
448.768	-1228
448.839	-1094
448.910	-274
448.981	909
449.051	-735
449.122	-1218
449.193	-765
449.263	-473
449.334	-1389
449.405	-161
449.475	1150
449.546	1092
449.616	-440
449.687	411
449.758	-612
449.828	-1115
449.899	-753
449.969	-1007
450.040	-1004
450.110	-313
450.181	-217
450.251	-1238
450.322	-510
450.392	-756
450.463	-294
450.533	-923
450.604	-1331
450.674	-562
450.744	-16
450.815	-1166
450.885	-263
450.955	-374
451.026	-613
451.096	-1077
451.166	-879
451.237	-555
451.307	2640
451.377	121
451.447	-1628
451.518	-819
451.588	-431
451.658	-192
451.728	90
451.799	2248
451.869	3407
451.939	407
452.009	-888
452.079	-791
452.149	-679
452.219	148
452.289	3313
452.360	2909
452.430	-545
452.500	-986
452.570	-763
452.640	652
452.710	693
452.780	3548
452.850	2819
452.920	3642
452.990	1165
453.060	107
453.129	478
453.199	798
453.269	3751
453.339	11835
453.409	19959
453.479	17047
453.549	25068
453.619	27614
453.688	11334
453.758	1738
453.828	14
453.898	284
453.968	-329
454.037	-217
454.087	-722
454.107	-944
454.168	-438
454.177	-374
454.247	-929
454.249	-890
454.316	-258
454.330	-171
454.386	155
454.411	485
454.456	835
454.492	2044
454.525	3119
454.574	1643
454.595	1001
454.655	-427
454.665	-663
454.734	449
454.736	457
454.804	-293
454.817	499
454.873	3446
454.898	3694
454.943	3991
454.979	2845
455.013	1878
455.060	386
455.082	-215
455.141	549
455.152	695
455.221	3072
455.222	3177
455.291	8647
455.303	9136
455.360	10125
455.384	15491
455.430	22948
455.465	16947
455.499	11597
455.546	6620
455.569	4442
455.627	2665
455.638	2379
455.707	517
455.708	525
455.777	143
455.789	221
455.846	604
455.869	247
455.916	-506
455.950	-420
455.985	-302
456.031	-203
456.054	-260
456.112	-116
456.124	-43
456.193	425
456.193	415
456.262	203
456.274	154
456.332	30
456.355	259
456.401	493
456.436	541
456.470	604
456.516	178
456.540	-76
456.597	-620
456.609	-699
456.678	8
456.678	0
456.747	-215
456.759	-227
456.817	-184
456.840	-176
456.886	-265
456.920	-445
456.955	-597
457.001	-47
457.024	198
457.082	161
457.093	214
457.162	776
457.163	790
457.232	752
457.243	666
457.301	101
457.324	-53
457.370	-254
457.405	-2
457.439	286
457.485	467
457.508	525
457.566	605
457.577	637
457.646	620
457.647	628
457.715	76
457.727	138
457.784	915
457.808	858
457.853	570
457.889	932
457.922	1242
457.969	1430
457.991	1532
458.050	1964
458.060	1999
458.129	1015
458.130	1032
458.198	1172
458.211	997
458.267	203
458.292	241
458.336	205
458.372	-36
458.405	213
458.453	644
458.474	676
458.533	1228
458.543	1402
458.611	2583
458.614	2628
458.680	1642
458.694	1403
458.749	886
458.775	685
458.818	697
458.855	855
458.887	857
458.936	726
458.955	623
459.016	210
459.024	249
459.093	949
459.097	991
459.162	1157
459.177	1079
459.230	935
459.257	1049
459.299	1096
459.338	1244
459.368	1281
459.418	1357
459.437	1353
459.499	1095
459.505	1084
459.574	1203
459.579	1201
459.643	1031
459.659	917
459.711	694
459.740	792
459.780	863
459.820	933
459.849	1028
459.900	1368
459.917	1510
459.981	2058
459.986	2067
460.054	1595
460.061	1623
460.123	2054
460.141	2063
460.191	2327
460.222	2573
460.260	2770
460.302	3116
460.328	3043
460.382	2734
460.397	2675
460.462	1875
460.465	1871
460.534	2776
460.543	2761
460.602	5596
460.623	7031
460.671	11919
460.703	16121
460.739	15355
460.783	13948
460.808	12083
460.864	3887
460.876	3396
460.944	2029
460.945	2004
461.013	1734
461.024	1684
461.081	1853
461.104	1793
461.150	1276
461.184	1388
461.218	1867
461.264	1820
461.286	1604
461.345	1666
461.355	1718
461.423	1484
461.425	1483
461.491	1460
461.505	1532
461.559	2570
461.585	2857
461.628	4706
461.665	6907
461.696	8015
461.745	10401
461.764	9308
461.825	3855
461.832	3743
461.901	2205
461.905	2165
461.969	1592
461.985	1536
462.037	2454
462.065	2617
462.105	1823
462.145	1779
462.173	2993
462.225	4475
462.241	4856
462.305	7141
462.310	6943
462.378	3753
462.385	3289
462.446	2387
462.465	2196
462.514	2221
462.545	2430
462.582	2333
462.625	1990
462.650	1806
462.705	1869
462.718	2040
462.785	2414
462.786	2419
462.854	2651
462.865	2730
462.922	3669
462.945	4072
462.990	3245
463.025	2301
463.058	2077
463.104	1934
463.126	1718
463.184	1401
463.194	1563
463.262	2048
463.264	2079
463.330	1908
463.344	1873
463.398	2361
463.424	2507
463.466	2081
463.504	1895
463.533	2199
463.583	2338
463.601	2391
463.663	2925
463.669	2950
463.737	2932
463.743	2928
463.805	4533
463.823	5061
463.873	7251
463.903	8699
463.940	9441
463.982	10203
464.008	8322
464.062	4061
464.076	3898
464.142	2476
464.144	2470
464.211	2710
464.221	2776
464.279	2669
464.301	2524
464.347	3025
464.381	3473
464.414	3257
464.461	2940
464.482	3063
464.540	3556
464.550	3554
464.617	3422
464.620	3402
464.685	4006
464.699	4201
464.753	5102
464.779	5479
464.820	6404
464.859	7429
464.888	6831
464.938	5594
464.956	5750
465.018	6143
465.023	6039
465.091	4715
465.098	4566
465.158	5396
465.177	5628
465.226	5371
465.257	5309
465.293	5350
465.336	5192
465.361	5619
465.416	6792
465.428	6967
465.495	7734
465.496	7767
465.563	11050
465.575	11615
465.631	13980
465.654	15076
465.698	10518
465.734	6415
465.765	5686
465.813	4538
465.833	4437
465.893	4253
465.900	4287
465.968	4724
465.972	4735
466.035	4584
466.052	4577
466.102	5430
466.131	5817
466.170	5214
466.210	4601
466.237	4942
466.290	5622
466.304	5601
466.369	5467
466.372	5495
466.439	6002
466.449	6082
466.506	6251
466.528	6262
466.573	7692
466.607	8772
466.641	11720
466.687	15790
466.708	17833
466.766	23443
466.775	21958
466.842	10518
466.845	9954
466.909	7259
466.925	6618
466.977	6282
467.004	6124
467.044	6404
467.083	6677
467.111	7580
467.163	9237
467.178	9705
467.242	11587
467.245	11509
467.312	9489
467.321	9208
467.379	8325
467.400	7982
467.446	8688
467.480	9178
467.559	8558
467.638	7177
467.717	7231
467.796	7950
467.875	8550
467.955	8035
468.034	11119
468.113	18866
468.192	27311
468.271	10545
468.350	6176
468.429	5568
468.508	6455
468.588	5958
468.667	6535
468.746	7579
468.825	6262
468.904	5480
468.983	6507
469.062	9387
469.141	11670
469.220	6768
469.299	6317
469.378	7249
469.456	9129
469.535	8765
469.614	7021
469.693	6083
469.772	9191
469.851	10725
469.930	9282
470.009	6555
470.088	7328
470.166	6688
470.245	8072
470.324	8681
470.403	7291
470.482	5883
470.560	6476
470.639	6390
470.718	7726
470.797	6278
470.875	6820
470.954	8888
471.033	9958
471.111	4612
471.190	6227
471.269	4423
471.347	5074
471.426	5093
471.505	6404
471.583	6927
471.662	7167
471.740	6455
471.819	6949
471.898	5317
471.976	6407
472.055	5066
472.133	6025
472.212	6816
472.290	7045
472.369	5952
472.447	5691
472.526	5021
472.604	5894
472.683	5357
472.761	6086
472.839	5819
472.918	5593
472.996	5510
473.075	5818
473.153	5465
473.231	5327
473.310	5906
473.388	7046
473.466	4778
473.545	6086
473.623	7519
473.701	7858
473.780	5656
473.858	5524
473.936	6146
474.014	5581
474.093	5612
474.171	7121
474.249	9849
474.327	8206
474.405	4859
474.484	4947
474.562	5008
474.640	5254
474.718	4685
474.796	6269
474.874	5605
474.952	4815
475.030	4389
475.108	4711
475.187	5858
475.265	5932
475.343	6614
475.421	7742
475.499	5715
475.577	5407
475.655	6213
475.733	10277
475.811	15899
475.889	14777
475.966	11453
476.044	4778
476.122	4813
476.200	6384
476.278	5399
476.356	4985
476.434	3849
476.512	4825
476.590	6242
476.667	5770
476.745	4271
476.823	5122
476.901	4868
476.979	4785
477.056	4682
477.134	5574
477.212	4942
477.290	4405
477.367	4530
477.445	4900
477.523	3585
477.601	3448
477.678	3683
477.756	5039
477.834	5351
477.911	4219
477.989	5026
478.066	4468
478.144	4360
478.222	4620
478.299	4694
478.377	5659
478.454	4363
478.532	3514
478.609	3463
478.687	5022
478.764	3711
478.842	4336
478.919	3970
478.997	4979
479.074	3789
479.152	4552
479.229	4987
479.307	4182
479.384	2430
479.461	3814
479.539	3226
479.616	4830
479.694	3852
479.771	3767
479.848	3910
479.926	3446
480.003	5831
480.080	4267
480.157	3502
480.235	3922
480.312	3649
480.389	4165
480.467	4918
480.544	6941
480.621	4593
480.698	3242
480.775	4370
480.853	4502
480.930	3783
481.007	3455
481.084	3637
481.161	4457
481.238	4159
481.315	3580
481.392	3327
481.470	3405
481.547	2015
481.624	2966
481.701	2633
481.778	3159
481.855	2269
481.932	5419
482.009	8401
482.086	6881
482.163	2879
482.240	4030
482.317	5913
482.393	5226
482.470	2564
482.547	3933
482.624	2576
482.701	3703
482.778	2868
482.855	2560
482.932	2071
483.009	2969
483.085	2921
483.162	3634
483.239	3446
483.316	3019
483.393	3047
483.469	3048
483.546	3106
483.623	4330
483.699	3267
483.776	3276
483.853	3401
483.930	5371
484.006	11909
484.083	24421
484.160	18103
484.236	29288
484.313	21889
484.389	16107
484.466	14970
484.543	12744
484.619	12357
484.696	13875
484.772	12142
484.849	14501
484.925	12344
485.002	12774
485.078	12760
485.155	13232
485.231	12112
485.308	11459
485.384	12030
485.461	13560
485.537	17150
485.614	21920
485.690	11924
485.766	11892
485.843	11127
485.919	14111
485.995	14817
486.072	11444
486.148	9671
486.224	10127
486.301	9985
486.377	11687
486.453	10891
486.530	11520
486.606	16600
486.682	17934
486.758	17994
486.835	19726
486.911	15059
486.987	22299
487.063	24349
487.139	30258
487.215	22078
487.292	13850
487.368	11069
487.444	11712
487.520	12948
487.596	12157
487.672	12610
487.748	14389
487.824	17927
487.900	12296
487.976	9456
488.052	10028
488.128	12825
488.204	10953
488.280	10212
488.356	11421
488.432	17817
488.508	27732
488.584	13488
488.660	9655
488.736	10458
488.812	10349
488.888	13318
488.964	15891
489.039	26142
489.115	40938
489.191	28403
489.267	10736
489.343	9003
489.418	8759
489.494	8021
489.570	7544
489.646	9226
489.722	8277
489.797	8906
489.873	11199
489.949	19173
490.024	19610
490.100	7183
490.176	7592
490.251	9326
490.327	11612
490.403	7931
490.478	7603
490.554	6394
490.629	6857
490.705	5868
490.781	7706
490.856	6485
490.932	7978
491.007	7930
491.083	7262
491.158	6872
491.234	8167
491.309	14574
491.385	15766
491.460	7231
491.536	7703
491.611	6833
491.686	7482
491.762	9369
491.837	16151
491.913	27393
491.988	35037
492.063	50520
492.139	16467
492.214	9361
492.289	7014
492.365	5420
492.440	7416
492.515	5561
492.590	7304
492.666	4507
492.741	7343
492.816	9487
492.891	6567
492.967	6719
493.042	5384
493.117	7031
493.192	8533
493.267	13680
493.342	51427
493.418	84203
493.493	15056
493.568	5538
493.643	4876
493.718	5826
493.793	8026
493.868	9619
493.943	6800
494.018	5054
494.093	5237
494.168	3968
494.243	4878
494.318	3984
494.393	4550
494.468	4142
494.543	4274
494.618	4591
494.693	5039
494.768	3909
494.842	4484
494.917	4459
494.992	4974
495.067	4171
495.142	4168
495.217	4474
495.292	4969
495.366	5563
495.441	6760
495.516	8268
495.591	10750
495.665	29153
495.740	77608
495.815	39275
495.890	7998
495.964	4484
496.039	5630
496.114	5085
496.188	5692
496.263	5578
496.338	5083
496.412	4548
496.487	6909
496.561	7649
496.636	7637
496.710	5470
496.785	6163
496.860	7279
496.934	6036
497.009	5330
497.083	6014
497.158	6164
497.232	7165
497.307	8268
497.381	7992
497.455	8372
497.530	10317
497.604	9187
497.679	8545
497.753	11516
497.827	16350
497.902	14741
497.976	17736
498.050	33433
498.125	121649
498.199	146871
498.273	26671
498.348	17216
498.422	14774
498.496	13537
498.570	12888
498.645	10102
498.719	9587
498.793	10151
498.867	14427
498.941	17927
499.016	44016
499.090	136040
499.164	60817
499.238	7810
499.312	6733
499.386	7366
499.460	7219
499.534	6321
499.609	7550
499.683	10450
499.757	11300
499.831	19152
499.905	80482
499.979	91548
500.053	14507
500.127	11903
500.201	9810
500.275	6675
500.349	6326
500.422	6956
500.496	9975
500.570	18249
500.644	44713
500.718	91234
500.792	26152
500.866	4925
500.940	7315
501.013	6328
501.087	6075
501.161	10359
501.235	13854
501.309	23872
501.382	70633
501.456	74341
501.530	15910
501.603	22869
501.677	11679
501.751	3812
501.825	6382
501.898	9269
501.972	27961
502.046	20939
502.119	5380
502.193	11036
502.266	29941
502.340	16776
502.413	11909
502.487	25797
502.561	16119
502.634	5435
502.708	4602
502.781	4331
502.855	3300
502.928	2066
503.002	3138
503.075	2594
503.149	3948
503.222	3745
503.295	3530
503.369	4393
503.442	5679
503.516	17883
503.589	51205
503.662	35906
503.736	10953
503.809	22670
503.882	20084
503.956	27259
504.029	27779
504.102	9401
504.175	11031
504.249	3847
504.322	4519
504.395	3891
504.468	2917
504.542	2811
504.615	1871
504.688	2615
504.761	2338
504.834	3208
504.907	4652
504.980	7364
505.053	3682
505.127	3590
505.200	7688
505.273	4274
505.346	3360
505.419	1858
505.492	2976
505.565	1247
505.638	2465
505.711	2190
505.784	1860
505.857	1329
505.930	3902
506.003	1447
506.076	4166
506.149	2347
506.221	4024
506.294	4617
506.367	8661
506.440	38246
506.513	25011
506.586	5567
506.659	2624
506.731	2603
506.804	3620
506.877	3241
506.950	3682
507.022	2579
507.095	1858
507.168	4976
507.241	3139
507.313	1633
507.386	2693
507.459	4615
507.531	3320
507.604	1576
507.677	2763
507.749	1372
507.822	4305
507.894	8024
507.967	11472
508.040	5983
508.112	5408
508.185	5249
508.257	4886
508.330	7059
508.402	4683
508.475	3938
508.547	5021
508.620	4638
508.692	6373
508.765	4937
508.837	3262
508.909	4182
508.982	3961
509.054	4439
509.127	3883
509.199	2812
509.271	3144
509.344	3353
509.416	3221
509.488	2682
509.560	4774
509.633	3377
509.705	4558
509.777	3716
509.849	6315
509.922	4760
509.994	4806
510.066	5363
510.138	4212
510.210	10932
510.283	9427
510.355	6891
510.427	6028
510.499	4990
510.571	5722
510.643	5448
510.715	8173
510.787	6906
510.859	6237
510.931	5309
511.003	7357
511.076	7707
511.148	5097
511.219	5291
511.291	8708
511.363	8669
511.435	5324
511.507	4559
511.579	5594
511.651	4565
511.723	4858
511.795	4561
511.867	4004
511.939	5164
512.010	7736
512.082	7696
512.154	4111
512.226	4367
512.298	7781
512.369	11955
512.441	8591
512.513	7833
512.585	5485
512.656	6145
512.728	6192
512.800	5637
512.871	4915
512.943	5339
513.015	4475
513.086	5062
513.158	5513
513.230	4546
513.301	6479
513.373	8436
513.444	5669
513.516	3571
513.588	3885
513.659	4861
513.731	6385
513.802	4498
513.874	10335
513.945	16185
514.016	8126
514.088	5453
514.159	5058
514.231	6075
514.302	10043
514.374	7527
514.445	6462
514.516	10426
514.588	7894
514.659	5084
514.730	8610
514.802	8050
514.873	5909
514.944	8462
515.016	6037
515.087	5835
515.158	7945
515.229	9765
515.301	6630
515.372	8608
515.443	6490
515.514	4847
515.585	3426
515.656	4185
515.728	5399
515.799	3420
515.870	5076
515.941	4206
516.012	4877
516.083	6644
516.154	7039
516.225	8755
516.296	8190
516.367	7243
516.438	6695
516.509	8001
516.580	11601
516.651	25761
516.722	95359
516.793	58887
516.864	11673
516.935	11040
517.006	11439
517.077	14502
517.148	29408
517.219	87414
517.289	172656
517.360	58553
517.431	21575
517.502	6880
517.573	6937
517.643	5787
517.714	7337
517.785	7735
517.856	6278
517.926	9049
517.997	9804
518.068	10668
518.138	15410
518.209	18313
518.280	57408
518.350	246075
518.421	122204
518.492	13774
518.562	7326
518.633	7132
518.703	4044
518.774	7456
518.845	7996
518.915	8962
518.986	6477
519.056	7519
519.127	12742
519.197	19713
519.268	42653
519.338	32081
519.408	7743
519.479	9979
519.549	7487
519.620	5539
519.690	4367
519.760	4414
519.831	4320
519.901	3620
519.971	4059
520.042	3211
520.112	4705
520.182	5513
520.253	6288
520.323	3319
520.393	5620
520.463	10049
520.534	4071
520.604	13368
520.674	6754
520.744	5513
520.814	12400
520.885	12850
520.955	12798
521.025	49001
521.095	23106
521.165	4935
521.235	4320
521.305	3380
521.375	4027
521.445	3586
521.515	4841
521.585	6356
521.655	5715
521.725	4807
521.795	4567
521.865	1663
521.935	6033
522.005	4436
522.075	2546
522.145	4009
522.215	3341
522.285	5377
522.355	6404
522.424	12109
522.494	11213
522.564	6486
522.634	10700
522.704	36420
522.774	17035
522.843	4663
522.913	3542
522.983	4917
523.053	4207
523.122	3718
523.192	4253
523.262	16477
523.331	20599
523.401	4653
523.471	2108
523.540	2892
523.610	1109
523.680	2223
523.749	2457
523.819	3372
523.888	2191
523.958	2297
524.027	3798
524.097	2885
524.166	2949
524.236	2676
524.305	3857
524.375	2486
524.444	1516
524.514	3667
524.583	3454
524.653	2637
524.722	4510
524.791	1571
524.861	2855
524.930	1715
524.999	2379
525.069	3704
525.138	3358
525.207	3612
525.277	2589
525.346	2444
525.415	3234
525.484	2359
525.554	2190
525.623	2941
525.692	2604
525.761	1615
525.830	2432
525.900	1368
525.969	3454
526.038	3683
526.107	2254
526.176	8736
526.245	7693
526.314	6482
526.383	7534
526.452	6450
526.522	13468
526.591	17168
526.660	16859
526.729	7822
526.797	9083
526.867	17605
526.935	90806
527.004	84099
527.073	30646
527.142	3768
527.211	3151
527.280	3200
527.349	4429
527.418	683
527.487	2593
527.555	1016
527.624	806
527.693	595
527.762	2322
527.831	473
527.899	840
527.968	1492
528.037	1254
528.106	2125
528.174	5157
528.243	5047
528.312	4905
528.380	7695
528.449	1724
528.518	2895
528.586	57
528.655	1589
528.723	784
528.792	1229
528.861	1103
528.929	-221
528.998	1341
529.066	1018
529.135	1521
529.203	313
529.272	88
529.340	1296
529.409	2589
529.477	641
529.545	1567
529.614	2896
529.682	1467
529.751	2244
529.819	5474
529.887	2289
529.956	921
530.024	2705
530.092	868
530.161	2290
530.229	3367
530.297	1117
530.365	2284
530.434	604
530.502	720
530.570	1432
530.638	90
530.707	2159
530.775	2838
530.843	894
530.911	892
530.979	1138
531.047	995
531.115	1372
531.183	330
531.252	1448
531.320	1392
531.388	-131
531.456	2241
531.524	-808
531.592	1999
531.660	2166
531.728	380
531.796	1302
531.864	1410
531.932	1472
532.000	1393
532.067	983
532.135	2090
532.203	2970
532.271	2758
532.339	5511
532.407	15023
532.475	10779
532.542	5075
532.610	4323
532.678	3978
532.746	22466
532.814	75858
532.881	20558
532.949	3913
533.017	2123
533.084	2182
533.152	722
533.220	2106
533.287	2092
533.355	2036
533.423	2069
533.490	1249
533.558	1064
533.625	2372
533.693	1816
533.761	2573
533.828	3006
533.896	2287
533.963	6572
534.031	8766
534.098	9591
534.166	5009
534.233	1916
534.300	3865
534.368	3151
534.435	1995
534.503	2148
534.570	2530
534.637	1970
534.705	2063
534.772	1579
534.840	1924
534.907	4306
534.974	5367
535.041	1775
535.109	2619
535.176	468
535.243	2831
535.310	2141
535.378	879
535.445	1520
535.512	1688
535.579	1909
535.646	1381
535.714	2023
535.781	3944
535.848	2755
535.915	4419
535.982	2544
536.049	3757
536.116	3850
536.183	3389
536.250	2018
536.317	2372
536.384	2556
536.451	5562
536.518	4946
536.585	2803
536.652	4834
536.719	6864
536.786	3341
536.853	2787
536.920	6108
536.987	7973
537.053	7295
537.120	31949
537.187	35126
537.254	2211
537.321	1147
537.388	2888
537.454	791
537.521	1576
537.588	1174
537.654	2637
537.721	2094
537.788	3398
537.855	1390
537.921	2308
537.988	2693
538.055	2723
538.121	705
538.188	2352
538.254	3501
538.321	8341
538.388	5725
538.454	2496
538.521	1881
538.587	2721
538.654	1556
538.720	1366
538.787	623
538.853	1952
538.920	2547
538.986	2803
539.053	2023
539.119	2408
539.185	2055
539.252	3428
539.318	3952
539.385	4834
539.451	2410
539.517	3601
539.583	3338
539.650	7765
539.716	25555
539.782	7784
539.849	2154
539.915	2517
539.981	1795
540.047	3416
540.114	2799
540.180	4219
540.246	845
540.312	3206
540.378	7476
540.444	10046
540.510	8204
540.576	29357
540.643	10601
540.709	1261
540.775	2537
540.841	2379
540.907	4197
540.973	6129
541.039	5279
541.105	5967
541.171	2813
541.237	1806
541.303	2732
541.369	4012
541.435	3582
541.500	7606
541.566	3867
541.632	2360
541.698	1490
541.764	2531
541.830	1666
541.896	1019
541.961	2097
542.027	1707
542.093	1228
542.159	2663
542.224	1613
542.290	5048
542.356	6741
542.421	10672
542.487	4845
542.553	2272
542.618	2945
542.684	2797
542.750	2608
542.815	3669
542.881	5037
542.947	22706
543.012	20798
543.078	2830
543.143	2079
543.209	3650
543.274	1655
543.340	3401
543.405	7855
543.471	14965
543.536	3546
543.602	2390
543.667	899
543.732	3398
543.798	607
543.863	2871
543.928	1336
543.994	601
544.059	1610
544.124	2574
544.190	1351
544.255	2190
544.320	1687
544.386	2078
544.451	3742
544.516	5011
544.581	4336
544.646	12398
544.712	26578
544.777	5382
544.842	2516
544.907	3136
544.972	2152
545.037	2449
545.102	3229
545.168	2520
545.233	2920
545.298	4474
545.363	2795
545.428	4194
545.493	7376
545.558	19738
545.623	8849
545.688	2618
545.753	2626
545.818	2395
545.883	2571
545.947	2156
546.012	3501
546.077	1908
546.142	3450
546.207	2050
546.272	3971
546.337	4468
546.401	3629
546.466	2957
546.531	1636
546.596	2440
546.661	2190
546.725	3073
546.790	1016
546.855	2028
546.919	1059
546.984	2423
547.049	1894
547.113	2962
547.178	1305
547.243	2704
547.307	2362
547.372	3430
547.436	4117
547.501	2809
547.565	2597
547.630	4179
547.695	3164
547.759	4202
547.823	3008
547.888	2430
547.952	1465
548.017	2663
548.081	2558
548.146	5037
548.210	3725
548.274	1796
548.339	2397
548.403	3319
548.468	1775
548.532	2319
548.596	1805
548.660	2576
548.725	2623
548.789	2941
548.853	4254
548.917	3237
548.982	3292
549.046	4556
549.110	1634
549.174	2955
549.238	1926
549.303	2172
549.367	3222
549.431	2517
549.495	1881
549.559	2222
549.623	2463
549.687	3404
549.751	4931
549.815	2858
549.879	3084
549.943	622
550.007	2999
550.071	3111
550.135	4519
550.199	3012
550.263	2101
550.327	3422
550.391	3834
550.455	3188
550.519	2864
550.582	3453
550.646	4753
550.710	5210
550.774	3262
550.838	2795
550.901	2558
550.965	4236
551.029	3585
551.093	3903
551.156	4302
551.220	9801
551.284	11249
551.347	5437
551.411	10470
551.475	14665
551.538	3980
551.602	3439
551.666	1335
551.729	2083
551.793	2627
551.856	3113
551.920	3599
551.983	3213
552.047	1974
552.110	2334
552.174	1714
552.237	2718
552.301	1817
552.364	2714
552.428	2443
552.491	2273
552.554	2447
552.618	2716
552.681	2999
552.745	2685
552.808	5558
552.871	7870
552.934	4188
552.998	3399
553.061	3633
553.124	3409
553.187	4229
553.251	4634
553.314	5463
553.377	5740
553.440	9776
553.503	35489
553.567	71864
553.630	12432
553.693	3204
553.756	3352
553.819	2846
553.882	2332
553.945	2392
554.008	2263
554.071	1043
554.134	2978
554.197	1171
554.260	2489
554.323	3826
554.386	2175
554.449	1684
554.512	2975
554.575	931
554.638	1705
554.701	1887
554.764	3159
554.827	2201
554.889	2342
554.952	1757
555.015	1770
555.078	1606
555.141	2484
555.203	1465
555.266	2270
555.329	2417
555.391	1567
555.454	2346
555.517	2394
555.580	1521
555.642	1518
555.705	725
555.768	2266
555.830	2332
555.893	1829
555.955	2325
556.018	1949
556.080	1207
556.143	1460
556.206	807
556.268	2069
556.330	2569
556.393	2381
556.455	2339
556.518	4049
556.580	4454
556.643	2078
556.705	1418
556.767	1616
556.830	2551
556.892	3097
556.955	4697
557.017	4082
557.079	2802
557.142	1735
557.204	2655
557.266	7084
557.328	5274
557.391	2581
557.453	1485
557.515	1917
557.577	2905
557.639	2932
557.701	1416
557.764	838
557.826	1493
557.888	2170
557.950	1444
558.012	1655
558.074	1354
558.136	2632
558.198	5942
558.260	3301
558.322	942
558.384	2919
558.446	2278
558.508	3568
558.570	3584
558.632	7524
558.694	13568
558.756	7546
558.818	12136
558.880	33999
558.942	11259
559.003	6863
559.065	3816
559.127	1955
559.189	2802
559.251	2318
559.312	2681
559.374	5692
559.436	18537
559.498	12138
559.559	2948
559.621	1423
559.683	1943
559.744	5357
559.806	9142
559.868	15008
559.929	3876
559.991	3404
560.052	3569
560.114	6308
560.176	5475
560.237	5257
560.299	7622
560.360	3105
560.422	2410
560.483	3068
560.545	2974
560.606	2416
560.667	1109
560.729	1466
560.790	1918
560.852	2477
560.913	1469
560.974	2396
561.036	1622
561.097	2367
561.158	2654
561.220	2929
561.281	3218
561.342	2840
561.403	3594
561.465	4098
561.526	10212
561.587	17530
561.648	3403
561.709	2780
561.771	2752
561.832	2336
561.893	1926
561.954	1980
562.015	1394
562.076	2652
562.137	3023
562.198	2536
562.259	2726
562.320	2342
562.381	2606
562.442	4506
562.503	3637
562.564	2027
562.625	2144
562.686	2688
562.747	2310
562.808	2800
562.869	2615
562.930	3384
562.991	2732
563.051	2280
563.112	2103
563.173	2275
563.234	2159
563.294	2894
563.355	2055
563.416	3158
563.477	2436
563.537	2790
563.598	3281
563.659	2651
563.720	2669
563.780	2516
563.841	2688
563.901	3307
563.962	2653
564.023	2197
564.083	2510
564.144	3322
564.204	2274
564.265	3302
564.325	3309
564.386	5909
564.446	5494
564.507	2665
564.567	2244
564.628	2809
564.688	1895
564.749	2003
564.809	2901
564.869	4765
564.930	2874
564.990	3297
565.050	1780
565.111	3463
565.171	2172
565.231	3528
565.292	3578
565.352	2985
565.412	2802
565.472	3119
565.532	3086
565.593	2706
565.653	2844
565.713	3181
565.773	3115
565.833	3564
565.893	5910
565.953	4091
566.013	3741
566.074	3941
566.134	4039
566.194	7086
566.254	8120
566.314	5938
566.374	4066
566.434	3649
566.494	4116
566.554	5032
566.614	3990
566.673	4711
566.733	4455
566.793	5189
566.853	4308
566.913	5440
566.973	5430
567.033	6683
567.092	5466
567.152	5308
567.212	4998
567.272	5798
567.331	5270
567.391	5799
567.451	6411
567.511	8015
567.570	8040
567.630	5827
567.690	5929
567.749	6091
567.809	5993
567.868	7490
567.928	6896
567.988	9913
568.047	11120
568.107	13105
568.166	17164
568.226	24783
568.285	33946
568.345	32479
568.404	28245
568.464	23510
568.523	21548
568.582	22804
568.642	22699
568.701	28505
568.761	38950
568.820	57983
568.879	62690
568.939	49294
568.998	37075
569.057	29651
569.116	22691
569.176	19169
569.235	16066
569.294	13344
569.353	11813
569.413	10625
569.472	8504
569.531	7839
569.590	7398
569.649	6635
569.708	6587
569.767	6388
569.827	5320
569.886	6337
569.945	5306
570.004	5491
570.063	4617
570.122	5248
570.181	4752
570.240	4602
570.299	5789
570.358	4765
570.417	4538
570.475	4038
570.534	4260
570.593	4937
570.652	4505
570.711	4599
570.770	3349
570.829	3810
570.887	3610
570.946	4911
571.005	3815
571.064	3184
571.122	2564
571.181	3430
571.240	2875
571.299	3625
571.357	2901
571.416	4194
571.475	3804
571.533	3623
571.592	3902
571.650	3531
571.709	2317
571.768	2929
571.826	2878
571.885	3093
571.943	3350
572.002	3423
572.060	2375
572.119	3387
572.177	2768
572.236	3044
572.294	2494
572.352	3372
572.411	2150
572.469	3163
572.528	3736
572.586	3511
572.644	2462
572.703	4023
572.761	3050
572.819	3146
572.877	2009
572.936	2361
572.994	2409
573.052	2993
573.110	2694
573.169	2832
573.227	2828
573.285	2353
573.343	2773
573.401	2137
573.459	2600
573.517	2971
573.576	2606
573.634	2668
573.692	2423
573.750	2517
573.808	2187
573.866	2767
573.924	3026
573.982	3391
574.040	2810
574.098	2546
574.155	2529
574.213	3023
574.271	1616
574.329	3422
574.387	2326
574.445	2693
574.503	1992
574.560	1985
574.618	1492
574.676	1951
574.734	2516
574.792	2722
574.849	2446
574.907	1610
574.965	2141
575.022	2177
575.080	1226
575.138	2242
575.195	2434
575.253	2004
575.311	3284
575.368	3160
575.426	1573
575.483	2677
575.541	2345
575.598	2847
575.656	2842
575.713	3819
575.771	2493
575.828	2691
575.886	2432
575.943	3711
576.001	2910
576.058	3032
576.115	2710
576.173	3432
576.230	3634
576.287	4531
576.345	3879
576.402	2319
576.459	2586
576.517	2004
576.574	2395
576.631	2392
576.688	2258
576.746	3305
576.803	3338
576.860	2350
576.917	3344
576.974	2730
577.031	3147
577.089	2951
577.146	3286
577.203	3398
577.260	2966
577.317	3316
577.374	3822
577.431	2990
577.488	3545
577.545	3321
577.602	3390
577.659	4379
577.716	2930
577.773	4677
577.830	3331
577.886	3798
577.943	3481
578.000	4080
578.057	4413
578.114	4944
578.171	5322
578.227	7572
578.284	8248
578.341	6757
578.398	5957
578.454	5475
578.511	5292
578.568	4886
578.625	3543
578.681	4394
578.738	3492
578.794	3765
578.851	3153
578.908	3324
578.964	3606
579.021	4969
579.077	3543
579.134	3872
579.190	3017
579.247	3085
579.303	3294
579.360	2707
579.416	2417
579.473	3803
579.529	2277
579.586	4313
579.642	3618
579.698	3931
579.755	3688
579.811	4717
579.867	4847
579.924	4874
579.980	5501
580.036	6480
580.093	9214
580.149	12826
580.205	15592
580.261	11734
580.317	8314
580.374	7668
580.430	6671
580.486	6786
580.542	4785
580.598	5232
580.619	4979
580.654	4543
580.692	4582
580.710	4611
580.765	3797
580.767	3774
580.823	4341
580.838	4304
580.879	4212
580.911	4401
580.935	4552
580.984	4270
580.991	4235
581.047	4597
581.057	4455
581.103	3863
581.130	4767
581.159	5700
581.203	6575
581.215	6815
581.270	6590
581.276	6423
581.326	4816
581.349	5146
581.382	5671
581.422	5219
581.438	5023
581.494	3640
581.494	3640
581.550	3793
581.567	4043
581.606	4555
581.640	4584
581.661	4632
581.713	5419
581.717	5486
581.773	3867
581.786	4017
581.829	4481
581.859	4650
581.885	4819
581.932	4783
581.940	4769
581.996	4383
582.004	4358
582.052	4244
582.077	4438
582.107	4683
582.150	4875
582.163	4941
582.219	4124
582.223	4187
582.274	4904
582.296	4598
582.330	4088
582.368	4568
582.386	4815
582.441	4355
582.441	4354
582.497	4225
582.514	4447
582.552	5133
582.587	5763
582.608	6064
582.659	5107
582.663	5030
582.719	5254
582.732	5202
582.774	5215
582.805	5372
582.830	5436
582.877	5521
582.885	5525
582.941	5242
582.950	5343
582.996	6020
583.023	6353
583.052	6764
583.095	7123
583.107	7240
583.162	9296
583.168	9388
583.218	9957
583.240	9444
583.273	8532
583.313	7845
583.328	7698
583.384	7611
583.385	7567
583.439	5904
583.458	5739
583.494	5556
583.531	5492
583.549	5540
583.603	6248
583.605	6259
583.660	5063
583.676	5320
583.715	6237
583.748	6249
583.770	6151
583.820	5882
583.825	5862
583.881	6046
583.893	5847
583.936	5185
583.965	5172
583.991	5153
584.038	5581
584.046	5673
584.101	5659
584.110	5628
584.156	5441
584.183	5573
584.211	5617
584.255	5998
584.266	6086
584.321	6148
584.328	6079
584.376	5672
584.400	5865
584.431	6123
584.472	5750
584.486	5646
584.541	6116
584.545	6137
584.596	6256
584.617	6073
584.651	6101
584.689	6800
584.706	6905
584.761	6412
584.762	6416
584.816	7012
584.834	6860
584.871	6611
584.906	6778
584.926	6886
584.978	6673
584.980	6667
585.035	7139
585.051	7424
585.090	7940
585.123	7811
585.145	7795
585.195	7139
585.200	7138
585.254	9326
585.267	9491
585.309	9904
585.340	10995
585.364	11448
585.412	9985
585.419	9709
585.473	9067
585.484	8756
585.528	8410
585.556	8921
585.583	9520
585.628	10518
585.637	10885
585.692	13504
585.700	14170
585.747	17641
585.772	17520
585.801	15273
585.845	11091
585.856	10446
585.910	9821
585.917	9706
585.965	9398
585.989	9666
586.019	10033
586.061	9885
586.074	9827
586.128	10146
586.133	10152
586.183	10774
586.205	11245
586.237	11566
586.277	11182
586.292	10993
586.346	11320
586.349	11303
586.401	11149
586.421	11305
586.455	11704
586.493	11957
586.509	12500
586.564	15032
586.565	15106
586.618	19371
586.637	20288
586.672	18927
586.709	16100
586.727	14997
586.781	14080
586.781	14079
586.835	13899
586.853	13996
586.889	14587
586.925	14715
586.944	14727
586.996	15609
586.998	15630
587.052	15848
587.068	16043
587.106	16456
587.140	16630
587.161	16752
587.212	17579
587.215	17633
587.269	18156
587.284	18533
587.323	19461
587.356	19750
587.377	19869
587.427	21387
587.431	21496
587.485	22113
587.499	22471
587.539	23526
587.571	23967
587.593	24498
587.643	26344
587.648	26494
587.702	28452
587.715	28939
587.755	30445
587.786	31585
587.810	32663
587.858	34993
587.864	35277
587.917	38547
587.930	39480
587.971	42823
588.001	45279
588.025	47454
588.073	52101
588.079	52690
588.133	58047
588.145	59599
588.187	66744
588.217	71765
588.241	75546
588.288	84536
588.295	86086
588.348	99984
588.360	103282
588.402	117356
588.431	127996
588.456	137802
588.503	158992
588.510	162662
588.564	194503
588.575	201882
588.617	236246
588.646	262277
588.671	294821
588.718	363423
588.725	379755
588.778	515005
588.789	544294
588.832	725530
588.861	848886
588.886	944001
588.932	1101630
588.939	1098885
588.993	1019153
589.004	1011756
589.047	1034321
589.075	1019843
589.100	901640
589.147	657749
589.154	635211
589.207	469910
589.218	438536
589.261	392670
589.290	367152
589.314	371754
589.361	390732
589.368	403071
589.421	517694
589.433	544293
589.475	732278
589.504	864238
589.528	934911
589.576	1034072
589.582	1026549
589.635	947116
589.647	921286
589.689	696678
589.718	529936
589.742	442542
589.790	279538
589.795	270672
589.849	197576
589.861	181737
589.902	153729
589.932	134512
589.955	122725
590.004	100064
590.009	98543
590.062	83620
590.075	80285
590.115	72344
590.146	66462
590.168	63338
590.218	57303
590.222	56837
590.275	51272
590.289	49900
590.328	47239
590.360	45023
590.381	43140
590.431	39416
590.435	39266
590.488	36474
590.503	35992
590.541	34551
590.574	32993
590.594	32249
590.645	30836
590.647	30763
590.700	28619
590.716	28202
590.753	27480
590.787	26661
590.806	26056
590.859	24328
590.859	24313
590.912	24082
590.930	24041
590.965	23008
591.001	21852
591.018	21886
591.071	22201
591.072	22204
591.124	20906
591.143	20481
591.177	19974
591.214	19442
591.230	19375
591.283	19361
591.285	19351
591.336	19313
591.356	19428
591.389	19311
591.427	18922
591.442	18515
591.495	17308
591.498	17201
591.547	16772
591.569	16653
591.600	16328
591.640	15915
591.653	15937
591.706	15930
591.711	15937
591.759	16164
591.782	16238
591.811	16210
591.853	16270
591.864	16175
591.917	15525
591.924	15442
591.969	14587
591.995	14073
592.022	14392
592.066	14885
592.075	14885
592.127	14923
592.137	14919
592.180	15963
592.208	16665
592.233	15822
592.279	14123
592.285	14094
592.338	13855
592.350	13800
592.390	13299
592.421	12920
592.443	12797
592.491	12513
592.495	12466
592.548	11830
592.562	11656
592.600	11724
592.633	11803
592.653	11851
592.704	11923
592.705	11986
592.775	11733
592.846	11999
592.916	11707
592.987	13728
593.058	12713
593.128	10590
593.199	11205
593.270	10680
593.341	11033
593.411	10275
593.482	10164
593.553	10478
593.623	10024
593.694	9608
593.764	10551
593.835	9467
593.906	9242
593.976	9148
594.047	9804
594.117	10486
594.188	11675
594.258	8610
594.329	8476
594.399	9026
594.470	9121
594.540	8600
594.611	8755
594.681	8368
594.751	8868
594.822	9054
594.892	9378
594.963	9769
595.033	9087
595.103	8400
595.174	9942
595.244	12585
595.314	17326
595.384	9260
595.455	8275
595.525	8870
595.595	8500
595.665	8241
595.736	9346
595.806	8281
595.876	7737
595.946	7018
596.016	7562
596.087	8871
596.157	8060
596.227	7534
596.297	7565
596.367	8332
596.437	9623
596.507	11610
596.577	16164
596.647	9333
596.717	8164
596.787	7801
596.857	8117
596.927	7529
596.997	8635
597.067	7937
597.137	9935
597.207	9353
597.277	8461
597.347	8316
597.417	8133
597.487	8605
597.557	7878
597.626	8759
597.696	9471
597.766	10353
597.836	14383
597.906	9821
597.975	7186
598.045	7362
598.115	8733
598.185	7211
598.254	8211
598.324	9442
598.394	8591
598.464	8944
598.533	8521
598.603	7967
598.672	8313
598.742	8513
598.812	7847
598.881	7256
598.951	7657
599.020	6733
599.090	8089
599.159	6939
599.229	7477
599.299	6886
599.368	6801
599.437	7411
599.507	7256
599.576	7898
599.646	9039
599.715	9122
599.785	7868
599.854	7616
599.924	8117
599.993	8198
600.062	7594
600.132	6509
600.201	7172
600.270	8057
600.340	7681
600.409	7286
600.478	7397
600.547	6947
600.617	7418
600.686	7631
600.755	6751
600.824	7916
600.894	7549
600.963	6829
601.032	6339
601.101	6962
601.170	6143
601.239	7081
601.308	7715
601.378	6600
601.447	7088
601.516	6445
601.585	6369
601.654	7147
601.723	7379
601.792	6950
601.861	7963
601.930	10025
601.999	9539
602.068	7249
602.137	7409
602.206	7823
602.275	7821
602.343	8723
602.412	10311
602.481	7347
602.550	7514
602.619	6446
602.688	8065
602.756	6835
602.825	7236
602.894	6396
602.963	6556
603.032	6999
603.100	5868
603.169	6248
603.238	6299
603.307	6508
603.375	7051
603.444	6299
603.513	6790
603.581	5935
603.650	6945
603.719	5845
603.787	6127
603.856	6059
603.924	5929
603.993	6491
604.061	6018
604.130	5966
604.198	6601
604.267	5922
604.335	6799
604.404	5898
604.472	5568
604.541	5878
604.609	6525
604.678	5767
604.746	6383
604.815	6049
604.883	6924
604.951	6905
605.020	5761
605.088	5149
605.156	6275
605.225	5998
605.293	5735
605.361	6451
605.429	5881
605.498	6505
605.566	7844
605.634	7162
605.702	6895
605.771	6003
605.839	6274
605.907	6856
605.975	5943
606.043	6460
606.111	6564
606.180	6600
606.248	8848
606.316	10905
606.384	7028
606.452	8907
606.520	10931
606.588	7932
606.656	5917
606.724	5802
606.792	5733
606.860	5991
606.928	5360
606.996	5427
607.064	5284
607.132	4878
607.200	5383
607.267	5676
607.335	4903
607.403	5638
607.471	4977
607.539	6011
607.607	5919
607.674	5482
607.742	6023
607.810	6392
607.878	6027
607.946	5322
608.013	5489
608.081	5121
608.149	6161
608.216	4718
608.284	6032
608.352	5651
608.419	5157
608.487	8419
608.555	7372
608.622	4951
608.690	5177
608.757	5539
608.825	5948
608.893	6426
608.960	6546
609.028	8075
609.095	9366
609.163	6472
609.230	6091
609.298	6074
609.365	4758
609.432	5028
609.500	5514
609.567	6191
609.635	6452
609.702	6788
609.769	6764
609.837	6857
609.904	6940
609.971	5680
610.039	8718
610.106	11453
610.173	19061
610.241	46540
610.308	76342
610.375	62754
610.442	16702
610.509	7292
610.577	7527
610.644	6675
610.711	5787
610.778	6067
610.845	6047
610.912	6724
610.980	7015
611.047	12748
611.114	9959
611.181	6029
611.248	5708
611.315	6128
611.382	5441
611.449	4849
611.516	6636
611.583	4846
611.650	6006
611.717	6061
611.784	5724
611.851	6050
611.918	7747
611.984	6271
612.051	10044
612.118	18424
612.185	42452
612.252	39223
612.319	8853
612.386	6310
612.452	6591
612.519	6918
612.586	9268
612.653	8129
612.719	6653
612.786	6160
612.853	5613
612.919	5432
612.986	6353
613.053	5336
613.120	5432
613.186	4020
613.253	6639
613.319	5311
613.386	5383
613.453	6080
613.519	6889
613.586	9448
613.652	16532
613.719	12316
613.785	10552
613.852	6001
613.918	6245
613.985	7760
614.051	13799
614.118	35553
614.184	47324
614.250	10197
614.317	6231
614.383	4430
614.449	5212
614.516	5788
614.582	5907
614.648	4670
614.715	4952
614.781	5130
614.847	5142
614.914	5724
614.980	6169
615.046	5336
615.112	5875
615.179	5204
615.245	6277
615.311	9128
615.377	15658
615.443	21055
615.509	12569
615.575	7833
615.642	7311
615.708	7687
615.774	6735
615.840	8413
615.906	11168
615.972	17532
616.038	36056
616.104	55003
616.170	70301
616.236	70736
616.302	18941
616.368	9575
616.434	7700
616.500	7555
616.565	8432
616.631	8034
616.697	7766
616.763	6152
616.829	9061
616.895	14187
616.961	14698
617.026	8900
617.092	6283
617.158	6617
617.224	5293
617.289	5411
617.355	6174
617.421	5164
617.487	6428
617.552	5096
617.618	4742
617.684	4697
617.749	6981
617.815	5499
617.880	4861
617.946	5485
618.012	5520
618.077	4785
618.143	4956
618.208	5355
618.274	6126
618.339	5650
618.405	4523
618.470	5452
618.536	6345
618.601	6026
618.667	5664
618.732	6133
618.798	5250
618.863	5130
618.928	5508
618.994	6629
619.059	7577
619.124	11612
619.190	9086
619.255	5066
619.320	5873
619.386	5579
619.451	5072
619.516	4921
619.581	5024
619.647	5242
619.712	5732
619.777	5443
619.842	5717
619.907	5243
619.972	5926
620.038	5444
620.103	5375
620.168	4221
620.233	5833
620.298	4547
620.363	4924
620.428	5064
620.493	5240
620.558	5189
620.623	5386
620.688	5932
620.753	4768
620.818	4902
620.883	5191
620.948	4905
621.013	5070
621.078	5651
621.143	4294
621.207	7450
621.272	5936
621.337	6928
621.402	7456
621.467	8866
621.532	9397
621.596	7600
621.661	6968
621.726	5507
621.791	6100
621.855	6846
621.920	7550
621.985	7104
622.049	8215
622.114	7345
622.179	7126
622.243	7033
622.308	6350
622.373	7990
622.437	7291
622.502	6283
622.566	6556
622.631	4805
622.695	7486
622.760	7169
622.824	6811
622.889	6599
622.953	8166
623.018	13901
623.082	14839
623.147	6655
623.211	7025
623.276	7037
623.340	6736
623.404	6065
623.469	6752
623.533	6464
623.597	5691
623.662	6199
623.726	5838
623.790	6143
623.854	5749
623.919	6394
623.983	6339
624.047	6369
624.111	5890
624.176	5808
624.240	6605
624.304	7890
624.368	6016
624.432	6875
624.496	5955
624.560	6832
624.625	9085
624.689	6873
624.753	6162
624.817	5361
624.881	5772
624.945	5523
625.009	6561
625.073	6280
625.137	6289
625.201	9331
625.265	10833
625.329	6325
625.393	5363
625.456	5815
625.520	6035
625.584	6974
625.648	8613
625.712	12881
625.776	30193
625.839	40155
625.903	18298
625.967	6925
626.031	12309
626.095	21989
626.158	9059
626.222	5367
626.286	5110
626.349	5534
626.413	4305
626.477	7087
626.540	5375
626.604	4457
626.668	5446
626.731	5669
626.795	4409
626.858	5569
626.922	4933
626.986	4732
627.049	3483
627.113	4709
627.176	4796
627.240	4561
627.303	5538
627.366	4249
627.430	5027
627.493	4680
627.557	4395
627.620	4955
627.684	4202
627.747	4142
627.810	4089
627.874	4780
627.937	3352
628.000	6255
628.064	4410
628.127	2733
628.190	4659
628.253	4536
628.317	3895
628.380	4534
628.443	3643
628.506	4763
628.569	4307
628.632	4043
628.696	3616
628.759	3612
628.822	3077
628.885	3575
628.948	4113
629.011	4405
629.074	4321
629.137	3856
629.200	3189
629.263	4971
629.326	2935
629.389	3855
629.452	4225
629.515	3992
629.578	4501
629.641	3645
629.704	4075
629.767	4606
629.830	4422
629.892	3635
629.955	3362
630.018	4609
630.081	5148
630.144	7468
630.207	4673
630.269	5510
630.332	4422
630.395	4787
630.458	4169
630.520	2632
630.583	4167
630.646	3837
630.708	3796
630.771	2613
630.834	3649
630.896	2948
630.959	3307
631.021	2961
631.084	3482
631.146	3322
631.209	5016
631.272	3109
631.334	3309
631.397	3288
631.459	3910
631.522	3123
631.584	3085
631.646	3983
631.709	4575
631.771	5279
631.834	4808
631.896	4033
631.958	3271
632.021	4079
632.083	2947
632.145	2983
632.208	3219
632.270	4383
632.332	2523
632.395	1283
632.457	3783
632.519	2864
632.581	4184
632.643	3026
632.706	3542
632.768	2043
632.830	3066
632.892	2581
632.954	2844
633.016	3256
633.078	2115
633.141	2597
633.203	3074
633.265	3455
633.327	2583
633.389	2232
633.451	4089
633.513	4971
633.575	3523
633.637	4297
633.698	4431
633.760	3317
633.822	3463
633.884	3044
633.946	3042
634.008	3062
634.070	3263
634.132	4326
634.193	3507
634.255	2676
634.317	2750
634.379	3347
634.441	3113
634.502	2084
634.564	3691
634.626	2373
634.687	2867
634.749	3561
634.811	2439
634.873	2067
634.934	2934
634.996	2771
635.057	2467
635.119	2323
635.181	2103
635.242	2292
635.304	1194
635.365	3768
635.427	2300
635.488	2467
635.550	2246
635.611	3542
635.673	1129
635.734	3813
635.796	2380
635.857	3271
635.918	1507
635.980	3043
636.041	2264
636.102	2361
636.164	2583
636.225	2927
636.286	1860
636.348	2535
636.409	2081
636.470	1994
636.531	2721
636.593	2948
636.654	3792
636.715	2510
636.776	2483
636.838	1606
636.899	3029
636.960	1713
637.021	1655
637.082	2152
637.143	2723
637.204	1347
637.265	1795
637.326	2784
637.387	2176
637.448	1749
637.509	2337
637.570	2250
637.631	2638
637.692	1505
637.753	825
637.814	2387
637.875	1635
637.936	2468
637.997	1775
638.058	2152
638.119	2870
638.179	1893
638.240	2134
638.301	2033
638.362	1304
638.423	1522
638.483	3231
638.544	1319
638.605	1976
638.666	762
638.726	2410
638.787	2745
638.848	1594
638.908	1887
638.969	1944
639.030	1879
639.090	1658
639.151	2046
639.211	2635
639.272	3530
639.332	6757
639.393	5072
639.453	1829
639.514	2259
639.574	2315
639.635	1830
639.695	2174
639.756	741
639.816	2393
639.877	2726
639.937	5457
639.997	10356
640.058	3276
640.118	1520
640.178	2647
640.239	1496
640.299	1914
640.359	1072
640.420	1372
640.480	1919
640.540	1455
640.600	1635
640.661	2014
640.721	354
640.781	3764
640.841	1217
640.901	2730
640.961	2874
641.021	2508
641.082	1657
641.142	5006
641.202	4525
641.262	1533
641.322	2098
641.382	1407
641.442	1414
641.502	1786
641.562	2055
641.622	613
641.682	2122
641.742	1493
641.802	1748
641.861	2562
641.921	2168
641.981	3184
642.041	3006
642.101	4010
642.161	1792
642.221	1167
642.280	1063
642.340	1892
642.400	1206
642.460	1531
642.519	1566
642.579	1575
642.639	2515
642.698	-325
642.758	3272
642.818	1293
642.877	357
642.937	2088
642.997	2371
643.056	4707
643.116	1488
643.175	2789
643.235	1510
643.294	1535
643.354	1365
643.414	1219
643.473	1359
643.532	1488
643.592	1634
643.651	3701
643.711	5582
643.770	8235
643.830	17973
643.889	48082
643.948	17089
644.008	2748
644.067	1324
644.126	531
644.186	1033
644.245	2359
644.304	-481
644.363	2773
644.423	1013
644.482	1219
644.541	1294
644.600	-366
644.659	1803
644.719	1066
644.778	1991
644.837	1826
644.896	3756
644.955	8289
645.014	4475
645.073	2740
645.132	1527
645.191	2181
645.250	605
645.309	1960
645.368	729
645.427	1803
645.486	1008
645.545	3014
645.604	1183
645.663	2303
645.722	955
645.781	1703
645.840	926
645.898	1240
645.957	1857
646.016	1263
646.075	3658
646.134	6458
646.192	16263
646.251	32859
646.310	5774
646.369	1625
646.427	825
646.486	1345
646.545	1136
646.603	978
646.662	1585
646.721	1059
646.779	365
646.838	-92
646.896	1605
646.955	1916
647.014	1154
647.072	2133
647.131	4514
647.189	1978
647.248	763
647.306	1614
647.365	1571
647.423	-442
647.481	1929
647.540	-450
647.598	1307
647.657	603
647.715	1295
647.773	-322
647.832	2036
647.890	28
647.948	-273
648.007	1554
648.065	652
648.123	936
648.181	2613
648.240	2390
648.298	1857
648.356	1045
648.414	1119
648.472	1197
648.531	327
648.589	831
648.647	944
648.705	-52
648.763	374
648.821	478
648.879	226
648.937	925
648.995	294
649.053	384
649.111	1582
649.169	2354
649.227	2960
649.285	4417
649.343	14297
649.401	13086
649.459	10302
649.516	10971
649.574	4596
649.632	13989
649.690	23224
649.748	6399
649.806	3841
649.863	10163
649.921	5720
649.979	3036
650.037	810
650.094	-603
650.152	1299
650.210	-144
650.268	1571
650.325	711
650.383	698
650.440	-455
650.498	1361
650.556	874
650.613	-24
650.671	1267
650.728	76
650.786	855
650.843	851
650.901	76
650.958	672
651.016	1214
651.073	889
651.131	610
651.188	-66
651.246	1174
651.303	-336
651.360	758
651.418	202
651.475	943
651.532	-587
651.590	749
651.647	-697
651.704	561
651.762	407
651.819	687
651.876	-104
651.933	999
651.990	1313
652.048	-82
652.105	-389
652.162	715
652.219	122
652.276	686
652.333	494
652.390	-261
652.448	253
652.505	884
652.562	1495
652.619	1429
652.676	3369
652.733	5226
652.790	526
652.847	-502
652.904	1167
652.961	-357
653.017	-597
653.074	1053
653.131	238
653.188	-505
653.245	143
653.302	233
653.359	583
653.415	117
653.472	-461
653.529	358
653.586	120
653.642	-406
653.699	804
653.756	-421
653.813	513
653.869	677
653.926	124
653.983	-304
654.039	1006
654.096	-316
654.152	574
654.209	52
654.266	1002
654.322	393
654.379	1702
654.435	1035
654.492	-37
654.548	1278
654.605	3583
654.661	2053
654.717	443
654.774	800
654.830	612
654.887	434
654.943	-387
655.000	-138
655.056	764
655.112	834
655.168	-364
655.225	636
655.281	446
655.337	471
655.394	2023
655.450	2707
655.506	1379
655.562	1676
655.618	3407
655.675	126
655.731	381
655.787	-193
655.843	1161
655.899	-121
655.955	684
656.011	1138
656.067	-222
656.123	970
656.179	438
656.235	2087
656.291	-495
656.347	1568
656.403	99
656.459	703
656.515	425
656.571	1092
656.627	224
656.683	810
656.739	687
656.795	842
656.850	511
656.906	1374
656.962	1932
657.018	-379
657.074	232
657.129	239
657.185	472
657.241	736
657.297	-536
657.352	1019
657.408	17
657.464	1392
657.519	-56
657.575	33
657.630	-377
657.686	627
657.742	-160
657.797	358
657.853	-468
657.908	790
657.964	-692
658.019	31
658.075	78
658.130	414
658.186	-857
658.241	1007
658.297	-169
658.352	-108
658.407	536
658.463	-685
658.518	300
658.573	404
658.629	-94
658.684	393
658.739	90
658.795	43
658.850	-254
658.905	112
658.960	484
659.016	-578
659.071	96
659.126	781
659.181	-327
659.236	2344
659.291	3025
659.346	853
659.401	1069
659.457	1362
659.512	1460
659.567	1828
659.622	296
659.677	443
659.732	-885
659.787	567
659.842	-298
659.897	-446
659.952	1171
660.007	654
660.061	-190
660.116	-187
660.171	-424
660.226	1015
660.281	815
660.336	-524
660.391	48
660.445	405
660.500	-27
660.555	1239
660.610	-156
660.664	852
660.719	-136
660.774	104
660.828	341
660.883	1136
660.938	804
660.992	52
661.047	672
661.101	-264
661.156	-285
661.211	47
661.265	-199
661.320	-755
661.374	-71
661.429	-814
661.483	653
661.538	-945
661.592	30
661.647	-595
661.701	40
661.755	168
661.810	244
661.864	-840
661.919	-514
661.973	695
662.027	300
662.081	-3
662.136	-277
662.190	-522
662.244	-49
662.299	135
662.353	-100
662.407	-524
662.461	-594
662.515	-313
662.569	-367
662.624	456
662.678	-1083
662.732	-75
662.786	-115
662.840	145
662.894	76
662.948	31
663.002	512
663.056	-3
663.110	-1055
663.164	152
663.218	-109
663.272	184
663.326	145
663.380	-403
663.434	-565
663.488	-343
663.542	-5
663.595	-132
663.649	-682
663.703	510
663.757	-486
663.811	-987
663.864	-747
663.918	17
663.972	-1136
664.026	391
664.079	20
664.133	-471
664.187	-1112
664.240	260
664.294	-353
664.348	249
664.401	425
664.455	-966
664.508	-210
664.562	-389
664.615	-60
664.669	-905
664.722	-471
664.776	574
664.829	-380
664.883	172
664.936	-619
664.990	-150
665.043	216
665.097	-154
665.150	560
665.203	-125
665.257	-204
665.310	438
665.363	-198
665.417	39
665.470	493
665.523	-82
665.576	360
665.630	212
665.683	214
665.736	-33
665.789	79
665.842	-374
665.895	-115
665.949	199
666.002	630
666.055	-38
666.108	202
666.161	-905
666.214	-27
666.267	240
666.320	299
666.373	626
666.426	-57
666.479	-39
666.532	-654
666.585	-284
666.638	498
666.691	433
666.744	310
666.796	760
666.849	-433
666.902	334
666.955	-28
667.008	283
667.060	279
667.113	-567
667.166	609
667.219	176
667.271	-122
667.324	80
667.377	770
667.430	75
667.482	781
667.535	1198
667.587	318
667.640	571
667.693	175
667.745	1858
667.798	2632
667.850	950
667.903	-289
667.955	-255
668.008	121
668.060	99
668.113	-137
668.165	575
668.218	154
668.270	-512
668.322	-83
668.375	-28
668.427	778
668.479	-512
668.532	-79
668.584	684
668.636	38
668.689	223
668.741	-574
668.793	107
668.845	-714
668.898	1199
668.950	-400
669.002	990
669.054	-914
669.106	-538
669.158	828
669.211	881
669.263	-423
669.315	1251
669.367	2184
669.419	98
669.471	975
669.523	691
669.575	2895
669.627	666
669.679	886
669.731	829
669.783	555
669.835	1377
669.886	923
669.938	1366
669.990	624
670.042	-100
670.094	930
670.146	1211
670.197	1962
670.249	1307
670.301	2173
670.353	4160
670.404	6530
670.456	10506
670.508	17182
670.560	30180
670.611	56165
670.663	101928
670.715	222424
670.766	426450
670.818	179574
670.869	28473
670.921	11148
670.972	7520
671.024	4353
671.075	3308
671.127	2560
671.178	1704
671.230	1721
671.281	1488
671.333	1681
671.384	466
671.436	767
671.487	1319
671.538	896
671.590	588
671.641	969
671.692	1171
671.744	1594
671.795	2715
671.846	777
671.897	504
671.949	65
672.000	410
672.051	63
672.102	393
672.153	-515
672.204	435
672.256	711
672.307	442
672.358	274
672.409	9
672.460	128
672.511	-614
672.562	-20
672.613	145
672.664	-661
672.715	-416
672.766	-145
672.817	-138
672.868	163
672.919	737
672.970	53
673.021	-133
673.071	-243
673.122	72
673.173	-270
673.224	-15
673.275	-10
673.326	279
673.376	129
673.427	-442
673.478	-752
673.528	565
673.579	-271
673.630	103
673.680	-532
673.731	-616
673.782	-334
673.832	-207
673.883	251
673.934	-676
673.984	214
674.035	83
674.085	-882
674.136	273
674.186	867
674.237	544
674.287	350
674.338	153
674.388	-1097
674.438	-598
674.489	327
674.539	-821
674.589	78
674.640	135
674.690	-158
674.740	-632
674.791	-590
674.841	152
674.891	190
674.942	-22
674.992	-258
675.042	-139
675.092	302
675.142	-923
675.193	-307
675.243	-704
675.293	-887
675.343	31
675.393	-904
675.443	-107
675.493	-190
675.543	-1211
675.593	167
675.643	-619
675.693	-945
675.743	-75
675.793	-594
675.843	-673
675.893	-610
675.943	-9
675.993	-187
676.043	-689
676.093	27
676.142	-1098
676.192	-655
676.242	-310
676.292	-919
676.341	-867
676.391	-143
676.441	-1061
676.491	-699
676.540	-1093
676.590	-604
676.640	352
676.689	-729
676.739	-1070
676.789	-549
676.838	-457
676.888	308
676.937	-1019
676.987	-632
677.037	-494
677.086	-1479
677.136	-864
677.185	-341
677.235	-528
677.284	-781
677.333	-460
677.383	-240
677.432	-543
677.482	-466
677.531	-989
677.580	-889
677.630	-675
677.679	-1104
677.728	-324
677.778	-363
677.827	-597
677.876	-1134
677.925	-835
677.975	-769
678.024	-717
678.073	-190
678.122	-229
678.171	-557
678.220	-361
678.269	-432
678.319	-822
678.368	-598
678.417	-1052
678.466	-425
678.515	-413
678.564	-143
678.613	-384
678.662	-911
678.711	-704
678.760	-298
678.809	-1080
678.857	-431
678.906	-882
678.955	-503
679.004	-535
679.053	-737
679.102	-1164
679.151	-760
679.199	-213
679.248	-429
679.297	-152
679.346	-270
679.394	-620
679.443	-546
679.492	-327
679.540	-716
679.589	-644
679.638	-640
679.686	-184
679.735	-187
679.784	-1108
679.832	-603
679.881	-1070
679.929	-952
679.978	-451
680.026	-442
680.075	-1247
680.123	-1058
680.172	-884
680.220	-1158
680.268	-973
680.317	-1246
680.365	-357
680.414	-1342
680.462	-1310
680.510	-593
680.559	-502
680.607	-667
680.655	-1439
680.703	-936
680.752	-491
680.800	-816
680.848	-1061
680.896	-596
680.945	-468
680.993	-1093
681.041	-705
681.089	-789
681.137	-12
681.185	-1166
681.233	-551
681.258	-712
681.281	-892
681.329	-895
681.377	-570
681.380	-548
681.425	-650
681.473	-296
681.502	-267
681.521	-304
681.569	-306
681.617	-464
681.624	-490
681.665	-860
681.713	621
681.745	353
681.761	183
681.809	-799
681.857	-451
681.867	-357
681.904	-129
681.952	168
681.989	596
682.000	690
682.048	-349
682.096	-134
682.111	-56
682.143	6
682.191	611
682.233	988
682.239	1022
682.286	433
682.334	829
682.354	782
682.382	659
682.430	223
682.476	32
682.477	2
682.525	886
682.572	835
682.598	835
682.620	811
682.667	632
682.715	878
682.720	903
682.763	863
682.810	1453
682.841	1340
682.857	1267
682.905	1030
682.952	1367
682.963	1371
683.000	1234
683.047	480
683.085	1901
683.095	2273
683.142	1495
683.190	1336
683.206	1482
683.237	1660
683.284	2350
683.328	1301
683.332	1190
683.379	2215
683.426	2167
683.449	1600
683.473	1025
683.521	1494
683.568	1768
683.571	1801
683.615	1956
683.662	1818
683.693	2171
683.709	2310
683.757	1900
683.804	2543
683.814	2345
683.851	1614
683.898	1759
683.936	2707
683.945	2922
683.992	2153
684.039	2132
684.057	2465
684.086	2944
684.133	2804
684.179	2902
684.180	2886
684.227	2713
684.274	3295
684.300	3206
684.321	3137
684.368	2579
684.415	2992
684.422	2899
684.462	2204
684.509	2605
684.543	2244
684.556	2092
684.603	3230
684.649	2743
684.665	2975
684.696	3437
684.743	3192
684.786	3420
684.790	3441
684.837	3908
684.883	4345
684.908	4235
684.930	4016
684.977	4168
685.023	3846
685.029	3840
685.070	3570
685.117	4256
685.150	3905
685.164	3837
685.210	4248
685.257	4858
685.272	5051
685.303	5283
685.350	4219
685.393	4742
685.396	4778
685.443	4323
685.490	5281
685.514	5196
685.536	5073
685.583	4559
685.629	4946
685.636	4912
685.675	4643
685.722	4722
685.757	4438
685.768	4358
685.815	4560
685.861	5541
685.878	5217
685.908	4551
685.954	4819
686.000	4794
686.000	4791
686.047	5323
686.093	5606
686.121	5835
686.139	5840
686.185	5543
686.232	5299
686.242	5281
686.278	5295
686.324	5206
686.363	5240
686.370	5232
686.416	5212
686.463	5581
686.484	5357
686.509	5212
686.555	6146
686.601	6193
686.606	6242
686.647	6399
686.693	6032
686.727	5570
686.739	5431
686.785	6364
686.831	5825
686.848	5863
686.877	5916
686.923	5561
686.969	5683
686.969	5683
687.015	6054
687.061	5800
687.090	5909
687.107	5881
687.153	6019
687.199	6126
687.211	5984
687.245	5748
687.291	6235
687.332	6043
687.336	6034
687.382	6432
687.428	6651
687.453	6709
687.474	6602
687.520	6432
687.565	6313
687.574	6188
687.611	5869
687.657	6283
687.695	6359
687.702	6394
687.748	6453
687.794	6929
687.816	7183
687.839	7288
687.885	7129
687.931	6987
687.937	6918
687.976	6677
688.022	6734
688.058	6601
688.067	6557
688.113	6931
688.158	6233
688.179	6418
688.204	6712
688.249	6603
688.295	6809
688.300	6866
688.340	7309
688.386	6996
688.421	7166
688.431	7233
688.477	7028
688.522	7020
688.542	7455
688.567	7999
688.613	7406
688.658	7910
688.663	7894
688.703	7576
688.749	7259
688.784	7541
688.794	7715
688.839	7582
688.884	7745
688.905	7803
688.930	7724
688.975	7939
689.020	7523
689.026	7513
689.065	7690
689.110	7860
689.146	7596
689.155	7522
689.201	7959
689.246	7963
689.267	8017
689.291	8085
689.336	8150
689.381	7776
689.388	7838
689.426	8273
689.471	8021
689.509	8082
689.516	8120
689.561	8198
689.606	8668
689.630	8651
689.651	8580
689.696	8341
689.741	8197
689.750	8260
689.785	8790
689.830	9086
689.871	9029
689.875	8996
689.920	9320
689.965	8833
689.992	8704
690.010	8727
690.054	8882
690.099	8604
690.112	8690
690.144	9076
690.189	9374
690.233	9222
690.233	9236
690.278	9798
690.323	9868
690.354	10079
690.367	10248
690.412	10568
690.457	11011
690.474	11076
690.501	11152
690.546	11961
690.590	12207
690.595	12179
690.635	12809
690.680	14073
690.716	14852
690.724	15334
690.769	17858
690.813	20755
690.836	22008
690.857	24895
690.902	30896
690.946	37534
690.957	39104
690.991	54455
691.035	74280
691.077	93851
691.080	94495
691.124	102055
691.168	109080
691.198	114045
691.213	106565
691.257	83897
691.301	60948
691.318	51882
691.346	45878
691.390	36207
691.434	26540
691.439	25386
691.478	22842
691.522	20354
691.559	17980
691.567	17779
691.611	16769
691.655	15261
691.680	14661
691.699	14632
691.743	14078
691.787	13562
691.800	13310
691.831	13084
691.875	13186
691.919	12873
691.921	12854
691.964	12997
692.008	12984
692.041	12622
692.052	12575
692.096	12489
692.139	12590
692.162	12433
692.183	12227
692.227	12000
692.271	11725
692.282	11555
692.315	11477
692.359	12074
692.402	12386
692.403	12412
692.447	12123
692.490	12084
692.523	11814
692.534	11918
692.578	12634
692.622	13015
692.643	13254
692.666	13225
692.709	12915
692.753	12930
692.763	12960
692.797	13514
692.840	13436
692.884	13681
692.884	13712
692.928	13814
692.971	13690
693.004	13861
693.015	14059
693.059	14287
693.102	15119
693.124	15183
693.146	15357
693.189	15769
693.233	16435
693.245	16611
693.276	17872
693.320	19216
693.363	20640
693.365	20645
693.407	22543
693.450	24459
693.485	26490
693.493	27819
693.537	33466
693.580	39598
693.605	43065
693.624	49529
693.667	64684
693.710	79962
693.725	85282
693.753	115572
693.797	162472
693.840	210388
693.845	215672
693.883	229817
693.926	244525
693.966	258225
693.970	253683
694.013	200965
694.056	148050
694.086	111185
694.099	104442
694.142	82542
694.185	60334
694.206	49633
694.229	46164
694.272	39782
694.315	33045
694.326	31186
694.358	29103
694.401	26672
694.444	23800
694.446	23603
694.487	22515
694.530	21220
694.566	20385
694.573	20212
694.616	18534
694.659	17023
694.686	15948
694.702	15867
694.745	15745
694.787	15278
694.806	15084
694.830	14990
694.873	14907
694.916	14618
694.926	14540
694.959	14447
695.002	14301
695.044	14150
695.046	14105
695.087	14150
695.130	14108
695.166	14071
695.172	14104
695.215	14122
695.258	13978
695.286	14089
695.301	14114
695.343	13747
695.386	13603
695.406	13384
695.428	13268
695.471	13121
695.514	12924
695.526	12893
695.556	13113
695.599	13256
695.641	13120
695.646	13089
695.684	13047
695.726	13089
695.766	13038
695.769	13078
695.811	13015
695.854	13220
695.886	13237
695.896	13285
695.938	13131
695.981	13201
696.005	13208
696.023	13181
696.065	12914
696.108	12806
696.125	12705
696.150	12901
696.192	12919
696.235	13403
696.245	13390
696.277	13298
696.319	13267
696.361	13218
696.365	13178
696.404	14136
696.446	15285
696.485	16064
696.488	16064
696.530	15562
696.572	15224
696.604	14746
696.614	14686
696.656	14384
696.698	14128
696.724	13830
696.740	13714
696.783	13348
696.825	13076
696.844	12890
696.867	12991
696.909	13011
696.951	13207
696.964	13217
696.992	13301
697.034	13315
697.076	13388
697.083	13349
697.118	13585
697.160	13859
697.202	14133
697.203	14102
697.244	13495
697.286	12785
697.323	12088
697.327	12153
697.369	12488
697.411	12807
697.442	12924
697.453	12926
697.494	12874
697.536	12777
697.562	12722
697.578	12854
697.620	13051
697.661	13310
697.682	13384
697.703	13579
697.744	13877
697.786	14197
697.801	14273
697.828	14390
697.869	14406
697.911	14545
697.921	14518
697.952	13901
697.994	13115
698.035	12286
698.040	12146
698.077	12381
698.118	12658
698.160	12857
698.160	12819
698.201	12573
698.243	12251
698.279	11945
698.284	12005
698.325	12244
698.367	12446
698.399	12602
698.408	12656
698.449	12691
698.491	12736
698.518	12756
698.532	12895
698.573	13181
698.614	13471
698.638	13590
698.656	13505
698.697	13229
698.738	12941
698.757	12774
698.779	13071
698.820	13556
698.862	14046
698.877	14184
698.903	14232
698.944	14254
698.985	14270
698.996	14236
699.026	14101
699.067	13857
699.116	13529
699.235	12776
699.354	13330
699.474	13395
699.593	13089
699.713	14118
699.832	13026
699.951	13576
700.070	13860
700.190	12379
700.309	13086
700.428	12988
700.547	13239
700.667	12504
700.786	13463
700.905	12890
701.024	12606
701.143	12238
701.262	12479
701.381	12060
701.500	12505
701.619	12669
701.738	12458
701.857	12325
701.976	12834
702.095	12186
702.214	12027
702.333	12588
702.452	12657
702.571	12335
702.690	11246
702.809	11259
702.928	11114
703.047	11642
703.165	11600
703.284	12068
703.403	10561
703.522	11987
703.640	12378
703.759	11499
703.878	15165
703.997	10662
704.115	11517
704.234	11136
704.353	11062
704.471	10434
704.590	10647
704.708	10538
704.827	10752
704.946	10706
705.064	11161
705.183	12104
705.301	13230
705.420	16386
705.538	15543
705.656	13712
705.775	15521
705.893	27396
706.012	44443
706.130	16213
706.249	14672
706.367	13324
706.485	14412
706.604	13258
706.722	13524
706.840	14785
706.958	15032
707.077	13873
707.195	12001
707.313	12972
707.431	12656
707.549	12495
707.668	11181
707.786	12732
707.904	12210
708.022	12427
708.140	12507
708.258	11482
708.376	12057
708.494	12011
708.612	13197
708.730	15622
708.848	16856
708.966	14109
709.084	14223
709.202	13594
709.320	15086
709.438	14283
709.556	14452
709.674	14623
709.791	14392
709.909	13484
710.027	13793
710.145	14164
710.263	13861
710.380	13446
710.498	13039
710.616	13338
710.733	13067
710.851	12890
710.969	14034
711.086	13460
711.204	12997
711.322	13329
711.439	12449
711.557	12166
711.674	12839
711.792	12916
711.909	14443
712.027	16702
712.144	12392
712.262	12931
712.379	13387
712.497	17106
712.614	18606
712.732	17206
712.849	14219
712.966	14497
713.084	17147
713.201	15923
713.318	16281
713.436	15953
713.553	16148
713.670	14961
713.787	15445
713.905	15751
714.022	15069
714.139	13725
714.256	15034
714.373	14061
714.490	15633
714.608	17239
714.725	33462
714.842	47988
714.959	15617
715.076	13560
715.193	13687
715.310	13743
715.427	13415
715.544	13131
715.661	13315
715.778	11666
715.895	14224
716.011	13170
716.128	13031
716.245	13908
716.362	13392
716.479	13697
716.596	12584
716.713	12418
716.829	12361
716.946	12512
717.063	12210
717.180	12345
717.296	12183
717.413	12095
717.530	12000
717.646	11492
717.763	11733
717.880	11260
717.996	11815
718.113	11300
718.229	11390
718.346	10997
718.462	10427
718.579	13127
718.695	15515
718.812	14466
718.928	12542
719.045	12204
719.161	10284
719.277	10564
719.394	10542
719.510	11946
719.626	11846
719.743	12472
719.859	11973
719.975	11643
720.092	15133
720.208	24657
720.324	13416
720.440	10816
720.557	12107
720.673	12773
720.789	16444
720.905	27004
721.021	17135
721.137	11561
721.253	11572
721.369	11549
721.486	11097
721.602	12673
721.718	10860
721.834	10078
721.950	10114
722.066	9678
722.181	9282
722.297	9776
722.413	10167
722.529	10529
722.645	10891
722.761	9678
722.877	9663
722.993	8901
723.108	9144
723.224	9355
723.340	9578
723.456	9145
723.571	9982
723.687	8873
723.803	9588
723.918	8654
724.034	8914
724.150	9635
724.265	9261
724.381	12527
724.497	16967
724.612	9128
724.728	8310
724.843	8016
724.959	8969
725.074	11403
725.190	15449
725.305	8911
725.421	7868
725.536	7634
725.651	8950
725.767	9446
725.882	8377
725.997	8135
726.113	7993
726.228	8417
726.343	7679
726.459	7484
726.574	8011
726.689	7577
726.804	8027
726.920	7777
727.035	7540
727.150	7911
727.265	8155
727.380	7765
727.495	7765
727.610	8181
727.725	8249
727.841	9806
727.956	17365
728.071	19021
728.186	7669
728.301	8250
728.416	8211
728.531	7955
728.645	6657
728.760	6872
728.875	7594
728.990	7267
729.105	7914
729.220	6742
729.335	7813
729.449	7646
729.564	7137
729.679	6860
729.794	6888
729.908	7355
730.023	7602
730.138	6876
730.253	7312
730.367	6915
730.482	6908
730.596	6686
730.711	7551
730.826	7251
730.940	6740
731.055	8066
731.169	7141
731.284	6665
731.398	6795
731.513	6850
731.627	6064
731.742	7328
731.856	7468
731.970	6502
732.085	6929
732.199	7025
732.313	6996
732.428	7548
732.542	11088
732.656	10364
732.771	7073
732.885	6713
732.999	6732
733.113	6952
733.227	5870
733.342	6015
733.456	6706
733.570	6297
733.684	5366
733.798	6051
733.912	6457
734.026	5621
734.140	7279
734.254	6235
734.368	7814
734.482	10614
734.596	6971
734.710	6163
734.824	6264
734.938	5587
735.052	6111
735.166	6748
735.280	6845
735.393	5565
735.507	6074
735.621	6151
735.735	8961
735.849	6797
735.962	5706
736.076	7065
736.190	6421
736.303	6965
736.417	8596
736.531	6099
736.644	6008
736.758	4840
736.872	5373
736.985	4935
737.099	5968
737.212	5327
737.326	5636
737.439	6098
737.553	6028
737.666	5416
737.780	5484
737.893	4942
738.007	6286
738.120	5570
738.233	5722
738.347	6045
738.460	5735
738.573	5566
738.687	5130
738.800	5455
738.913	6395
739.026	6612
739.140	5813
739.253	6622
739.366	6204
739.479	4847
739.592	5308
739.705	4878
739.818	5317
739.932	5182
740.045	6065
740.158	5476
740.271	5194
740.384	5528
740.497	5848
740.610	5224
740.723	6136
740.836	6381
740.949	6563
741.062	6572
741.174	6661
741.287	5630
741.400	5547
741.513	4986
741.626	6062
741.739	5403
741.851	6226
741.964	4624
742.077	5140
742.189	5386
742.302	6134
742.415	4960
742.527	5507
742.640	5915
742.753	5486
742.865	4933
742.978	5684
743.090	5176
743.203	5976
743.316	6087
743.428	5211
743.541	5400
743.653	4694
743.766	5729
743.878	6119
743.990	5583
744.103	6142
744.215	5472
744.327	5916
744.440	6396
744.552	7493
744.664	5708
744.777	5304
744.889	5974
745.001	6001
745.113	4563
745.226	5838
745.338	5898
745.450	5049
745.562	5436
745.674	6087
745.786	4679
745.898	5101
746.010	5596
746.122	5281
746.234	5354
746.347	5903
746.459	5457
746.570	5341
746.682	5023
746.794	6095
746.906	4766
747.018	5107
747.130	6326
747.242	5070
747.354	5277
747.466	5579
747.577	4843
747.689	5586
747.801	5009
747.913	5514
748.024	4720
748.136	5795
748.248	4810
748.359	5563
748.471	5505
748.583	5152
748.694	5857
748.806	6679
748.918	6242
749.029	6153
749.141	5830
749.252	5836
749.364	5971
749.475	7608
749.587	6511
749.698	5490
749.809	5904
749.921	5321
750.032	5671
750.144	5721
750.255	5612
750.366	5247
750.478	5620
750.589	5780
750.700	5736
750.811	5923
750.923	6524
751.034	7886
751.145	8938
751.256	6026
751.367	5362
751.479	6734
751.590	4757
751.701	5844
751.812	4966
751.923	5698
752.034	5735
752.145	5571
752.256	5118
752.367	4840
752.478	5861
752.589	5789
752.700	5743
752.811	5638
752.922	6027
753.032	6060
753.143	5739
753.254	6173
753.365	5658
753.476	5936
753.586	5801
753.697	6070
753.808	5814
753.919	5316
754.029	5393
754.140	5956
754.251	5446
754.361	5997
754.472	6931
754.582	6757
754.693	6030
754.804	6771
754.914	5574
755.025	6587
755.135	6135
755.246	6523
755.356	6016
755.466	6829
755.577	6749
755.687	6688
755.798	6480
755.908	6805
756.018	6748
756.129	7264
756.239	6908
756.349	7079
756.460	6821
756.570	7224
756.680	6972
756.790	7780
756.900	7825
757.011	7419
757.121	7805
757.231	6244
757.341	7619
757.451	7703
757.561	7458
757.671	8195
757.781	7573
757.891	8078
758.001	8126
758.111	7446
758.221	8593
758.331	8368
758.441	8518
758.551	9900
758.661	9749
758.771	9217
758.880	8971
758.990	8954
759.100	9313
759.210	9099
759.320	9435
759.429	10451
759.539	10423
759.649	10057
759.758	10518
759.868	10788
759.978	10026
760.087	12022
760.197	11146
760.307	11646
760.416	11841
760.526	11151
760.635	11617
760.745	12774
760.854	12682
760.964	13151
761.073	12979
761.182	13367
761.292	13453
761.401	15133
761.511	14974
761.620	15496
761.729	15471
761.839	16854
761.948	16976
762.057	16904
762.166	17403
762.276	16811
762.385	19231
762.494	20648
762.603	19478
762.712	21298
762.822	21567
762.931	23525
763.040	23637
763.149	24831
763.258	26011
763.367	27774
763.476	28267
763.585	31129
763.694	31746
763.803	32754
763.912	35189
764.021	39289
764.130	39676
764.238	43812
764.347	46318
764.456	50531
764.565	55635
764.674	59869
764.783	65765
764.891	73289
765.000	83199
765.109	91873
765.217	105525
765.326	121335
765.435	141445
765.543	168480
765.652	202304
765.761	250491
765.869	311696
765.978	395058
766.086	495042
766.195	604581
766.303	634338
766.412	488665
766.520	387664
766.629	587481
766.737	632199
766.846	538765
766.954	427219
767.062	335321
767.171	262964
767.279	211728
767.387	168302
767.496	139956
767.604	119756
767.712	105120
767.820	94880
767.928	85187
768.037	78087
768.145	74566
768.253	71862
768.361	68754
768.469	67347
768.577	69379
768.685	73514
768.793	77789
768.901	85553
769.009	97255
769.117	115000
769.225	142899
769.333	184940
769.441	251620
769.549	358803
769.657	502131
769.765	588615
769.873	432830
769.981	501028
770.088	552170
770.196	420654
770.304	304297
770.412	224501
770.519	173896
770.627	139199
770.735	113255
770.842	96795
770.950	83407
771.058	72524
771.165	63232
771.273	56554
771.380	51715
771.488	46397
771.595	42192
771.703	39555
771.810	36790
771.918	34198
772.025	31333
772.133	29335
772.240	29043
772.348	26471
772.455	25367
772.562	24020
772.670	23091
772.777	22049
772.884	20706
772.991	20402
773.099	19490
773.206	17091
773.313	17790
773.420	17335
773.528	16817
773.635	14613
773.742	14973
773.849	14613
773.956	15176
774.063	13634
774.170	14381
774.277	13144
774.384	12530
774.491	12001
774.598	12289
774.705	12392
774.812	12144
774.919	11845
775.026	11348
775.133	11416
775.239	10480
775.346	11019
775.453	10573
775.560	10007
775.667	10164
775.773	9581
775.880	9832
775.987	8839
776.093	9400
776.200	8712
776.307	8917
776.413	9297
776.520	7898
776.627	9010
776.733	8714
776.840	7004
776.946	9001
777.053	8310
777.159	10205
777.266	7074
777.372	9544
777.478	8494
777.585	8161
777.691	7249
777.798	6873
777.904	7437
778.010	8543
778.117	8088
778.223	7373
778.329	6889
778.435	5599
778.542	6506
778.648	6546
778.754	5627
778.860	6506
778.966	7267
779.072	5865
779.178	6002
779.284	6657
779.391	6464
779.497	7585
779.603	10571
779.708	14396
779.815	28545
779.920	86115
780.026	217159
780.132	75395
780.238	17126
780.344	10194
780.450	8343
780.556	7382
780.661	5982
780.767	6229
780.873	5271
780.979	5617
781.085	3732
781.190	4950
781.296	4865
781.402	4730
781.507	3468
781.613	4406
781.719	4633
781.824	4159
781.930	4834
782.035	4092
782.141	4212
782.246	4134
782.352	4577
782.457	3910
782.563	4285
782.668	4635
782.773	3570
782.879	3502
782.984	4012
783.090	4488
783.195	4595
783.300	4881
783.405	3859
783.511	3981
783.616	4172
783.721	3970
783.826	3414
783.932	4257
784.037	3745
784.142	2813
784.247	3684
784.352	3693
784.457	4215
784.562	3888
784.667	3063
784.772	2854
784.877	2945
784.982	3784
785.087	3030
785.192	4083
785.297	2315
785.402	3814
785.507	2845
785.611	3145
785.716	2907
785.821	2344
785.926	2589
786.031	2851
786.135	2965
786.240	2579
786.345	2393
786.450	3037
786.554	2903
786.659	3236
786.763	1658
786.868	3018
786.973	2358
787.077	2847
787.182	2981
787.286	3881
787.391	3008
787.495	2864
787.600	2635
787.704	2692
787.809	2330
787.913	2050
788.017	3487
788.122	3723
788.226	2420
788.330	1830
788.435	2435
788.539	2838
788.643	2156
788.747	3320
788.852	2574
788.956	2233
789.060	2023
789.164	2967
789.268	1602
789.372	2797
789.476	1849
789.580	2547
789.684	1995
789.788	1923
789.892	1434
789.996	2708
790.100	2526
790.204	1847
790.308	1933
790.412	2101
790.516	2776
790.620	2683
790.724	2278
790.828	2154
790.931	2362
791.035	3159
791.139	2246
791.242	2025
791.346	2293
791.450	2195
791.554	2679
791.657	1552
791.761	2960
791.864	2681
791.968	2152
792.072	2390
792.175	1991
792.279	1873
792.382	1703
792.486	1855
792.589	2223
792.693	2035
792.796	1631
792.899	2764
793.003	2335
793.106	888
793.209	1803
793.313	2369
793.416	1410
793.519	2157
793.623	2736
793.726	3167
793.829	2544
793.932	2517
794.035	2471
794.138	3148
794.242	2958
794.345	4500
794.448	6692
794.551	15095
794.654	48429
794.757	134996
794.860	47154
794.963	7256
795.066	3572
795.169	4593
795.272	2284
795.375	2597
795.477	1237
795.580	1740
795.683	846
795.786	2346
795.889	1115
795.991	3187
796.094	1919
796.197	1519
796.300	2162
796.402	1574
796.505	1611
796.608	1531
796.710	2164
796.813	1431
796.915	1423
797.018	1962
797.120	1273
797.223	1081
797.326	1974
797.428	721
797.530	926
797.633	1411
797.735	1562
797.838	1618
797.940	2699
798.042	2109
798.145	1649
798.247	2029
798.349	1041
798.452	2040
798.554	739
798.656	667
798.758	1046
798.860	2229
798.962	1340
799.065	1144
799.167	750
799.269	2612
799.371	1868
799.473	1562
799.575	756
799.677	1928
799.779	2623
799.881	769
799.983	2395
800.085	882
800.187	1004
800.289	1147
800.390	899
800.492	1456
800.594	1914
800.696	665
800.798	1438
800.899	1314
801.001	1042
801.103	1596
801.205	1463
801.306	1014
801.408	1203
801.509	1462
801.611	1342
801.713	1546
801.814	422
801.916	922
802.017	963
802.119	567
802.220	599
802.322	-309
802.423	2825
802.525	1692
802.626	1761
802.727	1332
802.829	623
802.930	340
803.031	2104
803.133	1072
803.234	1179
803.335	1454
803.436	587
803.538	1036
803.639	-191
803.740	1361
803.841	604
803.942	1367
804.043	858
804.144	614
804.245	657
804.346	951
804.447	1041
804.548	1752
804.649	2200
804.750	865
804.851	400
804.952	519
805.053	1031
805.154	775
805.255	1472
805.355	1039
805.456	953
805.557	558
805.658	515
805.758	1493
805.859	443
805.960	778
806.061	206
806.161	746
806.262	361
806.362	1014
806.463	420
806.564	1465
806.664	431
806.765	989
806.865	1129
806.966	1134
807.066	706
807.166	1479
807.267	750
807.367	1093
807.468	1373
807.568	126
807.668	2050
807.769	404
807.869	756
807.969	1080
808.069	545
808.170	531
808.270	115
808.370	853
808.470	1243
808.570	-310
808.670	638
808.770	598
808.870	609
808.970	503
809.070	938
809.170	-301
809.271	1021
809.370	490
809.470	904
809.570	1045
809.670	176
809.770	676
809.870	1093
809.970	1611
810.070	784
810.169	1466
810.269	-209
810.369	1525
810.469	585
810.568	1324
810.668	574
810.768	373
810.867	1171
810.967	619
811.066	945
811.166	-259
811.265	930
811.365	328
811.464	348
811.564	186
811.663	825
811.763	394
811.862	956
811.962	670
812.061	1092
812.160	329
812.260	1300
812.359	1101
812.458	1596
812.557	4753
812.657	9959
812.756	5293
812.855	1597
812.954	1080
813.053	1907
813.153	1679
813.252	-46
813.351	594
813.450	575
813.549	697
813.648	633
813.747	1216
813.846	911
813.945	1204
814.044	168
814.143	841
814.242	478
814.341	583
814.439	968
814.538	1347
814.637	1177
814.736	1101
814.835	1376
814.933	865
815.032	1424
815.131	1401
815.229	1170
815.328	1532
815.427	-302
815.525	1755
815.624	1606
815.722	1191
815.821	1245
815.919	1045
816.018	888
816.116	2117
816.215	1226
816.313	1652
816.412	1674
816.510	1919
816.609	3029
816.707	2287
816.805	2970
816.904	2527
817.002	2971
817.100	3490
817.198	4591
817.296	3789
817.395	5259
817.493	6666
817.591	6197
817.689	10567
817.787	14014
817.885	21491
817.983	34740
818.081	66055
818.179	137593
818.277	298120
818.375	365601
818.473	177556
818.571	76051
818.669	44129
818.767	33227
818.865	31827
818.963	36657
819.061	44280
819.158	68984
819.256	121920
819.354	233854
819.452	421542
819.549	407751
819.647	221991
819.745	105458
819.842	59578
819.940	37778
820.038	27016
820.135	19601
820.233	16307
820.330	11590
820.428	9684
820.525	8620
820.623	7583
820.720	5941
820.818	6008
820.915	5345
821.012	5098
821.110	4188
821.207	4227
821.304	2801
821.402	3069
821.499	3670
821.596	3362
821.693	2761
821.791	2735
821.888	3122
821.985	2897
822.082	2787
822.179	2628
822.276	1975
822.373	1809
822.470	972
822.567	1113
822.664	723
822.761	1963
822.858	525
822.955	1644
823.052	756
823.149	379
823.246	828
823.343	624
823.440	1637
823.536	1117
823.633	607
823.730	1063
823.827	784
823.923	1329
824.020	1596
824.117	876
824.213	-28
824.310	1258
824.407	548
824.503	586
824.600	706
824.696	954
824.793	606
824.889	495
824.986	594
825.082	-39
825.179	697
825.275	300
825.371	42
825.468	1336
825.564	514
825.660	427
825.757	1059
825.853	1022
825.949	-33
826.045	512
826.142	-839
826.238	156
826.334	959
826.430	-640
826.526	1242
826.622	-98
826.718	670
826.814	-326
826.910	1000
827.006	643
827.102	166
827.198	1513
827.294	-308
827.390	-304
827.486	501
827.582	-615
827.678	-1194
827.774	761
827.869	-275
827.965	1298
828.061	-548
828.157	-113
828.252	-457
828.348	-761
828.444	89
828.539	407
828.635	2
828.731	-581
828.826	510
828.922	996
829.017	-656
829.113	181
829.208	-780
829.304	-675
829.399	1231
829.495	776
829.590	704
829.685	-347
829.781	-110
829.876	-2
829.971	-490
830.066	280
830.162	-341
830.257	-332
830.352	-129
830.447	1363
830.543	688
830.638	-306
830.733	-3
830.828	-734
830.923	757
831.018	332
831.113	-469
831.208	-187
831.303	450
831.398	183
831.493	-1068
831.588	420
831.683	-1377
831.778	398
831.873	-456
831.967	760
832.062	-483
832.157	-1000
832.252	13
832.346	62
832.441	475
832.536	710
832.631	2362
832.725	2789
832.820	-612
832.914	-468
833.009	-89
833.104	37
833.198	821
833.293	398
833.387	-430
833.482	-366
833.576	-269
833.670	82
833.765	-1106
833.859	-312
833.954	490
834.048	7
834.142	5
834.237	-528
834.331	-739
834.425	359
834.519	-1225
834.613	115
834.708	-1100
834.802	70
834.896	-1610
834.990	-826
835.084	-132
835.178	-359
835.272	-141
835.366	-521
835.460	-371
835.554	-61
835.648	-319
835.742	360
835.836	160
835.930	-1259
836.024	-86
836.117	-389
836.211	-667
836.305	-84
836.399	798
836.493	-254
836.586	641
836.680	-836
836.774	-787
836.867	173
836.961	-1163
837.055	-692
837.148	-568
837.242	-91
837.335	-661
837.429	-349
837.522	-414
837.616	-642
837.709	496
837.803	383
837.896	91
837.989	144
838.083	268
838.176	953
838.269	560
838.363	568
838.456	-209
838.549	895
838.642	435
838.735	2962
838.829	1809
838.922	-484
839.015	-629
839.108	-227
839.201	137
839.294	556
839.387	213
839.480	-1655
839.573	175
839.666	-341
839.759	173
839.852	-1369
839.945	-271
840.038	240
840.131	-355
840.223	442
840.316	618
840.409	-90
840.502	-426
840.594	683
840.687	-1293
840.780	825
840.873	-608
840.965	-147
841.058	-547
841.150	1218
841.243	185
841.336	211
841.428	-368
841.521	-1032
841.613	-919
841.706	-806
841.798	-148
841.890	-472
841.983	-1658
842.075	553
842.167	-110
842.260	-349
842.352	202
842.444	689
842.537	926
842.629	2369
842.721	-449
842.813	-357
842.905	-1071
842.997	452
843.090	-218
843.182	8
843.274	344
843.366	2246
843.458	5900
843.550	5833
843.642	800
843.734	-792
843.826	280
843.918	521
844.009	-228
844.101	-711
844.193	-938
844.285	-585
844.377	-653
844.469	97
844.560	3
844.652	-149
844.744	-298
844.835	-83
844.927	-296
845.019	245
845.110	-191
845.202	-441
845.293	-258
845.385	-74
845.476	-982
845.568	467
845.659	-520
845.751	8
845.842	-723
845.934	-665
846.025	-938
846.116	-221
846.208	-811
846.299	-655
846.390	-56
846.482	103
846.573	-180
846.664	574
846.755	35
846.846	1180
846.937	-813
847.029	243
847.120	-1224
847.211	-549
847.302	-53
847.393	-1377
847.484	-323
847.575	-887
847.666	-466
847.757	186
847.847	-406
847.938	371
848.029	-534
848.120	-770
848.211	-274
848.302	-155
848.392	-203
848.483	-116
848.574	-1033
848.664	-160
848.755	-1510
848.846	-562
848.936	-749
849.027	-286
849.118	-668
849.208	-342
849.299	-596
849.389	-109
849.480	-516
849.570	112
849.661	-431
849.751	-171
849.841	-559
849.932	211
850.022	-1156
850.112	-464
850.203	-855
850.293	-359
850.383	-827
850.474	-1534
850.564	-446
850.654	-669
850.744	-140
850.834	31
850.924	-233
851.014	-148
851.104	-1296
851.194	-1027
851.284	-558
851.374	-535
851.464	-400
851.554	-52
851.644	-188
851.734	709
851.824	625
851.914	496
852.004	2907
852.094	4331
852.183	944
852.273	773
852.363	-1053
852.452	-457
852.542	-759
852.632	-1142
852.721	-482
852.811	-1083
852.901	-488
852.990	-232
853.080	-607
853.169	-1104
853.259	-1052
853.348	-435
853.438	-913
853.527	-606
853.617	-963
853.706	-285
853.795	-365
853.885	572
853.974	652
854.063	2486
854.152	4084
854.242	1856
854.331	-528
854.420	-743
854.509	-432
854.598	-1159
854.687	-483
854.777	-230
854.866	-708
854.955	132
855.044	-452
855.133	-240
855.222	-474
855.311	-792
855.400	-695
855.488	-1254
855.577	-1292
855.666	116
855.755	-355
855.844	799
855.933	605
856.021	251
856.110	-334
856.199	-970
856.288	-924
856.376	-585
856.465	-1552
856.554	-1065
856.642	-1130
856.731	-548
856.819	-225
856.908	-695
856.996	-1188
857.085	552
857.173	-1058
857.262	-764
857.350	-699
857.438	-188
857.527	260
857.615	-1127
857.703	293
857.792	-1187
857.880	-601
857.968	-1036
858.056	-713
858.145	-371
858.233	-237
858.321	-1139
858.409	-80
858.497	-1329
858.585	-435
858.673	-864
858.761	-206
858.849	-583
858.937	-664
859.025	-179
859.113	-617
859.201	-1394
859.289	-51
859.377	-326
859.465	-348
859.552	-640
859.640	-1789
859.728	-309
859.816	-1206
859.903	-461
859.991	-1522
860.079	-138
860.166	-979
860.254	-726
860.342	-1041
860.429	-870
860.517	-1324
860.604	-184
860.692	45
860.779	-994
860.867	-1294
860.954	-963
861.042	-768
861.129	-368
861.216	-362
861.304	-949
861.391	-414
861.478	-273
861.565	-1413
861.653	-23
861.740	-1300
861.827	-710
861.914	-357
862.001	-914
862.089	-1808
862.176	-718
862.263	-845
862.350	-595
862.437	-822
862.524	-629
862.611	-905
862.698	-798
862.785	-964
862.871	-694
862.958	-1328
863.045	-1344
863.132	-857
863.219	-853
863.306	-1348
863.392	-31
863.479	-934
863.566	-629
863.652	-1303
863.739	-485
863.826	-438
863.912	-1058
863.999	-720
864.086	-1377
864.172	-1113
864.259	-651
864.345	-372
864.432	-626
864.518	-838
864.604	-100
864.691	-1275
864.777	-241
864.863	-636
864.950	270
865.036	-1705
865.122	-797
865.209	-1094
865.295	-440
865.381	-1029
865.467	-291
865.553	-552
865.639	-1553
865.726	-971
865.812	211
865.898	879
865.984	689
866.070	2281
866.156	3649
866.242	465
866.328	-431
866.414	-1245
866.499	16
866.585	-1883
866.671	-189
866.757	-1424
866.843	-381
866.928	-624
867.014	-649
867.100	-746
867.186	-767
867.271	-754
867.357	-843
867.442	-112
867.528	-922
867.614	-410
867.699	-433
867.785	-332
867.870	-204
867.956	-792
868.041	28
868.127	-220
868.212	702
868.297	-366
868.383	119
868.468	-490
868.553	968
868.639	680
868.724	1210
868.809	2671
868.894	421
868.979	-655
869.065	-323
869.150	-1331
869.235	-903
869.320	-1133
869.405	-620
869.490	-425
869.575	-227
869.660	-614
869.745	-404
869.830	-1427
869.915	-390
870.000	-634
870.085	-1198
870.169	-864
870.254	-1081
870.339	-472
870.424	-590
870.509	-1347
870.593	-618
870.678	-1377
870.763	-843
870.847	-813
870.932	-1402
871.016	-506
871.101	-592
871.186	-906
871.270	-911
871.355	-652
871.439	-1136
871.523	-820
871.608	-337
871.692	-1294
871.777	-602
871.861	-1208
871.945	-1329
872.030	-1238
872.114	-919
872.198	-786
872.282	-742
872.367	-1586
872.451	-1124
872.535	-1053
872.619	-894
872.703	-1105
872.787	-1207
872.871	-1083
872.955	-873
873.039	-842
873.123	-1009
873.207	-1190
873.291	-1108
873.375	-419
873.459	-1149
873.543	-1864
873.627	-856
873.711	-983
873.794	-405
873.878	-2070
873.962	-1149
874.045	-829
874.129	-1268
874.137	-1298
874.213	-1601
874.245	-1411
874.296	-1097
874.352	-1262
874.380	-1348
874.460	-1138
874.464	-1130
874.547	-1195
874.568	-1009
874.631	-483
874.676	-395
874.714	-314
874.784	-297
874.798	-294
874.881	-524
874.892	-666
874.965	-1652
874.999	-1422
875.048	-1094
875.107	-964
875.131	-917
875.215	-496
875.215	-497
875.298	-1009
875.323	-1021
875.381	-1021
875.430	-660
875.465	-418
875.538	-527
875.548	-539
875.631	-978
875.646	-1098
875.714	-1764
875.753	-1477
875.798	-1017
875.861	-1220
875.881	-1340
875.964	-891
875.968	-870
876.047	-415
876.076	-557
876.130	-787
876.183	-745
876.213	-766
876.291	-213
876.296	-173
876.379	-966
876.398	-1000
876.462	-982
876.506	-728
876.545	-577
876.613	-913
876.628	-960
876.711	-524
876.721	-433
876.794	23
876.828	-438
876.877	-973
876.935	-863
876.960	-821
877.043	-685
877.043	-683
877.125	-80
877.150	-341
877.208	-1060
877.258	-932
877.291	-795
877.365	-1022
877.374	-1039
877.456	-263
877.472	-375
877.539	-1069
877.579	-932
877.622	-655
877.687	-269
877.704	-195
877.787	-962
877.794	-949
877.869	-684
877.901	-438
877.952	-28
878.008	-344
878.034	-574
878.115	-516
878.117	-508
878.199	-757
878.222	-543
878.282	-223
878.329	-326
878.364	-236
878.437	-357
878.447	-390
878.529	-970
878.544	-802
878.611	-202
878.651	-433
878.694	-610
878.758	-709
878.776	-696
878.858	-716
878.865	-670
878.941	-363
878.972	-574
879.023	-919
879.078	-507
879.105	-256
879.185	-171
879.187	-168
879.269	-12
879.292	-226
879.351	-1002
879.399	-818
879.433	-534
879.506	-383
879.516	-388
879.598	-284
879.613	-295
879.680	-270
879.720	-131
879.762	12
879.827	-243
879.844	-337
879.926	-520
879.933	-544
880.007	-801
880.040	-920
880.089	-922
880.147	-560
880.171	-410
880.253	-170
880.254	-169
880.335	249
880.360	422
880.417	678
880.467	450
880.499	536
880.574	1958
880.580	2020
880.662	400
880.680	286
880.744	70
880.787	-430
880.825	-950
880.893	-1003
880.907	-932
880.989	-164
881.000	-132
881.070	-266
881.106	-337
881.152	-118
881.213	-30
881.233	-161
881.315	-490
881.319	-493
881.396	-54
881.426	-238
881.478	-753
881.532	-561
881.559	-433
881.639	-924
881.641	-935
881.722	-183
881.745	-349
881.803	-567
881.852	-412
881.885	-405
881.958	-510
881.966	-507
882.047	-289
882.064	-330
882.129	-342
882.171	-254
882.210	-123
882.277	475
882.291	480
882.372	-179
882.383	-301
882.454	-838
882.489	-829
882.535	-683
882.596	-793
882.616	-746
882.697	-281
882.702	-252
882.778	-261
882.808	-351
882.859	-409
882.914	-358
882.940	-331
883.020	-369
883.021	-367
883.102	-411
883.127	-468
883.183	-593
883.233	-465
883.264	-357
883.339	-476
883.345	-493
883.426	-548
883.445	-566
883.507	-256
883.551	-203
883.587	-355
883.657	-91
883.668	-54
883.749	-533
883.763	-542
883.830	-625
883.869	-782
883.910	-720
883.975	-138
883.991	9
884.072	-377
884.081	-327
884.152	-94
884.187	-187
884.233	-607
884.292	-903
884.314	-798
884.394	-638
884.398	-628
884.475	-248
884.504	-128
884.555	-172
884.610	-163
884.636	-162
884.716	-91
884.716	-87
884.797	-6
884.821	15
884.877	-77
884.927	-327
884.958	-277
885.033	-122
885.038	-134
885.118	40
885.139	-79
885.199	-154
885.244	-2
885.279	56
885.350	90
885.359	100
885.439	149
885.456	107
885.520	-289
885.561	-244
885.600	-34
885.667	-317
885.680	-367
885.760	-69
885.773	-68
885.840	-62
885.878	24
885.920	-146
885.984	-631
886.000	-524
886.080	222
886.089	283
886.160	-156
886.195	-365
886.240	-317
886.300	-340
886.320	-343
886.400	-127
886.406	-115
886.480	352
886.511	472
886.560	94
886.616	-386
886.640	-278
886.720	269
886.722	275
886.800	175
886.827	137
886.879	-24
886.932	-85
886.959	44
887.038	291
887.039	295
887.119	219
887.143	335
887.198	239
887.248	-41
887.278	-26
887.354	-23
887.358	-59
887.437	-812
887.459	-976
887.517	-292
887.564	142
887.596	-177
887.669	-900
887.676	-837
887.755	-0
887.774	195
887.835	-183
887.880	-433
887.914	-219
887.985	97
887.994	73
888.073	-100
888.090	-160
888.153	199
888.195	540
888.232	463
888.300	149
888.311	166
888.391	376
888.405	389
888.470	70
888.510	-122
888.549	-135
888.615	-67
888.628	-69
888.708	-185
888.720	-191
888.787	383
888.825	641
888.866	188
888.930	-430
888.945	-377
889.024	-173
889.035	-137
889.103	49
889.140	116
889.182	256
889.245	494
889.261	414
889.340	4
889.349	-43
889.419	241
889.454	375
889.498	334
889.559	283
889.577	328
889.656	524
889.664	543
889.735	323
889.768	214
889.814	30
889.873	-211
889.978	-956
890.083	-643
890.187	-388
890.292	543
890.397	-94
890.501	8
890.606	-69
890.710	395
890.815	0
890.919	-113
891.024	-371
891.128	209
891.233	-363
891.337	84
891.442	-117
891.546	462
891.650	623
891.755	10
891.859	467
891.963	655
892.068	-360
892.172	382
892.276	-114
892.380	262
892.484	-447
892.589	869
892.693	-113
892.797	-194
892.901	-402
893.005	65
893.109	-320
893.213	212
893.317	-14
893.421	201
893.525	-212
893.629	-317
893.733	-730
893.837	271
893.941	-397
894.045	667
894.148	-263
894.252	292
894.356	556
894.460	113
894.564	-53
894.667	22
894.771	-307
894.875	221
894.978	337
895.082	-19
895.186	403
895.289	250
895.393	48
895.496	-458
895.600	-611
895.703	-11
895.807	-136
895.910	529
896.014	-471
896.117	379
896.221	120
896.324	-103
896.427	70
896.531	189
896.634	-585
896.737	222
896.840	-541
896.944	-136
897.047	-242
897.150	364
897.253	145
897.356	534
897.460	-300
897.563	53
897.666	-181
897.769	29
897.872	-989
897.975	393
898.078	-544
898.181	386
898.284	-998
898.387	-131
898.490	155
898.593	566
898.695	-235
898.798	-687
898.901	-772
899.004	-250
899.107	-538
899.209	-91
899.312	-330
899.415	715
899.518	-461
899.620	-814
899.723	-180
899.826	120
899.928	247
900.031	-73
900.133	-774
900.236	-156
900.338	-847
900.441	95
900.543	-403
900.646	279
900.748	-521
900.851	-54
900.953	-508
901.055	-604
901.158	-816
901.260	7
901.362	-1269
901.465	-335
901.567	-226
901.669	-241
901.771	-246
901.873	86
901.976	-841
902.078	605
902.180	-229
902.282	-27
902.384	-406
902.486	95
902.588	-754
902.690	145
902.792	-869
902.894	456
902.996	-416
903.098	-197
903.200	-585
903.302	-459
903.404	-1098
903.505	831
903.607	-541
903.709	-365
903.811	-605
903.913	-176
904.014	-635
904.116	442
904.218	-160
904.319	-333
904.421	-241
904.523	-36
904.624	-35
904.726	-264
904.827	-491
904.929	-343
905.030	-562
905.132	-398
905.233	-219
905.335	-1100
905.436	-519
905.537	-389
905.639	-785
905.740	-810
905.841	-872
905.943	73
906.044	-260
906.145	267
906.247	-940
906.348	245
906.449	-404
906.550	-766
906.651	-219
906.752	-458
906.854	-668
906.955	-1029
907.056	-521
907.157	-90
907.258	-494
907.359	-67
907.460	-114
907.561	-712
907.662	-365
907.762	-246
907.863	-279
907.964	221
908.065	-635
908.166	106
908.267	-1312
908.367	-445
908.468	-791
908.569	-1379
908.670	-523
908.770	-318
908.871	-634
908.971	-452
909.072	-1132
909.173	-90
909.273	-1257
909.374	-342
909.474	-55
909.575	-786
909.675	-476
909.776	414
909.876	-478
909.977	-404
910.077	-319
910.177	-88
910.278	-1175
910.378	-207
910.478	-1065
910.579	34
910.679	-423
910.779	-153
910.879	-904
910.980	-931
911.080	-443
911.180	-509
911.280	-1008
911.380	-646
911.480	-629
911.580	-218
911.680	-1043
911.780	-179
911.880	-1128
911.980	-459
912.080	-1070
912.180	-668
912.280	-1209
912.380	2
912.480	-683
912.580	-560
912.679	-1321
912.779	-557
912.879	-590
912.979	-1186
913.078	-1246
913.178	-382
913.278	-686
913.377	-1331
913.477	-523
913.577	-801
913.676	-1148
913.776	-290
913.875	-951
913.975	8
914.074	-238
914.174	-528
914.273	-1365
914.373	-46
914.472	-1194
914.572	-810
914.671	-727
914.770	-961
914.870	-725
914.969	-310
915.068	-1098
915.167	-437
915.267	-1531
915.366	-96
915.465	-1240
915.564	-751
915.663	-571
915.763	-891
915.862	-665
915.961	-931
916.060	-390
916.159	-80
916.258	-1282
916.357	-1369
916.456	-447
916.555	-892
916.654	-918
916.752	-963
916.851	-967
916.950	-811
917.049	-1375
917.148	-1285
917.247	-759
917.345	-430
917.444	-1199
917.543	-552
917.642	-515
917.740	-432
917.839	-721
917.937	-99
918.036	-444
918.135	-434
918.233	-735
918.332	-647
918.430	-939
918.529	-917
918.627	-947
918.726	-810
918.824	-1609
918.923	-770
919.021	-1091
919.119	-377
919.218	-810
919.316	-172
919.414	-838
919.512	-159
919.611	-254
919.709	-303
919.807	-1235
919.905	-1127
920.003	-1371
920.102	-822
920.200	-662
920.298	-769
920.396	-1230
920.494	-309
920.592	-1009
920.690	-950
920.788	-998
920.886	-863
920.984	-410
921.082	-115
921.180	-889
921.277	-692
921.375	-574
921.473	-1191
921.571	-891
921.669	-1017
921.766	-394
921.864	153
921.962	-546
922.060	-695
922.157	-646
922.255	-359
922.352	-459
922.450	-648
922.548	-1282
922.645	171
922.743	-206
922.840	-460
922.938	-1243
923.035	-418
923.133	-974
923.230	-639
923.327	-880
923.425	-526
923.522	-1285
923.619	-602
923.717	-1167
923.814	-549
923.911	-771
924.008	218
924.106	-1297
924.203	-499
924.300	-1257
924.397	-693
924.494	-276
924.591	-678
924.688	-1277
924.786	-20
924.883	-626
924.979	-516
925.077	-888
925.173	-336
925.270	-1524
925.367	-578
925.464	-68
925.561	-814
925.658	-1290
925.755	-316
925.852	-905
925.948	-552
926.045	-417
926.142	-793
926.239	-226
926.335	-726
926.432	-101
926.529	-398
926.625	-923
926.722	-537
926.818	-410
926.915	-590
927.011	92
927.108	-145
927.204	-934
927.301	400
927.397	-1138
927.494	-1162
927.590	-570
927.687	-708
927.783	-616
927.879	-1228
927.976	-1225
928.072	-1212
928.168	-1025
928.264	-1570
928.361	-1214
928.457	-999
928.553	-778
928.649	462
928.745	-337
928.841	-898
928.937	-386
929.033	-535
929.129	-1177
929.225	-1173
929.321	-1180
929.417	-1078
929.513	-1605
929.609	-536
929.705	-662
929.801	-772
929.897	-1252
929.993	156
930.089	-995
930.184	184
930.280	-1277
930.376	-219
930.471	-1264
930.567	-588
930.663	-952
930.758	-856
930.854	-846
930.950	-1126
931.045	-860
931.141	-528
931.236	-457
931.332	-671
931.427	-649
931.523	-509
931.618	-880
931.714	-1578
931.809	-886
931.905	-773
932.000	-1250
932.095	-428
932.191	-215
932.286	-386
932.381	-799
932.476	-1142
932.572	-1484
932.667	-895
932.762	-1135
932.857	-136
932.952	-276
933.047	-982
933.142	-484
933.237	-1004
933.332	-979
933.427	-87
933.522	-927
933.617	-332
933.712	-633
933.807	-481
933.902	-943
933.997	-1183
934.092	-976
934.187	-262
934.282	-812
934.376	-1836
934.471	-821
934.566	-519
934.661	-764
934.755	16
934.850	-1529
934.945	-986
935.039	-1129
935.134	-995
935.228	-598
935.323	-640
935.417	-1129
935.512	-867
935.606	-739
935.701	-1303
935.795	-1242
935.890	-996
935.984	-755
936.079	-1222
936.173	-421
936.267	-853
936.362	-1149
936.456	342
936.550	-147
936.644	-161
936.738	-1030
936.833	-357
936.927	-1012
937.021	-402
937.115	-1169
937.209	-1234
937.303	-606
937.397	-683
937.491	-1338
937.585	-795
937.679	-1475
937.773	-204
937.867	-733
937.961	-215
938.055	-1052
938.149	-826
938.243	-1087
938.337	-1104
938.430	-1255
938.524	-519
938.618	-476
938.712	-308
938.805	-894
938.899	-1020
938.993	-635
939.086	-832
939.180	-344
939.274	56
939.367	-992
939.461	-1342
939.554	-328
939.648	-1169
939.741	-890
939.835	-814
939.928	-626
940.022	-208
940.115	-796
940.208	-673
940.302	-458
940.395	-118
940.488	-1427
940.582	60
940.675	-1292
940.768	-661
940.861	-1193
940.954	-622
941.048	-713
941.141	-406
941.234	-1498
941.327	-467
941.420	-794
941.513	-630
941.606	-1390
941.699	-1175
941.792	-1052
941.885	-28
941.978	-1187
942.071	-682
942.164	-1068
942.257	-807
942.349	-568
942.442	-1640
942.535	-1724
942.628	-868
942.721	-916
942.813	-794
942.906	-629
942.999	-850
943.091	-1264
943.184	-589
943.277	-872
943.369	-770
943.462	-928
943.554	80
943.647	-1245
943.739	-757
943.832	-834
943.924	-1454
944.017	-976
944.109	-802
944.201	-884
944.294	-910
944.386	-1462
944.478	76
944.571	-453
944.663	-966
944.755	-292
944.847	-1184
944.940	-1049
945.032	-1608
945.124	-740
945.216	-88
945.308	-1106
945.400	-604
945.492	-1179
945.584	-622
945.676	-927
945.768	-555
945.860	-1144
945.952	-883
946.044	-1113
946.136	-1194
946.228	-1070
946.320	-992
946.412	-808
946.503	-460
946.595	-679
946.687	-1246
946.779	-1230
946.870	-657
946.962	-1403
947.054	-1138
947.145	-1184
947.237	-1155
947.329	-1034
947.420	-1146
947.512	-1409
947.603	-600
947.695	-1905
947.786	-1350
947.878	-1786
947.969	-614
948.061	-1800
948.152	-868
948.243	-881
948.335	-1419
948.426	-1410
948.517	-1282
948.609	-723
948.700	-696
948.791	-1328
948.882	-760
948.973	-1123
949.065	-1868
949.156	-1051
949.247	-998
949.338	-1432
949.429	-1324
949.520	-1360
949.611	-1960
949.702	-989
949.793	-711
949.884	-1610
949.975	-1207
950.066	-1296
950.157	-636
950.247	-1053
950.338	-1021
950.429	-628
950.520	23
950.611	-1634
950.701	-716
950.792	-1396
950.883	-817
950.973	-589
951.064	-984
951.155	-1115
951.245	-967
951.336	-1276
951.427	-957
951.517	-994
951.608	-740
951.698	-1455
951.788	-1539
951.879	-770
951.969	-1124
952.060	-1939
952.150	-1610
952.240	-798
952.331	-2433
952.421	-652
952.511	-878
952.602	-1389
952.692	-1176
952.782	-1025
952.872	-1599
952.962	-1381
953.052	-1904
953.143	-1248
953.233	-658
953.323	-996
953.413	-1814
953.503	-597
953.593	-1310
953.683	-1084
953.773	-791
953.863	-1602
953.953	-1553
954.042	-1310
954.132	-1312
954.222	-502
954.312	-302
954.402	-1440
954.492	-1498
954.581	-1226
954.671	-1346
954.761	-1491
954.850	-150
954.940	-1519
955.030	-631
955.119	-1345
955.209	-1731
955.298	-2364
955.388	-818
955.477	-1301
955.567	-1264
955.656	-1734
955.746	-598
955.835	-1178
955.925	-923
956.014	-1009
956.103	-1790
956.193	-1223
956.282	-1280
956.371	-1064
956.461	-422
956.550	-602
956.639	-1134
956.728	-1603
956.817	-1158
956.906	-1199
956.995	-924
957.085	-1481
957.174	-802
957.263	-1167
957.352	-1335
957.441	-1370
957.530	-1594
957.619	-640
957.708	-1249
957.796	-1188
957.885	-1135
957.974	-1267
958.063	-1136
958.152	-1930
958.241	-1015
958.329	-1630
958.418	-1147
958.507	-2624
958.596	-676
958.684	-1773
958.773	-1266
958.861	-711
958.950	-751
959.039	-771
959.127	-303
959.216	-925
959.304	-626
959.393	-1468
959.481	-1353
959.570	-1595
959.658	-1015
959.746	-578
959.835	-935
959.923	-1308
960.011	-1072
960.100	-789
960.188	-558
960.276	-3036
960.365	-905
960.453	-1607
960.541	-1222
960.629	-856
960.717	-998
960.805	-1889
960.893	-420
960.981	-719
961.069	-940
961.158	-1886
961.245	-955
961.333	-1445
961.421	-1224
961.509	-1039
961.597	-47
961.685	-1607
961.773	-1212
961.861	-2155
961.949	-770
962.036	-1660
962.124	-1628
962.212	-1676
962.299	-924
962.387	-2481
962.475	-1404
962.562	-2061
962.650	-1059
962.738	-1719
962.825	-1318
962.913	-1341
963.000	-1505
963.088	-1844
963.175	-1716
963.263	-1871
963.350	-1464
963.438	-1916
963.525	-1138
963.612	-923
963.700	-1087
963.787	-184
963.874	-201
963.962	-2226
964.049	-1019
964.136	-1412
964.223	-1496
964.310	-787
964.398	-994
964.485	-1979
964.572	-1428
964.659	-1081
964.746	-1647
964.833	-1746
964.920	-1714
965.007	-950
965.094	-1397
965.181	-1536
965.268	-842
965.355	-1988
965.441	-1853
965.528	-2283
965.615	-501
965.702	-1828
965.789	-1972
965.875	-1363
965.962	-1441
966.049	-1935
966.136	-1560
966.222	-2734
966.309	-1680
966.395	-1861
966.482	-2237
966.569	-1803
966.655	-1576
966.742	-2474
966.828	-1929
966.915	-2231
967.001	-1973
967.087	-1906
967.174	-1492
967.260	-2325
967.347	-1391
967.433	-1527
967.519	99
967.605	-829
967.692	-1235
967.778	-1840
967.864	-905
967.950	-1601
968.036	-1285
968.123	-1757
968.209	-2103
968.295	-1865
968.381	-411
968.467	-1887
968.553	-1785
968.639	-1743
968.725	-2592
968.811	-2439
968.897	-717
968.983	-2027
969.069	-2309
969.154	-1406
969.240	-2081
969.326	-1925
969.412	-1946
969.497	-2262
969.583	-1746
969.669	-1627
969.755	-1820
969.840	-2676
969.926	-983
970.012	-2352
970.097	-1534
970.183	-1926
970.268	-2050
970.354	-2032
970.439	-1508
970.525	-1172
970.610	-1367
970.696	-1150
970.781	-2400
970.866	-2241
970.952	-1678
971.037	-1953
971.122	-1728
971.208	-2422
971.293	-1640
971.378	-3189
971.463	-1957
971.549	-1571
971.634	-1576
971.719	-1676
971.804	-2696
971.889	-2352
971.974	-1912
972.059	-2015
972.144	-1548
972.229	-1296
972.314	-1940
972.399	-2634
972.484	-2099
972.569	-1010
972.654	-2072
972.739	-1600
972.824	-1388
972.908	-1793
972.993	-1031
973.078	-1836
973.163	-2389
973.247	-2127
973.332	-2167
973.417	-995
973.501	-2481
973.586	-1577
973.671	-1281
973.755	-2488
973.840	-1608
973.924	-1887
974.009	-1586
974.093	-2096
974.178	-1683
974.262	-1928
974.346	-935
974.431	-2104
974.515	-1378
974.600	-2651
974.684	-1386
974.768	-2405
974.852	-1557
974.937	-2490
975.021	-1958
975.105	-1382
975.189	-2037
975.273	-1502
975.358	-1364
975.442	-2676
975.526	-1564
975.610	-2357
975.694	-2361
975.778	-1726
975.862	-1560
975.946	-2870
976.030	-980
976.114	-1870
976.198	-2459
976.281	-2367
976.365	-1398
976.449	-2770
976.533	-1462
976.617	-1941
976.700	-1522
976.784	-2368
976.868	-2471
976.951	-1671
977.035	-1847
977.119	-2318
977.202	-2008
977.286	-1715
977.369	-1426
977.453	-2945
977.536	-2115
977.620	-1986
977.703	-1515
977.787	-2363
977.870	-1952
977.953	-1846
978.037	-3133
978.120	-1701
978.203	-1796
978.287	-2133
978.370	-1915
978.453	-2617
978.536	-1798
978.620	-1066
978.703	-1760
978.786	-1689
978.869	-2403
978.952	-3333
979.035	-703
979.118	-1742
979.201	-1764
979.284	-2497
979.367	-2034
979.450	-1642
979.533	-1982
979.616	-2668
979.699	-2446
979.782	-2351
979.865	-1388
979.948	-1971
980.030	-2234
980.113	-2238
980.196	-2686
980.279	-1947
980.361	-1783
980.444	-2373
980.526	-2063
980.609	-1797
980.692	-2269
980.774	-1219
980.857	-2416
980.939	-1435
981.022	-1931
981.104	-1974
981.187	-2414
981.269	-1676
981.352	-1129
981.434	-2786
981.516	-3444
981.599	-2159
981.681	-1382
981.763	-1743
981.846	-2005
981.928	-2000
982.010	-1967
982.092	-2849
982.174	-1645
982.256	-2731
982.339	-2206
982.421	-1928
982.503	-2112
982.585	-2714
982.667	-2271
982.749	-1342
982.831	-2216
982.913	-2776
982.995	-2047
983.077	-2625
983.158	-1075
983.240	-2090
983.322	-1304
983.404	-1842
983.486	-2500
983.568	-2827
983.649	-2492
983.731	-2126
983.813	-3026
983.894	-2604
983.976	-2449
984.058	-2188
984.139	-1145
984.221	-2875
984.302	-1985
984.384	-2052
984.465	-2711
984.547	-2042
984.628	-2376
984.710	-1419
984.791	-2203
984.872	-2649
984.954	-2321
985.035	-2453
985.116	-2143
985.198	-2415
985.279	-2088
985.360	-2779
985.441	-2514
985.522	-1838
985.604	-2789
985.685	-3930
985.766	-309
985.847	-1128
985.928	-2621
986.009	-2436
986.090	-1725
986.171	-2741
986.252	-2142
986.333	-2177
986.414	-2038
986.495	-1656
986.576	-1895
986.656	-2267
986.737	-1600
986.818	-2490
986.899	-2218
986.980	-2366
987.060	-1581
987.141	-2158
987.222	-2083
987.302	-2606
987.383	-1266
987.464	-2480
987.544	-2309
987.625	-1325
987.705	-1779
987.786	-2251
987.866	-2139
987.947	-2750
988.027	-2142
988.108	-1902
988.188	-1239
988.268	-2594
988.349	-2420
988.429	-2769
988.509	-924
988.589	-3013
988.670	-2925
988.750	-1298
988.830	-2325
988.910	-2026
988.990	-2147
989.070	-2089
989.151	-1716
989.231	-2321
989.311	-1499
989.391	-2397
989.471	-2459
989.551	-3242
989.631	-2224
989.711	-1865
989.791	-1481
989.870	-2771
989.950	-1037
990.030	-2470
990.110	-2146
990.190	-2668
990.269	-1606
990.349	-2363
990.429	-1610
990.509	-1314
990.588	-2484
990.668	-2233
990.747	-1419
990.827	-2056
990.907	-1964
990.986	-2770
991.066	-1656
991.145	-2221
991.225	-1894
991.304	-2283
991.383	-1577
991.463	-2074
991.542	-1743
991.622	-2839
991.701	-1474
991.780	-2583
991.859	-2411
991.939	-1865
992.018	-2110
992.097	-1913
992.176	-1344
992.256	-2266
992.335	-1481
992.414	-1919
992.493	-1877
992.572	-2394
992.651	-1257
992.730	-3071
992.809	-2312
992.888	-2797
992.967	-2350
993.046	-1515
993.125	-2470
993.203	-1850
993.282	-1854
993.361	-1690
993.440	-1590
993.519	-2534
993.597	-2002
993.676	-2051
993.755	-875
993.834	-2302
993.912	-2263
993.991	-2138
994.069	-2216
994.148	-2735
994.226	-1759
994.305	-1721
994.384	-1994
994.462	-1634
994.540	-2104
994.619	-2474
994.697	-1499
994.776	-2235
994.854	-1011
994.932	-2706
995.011	-1605
995.089	-2492
995.167	-2450
995.245	-2500
995.324	-2510
995.402	-1607
995.480	-2239
995.558	-1576
995.636	-2900
995.714	-1645
995.792	-1354
995.870	-3308
995.948	-2017
996.026	-1921
996.104	-2657
996.182	-2377
996.260	-2345
996.338	-1848
996.416	-2597
996.494	-1997
996.572	-1539
996.649	-1877
996.727	-2344
996.805	-2389
996.883	-2256
996.960	-2127
997.038	-1548
997.116	-2135
997.193	-2611
997.271	-1174
997.348	-2667
997.426	-1958
997.504	-2222
997.581	-2008
997.658	-1460
997.736	-2413
997.813	-1283
997.891	-1512
997.968	-2096
998.046	-2057
998.123	-2108
998.200	-2330
998.277	-2465
998.355	-1458
998.432	-2579
998.509	-1856
998.586	-1045
998.663	-1099
998.741	-1463
998.818	-2283
998.895	-2218
998.972	-1934
999.049	-1552
999.126	-2593
999.203	-1716
999.280	-1685
999.357	-2348
999.434	-2253
999.511	-1677
999.587	-2088
999.664	-2999
999.741	-2260
999.818	-1664
999.895	-2534
999.971	-2122
1000.048	-2444
1000.125	-1227
1000.202	-2835
1000.278	-1313
1000.355	-1676
1000.431	-2613
1000.508	-2176
1000.584	-1547
1000.661	-1385
1000.738	-2075
1000.814	-2497
1000.890	-1044
1000.967	-2607
1001.043	-1947
1001.120	-2989
1001.196	-2330
1001.272	-2098
1001.349	-1896
1001.425	-1827
1001.501	-1628
1001.577	-3091
1001.654	-1506
1001.730	-1418
1001.806	-1439
1001.882	-2521
1001.958	-1155
1002.034	-1729
1002.110	-1758
1002.186	-2207
1002.262	-2331
1002.338	-1992
1002.414	-1317
1002.490	-1454
1002.566	-2549
1002.642	-2146
1002.718	-1138
1002.794	-1947
1002.870	-1605
1002.945	-1889
1003.021	-1595
1003.097	-2517
1003.173	-1688
1003.248	-2379
1003.324	-2275
1003.400	-1442
1003.475	-2474
1003.551	-1899
1003.626	-1973
1003.702	-2350
1003.777	-1701
1003.853	-1992
1003.928	-1778
1004.004	-2266
1004.079	-1532
1004.155	-1991
1004.230	-2547
1004.305	-1205
1004.381	-1992
1004.456	-2054
1004.531	-1829
1004.607	-1967
1004.682	-2180
1004.757	-1716
1004.832	-1791
1004.907	-2030
1004.982	-1464
1005.057	-2196
1005.133	-2099
1005.208	-1886
1005.283	-1897
1005.358	-1728
1005.433	-2356
1005.508	-1991
1005.583	-2724
1005.657	-2535
1005.732	-1302
1005.807	-2297
1005.882	-1851
1005.957	-2495
1006.032	-963
1006.106	-2065
1006.181	-2508
1006.256	-2295
1006.331	-1648
1006.405	-2785
1006.480	-1718
1006.554	-1590
1006.629	-1610
1006.704	-2105
1006.778	-2419
1006.853	-1068
1006.927	-2571
1007.002	-2119
1007.076	-1760
1007.150	-2036
1007.225	-1802
1007.299	-2339
1007.373	-2129
1007.448	-1221
1007.522	-1262
1007.596	-2513
1007.671	-1928
1007.745	-1886
1007.819	-3091
1007.893	-2078
1007.967	-1625
1008.041	-2781
1008.115	-1961
1008.190	-2390
1008.264	-1443
1008.338	-2525
1008.412	-2511
1008.486	-2064
1008.560	-1216
1008.633	-3160
1008.707	-2462
1008.781	-1931
1008.855	-1785
1008.929	-1903
1009.003	-2401
1009.076	-2375
1009.150	-1767
1009.224	-2140
1009.298	-2529
1009.371	-2472
1009.445	-884
1009.519	-1904
1009.592	-2835
1009.666	-2296
1009.739	-2491
1009.813	-2531
1009.886	-1442
1009.960	-2660
1010.033	-1549
1010.107	-1789
1010.180	-2437
1010.253	-2511
1010.327	-2364
1010.400	-2013
1010.473	-2043
1010.547	-1377
1010.620	-1650
1010.693	-1924
1010.766	-2264
1010.840	-1695
1010.913	-2208
1010.986	-2419
1011.059	-2268
1011.132	-2341
1011.205	-1291
1011.278	-2824
1011.351	-2403
1011.424	-2316
1011.497	-2998
1011.570	-2185
1011.643	-2088
1011.716	-2571
1011.789	-2049
1011.862	-1718
1011.934	-1727
1012.007	-2894
1012.080	-1586
1012.153	-2181
1012.225	-1735
1012.298	-2239
1012.371	-2229
1012.443	-1189
1012.516	-2006
1012.588	-2303
1012.661	-1961
1012.733	-2911
1012.806	-2172
1012.879	-2154
1012.951	-2170
1013.023	-1783
1013.096	-1750
1013.168	-2288
1013.241	-1332
1013.313	-2197
1013.385	-2758
1013.458	-2898
1013.530	-1508
1013.602	-1941
1013.674	-1398
1013.746	-3036
1013.819	-1695
1013.891	-1803
1013.963	-2416
1014.035	-2410
1014.107	-2073
1014.179	-2482
1014.251	-2072
1014.323	-2233
1014.395	-2243
1014.467	-2345
1014.539	-1847
1014.611	-3051
1014.683	-2212
1014.754	-2006
1014.826	-2307
1014.898	-2585
1014.970	-2264
1015.042	-1072
1015.113	-2021
1015.185	-2313
1015.257	-2668
1015.328	-2248
1015.400	-2190
1015.471	-2175
1015.543	-2748
1015.615	-2493
1015.686	-2236
1015.757	-2180
1015.829	-2002
1015.901	-2300
1015.972	-2007
1016.043	-2339
1016.115	-1922
1016.186	-1870
1016.257	-2543
1016.328	-1515
1016.400	-1574
1016.471	-2381
1016.542	-1408
1016.613	-2403
1016.685	-1122
1016.756	-2071
1016.827	-1686
1016.898	-3361
1016.969	-1279
1017.040	-2599
1017.111	-2532
1017.182	-1935
1017.253	-2315
1017.324	-2142
1017.395	-1925
1017.466	-1604
1017.537	-2375
1017.608	-2039
1017.678	-1430
1017.749	-2949
1017.820	-1456
1017.891	-3153
1017.961	-2300
1018.032	-2758
1018.103	-1485
1018.173	-2387
1018.244	-2147
1018.315	-2941
1018.385	-2065
1018.456	-2241
1018.526	-2720
1018.597	-2311
1018.667	-2549
1018.738	-2572
1018.808	-1794
1018.878	-2434
1018.949	-2872
1019.019	-2451
1019.089	-2561
1019.160	-2640
1019.230	-2082
1019.300	-2442
1019.371	-2947
1019.441	-1941
1019.511	-2177
1019.581	-2218
1019.651	-1964
1019.721	-2317
1019.791	-1637
1019.861	-2578
1019.931	-1410
1020.001	-2624
1020.071	-1717
1020.141	-2166
1020.211	-2454
1020.281	-2036
1020.351	-2753
1020.421	-2071
1020.491	-1532
1020.560	-2409
1020.630	-2329
1020.700	-1686
1020.770	-3013
1020.839	-2207
1020.909	-1831
1020.979	-2649
1021.048	-1735
1021.118	-2961
1021.187	-2359
1021.257	-2716
1021.326	-1645
1021.396	-2692
1021.465	-1691
1021.535	-2047
1021.604	-2985
1021.674	-2962
1021.743	-1598
1021.812	-2615
1021.882	-1865
1021.951	-2849
1022.020	-2000
1022.089	-2234
1022.159	-2478
1022.228	-2136
1022.297	-1994
1022.366	-2474
1022.435	-2907
1022.504	-2822
1022.573	-2434
1022.642	-2170
1022.711	-2842
1022.781	-2637
1022.849	-2800
1022.918	-2087
1022.987	-1959
1023.056	-2138
1023.125	-1583
1023.194	-2397
1023.263	-2101
1023.331	-2392
1023.400	-3161
1023.469	-2909
1023.538	-2319
1023.606	-2725
1023.675	-1763
1023.744	-2702
1023.812	-2558
1023.881	-1716
1023.949	-2655
1024.018	-2640
1024.086	-2712
1024.155	-3651
1024.223	-2178
1024.292	-1857
1024.360	-2276
1024.429	-2543
1024.497	-2984
1024.565	-2578
1024.634	-2740
1024.702	-2242
1024.770	-1845
1024.838	-2715
1024.907	-2036
1024.975	-2476
1025.043	-2909
1025.111	-2254
1025.179	-1550
1025.247	-2099
1025.315	-2699
1025.383	-3081
1025.451	-2217
1025.519	-2262
1025.587	-1734
1025.655	-2660
1025.723	-2814
1025.791	-2381
1025.859	-2719
1025.927	-2529
1025.995	-2449
1026.062	-2796
1026.130	-1863
1026.198	-1918
1026.266	-2223
1026.333	-2221
1026.401	-2328
1026.469	-2555
1026.536	-1886
1026.604	-2676
1026.671	-2366
1026.739	-2492
1026.806	-1789
1026.874	-3077
1026.941	-1620
1027.009	-2519
1027.076	-2437
1027.144	-2409
1027.211	-2802
1027.278	-2845
1027.345	-1957
1027.413	-2033
1027.480	-2772
1027.547	-2201
1027.614	-2788
1027.682	-1367
1027.749	-2657
1027.816	-2102
1027.883	-2178
1027.950	-2432
1028.017	-2419
1028.084	-2208
1028.151	-2311
1028.218	-2660
1028.285	-1935
1028.352	-2847
1028.419	-2600
1028.486	-2908
1028.553	-2038
1028.619	-2505
1028.686	-2989
1028.753	-2770
1028.820	-2512
1028.886	-2959
1028.953	-2883
1029.020	-2214
1029.086	-2517
1029.153	-2989
1029.220	-2364
1029.286	-3140
1029.353	-1761
1029.419	-1697
1029.486	-2213
1029.552	-2180
1029.619	-1637
1029.685	-2525
1029.751	-1821
1029.818	-956
1029.884	-1926
1029.951	-2145
1030.017	-2659
1030.083	-2365
1030.149	-2149
1030.216	-1832
1030.282	-1683
1030.348	-2870
1030.414	-2481
1030.480	-2552
1030.546	-2332
1030.612	-2364
1030.678	-2204
1030.744	-2595
1030.810	-1662
1030.876	-2157
1030.942	-2715
1031.008	-2905
1031.074	-2098
1031.140	-2598
1031.206	-1305
1031.272	-2423
1031.337	-2657
1031.403	-2854
1031.469	-2265
1031.534	-2755
1031.600	-1364
1031.666	-2995
1031.731	-2270
1031.797	-2017
1031.863	-2581
1031.928	-2447
1031.994	-2676
1032.059	-2069
1032.125	-2210
1032.190	-2835
1032.256	-2698
1032.321	-2333
1032.386	-2006
1032.452	-2539
1032.517	-2243
1032.582	-1911
1032.647	-2916
1032.713	-2123
1032.778	-2607
1032.843	-3073
1032.908	-2848
1032.974	-1974
1033.039	-2896
1033.104	-2440
1033.169	-2345
1033.234	-2749
1033.299	-2148
1033.364	-1817
1033.429	-1543
1033.494	-2670
1033.559	-3145
1033.624	-2095
1033.688	-2263
1033.753	-3299
1033.818	-2163
1033.883	-2143
1033.948	-2252
1034.013	-2185
1034.077	-2603
1034.142	-2470
1034.207	-2060
1034.271	-2547
1034.336	-1851
1034.400	-2525
1034.465	-2561
1034.530	-2408
1034.594	-2255
1034.658	-2335
1034.723	-2062
1034.787	-2634
1034.852	-2390
1034.916	-2240
1034.981	-2344
1035.045	-2004
1035.109	-2101
1035.173	-2954
1035.238	-2576
1035.302	-1812
1035.366	-1867
1035.430	-2286
1035.495	-1736
1035.559	-2966
1035.623	-1839
1035.687	-2474
1035.751	-2591
1035.815	-2289
1035.879	-1788
1035.943	-2415
1036.007	-2590
1036.071	-2000
1036.135	-2084
1036.198	-2017
1036.262	-2249
1036.326	-2474
1036.390	-2292
1036.454	-2600
1036.517	-1739
1036.581	-2722
1036.645	-1894
1036.709	-1605
1036.772	-2511
1036.836	-2582
1036.900	-2574
1036.963	-2647
1037.026	-2733
1037.090	-3042
1037.154	-1779
1037.217	-1794
1037.280	-2700
1037.344	-2508
1037.407	-2229
1037.471	-2086
1037.534	-1747
1037.597	-2273
1037.661	-1895
1037.724	-2860
1037.787	-2295
1037.850	-2251
1037.913	-2281
1037.977	-2274
1038.040	-2554
1038.103	-2102
1038.166	-1809
1038.229	-1846
1038.292	-1909
1038.355	-2424
1038.418	-2203
1038.481	-2240
1038.544	-2620
1038.607	-2427
1038.670	-1934
1038.732	-2907
1038.795	-1811
1038.858	-2802
1038.921	-1975
1038.984	-2128
1039.046	-2339
1039.109	-2533
1039.172	-1990
1039.234	-2950
1039.297	-1681
1039.360	-2387
1039.422	-2347
1039.485	-2533
1039.547	-2285
1039.610	-2066
1039.672	-1867
1039.734	-2357
1039.797	-2525
1039.859	-2313
1039.922	-1906
1039.984	-2056
1040.046	-2504
1040.109	-1611
1040.171	-2792
1040.233	-3084
1040.295	-1646
1040.358	-2341
1040.420	-1635
1040.482	-2736
1040.544	-2260
1040.606	-1995
1040.668	-1698
1040.730	-1849
1040.792	-2177
1040.854	-2276
1040.916	-1656
1040.978	-2241
1041.040	-1904
1041.102	-2830
1041.164	-1933
1041.225	-2160
1041.287	-2145
1041.349	-2491
1041.411	-2031
1041.472	-2011
1041.534	-2486
1041.596	-2480
1041.657	-2947
1041.719	-2493
1041.781	-2353
1041.842	-2396
1041.904	-2491
1041.965	-2088
1042.027	-1874
1042.088	-2381
1042.150	-2534
1042.211	-2410
1042.272	-1913
1042.334	-2194
1042.395	-2278
1042.456	-2700
1042.518	-1274
1042.579	-1976
1042.640	-1441
1042.701	-2670
1042.763	-2203
1042.824	-2870
1042.885	-1381
1042.946	-1777
1043.007	-2876
1043.068	-2261
1043.129	-1265
1043.190	-2607
1043.251	-1716
1043.312	-2779
1043.373	-2206
1043.434	-2880
1043.495	-2276
1043.556	-1308
1043.616	-1406
1043.677	-2592
1043.738	-2364
1043.799	-1733
1043.859	-1660
1043.920	-2374
1043.981	-1507
1044.041	-2548
1044.102	-1641
1044.162	-1729
1044.223	-1915
1044.284	-2482
1044.344	-1366
1044.405	-2108
1044.465	-2526
1044.525	-2503
1044.586	-2183
1044.646	-2218
1044.707	-1431
1044.767	-2180
1044.827	-1991
1044.887	-2150
1044.948	-1466
1045.008	-2518
1045.068	-2394
1045.128	-2055
1045.188	-2838
1045.249	-2406
1045.309	-1708
1045.369	-2580
1045.429	-2071
1045.489	-1462
1045.549	-1351
1045.609	-1635
1045.669	-2093
1045.729	-2329
1045.789	-1146
1045.848	-2261
1045.908	-1391
1045.968	-2246
1046.028	-1366
1046.088	-1429
1046.147	-619
1046.207	-1499
1046.267	-2028
1046.326	-1683
1046.386	-1654
1046.446	-1243
1046.505	-1206
1046.565	-1262
1046.624	-1131
1046.684	-1278
1046.743	-873
1046.803	-660
1046.862	41
1046.922	0
