'Start Wavelength	183.907
'End Wavelength	1046.922
'Gate Delay	5.000
'Gate Width (ms)	1.050
'Laser Output Level	0.000
'X Position	0.000
'Y Position	0.000
'Z Position	0.000
'Grid Point Number	1.000
'Shot Number	100.000
183.907	706.000
183.977	-199.000
184.047	-13
184.116	648
184.186	603
184.256	7
184.325	-186
184.395	-979
184.465	-434
184.534	-268
184.604	-211
184.674	556
184.743	829
184.813	368
184.883	391
184.952	244
185.022	1296
185.092	764
185.161	465
185.231	-1
185.301	1052
185.370	106
185.440	-145
185.509	51
185.579	-36
185.649	-7
185.718	581
185.788	295
185.857	873
185.927	-323
185.996	344
186.066	-35
186.136	279
186.205	205
186.275	882
186.344	808
186.414	636
186.483	-316
186.553	173
186.622	1266
186.692	-70
186.761	534
186.831	563
186.900	-630
186.970	873
187.039	442
187.109	751
187.178	775
187.248	1039
187.317	-14
187.387	3
187.456	231
187.526	1542
187.595	1323
187.664	427
187.734	538
187.803	1386
187.873	1206
187.942	1492
188.012	521
188.081	252
188.150	-107
188.220	679
188.289	558
188.358	1232
188.428	403
188.497	978
188.567	730
188.636	510
188.705	953
188.775	50
188.844	264
188.913	1085
188.983	885
189.052	1471
189.121	-107
189.191	921
189.260	2253
189.329	1946
189.399	1242
189.468	659
189.537	302
189.606	951
189.676	786
189.745	1111
189.814	1759
189.883	1116
189.953	897
190.022	1641
190.091	4497
190.161	6350
190.230	2030
190.299	1661
190.368	403
190.437	1259
190.507	1186
190.576	668
190.645	645
190.714	1253
190.783	-3
190.853	1198
190.922	530
190.991	931
191.060	1521
191.129	318
191.198	230
191.268	-326
191.337	1571
191.406	833
191.475	245
191.544	831
191.613	656
191.682	908
191.752	576
191.821	1781
191.890	930
191.959	784
192.028	1548
192.097	940
192.166	1203
192.235	772
192.304	1034
192.373	1028
192.442	380
192.511	1027
192.580	574
192.650	1851
192.719	294
192.788	1740
192.857	1228
192.926	1068
192.995	1378
193.064	2123
193.133	2472
193.202	3620
193.271	3014
193.340	2144
193.409	2849
193.478	3399
193.547	3430
193.615	4769
193.684	4050
193.753	2717
193.822	2487
193.891	1820
193.960	1521
194.029	710
194.098	1983
194.167	1106
194.236	1240
194.305	887
194.374	702
194.443	1173
194.512	959
194.580	1408
194.649	1255
194.718	1531
194.787	508
194.856	1163
194.925	1072
194.994	734
195.062	995
195.131	2207
195.200	1834
195.269	2190
195.338	1311
195.407	1275
195.475	591
195.544	2318
195.613	1564
195.682	1792
195.751	2035
195.819	1861
195.888	1335
195.957	2536
196.026	1953
196.094	1455
196.163	2177
196.232	1963
196.301	965
196.369	1667
196.438	2276
196.507	1327
196.576	1567
196.644	1236
196.713	813
196.782	1440
196.850	1053
196.919	762
196.988	1788
197.056	1044
197.125	702
197.194	1390
197.262	1402
197.331	2100
197.400	1370
197.468	1558
197.537	1523
197.606	2855
197.674	3632
197.743	6229
197.812	3151
197.880	6853
197.949	3546
198.017	6069
198.086	4069
198.155	2373
198.223	3201
198.292	7960
198.360	3146
198.429	2316
198.497	2349
198.566	4544
198.635	6553
198.703	2809
198.772	3833
198.840	8601
198.909	8243
198.977	3395
199.046	2716
199.114	1890
199.183	2125
199.251	2165
199.320	2137
199.388	2062
199.457	1046
199.525	2557
199.594	1343
199.662	2072
199.731	1685
199.799	1956
199.867	1926
199.936	1894
200.004	1840
200.073	2151
200.141	1824
200.210	1791
200.278	1350
200.346	2051
200.415	1897
200.483	2739
200.552	2240
200.620	1318
200.688	1543
200.757	2372
200.825	1638
200.893	2162
200.962	814
201.030	1989
201.098	1846
201.167	2597
201.235	1691
201.303	2484
201.372	2061
201.440	1704
201.508	2273
201.577	1620
201.645	2005
201.713	1698
201.781	2242
201.850	2682
201.918	2765
201.986	2116
202.055	1960
202.123	2490
202.191	2227
202.259	2309
202.327	1539
202.396	2388
202.464	1871
202.532	2932
202.600	7279
202.669	4546
202.737	2307
202.805	2703
202.873	1147
202.941	2332
203.009	1956
203.078	2326
203.146	2248
203.214	1978
203.282	1649
203.350	2396
203.418	1820
203.487	2761
203.555	1619
203.623	2796
203.691	1930
203.759	1856
203.827	2200
203.895	2102
203.963	2445
204.031	2532
204.099	2472
204.168	1678
204.236	2714
204.304	2805
204.372	2766
204.440	2260
204.508	1598
204.576	2044
204.644	2323
204.712	1889
204.780	2012
204.848	2949
204.916	2051
204.984	2961
205.052	3280
205.120	2569
205.188	2478
205.256	2512
205.324	2723
205.392	2627
205.460	3094
205.528	3141
205.596	3009
205.664	3116
205.732	4159
205.799	9712
205.867	13187
205.935	4531
206.003	3838
206.071	2899
206.139	3984
206.207	3414
206.275	2875
206.343	2391
206.411	2913
206.478	2454
206.546	2496
206.614	3081
206.682	2494
206.750	3487
206.818	3925
206.885	3094
206.953	1485
207.021	3999
207.089	2841
207.157	2401
207.225	3463
207.292	2112
207.360	2762
207.428	3351
207.496	2659
207.563	2765
207.631	2612
207.699	2983
207.767	3389
207.834	2748
207.902	3004
207.970	2878
208.038	2922
208.105	3693
208.173	3953
208.241	5134
208.309	4853
208.376	4139
208.444	6701
208.512	4669
208.579	2828
208.647	3481
208.715	3653
208.782	3070
208.850	3086
208.918	3495
208.985	4134
209.053	3654
209.120	3800
209.188	3303
209.256	2535
209.323	2715
209.391	4278
209.459	3614
209.526	3371
209.594	2746
209.661	3798
209.729	3837
209.796	4161
209.864	3269
209.932	2542
209.999	4895
210.067	3566
210.134	4119
210.202	4649
210.269	4925
210.337	4008
210.404	3803
210.472	3571
210.539	4765
210.607	4542
210.674	4836
210.742	3914
210.809	3452
210.877	4536
210.944	5326
211.012	3569
211.079	5497
211.146	4355
211.214	4717
211.281	4378
211.349	5172
211.416	3666
211.484	5109
211.551	3960
211.618	3482
211.686	4531
211.753	3270
211.821	3360
211.888	4539
211.955	4219
212.023	4738
212.090	4484
212.157	4538
212.225	5130
212.292	10271
212.359	18155
212.427	41353
212.494	19116
212.561	9638
212.629	7570
212.696	5943
212.763	5402
212.831	4218
212.898	4892
212.965	4852
213.032	4469
213.100	5241
213.167	5421
213.234	5729
213.301	3965
213.369	4919
213.436	4532
213.503	4675
213.570	5466
213.638	6070
213.705	4575
213.772	4582
213.839	5650
213.906	6530
213.973	5220
214.041	4698
214.108	5156
214.175	4816
214.242	5523
214.309	4181
214.376	4858
214.444	4423
214.511	5618
214.578	5062
214.645	5522
214.712	5325
214.779	5161
214.846	5901
214.913	6720
214.980	6037
215.048	6238
215.115	6759
215.182	5731
215.249	5667
215.316	4745
215.383	5056
215.450	4651
215.517	5355
215.584	4787
215.651	5067
215.718	4808
215.785	5006
215.852	4639
215.919	5901
215.986	5070
216.053	4647
216.120	4288
216.187	5808
216.254	5664
216.321	5302
216.388	5306
216.455	5685
216.522	5756
216.589	6808
216.656	10639
216.722	10364
216.789	7901
216.856	8570
216.923	6887
216.990	6369
217.057	6264
217.124	7717
217.191	7074
217.258	9326
217.324	9943
217.391	9340
217.458	7035
217.525	7351
217.592	6366
217.659	6193
217.725	6628
217.792	9133
217.859	8575
217.926	5410
217.993	4569
218.059	4905
218.126	3969
218.193	4231
218.260	4012
218.327	4362
218.393	4510
218.460	4371
218.527	3325
218.594	5085
218.660	8754
218.727	8777
218.794	4573
218.860	4853
218.927	3576
218.994	4121
219.061	4101
219.127	5007
219.194	8056
219.261	4494
219.327	2967
219.394	4207
219.461	2823
219.527	3319
219.594	5354
219.661	4725
219.727	3408
219.794	5064
219.860	3284
219.927	4614
219.994	6078
220.060	10204
220.127	7394
220.193	6695
220.260	6551
220.326	10374
220.393	12746
220.460	15071
220.526	11473
220.593	9044
220.659	9780
220.726	11128
220.792	22105
220.859	19058
220.925	20792
220.992	23715
221.058	26836
221.125	28729
221.191	22170
221.258	10365
221.324	7648
221.391	7253
221.457	5133
221.524	6347
221.590	8633
221.657	26822
221.723	19312
221.789	16593
221.856	13848
221.922	9125
221.989	6880
222.055	6273
222.121	4616
222.188	6104
222.254	4930
222.321	4543
222.387	4317
222.453	4063
222.520	4125
222.586	4502
222.652	5252
222.719	3912
222.785	4100
222.851	3696
222.918	3353
222.984	3940
223.050	3801
223.116	4096
223.183	4652
223.249	3389
223.315	2671
223.382	3712
223.448	4114
223.514	3472
223.580	3568
223.647	3529
223.713	3474
223.779	3142
223.845	3360
223.911	4006
223.978	2539
224.044	4252
224.110	4378
224.176	3806
224.242	3175
224.309	3549
224.375	3364
224.441	3371
224.507	3006
224.573	3038
224.639	3693
224.705	3225
224.772	3086
224.838	2915
224.904	3876
224.970	3788
225.036	3607
225.102	3496
225.168	3971
225.234	3329
225.300	2996
225.366	3389
225.432	3734
225.499	4075
225.565	3653
225.631	4872
225.697	4928
225.763	6290
225.829	6375
225.895	7789
225.961	9546
226.027	8721
226.093	8121
226.159	10980
226.225	15189
226.291	28761
226.357	37362
226.423	23007
226.489	14855
226.554	11423
226.620	11174
226.686	13371
226.752	19965
226.818	30165
226.884	47792
226.950	40904
227.016	21687
227.082	14811
227.148	11196
227.214	9972
227.279	8500
227.345	7822
227.411	7051
227.477	6615
227.543	8115
227.609	9767
227.674	7053
227.740	6077
227.806	5759
227.872	6025
227.938	5591
228.003	8496
228.069	5416
228.135	4519
228.201	5163
228.267	5108
228.332	5392
228.398	6410
228.464	5683
228.530	3848
228.595	4005
228.661	4460
228.727	6818
228.792	5873
228.858	4490
228.924	4288
228.990	6486
229.055	5279
229.121	6391
229.187	4403
229.252	4619
229.318	3577
229.384	3989
229.449	5592
229.515	2962
229.581	1739
229.646	4540
229.712	4441
229.777	9538
229.843	11086
229.909	7836
229.974	8101
230.040	7394
230.105	6406
230.171	7147
230.236	9543
230.302	13553
230.368	10231
230.433	6920
230.499	6866
230.564	7454
230.630	5752
230.695	5307
230.761	5185
230.826	3487
230.892	7462
230.957	4304
231.023	4615
231.088	5233
231.154	4908
231.219	5378
231.284	7029
231.350	7166
231.415	4736
231.481	4311
231.546	4545
231.612	3645
231.677	4690
231.742	3198
231.808	5081
231.873	4384
231.939	3594
232.004	7120
232.069	7359
232.135	4852
232.200	4626
232.265	3940
232.331	3994
232.396	3802
232.461	3679
232.527	3736
232.592	4761
232.657	4562
232.723	9487
232.788	6447
232.853	4257
232.918	4661
232.984	3784
233.049	3098
233.114	7820
233.179	7072
233.245	11047
233.310	13437
233.375	5051
233.440	3876
233.506	4366
233.571	4255
233.636	3775
233.701	4330
233.766	9707
233.832	11629
233.897	4660
233.962	4765
234.027	6698
234.092	5264
234.157	4862
234.222	5441
234.288	9116
234.353	27875
234.418	22754
234.483	12946
234.548	9166
234.613	7995
234.678	8536
234.743	8608
234.808	27594
234.873	17660
234.938	8584
235.004	6633
235.069	6982
235.134	7015
235.199	6587
235.264	5593
235.329	5259
235.394	5821
235.459	7758
235.524	7617
235.589	5730
235.654	4798
235.719	5169
235.784	6628
235.849	6728
235.913	14785
235.978	16842
236.043	18120
236.108	8021
236.173	7705
236.238	8572
236.303	7109
236.368	7717
236.433	11032
236.498	20211
236.563	14370
236.627	26427
236.692	65812
236.757	56077
236.822	29033
236.887	21696
236.952	16623
237.017	14694
237.081	15517
237.146	19595
237.211	38443
237.276	68897
237.341	96733
237.405	57433
237.470	27413
237.535	21087
237.600	13430
237.664	11985
237.729	9801
237.794	12603
237.859	21435
237.923	17763
237.988	10196
238.053	14038
238.118	14796
238.182	41046
238.247	33271
238.312	15643
238.376	11241
238.441	9706
238.506	9046
238.570	5529
238.635	6978
238.700	6083
238.764	5739
238.829	16795
238.893	20307
238.958	9963
239.023	8750
239.087	5959
239.152	7287
239.216	5694
239.281	6421
239.346	6119
239.410	5514
239.475	8416
239.539	37214
239.604	28269
239.668	9694
239.733	5938
239.797	7228
239.862	12048
239.926	26200
239.991	12491
240.055	6079
240.120	5892
240.184	5615
240.249	6058
240.313	4849
240.378	6265
240.442	20604
240.507	33469
240.571	11003
240.635	16689
240.700	19155
240.764	7579
240.829	5361
240.893	4618
240.957	6510
241.022	20262
241.086	32859
241.151	15743
241.215	6868
241.279	10251
241.344	17875
241.408	9756
241.472	6670
241.537	8393
241.601	7935
241.665	6362
241.730	6206
241.794	7923
241.858	6939
241.922	7619
241.987	7337
242.051	6668
242.115	5841
242.179	6555
242.244	5927
242.308	7132
242.372	7852
242.436	9924
242.501	6844
242.565	6338
242.629	6447
242.693	6459
242.757	5835
242.822	6623
242.886	7146
242.950	7175
243.014	8312
243.078	7715
243.142	7908
243.206	7099
243.271	9428
243.335	9922
243.399	14699
243.463	53042
243.527	112163
243.591	36897
243.655	16386
243.719	11042
243.783	10930
243.847	16914
243.911	21025
243.975	21403
244.040	13310
244.104	10410
244.168	7736
244.232	10547
244.296	15224
244.360	17963
244.424	10468
244.488	9504
244.552	8610
244.615	6190
244.679	7110
244.743	8415
244.807	8229
244.871	6281
244.935	5228
244.999	5501
245.063	5915
245.127	7618
245.191	12866
245.255	12401
245.319	8886
245.383	7666
245.446	7481
245.510	5428
245.574	7004
245.638	6722
245.702	6759
245.766	15132
245.829	10378
245.893	9243
245.957	7448
246.021	7289
246.085	8231
246.149	10518
246.212	22800
246.276	32542
246.340	14950
246.404	11189
246.467	11323
246.531	15803
246.595	11514
246.659	10921
246.722	8779
246.786	10637
246.850	11451
246.913	14543
246.977	7873
247.041	8686
247.104	9172
247.168	9169
247.232	20135
247.295	43281
247.359	20203
247.423	10932
247.486	17901
247.550	11469
247.614	8852
247.677	11340
247.741	8619
247.804	8600
247.868	10218
247.932	19064
247.995	39126
248.059	15829
248.122	8653
248.186	12426
248.249	20787
248.313	69953
248.376	64475
248.440	42704
248.503	16958
248.567	15221
248.630	19612
248.694	25764
248.757	33091
248.821	70924
248.884	39759
248.948	40299
249.011	55693
249.075	83372
249.138	67179
249.202	27203
249.265	19987
249.328	29040
249.392	18813
249.455	15308
249.519	11626
249.582	14639
249.645	23445
249.709	19173
249.772	18754
249.835	15718
249.899	16726
249.962	13411
250.025	11919
250.089	29175
250.152	34049
250.215	18821
250.279	15470
250.342	16041
250.405	16196
250.468	14602
250.532	19209
250.595	34171
250.658	115224
250.721	169282
250.785	61459
250.848	32794
250.911	21747
250.974	20677
251.038	26712
251.101	45966
251.164	28070
251.227	26520
251.290	25984
251.354	42864
251.417	155532
251.480	145314
251.543	114013
251.606	268239
251.669	195668
251.732	83371
251.795	74456
251.859	80233
251.922	173211
251.985	95892
252.048	39745
252.111	29598
252.174	28043
252.237	45229
252.300	88204
252.363	108809
252.426	203155
252.489	87384
252.552	47304
252.615	33965
252.678	35071
252.741	72557
252.804	106487
252.867	216977
252.930	120574
252.993	62704
253.056	36987
253.119	29291
253.182	23224
253.245	41918
253.308	29289
253.371	27175
253.434	23979
253.497	22702
253.559	38668
253.622	27269
253.685	33883
253.748	30583
253.811	17189
253.874	26065
253.937	23064
254.000	16885
254.062	28144
254.125	40554
254.188	35155
254.251	29955
254.314	16422
254.376	28412
254.439	28163
254.502	23244
254.565	28431
254.628	46114
254.690	26423
254.753	15746
254.816	13738
254.878	17226
254.941	31814
255.004	29335
255.067	14706
255.129	13734
255.192	10207
255.255	8221
255.317	10374
255.380	8263
255.443	5756
255.505	7251
255.568	7425
255.631	7766
255.693	7755
255.756	6648
255.819	6857
255.881	6229
255.944	6368
256.006	7244
256.069	7868
256.132	6794
256.194	10191
256.257	30146
256.319	21547
256.382	19124
256.444	11083
256.507	9319
256.569	8795
256.632	10636
256.694	19711
256.757	43449
256.819	105514
256.882	48894
256.944	21325
257.007	16167
257.069	17017
257.132	13336
257.194	10538
257.257	8389
257.319	10773
257.381	14250
257.444	34954
257.506	122537
257.569	124810
257.631	55583
257.693	32284
257.756	20140
257.818	18068
257.880	11317
257.943	10010
258.005	8530
258.067	8575
258.130	8063
258.192	10595
258.254	20712
258.317	13269
258.379	10004
258.441	21468
258.503	21116
258.566	35516
258.628	42925
258.690	12264
258.753	11683
258.815	17276
258.877	12153
258.939	8787
259.001	9112
259.064	8234
259.126	11373
259.188	15310
259.250	11026
259.312	11993
259.375	20231
259.437	14287
259.499	9044
259.561	7322
259.623	8210
259.685	9233
259.747	10094
259.809	35077
259.872	59378
259.934	93843
259.996	72070
260.058	20495
260.120	11668
260.182	8894
260.244	8514
260.306	7175
260.368	7957
260.430	7494
260.492	14707
260.554	22747
260.616	16629
260.678	41427
260.740	56182
260.802	14824
260.864	12016
260.926	9448
260.988	9972
261.050	9794
261.112	23825
261.174	63390
261.236	46238
261.298	15322
261.359	28398
261.421	36710
261.483	11532
261.545	9989
261.607	6566
261.669	8320
261.731	18098
261.793	36657
261.854	14529
261.916	10865
261.978	10550
262.040	10719
262.102	9430
262.164	16412
262.225	12408
262.287	8137
262.349	18529
262.411	13815
262.472	9746
262.534	19945
262.596	37247
262.658	12776
262.719	7673
262.781	12329
262.843	36483
262.904	15682
262.966	12321
263.028	18265
263.090	80166
263.151	177672
263.213	54986
263.275	27284
263.336	13830
263.398	10549
263.459	8570
263.521	7245
263.583	17262
263.644	10846
263.706	5692
263.767	5008
263.829	5100
263.891	4689
263.952	5009
264.014	4069
264.075	10173
264.137	21685
264.198	10644
264.260	4860
264.321	4993
264.383	14481
264.444	32127
264.506	10294
264.567	9252
264.629	15129
264.690	27177
264.752	11776
264.813	8207
264.875	6116
264.936	7132
264.998	5467
265.059	5436
265.120	7229
265.182	12659
265.243	57310
265.305	56302
265.366	15036
265.427	9595
265.489	8633
265.550	6154
265.611	7166
265.673	6789
265.734	5932
265.795	5944
265.857	5468
265.918	7488
265.979	19493
266.040	91572
266.102	75341
266.163	23873
266.224	17222
266.286	10455
266.347	7397
266.408	7759
266.469	8420
266.530	6631
266.592	5107
266.653	11760
266.714	17534
266.775	7118
266.836	5514
266.898	4903
266.959	9358
267.020	6945
267.081	6301
267.142	4995
267.203	5074
267.264	5339
267.326	6156
267.387	5051
267.448	4140
267.509	4855
267.570	4993
267.631	4689
267.692	3375
267.753	6088
267.814	5366
267.875	13271
267.936	23597
267.997	13593
268.058	11416
268.119	7738
268.180	5935
268.241	6046
268.302	5421
268.363	4002
268.424	5185
268.485	7730
268.546	5008
268.607	3737
268.668	4330
268.729	3784
268.790	5180
268.851	6146
268.912	15075
268.972	17082
269.033	8771
269.094	4530
269.155	5020
269.216	5055
269.277	6682
269.338	5342
269.398	4650
269.459	6300
269.520	8027
269.581	10083
269.642	10704
269.702	8170
269.763	7486
269.824	7128
269.885	8095
269.945	12061
270.006	6543
270.067	5089
270.128	4352
270.188	4667
270.249	5334
270.310	4239
270.370	6178
270.431	6496
270.492	4203
270.553	5787
270.613	11701
270.674	21409
270.734	9672
270.795	6307
270.856	9098
270.916	7642
270.977	6133
271.038	7852
271.098	7096
271.159	10873
271.219	10962
271.280	6396
271.340	5250
271.401	7839
271.462	20530
271.522	11573
271.583	6978
271.643	7542
271.704	6596
271.764	9565
271.825	18465
271.885	60970
271.946	76356
272.006	25199
272.066	38870
272.127	61327
272.187	18298
272.248	11631
272.308	13581
272.369	42065
272.429	20915
272.489	17875
272.550	16923
272.610	16747
272.671	14032
272.731	15868
272.791	24569
272.852	12044
272.912	10884
272.972	6767
273.033	7658
273.093	12490
273.153	11320
273.214	8809
273.274	10290
273.334	31623
273.394	56243
273.455	21604
273.515	23260
273.575	47364
273.635	20855
273.696	30804
273.756	57287
273.816	22247
273.876	14289
273.936	38523
273.997	62242
274.057	16362
274.117	13353
274.177	19057
274.237	72775
274.297	61271
274.358	47061
274.418	46249
274.478	32222
274.538	15204
274.598	16825
274.658	55618
274.718	66703
274.778	24159
274.838	14338
274.898	35014
274.958	94498
275.018	67451
275.078	37386
275.138	16443
275.198	11376
275.258	10517
275.318	12758
275.378	19812
275.438	17863
275.498	14786
275.558	44886
275.618	82061
275.678	39759
275.738	24947
275.798	19116
275.858	11448
275.918	7583
275.978	9939
276.038	7836
276.098	7367
276.157	14785
276.217	36970
276.277	17114
276.337	12948
276.397	7581
276.457	9598
276.517	7146
276.576	5964
276.636	6276
276.696	11371
276.756	26387
276.815	17993
276.875	8583
276.935	11485
276.995	9418
277.055	6410
277.114	6182
277.174	10834
277.234	29051
277.293	13664
277.353	8533
277.413	6287
277.472	7465
277.532	7021
277.592	9126
277.651	25244
277.711	40278
277.771	16615
277.830	51953
277.890	40360
277.950	34453
278.009	87920
278.069	31246
278.128	31164
278.188	41019
278.248	20409
278.307	47074
278.367	28420
278.426	12484
278.486	9393
278.545	7698
278.605	7647
278.664	6814
278.724	9537
278.783	23554
278.843	55755
278.902	16908
278.962	11680
279.021	12224
279.081	22442
279.140	20426
279.199	14011
279.259	12287
279.318	13678
279.378	18411
279.437	32804
279.496	101394
279.556	334342
279.615	244121
279.675	64840
279.734	40476
279.793	60010
279.853	71521
279.912	27646
279.971	17580
280.031	14596
280.090	23390
280.149	39766
280.208	48516
280.268	232335
280.327	217262
280.386	51499
280.445	36859
280.505	30748
280.564	18286
280.623	15363
280.682	19885
280.742	27074
280.801	10641
280.860	8644
280.919	7838
280.978	7125
281.037	6977
281.097	6504
281.156	6600
281.215	6587
281.274	9439
281.333	36398
281.392	25365
281.451	8369
281.510	6701
281.569	6800
281.628	6501
281.688	5836
281.747	7365
281.806	6435
281.865	5410
281.924	4815
281.983	5360
282.042	4547
282.101	4163
282.160	5190
282.219	4427
282.278	5505
282.337	19390
282.396	13665
282.454	6486
282.513	8671
282.572	28620
282.631	15845
282.690	6227
282.749	6099
282.808	7568
282.867	7686
282.926	7473
282.985	5324
283.043	3624
283.102	6099
283.161	7331
283.220	18131
283.279	33106
283.338	10536
283.396	6187
283.455	7081
283.514	7343
283.573	12175
283.631	9405
283.690	6827
283.749	6350
283.808	13938
283.866	14494
283.925	7192
283.984	7459
284.043	9652
284.101	9094
284.160	6456
284.219	9085
284.277	8587
284.336	13261
284.395	39921
284.453	30986
284.512	12880
284.570	15648
284.629	13484
284.688	11351
284.746	11886
284.805	13558
284.863	17577
284.922	20613
284.981	25745
285.039	38096
285.098	70300
285.156	162102
285.215	334083
285.273	309624
285.332	165211
285.390	87287
285.449	54442
285.507	39220
285.566	29980
285.624	22902
285.683	17877
285.741	14794
285.799	13254
285.858	12344
285.916	10341
285.975	8570
286.033	8043
286.091	7653
286.150	6353
286.208	7534
286.267	8796
286.325	8796
286.383	12862
286.442	10636
286.500	6736
286.558	5309
286.616	6344
286.675	8717
286.733	7317
286.791	7274
286.850	8392
286.908	10877
286.966	16746
287.024	8795
287.083	5909
287.141	5662
287.199	6788
287.257	9575
287.315	7992
287.374	9965
287.432	20158
287.490	12848
287.548	9634
287.606	8066
287.664	8631
287.723	9807
287.781	13415
287.839	9796
287.897	12055
287.955	16606
288.013	30185
288.071	70005
288.129	234402
288.187	511165
288.245	255903
288.303	90112
288.361	52893
288.419	38553
288.477	28510
288.535	19715
288.593	14373
288.651	12140
288.709	10064
288.767	8355
288.825	8644
288.883	7113
288.941	6808
288.999	6960
289.057	5492
289.115	5814
289.173	6367
289.231	6040
289.289	6294
289.346	6433
289.404	7345
289.462	10967
289.520	11319
289.578	6935
289.636	4929
289.694	4929
289.751	4693
289.809	4239
289.867	5055
289.925	6189
289.983	7462
290.040	4961
290.098	4073
290.156	5610
290.214	6020
290.271	4381
290.329	4630
290.387	3831
290.444	3412
290.502	3527
290.560	4209
290.617	3585
290.675	4626
290.733	4294
290.790	5101
290.848	4339
290.906	4559
290.963	4421
291.021	4629
291.078	4751
291.136	6401
291.194	16989
291.251	33906
291.309	10075
291.366	5053
291.424	4089
291.481	4874
291.539	4675
291.596	4551
291.654	3184
291.711	3280
291.769	5388
291.826	11007
291.884	7082
291.941	4120
291.999	4050
292.056	4811
292.114	5508
292.171	3760
292.228	4513
292.286	5973
292.343	11003
292.401	14199
292.458	8565
292.515	6102
292.573	6851
292.630	6317
292.687	8322
292.745	6796
292.802	9541
292.859	21985
292.917	35361
292.974	19744
293.031	7394
293.089	6748
293.146	5347
293.203	5123
293.260	3888
293.318	5676
293.375	8399
293.432	5909
293.489	4591
293.546	5222
293.604	9276
293.661	28155
293.718	62751
293.775	30572
293.832	13303
293.889	9513
293.947	9543
294.004	7340
294.061	7585
294.118	17052
294.175	33234
294.232	40648
294.289	17004
294.346	11040
294.403	11630
294.460	10388
294.517	7869
294.574	6390
294.631	5711
294.688	9858
294.745	22324
294.802	69356
294.859	69574
294.916	26499
294.973	14548
295.030	11761
295.087	11293
295.144	8021
295.201	7928
295.258	7198
295.315	9663
295.372	26640
295.429	48839
295.486	21858
295.542	13857
295.599	30831
295.656	48987
295.713	34449
295.770	44008
295.827	17825
295.883	10144
295.940	10034
295.997	14269
296.054	14150
296.111	7789
296.167	6434
296.224	4903
296.281	5018
296.338	4975
296.394	5816
296.451	8250
296.508	22172
296.564	39611
296.621	29283
296.678	57910
296.734	78478
296.791	29742
296.848	16689
296.904	16604
296.961	32963
297.018	52248
297.074	39273
297.131	16398
297.187	13709
297.244	19169
297.301	56267
297.357	94476
297.414	33350
297.470	13878
297.527	10498
297.583	8590
297.640	9666
297.696	7085
297.753	6476
297.809	4898
297.866	4784
297.922	4869
297.979	4808
298.035	6140
298.092	11558
298.148	30267
298.204	28968
298.261	17176
298.317	27282
298.374	68256
298.430	41306
298.486	20141
298.543	17300
298.599	14976
298.656	18752
298.712	28518
298.768	66569
298.824	50797
298.881	18099
298.937	9842
298.993	9985
299.050	10259
299.106	9448
299.162	7296
299.218	9043
299.275	7163
299.331	9114
299.387	17930
299.443	58767
299.500	55773
299.556	21192
299.612	11575
299.668	10403
299.724	9708
299.780	9535
299.837	9489
299.893	15214
299.949	45637
300.005	51816
300.061	44436
300.117	77678
300.173	38418
300.229	18023
300.285	21797
300.341	23197
300.397	12166
300.453	7967
300.510	7794
300.566	7363
300.622	8724
300.678	16889
300.734	35312
300.790	42005
300.845	55421
300.901	32025
300.957	41833
301.013	33845
301.069	14395
301.125	11333
301.181	11911
301.237	9646
301.293	6721
301.349	6580
301.405	5965
301.461	7950
301.516	9424
301.572	9034
301.628	13216
301.684	14311
301.740	21118
301.796	33366
301.851	23286
301.907	36972
301.963	40314
302.019	65990
302.074	164753
302.130	161886
302.186	74677
302.242	31127
302.297	20605
302.353	20849
302.409	34603
302.464	31062
302.520	25921
302.576	58040
302.631	64040
302.687	36792
302.743	16463
302.798	11172
302.854	9643
302.910	10100
302.965	13631
303.021	20577
303.076	19074
303.132	22931
303.187	26053
303.243	13607
303.299	9380
303.354	7829
303.410	7894
303.465	7207
303.521	5964
303.576	7525
303.632	10577
303.687	19388
303.743	53041
303.798	44600
303.853	18067
303.909	10628
303.964	10448
304.020	14293
304.075	20978
304.130	18476
304.186	31396
304.241	32127
304.297	24949
304.352	15237
304.358	14561
304.407	9073
304.449	8718
304.463	8608
304.518	9293
304.539	9171
304.573	8984
304.629	9753
304.630	9893
304.684	16693
304.720	32512
304.739	40412
304.794	60472
304.811	51585
304.850	30186
304.902	15832
304.905	14934
304.960	10657
304.992	12105
305.015	13147
305.071	12118
305.083	11466
305.126	9024
305.173	6443
305.181	6045
305.236	6159
305.264	6279
305.292	6447
305.347	7684
305.354	7981
305.402	9930
305.445	11143
305.457	11435
305.512	13988
305.535	13686
305.567	13337
305.622	14585
305.626	15089
305.678	26882
305.716	50800
305.733	59261
305.788	65962
305.807	57340
305.843	42548
305.897	53574
305.898	53674
305.953	54162
305.988	36846
306.008	27309
306.063	17663
306.078	15975
306.118	12427
306.168	8987
306.173	8693
306.228	7513
306.259	7139
306.283	6973
306.338	7237
306.349	7336
306.393	8082
306.440	10586
306.448	10977
306.503	11604
306.530	12317
306.558	15509
306.613	30789
306.620	32837
306.668	43493
306.711	52789
306.723	53493
306.778	42315
306.801	32558
306.833	21605
306.888	12214
306.892	11833
306.943	9100
306.982	8302
306.997	8107
307.052	8091
307.072	8197
307.107	9547
307.162	12926
307.163	12992
307.217	20862
307.253	24768
307.272	25056
307.327	26558
307.343	24584
307.381	20292
307.434	18350
307.436	18821
307.491	34491
307.524	50248
307.546	53830
307.600	49660
307.614	44328
307.655	28375
307.704	16569
307.710	16310
307.765	20578
307.795	25006
307.819	30393
307.874	50427
307.885	51029
307.929	40092
307.975	29793
307.984	30495
308.038	44511
308.065	56876
308.093	93368
308.148	186647
308.156	206818
308.202	307966
308.246	367065
308.257	357454
308.312	210770
308.336	149955
308.366	110830
308.421	66850
308.426	63265
308.475	41754
308.517	31222
308.530	29338
308.585	24774
308.607	23539
308.639	23628
308.694	25792
308.697	26094
308.748	45646
308.787	65883
308.803	65299
308.857	50254
308.877	42909
308.912	36002
308.967	32220
308.967	32218
309.021	42806
309.058	53453
309.076	67390
309.130	119134
309.148	140832
309.185	248512
309.238	429268
309.239	430444
309.293	459615
309.328	426859
309.348	372864
309.402	194517
309.418	149117
309.457	104265
309.508	61925
309.511	60531
309.566	49381
309.598	44943
309.620	46085
309.674	51332
309.688	53349
309.729	51128
309.778	44331
309.783	43413
309.837	33424
309.868	28444
309.892	33116
309.946	48147
309.959	53138
310.001	68262
310.049	80933
310.055	78528
310.109	48190
310.139	31385
310.163	25333
310.218	16301
310.229	14893
310.272	13081
310.319	11495
310.326	11339
310.381	11007
310.409	10883
310.435	10676
310.489	10118
310.499	10089
310.543	10542
310.589	11007
310.598	11073
310.652	11909
310.679	11851
310.706	9999
310.760	6394
310.769	5886
310.814	5307
310.859	4792
310.868	4906
310.923	5711
310.948	6119
310.977	6849
311.031	8334
311.038	8540
311.085	8194
311.128	7548
311.139	7482
311.193	7354
311.218	7316
311.247	6749
311.301	5499
311.308	5367
311.356	6034
311.398	6672
311.410	6525
311.464	5799
311.488	5402
311.518	5381
311.572	5458
311.578	5486
311.626	6991
311.668	8316
311.680	8809
311.734	10846
311.758	11788
311.788	11241
311.842	10184
311.847	10068
311.896	12894
311.937	15423
311.950	15218
312.004	14197
312.027	13687
312.058	11419
312.112	7432
312.117	7036
312.165	6776
312.207	6569
312.297	10486
312.386	8098
312.476	7640
312.566	14693
312.656	7489
312.745	5217
312.835	6034
312.925	8353
313.015	8942
313.104	10661
313.194	6459
313.284	6245
313.374	8915
313.463	6751
313.553	5896
313.643	4448
313.732	4996
313.822	4717
313.912	6267
314.001	6639
314.091	7856
314.180	11053
314.270	9019
314.360	10185
314.449	8339
314.539	5071
314.628	5557
314.718	6187
314.808	10345
314.897	6232
314.987	5645
315.076	6343
315.166	10354
315.255	10663
315.345	9596
315.434	10492
315.524	8237
315.613	9811
315.703	11229
315.792	13641
315.881	23769
315.971	12533
316.060	19231
316.150	35720
316.239	38758
316.328	14455
316.418	6330
316.507	6356
316.597	9546
316.686	7420
316.775	16562
316.865	43275
316.954	8388
317.043	4704
317.133	5580
317.222	5060
317.311	4985
317.400	3614
317.490	8448
317.579	8169
317.668	6845
317.757	9386
317.847	17150
317.936	41832
318.025	26510
318.114	14211
318.203	11767
318.293	15606
318.382	27876
318.471	22500
318.560	34575
318.649	73586
318.738	17836
318.828	10289
318.917	11840
319.006	16818
319.095	47741
319.184	91120
319.273	49621
319.362	21774
319.451	9430
319.540	9238
319.629	17999
319.718	29042
319.807	16407
319.896	31225
319.985	110288
320.074	39833
320.163	13697
320.252	25336
320.341	16789
320.430	13409
320.519	16169
320.608	9698
320.697	7834
320.786	7030
320.875	11030
320.964	12660
321.053	20550
321.142	28206
321.230	30299
321.319	23853
321.408	52168
321.497	24045
321.586	23113
321.675	34990
321.764	32525
321.852	21766
321.941	29480
322.030	20718
322.119	24708
322.207	57230
322.296	52994
322.385	24652
322.474	24701
322.562	61691
322.651	35421
322.740	24451
322.829	38224
322.917	53586
323.006	25704
323.095	18270
323.183	19611
323.272	28143
323.361	52500
323.449	168472
323.538	58958
323.626	110500
323.715	71662
323.804	28013
323.892	100234
323.981	55507
324.069	18010
324.158	55854
324.246	54894
324.335	13868
324.424	18733
324.512	8793
324.601	10861
324.689	19166
324.778	36949
324.866	38245
324.954	11717
325.043	10434
325.131	22639
325.220	43407
325.308	51128
325.397	33713
325.485	20923
325.574	5698
325.662	5536
325.750	5827
325.839	6178
325.927	5663
326.015	9593
326.104	19210
326.192	31105
326.280	7432
326.369	6743
326.457	8773
326.545	16013
326.634	7423
326.722	5126
326.810	4348
326.898	5121
326.987	6751
327.075	15410
327.163	22158
327.251	14810
327.340	14790
327.428	15612
327.516	5246
327.604	6799
327.692	7416
327.781	11888
327.869	20875
327.957	14632
328.045	8514
328.133	6074
328.221	9617
328.309	7725
328.397	5698
328.485	8707
328.574	10790
328.662	33691
328.750	26925
328.838	12680
328.926	6819
329.014	5170
329.102	8651
329.190	22115
329.278	14204
329.366	5444
329.454	4256
329.542	4981
329.630	4124
329.718	6434
329.806	7508
329.893	8334
329.981	10602
330.069	19439
330.157	72581
330.245	183713
330.333	98192
330.421	19186
330.509	15091
330.597	42387
330.684	28794
330.772	12070
330.860	18244
330.948	21199
331.036	9167
331.123	5068
331.211	5538
331.299	7429
331.387	17547
331.475	32281
331.562	10752
331.650	5518
331.738	6831
331.825	11386
331.913	5506
332.001	4879
332.089	8835
332.176	21797
332.264	53387
332.352	41651
332.439	9960
332.527	7085
332.614	6410
332.702	10799
332.790	7781
332.877	22793
332.965	48873
333.052	11720
333.140	10569
333.228	23982
333.315	7905
333.403	8913
333.490	30149
333.578	24285
333.665	19104
333.753	11614
333.840	6844
333.928	10088
334.015	32359
334.103	49287
334.190	137302
334.278	34212
334.365	11893
334.452	8610
334.540	6205
334.627	9775
334.715	16992
334.802	35739
334.889	198322
334.977	192175
335.064	19570
335.151	9113
335.239	8465
335.326	14842
335.413	55849
335.501	76728
335.588	11451
335.675	8011
335.762	9895
335.850	17754
335.937	12841
336.024	42055
336.111	186700
336.199	69465
336.286	11074
336.373	6044
336.460	4797
336.547	5170
336.635	6970
336.722	7178
336.809	6171
336.896	12125
336.983	34529
337.070	86673
337.157	126444
337.245	124352
337.332	90078
337.419	11747
337.506	7019
337.593	9304
337.680	27681
337.767	82459
337.854	24624
337.941	28192
338.028	40780
338.115	15030
338.202	15229
338.289	34206
338.376	124840
338.463	39068
338.550	48580
338.637	53389
338.724	23181
338.811	41323
338.898	9173
338.984	5852
339.071	7951
339.158	14203
339.245	26307
339.332	14855
339.419	24165
339.506	24740
339.593	4142
339.679	4636
339.766	4442
339.853	7215
339.940	13931
340.027	5956
340.113	5309
340.200	7788
340.287	6406
340.374	8439
340.460	12752
340.547	6249
340.634	11143
340.720	39151
340.807	23070
340.894	4755
340.980	5596
341.067	5870
341.154	4951
341.240	9164
341.327	18248
341.414	7715
341.500	6781
341.587	5567
341.674	4588
341.760	12263
341.847	14321
341.933	5802
342.020	2026
342.106	3499
342.193	5520
342.279	9836
342.366	7804
342.452	13483
342.539	7008
342.625	16799
342.712	40781
342.798	16814
342.885	6931
342.971	3334
343.058	3702
343.144	4570
343.230	3222
343.317	4300
343.403	3899
343.490	3591
343.576	3045
343.662	5620
343.749	7366
343.835	14946
343.921	18309
344.008	96834
344.094	192596
344.180	41944
344.267	15517
344.353	51467
344.439	56372
344.525	22401
344.612	11848
344.698	12352
344.784	7098
344.870	4479
344.957	3680
345.043	8389
345.129	5940
345.215	12726
345.301	6217
345.387	4957
345.474	2423
345.560	4511
345.646	7201
345.732	5443
345.818	5541
345.904	5056
345.990	5678
346.076	7743
346.162	16465
346.249	6657
346.335	4872
346.421	6414
346.507	24507
346.593	70694
346.679	16699
346.765	5713
346.851	4436
346.937	4483
347.023	4079
347.108	6086
347.194	4266
347.280	4359
347.366	6351
347.452	23174
347.538	88238
347.624	62404
347.710	50840
347.796	10101
347.882	6383
347.967	6278
348.053	7077
348.139	7437
348.225	3919
348.311	4877
348.397	3552
348.482	5124
348.568	6149
348.654	2730
348.740	2620
348.825	4042
348.911	9432
348.997	45488
349.083	81359
349.168	14888
349.254	5503
349.340	5792
349.425	3809
349.511	6739
349.597	11004
349.682	18327
349.768	44927
349.854	21680
349.939	5546
350.025	5238
350.110	4659
350.196	3516
350.282	2449
350.367	4215
350.453	11634
350.538	13544
350.624	6738
350.709	6153
350.795	3318
350.880	5218
350.966	7139
351.051	11428
351.137	9277
351.222	5845
351.308	14367
351.393	39502
351.479	10474
351.564	4380
351.649	4654
351.735	3372
351.820	3283
351.906	5525
351.991	10539
352.076	28144
352.162	37277
352.247	8470
352.332	5146
352.418	10815
352.503	15063
352.588	56117
352.673	43898
352.759	10652
352.844	4736
352.929	6024
353.014	7275
353.100	5364
353.185	5849
353.270	13119
353.355	14773
353.441	5315
353.526	8194
353.611	14012
353.696	15019
353.781	9195
353.866	3603
353.952	5715
354.037	12750
354.122	29905
354.207	25934
354.292	10820
354.377	4479
354.462	4093
354.547	5597
354.632	5639
354.717	8149
354.802	7992
354.887	4319
354.972	4552
355.057	3383
355.142	3892
355.227	5689
355.312	9404
355.397	20455
355.482	46397
355.567	22748
355.652	18439
355.737	19625
355.822	57752
355.907	44689
355.991	8068
356.076	3807
356.161	5082
356.246	3530
356.331	5961
356.416	17391
356.501	103680
356.585	101736
356.670	15807
356.755	10084
356.840	14197
356.924	71179
357.009	237859
357.094	87105
357.179	20143
357.263	16243
357.348	12424
357.433	12470
357.517	11514
357.602	10232
357.687	8516
357.771	12756
357.856	40315
357.941	26307
358.025	61391
358.110	243376
358.195	106122
358.279	16117
358.364	12594
358.448	40063
358.533	103048
358.617	74372
358.702	73505
358.787	26794
358.871	15259
358.956	11798
359.040	4550
359.125	3718
359.209	5535
359.294	19681
359.378	31031
359.462	12392
359.547	7472
359.631	6596
359.716	4457
359.800	4493
359.885	8881
359.969	6167
360.053	6639
360.138	10508
360.222	9250
360.306	13399
360.391	12235
360.475	23030
360.559	48534
360.644	40864
360.728	30605
360.812	56945
360.896	150548
360.981	60647
361.065	30251
361.149	9205
361.233	8363
361.318	7577
361.402	8733
361.486	8045
361.570	5807
361.654	7795
361.739	22729
361.823	101506
361.907	146858
361.991	25161
362.075	14303
362.159	27660
362.243	18741
362.327	12734
362.411	13369
362.495	10561
362.580	6523
362.664	4437
362.748	4140
362.832	4294
362.916	6088
363.000	21401
363.084	94978
363.168	164178
363.252	37904
363.336	13332
363.420	20122
363.503	77988
363.587	91386
363.671	15993
363.755	9793
363.839	13782
363.923	7083
364.007	15646
364.091	18766
364.175	31251
364.258	120237
364.342	61322
364.426	26211
364.510	15432
364.594	17321
364.677	30935
364.761	132649
364.845	86857
364.929	27226
365.013	20348
365.096	17581
365.180	21300
365.264	36170
365.347	127280
365.431	54472
365.515	13141
365.598	6285
365.682	5986
365.766	12790
365.849	16133
365.933	8184
366.017	10814
366.100	9967
366.184	4228
366.267	5818
366.351	5667
366.435	4729
366.518	2664
366.602	3953
366.685	3364
366.769	4701
366.852	10943
366.936	19168
367.019	9644
367.103	9516
367.186	17901
367.270	5870
367.353	2733
367.436	3913
367.520	3562
367.603	5275
367.687	8374
367.770	16760
367.853	10678
367.937	35980
368.020	55348
368.104	13964
368.187	12418
368.270	18313
368.353	15606
368.437	31480
368.520	84721
368.603	43957
368.687	44264
368.770	74860
368.853	19323
368.936	17507
369.020	18897
369.103	6728
369.186	4115
369.269	4322
369.352	11340
369.436	17278
369.519	10633
369.602	4864
369.685	6065
369.768	7316
369.851	6086
369.934	3738
370.018	6152
370.101	13741
370.184	12012
370.267	8978
370.350	14292
370.433	23955
370.516	65348
370.599	71347
370.682	21694
370.765	39711
370.848	52171
370.931	98007
371.014	38492
371.097	8931
371.180	5772
371.263	4347
371.346	2067
371.429	4838
371.511	5077
371.594	9425
371.677	15666
371.760	19463
371.843	17010
371.926	89411
372.009	190136
372.091	56320
372.174	40977
372.257	92473
372.340	34152
372.423	27549
372.505	31353
372.588	14633
372.671	31188
372.754	94993
372.836	46131
372.919	37518
373.002	72739
373.085	22465
373.167	15952
373.250	41268
373.332	90626
373.415	135270
373.498	265200
373.580	92572
373.663	122055
373.746	156953
373.828	34573
373.911	15196
373.993	17910
374.076	70677
374.159	70304
374.241	30692
374.324	78166
374.406	53139
374.489	80641
374.571	208204
374.654	79334
374.736	43508
374.819	132334
374.901	191456
374.983	189086
375.066	32207
375.148	14683
375.231	58818
375.313	110484
375.395	40120
375.478	9153
375.560	6649
375.643	10591
375.725	43825
375.807	172597
375.890	143928
375.972	75608
376.054	36306
376.136	67873
376.219	30275
376.301	50745
376.383	139990
376.465	51979
376.548	30647
376.630	41272
376.712	116772
376.794	49978
376.877	7187
376.959	4217
377.041	6096
377.123	14887
377.205	18587
377.287	4371
377.369	3885
377.452	3773
377.534	4370
377.616	4344
377.698	4747
377.780	2517
377.862	3631
377.944	4177
378.026	2923
378.108	3887
378.190	3159
378.272	3194
378.354	2378
378.436	2934
378.518	8831
378.600	31047
378.682	26027
378.764	53241
378.846	40378
378.928	11666
379.010	15132
379.091	8885
379.173	5916
379.255	3698
379.337	7433
379.419	27867
379.501	76974
379.583	30121
379.664	9295
379.746	18642
379.828	52690
379.910	69986
379.991	59926
380.073	10699
380.155	7413
380.237	4933
380.318	4727
380.400	3941
380.482	11651
380.564	18122
380.645	15045
380.727	13721
380.809	8909
380.890	6257
380.972	4418
381.053	4874
381.135	6968
381.217	19363
381.298	53692
381.380	27154
381.461	27832
381.543	119540
381.624	141349
381.706	24749
381.787	13318
381.869	15055
381.951	58915
382.032	207027
382.113	117588
382.195	23596
382.276	15432
382.358	34553
382.439	101270
382.521	121148
382.602	186599
382.684	80036
382.765	141543
382.846	132393
382.928	143759
383.009	77321
383.090	62038
383.172	221364
383.253	316157
383.334	126834
383.416	156023
383.497	74909
383.578	33138
383.659	59032
383.741	208242
383.822	494703
383.903	247707
383.984	107593
384.066	186457
384.147	110649
384.228	22416
384.309	15990
384.390	11972
384.471	7942
384.553	9899
384.634	14214
384.715	14947
384.796	8280
384.877	13117
384.958	47453
385.039	56810
385.120	19274
385.201	9305
385.282	12302
385.363	13664
385.444	10817
385.525	23179
385.606	79683
385.687	65799
385.768	16205
385.849	23226
385.930	96116
386.011	156815
386.092	38733
386.173	9351
386.254	8350
386.335	10677
386.416	12628
386.496	33467
386.577	51891
386.658	19933
386.739	11374
386.820	12460
386.901	10239
386.981	8862
387.062	6126
387.143	13826
387.224	49796
387.304	45663
387.385	15719
387.466	10144
387.547	13686
387.627	7957
387.708	21483
387.789	94590
387.869	111019
387.950	29697
388.031	5919
388.111	6144
388.192	19271
388.273	29685
388.353	17098
388.434	9897
388.514	23507
388.595	98635
388.676	114370
388.756	50642
388.837	47176
388.917	28223
388.998	8350
389.078	8293
389.159	8147
389.239	6080
389.320	9217
389.400	8418
389.480	22341
389.561	55648
389.641	26094
389.722	10186
389.802	15377
389.883	25045
389.963	67240
390.043	46560
390.124	16492
390.204	21074
390.284	59072
390.365	39629
390.445	63641
390.525	190805
390.605	158441
390.686	37295
390.766	12148
390.846	6877
390.927	5052
391.007	4732
391.087	6708
391.167	7905
391.247	5877
391.328	13733
391.408	20094
391.488	12143
391.568	4337
391.648	7515
391.728	10062
391.808	10259
391.888	12587
391.969	29824
392.049	46172
392.129	22733
392.209	26765
392.289	61123
392.369	33346
392.449	30286
392.529	18385
392.609	13398
392.689	18031
392.769	60824
392.849	49439
392.929	36013
393.009	87905
393.089	56589
393.169	31289
393.248	121034
393.328	559992
393.408	569743
393.488	106977
393.568	26222
393.648	14382
393.728	11026
393.807	8741
393.887	10842
393.967	10091
394.047	14597
394.127	19563
394.206	38473
394.286	148344
394.366	571126
394.446	582747
394.525	151465
394.605	40119
394.685	27286
394.764	48077
394.844	79676
394.924	54614
395.003	18493
395.083	11957
395.163	11570
395.242	10823
395.322	11350
395.402	7945
395.481	13369
395.561	33523
395.640	84154
395.720	60919
395.799	97510
395.879	83677
395.958	63710
396.038	223523
396.117	750327
396.197	771706
396.276	249485
396.356	81267
396.435	49865
396.515	29716
396.594	26305
396.673	39004
396.753	154654
396.832	518833
396.912	354238
396.991	75690
397.070	20147
397.150	11335
397.229	8440
397.308	9295
397.388	10725
397.467	7394
397.546	6257
397.625	4467
397.705	9035
397.784	7997
397.863	4662
397.942	3872
398.022	6078
398.101	26878
398.180	80701
398.259	41691
398.338	10878
398.417	6653
398.497	4816
398.576	5816
398.655	3376
398.734	3426
398.813	6020
398.892	25105
398.971	87490
399.050	43350
399.129	5624
399.208	3624
399.287	4240
399.366	2704
399.445	3551
399.524	2844
399.603	3661
399.682	7789
399.761	26495
399.840	93336
399.919	72093
399.998	9751
400.077	2544
400.156	2000
400.235	5997
400.313	3268
400.392	6295
400.471	27424
400.550	42488
400.629	11737
400.708	5694
400.786	5834
400.865	18231
400.944	19532
401.023	9580
401.102	1768
401.180	2973
401.259	3040
401.338	4867
401.416	5744
401.495	4837
401.574	4715
401.652	3554
401.731	5910
401.810	4236
401.888	2045
401.967	1728
402.046	3312
402.124	5903
402.203	6507
402.281	5166
402.360	6320
402.438	24602
402.517	17302
402.596	6324
402.674	6032
402.753	3642
402.831	3411
402.910	4307
402.988	11028
403.066	30559
403.145	16945
403.223	11851
403.302	22802
403.380	16894
403.459	13425
403.537	6793
403.615	4253
403.694	1490
403.772	2360
403.850	2512
403.929	1071
404.007	2698
404.085	5097
404.164	4283
404.242	3744
404.320	15500
404.398	47540
404.477	62918
404.555	157787
404.633	131599
404.711	41262
404.789	20368
404.868	5240
404.946	2521
405.024	2047
405.102	2881
405.180	1822
405.258	1545
405.336	2605
405.415	3471
405.493	8217
405.571	6827
405.649	2013
405.727	2168
405.805	5041
405.883	4318
405.961	4710
406.039	7511
406.117	2911
406.195	7458
406.273	35023
406.351	125363
406.429	70252
406.507	12691
406.585	4085
406.663	3781
406.740	5311
406.818	5765
406.896	2437
406.974	4116
407.052	11228
407.130	71463
407.208	96934
407.285	20406
407.363	3624
407.441	4409
407.519	2696
407.596	4603
407.674	12802
407.752	36276
407.830	35241
407.907	14360
407.985	3818
408.063	4126
408.141	3604
408.218	6560
408.296	5122
408.373	3481
408.451	3030
408.529	4304
408.606	1522
408.684	1919
408.762	881
408.839	1288
408.917	692
408.994	2090
409.072	1521
409.149	1519
409.227	2184
409.304	2199
409.382	643
409.459	1468
409.537	2688
409.614	2186
409.692	1526
409.769	2419
409.846	2702
409.924	4672
410.001	2752
410.079	3515
410.156	2002
410.233	3780
410.311	2901
410.388	1783
410.465	3085
410.543	2682
410.620	1875
410.697	2855
410.775	3097
410.852	1157
410.929	3020
411.006	4878
411.083	2322
411.161	6796
411.238	8777
411.315	5161
411.392	1916
411.469	4297
411.547	3880
411.624	1368
411.701	1501
411.778	4385
411.855	7276
411.932	4294
412.009	1754
412.086	3015
412.163	3501
412.240	4527
412.317	5932
412.394	5374
412.471	1249
412.548	1902
412.625	1309
412.702	4167
412.779	7905
412.856	5628
412.933	1327
413.010	3225
413.087	5646
413.164	25756
413.241	34789
413.318	8798
413.395	4888
413.471	7821
413.548	3358
413.625	2893
413.702	3959
413.779	3323
413.855	661
413.932	1641
414.009	877
414.086	1873
414.162	1360
414.239	5060
414.316	24711
414.393	54348
414.469	19163
414.546	1973
414.623	1494
414.699	2168
414.776	2410
414.853	1577
414.929	2752
415.006	3104
415.082	2910
415.159	2714
415.236	2048
415.312	2825
415.389	5928
415.465	6793
415.542	3628
415.618	2872
415.695	4976
415.771	3670
415.848	2227
415.924	3185
416.000	2116
416.077	2244
416.153	191
416.230	294
416.306	768
416.383	2019
416.459	1471
416.535	1337
416.612	588
416.688	1884
416.764	1029
416.841	1292
416.917	1324
416.993	1781
417.069	2624
417.146	6313
417.222	8531
417.298	4426
417.374	1425
417.451	2896
417.527	2469
417.603	3271
417.679	2276
417.755	2759
417.831	650
417.908	1640
417.984	858
418.060	1030
418.136	6251
418.212	7711
418.288	3763
418.364	1801
418.440	1514
418.516	5056
418.592	6688
418.668	12598
418.744	17294
418.820	12117
418.896	3010
418.972	674
419.048	1916
419.124	7191
419.200	4297
419.276	1688
419.352	238
419.428	698
419.504	1387
419.579	3394
419.655	1931
419.731	2306
419.807	10281
419.883	19811
419.959	13773
420.034	4924
420.110	8459
420.186	34219
420.262	24605
420.337	4944
420.413	2788
420.489	2235
420.565	1350
420.640	870
420.716	1249
420.792	161
420.867	2231
420.943	1378
421.019	4513
421.094	3323
421.170	2015
421.245	862
421.321	1007
421.397	1617
421.472	5693
421.548	15864
421.623	10799
421.699	3081
421.774	3570
421.850	1772
421.925	5257
422.001	4775
422.076	2323
422.152	2292
422.227	5296
422.302	6104
422.378	6808
422.453	13197
422.529	35163
422.604	159111
422.679	335372
422.755	163114
422.830	36041
422.905	12293
422.981	5750
423.056	3800
423.131	3435
423.207	2387
423.282	2922
423.357	10318
423.432	6142
423.508	5879
423.583	15590
423.658	12103
423.733	3779
423.808	4949
423.883	5667
423.959	6211
424.034	3060
424.109	2803
424.184	2127
424.259	935
424.334	191
424.409	623
424.484	652
424.559	1831
424.634	1478
424.709	3463
424.784	4088
424.859	2883
424.934	4858
425.009	22231
425.084	38653
425.159	14975
425.234	2184
425.309	1701
425.384	9210
425.459	16125
425.534	5364
425.609	2378
425.683	1815
425.758	1540
425.833	1974
425.908	4305
425.983	13712
426.058	40272
426.132	17645
426.207	4772
426.282	6489
426.357	6295
426.431	1687
426.506	2441
426.581	1787
426.655	2483
426.730	874
426.805	2041
426.879	1953
426.954	2386
427.029	7073
427.103	42183
427.178	103875
427.253	45402
427.327	6110
427.402	8144
427.476	21404
427.551	10178
427.625	3506
427.700	3424
427.774	1824
427.849	3450
427.923	617
427.998	866
428.072	2333
428.147	6190
428.221	18180
428.296	38548
428.370	15949
428.444	4494
428.519	8108
428.593	16834
428.667	14704
428.742	17982
428.816	14365
428.890	34475
428.965	47815
429.039	22217
429.113	21468
429.188	7634
429.262	1478
429.336	6654
429.410	18116
429.485	13784
429.559	14813
429.633	11572
429.707	2903
429.781	8561
429.855	42640
429.930	59967
430.004	48589
430.078	85184
430.152	67424
430.226	61489
430.300	55430
430.374	9360
430.448	5113
430.522	25777
430.596	81567
430.670	48800
430.744	73543
430.818	115041
430.892	27649
430.966	4658
431.040	2402
431.114	230
431.188	571
431.262	1952
431.336	2211
431.410	9016
431.484	23532
431.557	15416
431.631	1534
431.705	1290
431.779	6323
431.853	28410
431.927	19848
432.000	2946
432.074	1696
432.148	3371
432.222	2807
432.295	1331
432.369	1412
432.443	5714
432.516	42401
432.590	107963
432.664	40479
432.737	4975
432.811	745
432.885	732
432.958	1239
433.032	683
433.106	184
433.179	371
433.253	106
433.326	606
433.400	-9
433.473	902
433.547	-388
433.620	973
433.694	3578
433.767	4509
433.841	1495
433.914	1195
433.988	181
434.061	1393
434.134	1324
434.208	769
434.281	-515
434.355	732
434.428	1176
434.501	1019
434.575	1028
434.648	1856
434.721	408
434.795	1216
434.868	-175
434.941	248
435.014	-808
435.088	834
435.161	1476
435.234	3238
435.307	3806
435.381	1553
435.454	616
435.527	1253
435.600	242
435.673	280
435.746	491
435.819	1120
435.892	-378
435.966	1038
436.039	517
436.112	1274
436.185	248
436.258	-458
436.331	-879
436.404	-316
436.477	-1159
436.550	-220
436.623	-180
436.696	599
436.769	716
436.842	708
436.915	1060
436.987	3339
437.060	912
437.133	-519
437.206	-15
437.279	896
437.352	498
437.425	698
437.498	2282
437.570	4925
437.643	4749
437.716	1818
437.789	1446
437.861	3573
437.934	10577
438.007	5884
438.080	979
438.152	2081
438.225	7914
438.298	58014
438.370	157538
438.443	65634
438.516	14567
438.588	2999
438.661	442
438.734	1591
438.806	1178
438.879	2848
438.951	2613
439.024	6261
439.096	1978
439.169	1141
439.241	-273
439.314	422
439.386	3347
439.459	5938
439.531	9437
439.604	3782
439.676	1030
439.749	508
439.821	74
439.893	1475
439.966	357
440.038	2302
440.110	1983
440.183	1861
440.255	950
440.327	3826
440.400	21681
440.472	93706
440.544	63902
440.617	9687
440.689	4552
440.761	5682
440.833	8746
440.905	6588
440.978	920
441.050	591
441.122	365
441.194	527
441.266	448
441.338	1779
441.411	3442
441.483	25731
441.555	40159
441.627	10170
441.699	5004
441.771	5868
441.843	2368
441.915	1311
441.987	1040
442.059	144
442.131	1558
442.203	3262
442.275	4474
442.347	3648
442.419	2539
442.491	10688
442.563	22572
442.635	15897
442.706	20269
442.778	17923
442.850	3435
442.922	982
442.994	2123
443.066	4419
443.137	3070
443.209	1720
443.281	2071
443.353	5617
443.425	17272
443.496	47819
443.568	42982
443.640	15894
443.711	4525
443.783	2040
443.855	1504
443.926	334
443.998	1149
444.070	3264
444.141	2620
444.213	3850
444.285	5421
444.356	5729
444.428	5506
444.499	2343
444.571	-360
444.642	866
444.714	658
444.785	4233
444.857	6172
444.928	17009
445.000	9722
445.071	10364
445.143	12309
445.214	5684
445.285	7720
445.357	25318
445.428	47236
445.500	91011
445.571	63047
445.642	26270
445.714	17852
445.785	27043
445.856	9395
445.928	5233
445.999	4588
446.070	4620
446.141	3717
446.213	5104
446.284	2277
446.355	3173
446.426	1710
446.497	1737
446.569	4727
446.640	8834
446.711	5170
446.782	2368
446.853	4460
446.924	5051
446.995	2194
447.066	2703
447.138	5983
447.209	3720
447.280	493
447.351	424
447.422	325
447.493	2635
447.564	2797
447.635	4581
447.706	2296
447.777	1056
447.847	339
447.918	580
447.989	2730
448.060	4786
448.131	11176
448.202	10902
448.273	6787
448.344	3841
448.414	1612
448.485	1257
448.556	468
448.627	1159
448.698	1180
448.768	900
448.839	378
448.910	5485
448.981	5713
449.051	2550
449.122	803
449.193	710
449.263	559
449.334	1219
449.405	2614
449.475	8178
449.546	5622
449.616	7331
449.687	6430
449.758	3298
449.828	921
449.899	883
449.969	308
450.040	964
450.110	2695
450.181	4731
450.251	837
450.322	1396
450.392	1783
450.463	2023
450.533	561
450.604	1904
450.674	1458
450.744	1861
450.815	413
450.885	1704
450.955	496
451.026	385
451.096	1597
451.166	2307
451.237	5634
451.307	18048
451.377	8816
451.447	1743
451.518	1026
451.588	989
451.658	1514
451.728	4389
451.799	17809
451.869	23941
451.939	6844
452.009	1818
452.079	375
452.149	2125
452.219	4321
452.289	21846
452.360	19525
452.430	3642
452.500	1879
452.570	3332
452.640	3457
452.710	10885
452.780	20787
452.850	14781
452.920	13441
452.990	5323
453.060	2930
453.129	4321
453.199	5533
453.269	23845
453.339	61436
453.409	99075
453.479	86187
453.549	126575
453.619	135082
453.688	63651
453.758	10625
453.828	4095
453.898	2624
453.968	2603
454.037	1759
454.087	2320
454.107	2537
454.168	1607
454.177	1451
454.247	1794
454.249	1813
454.316	1822
454.330	2065
454.386	2919
454.411	5668
454.456	9932
454.492	14245
454.525	18060
454.574	10294
454.595	6951
454.655	2978
454.665	2353
454.734	2695
454.736	2822
454.804	6210
454.817	8855
454.873	18927
454.898	22164
454.943	27420
454.979	19677
455.013	12825
455.060	6915
455.082	4541
455.141	4884
455.152	4990
455.221	15973
455.222	16301
455.291	36109
455.303	37794
455.360	42289
455.384	57127
455.430	78443
455.465	61567
455.499	46555
455.546	30315
455.569	22909
455.627	16455
455.638	15467
455.707	3611
455.708	3628
455.777	2794
455.789	2834
455.846	3022
455.869	2755
455.916	2242
455.950	2063
455.985	1795
456.031	2011
456.054	2046
456.112	1854
456.124	1863
456.193	2409
456.193	2391
456.262	2089
456.274	2478
456.332	4124
456.355	4715
456.401	5344
456.436	4251
456.470	3160
456.516	1940
456.540	1457
456.597	2031
456.609	2115
456.678	1488
456.678	1471
456.747	1593
456.759	1492
456.817	1184
456.840	1347
456.886	1450
456.920	1396
456.955	1553
457.001	2005
457.024	2285
457.082	3040
457.093	3231
457.162	5299
457.163	5338
457.232	7875
457.243	7492
457.301	4280
457.324	3210
457.370	2213
457.405	2283
457.439	2487
457.485	2125
457.508	1855
457.566	3089
457.577	3331
457.646	2597
457.647	2617
457.715	3620
457.727	3801
457.784	4540
457.808	5208
457.853	6261
457.889	6673
457.922	6376
457.969	5830
457.991	6094
458.050	6973
458.060	7138
458.129	9475
458.130	9537
458.198	8317
458.211	8007
458.267	5849
458.292	4496
458.336	3675
458.372	3576
458.405	3959
458.453	4970
458.474	5876
458.533	9128
458.543	9495
458.611	14552
458.614	14693
458.680	10219
458.694	8594
458.749	5134
458.775	4213
458.818	3361
458.855	3071
458.887	3005
458.936	2609
458.955	2536
459.016	3073
459.024	3117
459.093	3752
459.097	3773
459.162	3778
459.177	3834
459.230	4374
459.257	4565
459.299	4717
459.338	4984
459.368	5129
459.418	5596
459.437	5381
459.499	4759
459.505	4803
459.574	3825
459.579	3863
459.643	4055
459.659	3916
459.711	3837
459.740	4148
459.780	4636
459.820	4628
459.849	4355
459.900	4780
459.917	4924
459.981	5064
459.986	5043
460.054	4707
460.061	4613
460.123	4161
460.141	4360
460.191	5919
460.222	6667
460.260	7239
460.302	8449
460.328	8047
460.382	6434
460.397	6388
460.462	5592
460.465	5631
460.534	7710
460.543	7971
460.602	20043
460.623	24650
460.671	37510
460.703	49669
460.739	48092
460.783	42911
460.808	36363
460.864	10422
460.876	8528
460.944	4446
460.945	4407
461.013	5341
461.024	5394
461.081	5764
461.104	6022
461.150	5671
461.184	5383
461.218	4935
461.264	4092
461.286	4315
461.345	4874
461.355	4810
461.423	5113
461.425	5108
461.491	5147
461.505	5193
461.559	8771
461.585	10596
461.628	17255
461.665	23945
461.696	27239
461.745	35927
461.764	32606
461.825	13846
461.832	13461
461.901	6572
461.905	6482
461.969	6004
461.985	5920
462.037	6060
462.065	6023
462.105	6052
462.145	6271
462.173	8598
462.225	12942
462.241	14369
462.305	21949
462.310	21487
462.378	14737
462.385	13331
462.446	7877
462.465	6638
462.514	5796
462.545	6014
462.582	5856
462.625	5822
462.650	5855
462.705	5477
462.718	5600
462.785	6466
462.786	6509
462.854	8692
462.865	9171
462.922	11471
462.945	12448
462.990	10299
463.025	7916
463.058	7100
463.104	5812
463.126	5481
463.184	5151
463.194	5243
463.262	5747
463.264	5780
463.330	6545
463.344	6615
463.398	7660
463.424	8143
463.466	7231
463.504	6496
463.533	6937
463.583	7718
463.601	7770
463.663	7605
463.669	7793
463.737	10142
463.743	10375
463.805	14758
463.823	16025
463.873	23734
463.903	28631
463.940	31124
463.982	35185
464.008	29585
464.062	14369
464.076	13332
464.142	7032
464.144	6979
464.211	6827
464.221	6884
464.279	6885
464.301	6879
464.347	7942
464.381	8823
464.414	9356
464.461	10075
464.482	10559
464.540	11828
464.550	11605
464.617	9744
464.620	9669
464.685	10538
464.699	10691
464.753	12525
464.779	13608
464.820	14721
464.859	15538
464.888	14898
464.938	13855
464.956	14083
465.018	14632
465.023	14476
465.091	12192
465.098	11938
465.158	11802
465.177	11808
465.226	12004
465.257	12016
465.293	12122
465.336	12262
465.361	13182
465.416	15155
465.428	15944
465.495	20321
465.496	20410
465.563	29576
465.575	31176
465.631	38814
465.654	42365
465.698	29493
465.734	17714
465.765	16010
465.813	12908
465.833	12483
465.893	12308
465.900	12419
465.968	13255
465.972	13295
466.035	13231
466.052	13180
466.102	13634
466.131	13876
466.170	14165
466.210	14421
466.237	14688
466.290	15214
466.304	15533
466.369	16554
466.372	16625
466.439	18199
466.449	18368
466.506	19116
466.528	19376
466.573	23618
466.607	26734
466.641	35612
466.687	47943
466.708	53374
466.766	68441
466.775	64288
466.842	32185
466.845	30595
466.909	23083
466.925	21367
466.977	20842
467.004	20612
467.044	21441
467.083	22213
467.111	22940
467.163	24200
467.178	24958
467.242	27928
467.245	27859
467.312	25415
467.321	25049
467.379	23287
467.400	22579
467.446	23708
467.480	24454
467.559	22711
467.638	18997
467.717	20283
467.796	21577
467.875	23050
467.955	21226
468.034	25629
468.113	50246
468.192	74199
468.271	26378
468.350	16789
468.429	16809
468.508	16423
468.588	14445
468.667	16702
468.746	20061
468.825	20333
468.904	15729
468.983	16272
469.062	22973
469.141	29683
469.220	15038
469.299	14756
469.378	14936
469.456	19794
469.535	17558
469.614	16248
469.693	16925
469.772	20485
469.851	25696
469.930	22152
470.009	15675
470.088	15572
470.166	17266
470.245	22486
470.324	27202
470.403	22480
470.482	17372
470.560	16097
470.639	16683
470.718	19472
470.797	16308
470.875	17679
470.954	23310
471.033	27818
471.111	12679
471.190	12501
471.269	11580
471.347	11355
471.426	13935
471.505	14406
471.583	16934
471.662	15566
471.740	13470
471.819	13757
471.898	12958
471.976	13342
472.055	12112
472.133	15137
472.212	17076
472.290	19044
472.369	12867
472.447	11395
472.526	11153
472.604	13065
472.683	12580
472.761	13559
472.839	12748
472.918	13664
472.996	12568
473.075	13993
473.153	14310
473.231	12575
473.310	13971
473.388	15382
473.466	12862
473.545	15850
473.623	20212
473.701	21393
473.780	14215
473.858	13114
473.936	16724
474.014	14131
474.093	13354
474.171	18610
474.249	25137
474.327	18953
474.405	12005
474.484	11563
474.562	11967
474.640	12829
474.718	13539
474.796	14162
474.874	14496
474.952	12902
475.030	12018
475.108	13369
475.187	15997
475.265	16354
475.343	16274
475.421	18048
475.499	12919
475.577	13555
475.655	15531
475.733	28567
475.811	48566
475.889	46753
475.966	34088
476.044	11880
476.122	11375
476.200	14347
476.278	12936
476.356	10891
476.434	10138
476.512	12766
476.590	13405
476.667	14682
476.745	9802
476.823	11858
476.901	11639
476.979	10705
477.056	10885
477.134	13018
477.212	13435
477.290	12368
477.367	9885
477.445	9251
477.523	9339
477.601	9767
477.678	10041
477.756	12669
477.834	13280
477.911	9616
477.989	9860
478.066	10009
478.144	10493
478.222	10251
478.299	11888
478.377	14203
478.454	9538
478.532	9816
478.609	10253
478.687	11346
478.764	9247
478.842	11048
478.919	13600
478.997	11770
479.074	8183
479.152	11375
479.229	14087
479.307	10989
479.384	8042
479.461	8431
479.539	7931
479.616	11056
479.694	8969
479.771	10218
479.848	10905
479.926	13312
480.003	18227
480.080	9895
480.157	8259
480.235	8927
480.312	9284
480.389	10063
480.467	16773
480.544	21220
480.621	12370
480.698	10422
480.775	12411
480.853	12146
480.930	9697
481.007	10343
481.084	10753
481.161	13509
481.238	12126
481.315	8779
481.392	7902
481.470	9456
481.547	11243
481.624	9730
481.701	8203
481.778	8901
481.855	11169
481.932	14455
482.009	24425
482.086	19571
482.163	7984
482.240	10941
482.317	13721
482.393	13800
482.470	9261
482.547	9469
482.624	8383
482.701	8597
482.778	8939
482.855	8517
482.932	7489
483.009	7151
483.085	8547
483.162	11005
483.239	11114
483.316	8189
483.393	7413
483.469	8045
483.546	9153
483.623	11131
483.699	7922
483.776	9069
483.853	11143
483.930	15781
484.006	37520
484.083	68335
484.160	42062
484.236	56343
484.313	46391
484.389	32925
484.466	29610
484.543	27371
484.619	28014
484.696	28583
484.772	29522
484.849	32633
484.925	26949
485.002	26963
485.078	27642
485.155	29390
485.231	25534
485.308	24453
485.384	26229
485.461	29945
485.537	46494
485.614	58264
485.690	29299
485.766	25177
485.843	26645
485.919	36718
485.995	40442
486.072	23628
486.148	23171
486.224	21981
486.301	23487
486.377	26008
486.453	26779
486.530	26978
486.606	34556
486.682	39978
486.758	43107
486.835	50868
486.911	40049
486.987	60476
487.063	73827
487.139	92810
487.215	66815
487.292	34182
487.368	25274
487.444	28260
487.520	31285
487.596	28974
487.672	30701
487.748	49402
487.824	71031
487.900	39640
487.976	25995
488.052	26174
488.128	33412
488.204	29210
488.280	25116
488.356	27970
488.432	49815
488.508	79979
488.584	36441
488.660	24288
488.736	23165
488.812	24504
488.888	32115
488.964	41452
489.039	82254
489.115	137794
489.191	89667
489.267	26653
489.343	22667
489.418	19958
489.494	19503
489.570	17178
489.646	20167
489.722	20258
489.797	20088
489.873	27104
489.949	56828
490.024	58473
490.100	21163
490.176	19864
490.251	22359
490.327	31064
490.403	19578
490.478	18164
490.554	15379
490.629	15980
490.705	14766
490.781	17658
490.856	17535
490.932	21548
491.007	20781
491.083	20596
491.158	18504
491.234	21218
491.309	41697
491.385	49794
491.460	19630
491.536	20020
491.611	18106
491.686	20354
491.762	27043
491.837	53791
491.913	92602
491.988	122746
492.063	174436
492.139	50464
492.214	27481
492.289	15813
492.365	15172
492.440	20352
492.515	17343
492.590	16599
492.666	13485
492.741	18194
492.816	27502
492.891	18816
492.967	15575
493.042	14515
493.117	17338
493.192	20740
493.267	36668
493.342	137167
493.418	222055
493.493	43026
493.568	13316
493.643	13604
493.718	16483
493.793	23535
493.868	29903
493.943	20088
494.018	14568
494.093	12514
494.168	12402
494.243	11800
494.318	11031
494.393	11460
494.468	11317
494.543	11536
494.618	13773
494.693	12352
494.768	11494
494.842	12772
494.917	11103
494.992	12730
495.067	11243
495.142	11219
495.217	12619
495.292	13246
495.366	15195
495.441	18182
495.516	24277
495.591	33292
495.665	103627
495.740	279872
495.815	138408
495.890	22307
495.964	14675
496.039	16727
496.114	14299
496.188	16322
496.263	16997
496.338	15206
496.412	16994
496.487	21188
496.561	21671
496.636	24687
496.710	19431
496.785	20275
496.860	23479
496.934	19530
497.009	19396
497.083	19940
497.158	22035
497.232	23646
497.307	29303
497.381	27664
497.455	30126
497.530	39131
497.604	33101
497.679	34096
497.753	48578
497.827	64246
497.902	65278
497.976	72236
498.050	119590
498.125	396072
498.199	496401
498.273	108702
498.348	80733
498.422	68803
498.496	62516
498.570	56526
498.645	43201
498.719	40902
498.793	43461
498.867	53983
498.941	65067
499.016	146888
499.090	428672
499.164	208699
499.238	27597
499.312	22483
499.386	25361
499.460	24248
499.534	20146
499.609	24527
499.683	33010
499.757	34919
499.831	60779
499.905	251829
499.979	303989
500.053	48055
500.127	43196
500.201	34772
500.275	20412
500.349	18773
500.422	20909
500.496	31911
500.570	64191
500.644	142388
500.718	287803
500.792	89505
500.866	18685
500.940	22028
501.013	19636
501.087	18536
501.161	31711
501.235	40609
501.309	73238
501.382	220162
501.456	242568
501.530	51480
501.603	73778
501.677	37349
501.751	14479
501.825	18118
501.898	27259
501.972	86298
502.046	70415
502.119	18302
502.193	38116
502.266	97310
502.340	59290
502.413	38369
502.487	83795
502.561	55676
502.634	20009
502.708	16200
502.781	12485
502.855	11230
502.928	8186
503.002	9436
503.075	8083
503.149	11045
503.222	10332
503.295	11466
503.369	13909
503.442	19103
503.516	57502
503.589	170524
503.662	131469
503.736	36756
503.809	72350
503.882	71852
503.956	81588
504.029	92528
504.102	37027
504.175	38699
504.249	17944
504.322	13380
504.395	14099
504.468	10392
504.542	9356
504.615	7728
504.688	8305
504.761	7470
504.834	10794
504.907	13766
504.980	24688
505.053	13032
505.127	12908
505.200	18198
505.273	14846
505.346	10867
505.419	7692
505.492	8392
505.565	5856
505.638	6815
505.711	7173
505.784	6288
505.857	6300
505.930	7066
506.003	6652
506.076	8915
506.149	10406
506.221	14708
506.294	12971
506.367	29005
506.440	114314
506.513	84080
506.586	16650
506.659	10763
506.731	8366
506.804	10019
506.877	16000
506.950	11820
507.022	7732
507.095	9725
507.168	13911
507.241	9760
507.313	7479
507.386	8765
507.459	15059
507.531	10532
507.604	7516
507.677	8156
507.749	5006
507.822	11289
507.894	21626
507.967	28680
508.040	15866
508.112	13088
508.185	11853
508.257	10704
508.330	17180
508.402	12450
508.475	11595
508.547	11661
508.620	10863
508.692	18194
508.765	13389
508.837	8749
508.909	8086
508.982	9243
509.054	11849
509.127	10044
509.199	8679
509.271	8090
509.344	7980
509.416	8946
509.488	8158
509.560	9167
509.633	10159
509.705	12947
509.777	11709
509.849	17543
509.922	12736
509.994	10990
510.066	10475
510.138	10586
510.210	21481
510.283	21064
510.355	16552
510.427	15677
510.499	12756
510.571	13537
510.643	11832
510.715	20479
510.787	18680
510.859	14892
510.931	14372
511.003	19686
511.076	18602
511.148	11964
511.219	13201
511.291	18412
511.363	23416
511.435	13687
511.507	11321
511.579	10918
511.651	11502
511.723	10851
511.795	10177
511.867	10436
511.939	13084
512.010	25081
512.082	23700
512.154	12430
512.226	12297
512.298	17816
512.369	27321
512.441	20941
512.513	20191
512.585	15647
512.656	16314
512.728	17463
512.800	13891
512.871	13605
512.943	13442
513.015	11999
513.086	13299
513.158	14363
513.230	14647
513.301	22701
513.373	27377
513.444	15861
513.516	12453
513.588	12747
513.659	14102
513.731	18499
513.802	14816
513.874	27799
513.945	57521
514.016	22515
514.088	11493
514.159	13285
514.231	17877
514.302	24755
514.374	18362
514.445	16110
514.516	27977
514.588	25297
514.659	15998
514.730	26916
514.802	26420
514.873	23729
514.944	26436
515.016	20853
515.087	19742
515.158	21439
515.229	31377
515.301	25081
515.372	36967
515.443	28098
515.514	18030
515.585	14194
515.656	14306
515.728	12569
515.799	11632
515.870	13827
515.941	13779
516.012	13666
516.083	17996
516.154	20206
516.225	25018
516.296	25254
516.367	21371
516.438	23392
516.509	28070
516.580	37380
516.651	93051
516.722	363658
516.793	212166
516.864	43644
516.935	39522
517.006	42804
517.077	53877
517.148	109828
517.219	365548
517.289	703494
517.360	206730
517.431	75202
517.502	20996
517.573	19313
517.643	18405
517.714	20532
517.785	22002
517.856	22287
517.926	27399
517.997	32807
518.068	41968
518.138	54420
518.209	74287
518.280	241303
518.350	1009453
518.421	504702
518.492	56370
518.562	28409
518.633	24105
518.703	19395
518.774	24786
518.845	38232
518.915	40710
518.986	22927
519.056	23660
519.127	43306
519.197	64197
519.268	133863
519.338	104833
519.408	25315
519.479	29049
519.549	23698
519.620	16047
519.690	11460
519.760	11556
519.831	12028
519.901	12728
519.971	10826
520.042	12269
520.112	13804
520.182	16745
520.253	19342
520.323	13207
520.393	18568
520.463	31715
520.534	20042
520.604	44098
520.674	23005
520.744	18584
520.814	46802
520.885	48709
520.955	37611
521.025	147992
521.095	83346
521.165	15248
521.235	12520
521.305	10448
521.375	11368
521.445	11380
521.515	15463
521.585	18107
521.655	16533
521.725	15059
521.795	14732
521.865	7827
521.935	14752
522.005	14111
522.075	9030
522.145	10228
522.215	11019
522.285	17424
522.355	21691
522.424	40172
522.494	41492
522.564	20968
522.634	36314
522.704	115113
522.774	53375
522.843	13146
522.913	12203
522.983	16336
523.053	12738
523.122	12663
523.192	16112
523.262	60124
523.331	73956
523.401	15402
523.471	8720
523.540	10009
523.610	6850
523.680	6474
523.749	7473
523.819	9292
523.888	11414
523.958	7489
524.027	7863
524.097	7859
524.166	7165
524.236	10063
524.305	10750
524.375	7334
524.444	6567
524.514	9097
524.583	8715
524.653	9802
524.722	12173
524.791	8448
524.861	8780
524.930	6392
524.999	8341
525.069	11875
525.138	9369
525.207	11564
525.277	9173
525.346	8124
525.415	8605
525.484	7458
525.554	9102
525.623	9775
525.692	8699
525.761	8194
525.830	8510
525.900	8217
525.969	12085
526.038	15321
526.107	20864
526.176	56649
526.245	54347
526.314	28861
526.383	38881
526.452	46633
526.522	70796
526.591	98067
526.660	65982
526.729	33129
526.797	29241
526.867	57137
526.935	271890
527.004	309629
527.073	151287
527.142	20338
527.211	12284
527.280	12076
527.349	13858
527.418	6660
527.487	7962
527.555	6441
527.624	6516
527.693	4370
527.762	6653
527.831	5671
527.899	6763
527.968	6374
528.037	5828
528.106	9734
528.174	19892
528.243	15105
528.312	19193
528.380	32821
528.449	9972
528.518	7324
528.586	3383
528.655	5680
528.723	5338
528.792	4615
528.861	5907
528.929	4714
528.998	5875
529.066	4567
529.135	5263
529.203	4176
529.272	4883
529.340	5737
529.409	6648
529.477	5553
529.545	7228
529.614	10391
529.682	8815
529.751	11953
529.819	13274
529.887	9659
529.956	5752
530.024	6895
530.092	5089
530.161	7404
530.229	14243
530.297	8374
530.365	6956
530.434	4772
530.502	4325
530.570	5514
530.638	3916
530.707	5559
530.775	7347
530.843	4678
530.911	5257
530.979	4980
531.047	5330
531.115	5185
531.183	4141
531.252	5057
531.320	5562
531.388	4410
531.456	5672
531.524	3749
531.592	5787
531.660	7804
531.728	4797
531.796	4565
531.864	5061
531.932	5561
532.000	5860
532.067	5846
532.135	7361
532.203	9590
532.271	9316
532.339	16978
532.407	51233
532.475	36541
532.542	15039
532.610	14076
532.678	17718
532.746	69091
532.814	218526
532.881	62741
532.949	12348
533.017	8325
533.084	5990
533.152	6186
533.220	6987
533.287	7484
533.355	6102
533.423	5480
533.490	5562
533.558	5969
533.625	7485
533.693	7740
533.761	8033
533.828	8133
533.896	7748
533.963	17243
534.031	23582
534.098	27861
534.166	15534
534.233	7274
534.300	9005
534.368	8553
534.435	7876
534.503	7827
534.570	8396
534.637	8072
534.705	6593
534.772	6628
534.840	9005
534.907	27183
534.974	38575
535.041	9959
535.109	9488
535.176	6766
535.243	6593
535.310	6796
535.378	5789
535.445	5334
535.512	5742
535.579	5601
535.646	4520
535.714	6552
535.781	8317
535.848	8445
535.915	9697
535.982	10330
536.049	9124
536.116	10194
536.183	8515
536.250	8542
536.317	8678
536.384	10586
536.451	16330
536.518	18082
536.585	11384
536.652	14445
536.719	22293
536.786	18498
536.853	13042
536.920	18837
536.987	32801
537.053	26518
537.120	92445
537.187	100336
537.254	10695
537.321	7099
537.388	8202
537.454	5869
537.521	6038
537.588	5525
537.654	7014
537.721	8660
537.788	8803
537.855	5875
537.921	8511
537.988	6896
538.055	8293
538.121	7785
538.188	9274
538.254	14166
538.321	33230
538.388	21340
538.454	9838
538.521	8110
538.587	6379
538.654	6179
538.720	6008
538.787	5620
538.853	6855
538.920	8914
538.986	10130
539.053	8041
539.119	7984
539.185	8304
539.252	10421
539.318	16917
539.385	12960
539.451	10651
539.517	11639
539.583	11704
539.650	24235
539.716	74697
539.782	26046
539.849	8394
539.915	8909
539.981	8654
540.047	12454
540.114	9789
540.180	11103
540.246	10021
540.312	14325
540.378	31252
540.444	34489
540.510	27056
540.576	84725
540.643	32868
540.709	9241
540.775	8507
540.841	7629
540.907	11674
540.973	20587
541.039	19266
541.105	20639
541.171	10746
541.237	8851
541.303	9971
541.369	12053
541.435	14352
541.500	28143
541.566	17650
541.632	9132
541.698	7667
541.764	8111
541.830	6665
541.896	7263
541.961	7021
542.027	6944
542.093	8409
542.159	9044
542.224	10546
542.290	15704
542.356	27189
542.421	35265
542.487	14607
542.553	10630
542.618	10249
542.684	10028
542.750	8712
542.815	10636
542.881	16731
542.947	66095
543.012	60437
543.078	9797
543.143	7704
543.209	8936
543.274	8363
543.340	10417
543.405	22722
543.471	43614
543.536	11902
543.602	8538
543.667	6752
543.732	7428
543.798	6453
543.863	7718
543.928	6111
543.994	6298
544.059	6944
544.124	7526
544.190	7306
544.255	7862
544.320	8589
544.386	8768
544.451	13675
544.516	16825
544.581	14319
544.646	38688
544.712	75566
544.777	16792
544.842	10072
544.907	10424
544.972	8553
545.037	8205
545.102	9874
545.168	9651
545.233	9999
545.298	12279
545.363	12715
545.428	15076
545.493	25088
545.558	59040
545.623	28094
545.688	10587
545.753	9923
545.818	9265
545.883	9963
545.947	8895
546.012	10015
546.077	10856
546.142	10961
546.207	10204
546.272	14162
546.337	15945
546.401	12357
546.466	10740
546.531	8454
546.596	11029
546.661	10426
546.725	10398
546.790	7624
546.855	8222
546.919	7679
546.984	9858
547.049	9134
547.113	12598
547.178	9871
547.243	11546
547.307	12218
547.372	15693
547.436	16270
547.501	11492
547.565	11914
547.630	15644
547.695	15758
547.759	16147
547.823	15075
547.888	11035
547.952	9807
548.017	10697
548.081	13632
548.146	18761
548.210	17241
548.274	11549
548.339	10375
548.403	10743
548.468	9936
548.532	9762
548.596	10425
548.660	10455
548.725	10876
548.789	14035
548.853	16314
548.917	12049
548.982	15161
549.046	17707
549.110	10672
549.174	10082
549.238	9499
549.303	10060
549.367	11212
549.431	10185
549.495	9835
549.559	10001
549.623	10844
549.687	12184
549.751	18976
549.815	15027
549.879	13139
549.943	10686
550.007	12334
550.071	12410
550.135	16292
550.199	14307
550.263	12721
550.327	13436
550.391	18452
550.455	15656
550.519	12945
550.582	14852
550.646	17992
550.710	20313
550.774	14958
550.838	13419
550.901	14277
550.965	15238
551.029	15035
551.093	18150
551.156	22389
551.220	39850
551.284	49161
551.347	24809
551.411	42709
551.475	60744
551.538	18470
551.602	14158
551.666	12625
551.729	12149
551.793	12135
551.856	12674
551.920	12681
551.983	12585
552.047	12062
552.110	12287
552.174	11652
552.237	12204
552.301	12002
552.364	11167
552.428	11350
552.491	11988
552.554	13079
552.618	12632
552.681	14193
552.745	14385
552.808	22329
552.871	33138
552.934	22325
552.998	14954
553.061	14555
553.124	14798
553.187	13925
553.251	15954
553.314	17132
553.377	17411
553.440	25306
553.503	74853
553.567	164273
553.630	38925
553.693	14711
553.756	13140
553.819	11074
553.882	11701
553.945	10792
554.008	11229
554.071	9905
554.134	11585
554.197	9997
554.260	10874
554.323	11094
554.386	11166
554.449	11551
554.512	11348
554.575	10049
554.638	10650
554.701	10024
554.764	10333
554.827	10204
554.889	8910
554.952	8678
555.015	9332
555.078	8524
555.141	9836
555.203	8787
555.266	8979
555.329	9654
555.391	9234
555.454	10118
555.517	10116
555.580	8886
555.642	8974
555.705	8415
555.768	10230
555.830	9575
555.893	8659
555.955	9369
556.018	9012
556.080	8526
556.143	8989
556.206	8564
556.268	9429
556.330	10201
556.393	10687
556.455	9876
556.518	15271
556.580	18131
556.643	9230
556.705	9398
556.767	8080
556.830	9179
556.892	10817
556.955	19190
557.017	15729
557.079	9487
557.142	9625
557.204	10949
557.266	25369
557.328	23771
557.391	8788
557.453	7645
557.515	8181
557.577	9690
557.639	13270
557.701	8466
557.764	7900
557.826	7559
557.888	8821
557.950	8358
558.012	8447
558.074	10075
558.136	16856
558.198	39941
558.260	21430
558.322	9960
558.384	11701
558.446	13114
558.508	14618
558.570	19322
558.632	32631
558.694	53456
558.756	36412
558.818	79966
558.880	235075
558.942	86496
559.003	44814
559.065	27911
559.127	14517
559.189	13005
559.251	14802
559.312	17730
559.374	35431
559.436	126952
559.498	81271
559.559	15506
559.621	13700
559.683	13404
559.744	21259
559.806	56682
559.868	97307
559.929	25367
559.991	15452
560.052	17210
560.114	39849
560.176	32509
560.237	24920
560.299	44352
560.360	16739
560.422	8500
560.483	9718
560.545	8555
560.606	8320
560.667	8119
560.729	8069
560.790	7758
560.852	8742
560.913	8267
560.974	7923
561.036	7595
561.097	8812
561.158	9264
561.220	9174
561.281	8578
561.342	9869
561.403	11433
561.465	14935
561.526	34495
561.587	56859
561.648	16677
561.709	8993
561.771	8854
561.832	8571
561.893	8584
561.954	8515
562.015	7175
562.076	8685
562.137	8548
562.198	8078
562.259	8220
562.320	8084
562.381	9555
562.442	15470
562.503	13363
562.564	9386
562.625	8274
562.686	8068
562.747	9023
562.808	8950
562.869	8622
562.930	10965
562.991	10416
563.051	9513
563.112	9091
563.173	8413
563.234	8147
563.294	8624
563.355	8410
563.416	9300
563.477	9321
563.537	8828
563.598	10515
563.659	9055
563.720	9395
563.780	10951
563.841	10853
563.901	10014
563.962	8550
564.023	9472
564.083	9483
564.144	10393
564.204	10228
564.265	9693
564.325	11564
564.386	21730
564.446	24310
564.507	9616
564.567	9270
564.628	9938
564.688	9019
564.749	9498
564.809	10435
564.869	14389
564.930	11243
564.990	10587
565.050	9617
565.111	9969
565.171	8656
565.231	9336
565.292	9877
565.352	8464
565.412	10027
565.472	10910
565.532	11016
565.593	11479
565.653	10125
565.713	10657
565.773	11707
565.833	13635
565.893	18160
565.953	13585
566.013	12413
566.074	13189
566.134	16339
566.194	24415
566.254	26817
566.314	19609
566.374	13690
566.434	15355
566.494	15661
566.554	15818
566.614	16104
566.673	17031
566.733	18755
566.793	18264
566.853	19922
566.913	20845
566.973	22243
567.033	22010
567.092	20274
567.152	20357
567.212	21167
567.272	22439
567.331	23890
567.391	24780
567.451	25452
567.511	31069
567.570	32938
567.630	24431
567.690	22353
567.749	23741
567.809	26460
567.868	28727
567.928	33663
567.988	40145
568.047	47397
568.107	57429
568.166	78009
568.226	116597
568.285	165115
568.345	165619
568.404	141111
568.464	118701
568.523	107333
568.582	104598
568.642	113399
568.701	135782
568.761	183215
568.820	274002
568.879	308878
568.939	256024
568.998	192036
569.057	143684
569.116	111595
569.176	88417
569.235	72560
569.294	60266
569.353	51142
569.413	45385
569.472	39968
569.531	35815
569.590	30458
569.649	29195
569.708	26240
569.767	24469
569.827	24042
569.886	23012
569.945	19892
570.004	19028
570.063	17527
570.122	17838
570.181	17512
570.240	17534
570.299	17808
570.358	18051
570.417	14283
570.475	13612
570.534	13080
570.593	14566
570.652	13531
570.711	14758
570.770	12184
570.829	14966
570.887	14483
570.946	14786
571.005	10905
571.064	11358
571.122	11581
571.181	12451
571.240	10843
571.299	10261
571.357	10849
571.416	11033
571.475	11754
571.533	12844
571.592	10472
571.650	11498
571.709	9251
571.768	9065
571.826	8881
571.885	8660
571.943	8501
572.002	9015
572.060	8564
572.119	8334
572.177	7859
572.236	7889
572.294	7589
572.352	9004
572.411	7799
572.469	7667
572.528	7583
572.586	8639
572.644	8754
572.703	12175
572.761	8589
572.819	8570
572.877	8551
572.936	7777
572.994	8207
573.052	7590
573.110	8397
573.169	8556
573.227	7150
573.285	7333
573.343	6674
573.401	7900
573.459	7880
573.517	6386
573.576	8353
573.634	7586
573.692	7922
573.750	8109
573.808	6663
573.866	7459
573.924	10475
573.982	10225
574.040	7994
574.098	7289
574.155	7294
574.213	7229
574.271	5699
574.329	7616
574.387	6228
574.445	6696
574.503	5958
574.560	6273
574.618	6716
574.676	6527
574.734	6273
574.792	6403
574.849	6265
574.907	5847
574.965	6758
575.022	5453
575.080	6159
575.138	7314
575.195	7348
575.253	7201
575.311	8095
575.368	7217
575.426	6325
575.483	7304
575.541	6384
575.598	7335
575.656	7029
575.713	6624
575.771	7386
575.828	6188
575.886	6918
575.943	8224
576.001	7342
576.058	6810
576.115	7380
576.173	8745
576.230	10449
576.287	10807
576.345	9500
576.402	8139
576.459	7379
576.517	7367
576.574	8385
576.631	9466
576.688	7970
576.746	7810
576.803	7817
576.860	6893
576.917	7789
576.974	7955
577.031	7413
577.089	7968
577.146	7758
577.203	7821
577.260	7876
577.317	9535
577.374	9390
577.431	9702
577.488	8763
577.545	7366
577.602	6845
577.659	8355
577.716	7872
577.773	10332
577.830	9310
577.886	7806
577.943	7257
578.000	8010
578.057	8753
578.114	9778
578.171	9545
578.227	12719
578.284	13990
578.341	12270
578.398	11139
578.454	11123
578.511	9620
578.568	11868
578.625	9119
578.681	9125
578.738	7178
578.794	8161
578.851	8505
578.908	8797
578.964	7576
579.021	8032
579.077	7861
579.134	8727
579.190	7615
579.247	7547
579.303	7503
579.360	7668
579.416	7309
579.473	7579
579.529	7208
579.586	8326
579.642	7732
579.698	7488
579.755	9760
579.811	9624
579.867	10352
579.924	9572
579.980	9974
580.036	11097
580.093	12654
580.149	18222
580.205	20827
580.261	17004
580.317	14024
580.374	12550
580.430	12137
580.486	12141
580.542	10444
580.598	10438
580.619	10230
580.654	9874
580.692	9529
580.710	9376
580.765	9353
580.767	9359
580.823	9180
580.838	8959
580.879	8414
580.911	8394
580.935	8382
580.984	8554
580.991	8583
581.047	9293
581.057	9203
581.103	8856
581.130	9665
581.159	10525
581.203	10734
581.215	10784
581.270	11643
581.276	11496
581.326	10227
581.349	10046
581.382	9735
581.422	9676
581.438	9657
581.494	9862
581.494	9851
581.550	9282
581.567	9478
581.606	9818
581.640	9534
581.661	9391
581.713	10158
581.717	10226
581.773	9311
581.786	9270
581.829	9041
581.859	9196
581.885	9404
581.932	9750
581.940	9803
581.996	9873
582.004	9839
582.052	9627
582.077	9376
582.107	9158
582.150	9699
582.163	9858
582.219	9569
582.223	9650
582.274	10616
582.296	10267
582.330	9690
582.368	10036
582.386	10234
582.441	10189
582.441	10190
582.497	9717
582.514	10144
582.552	11225
582.587	12227
582.608	12750
582.659	11419
582.663	11311
582.719	10917
582.732	10753
582.774	10461
582.805	10733
582.830	10861
582.877	11479
582.885	11585
582.941	11412
582.950	11405
582.996	11300
583.023	11757
583.052	12516
583.095	12810
583.107	12849
583.162	14363
583.168	14557
583.218	16299
583.240	15710
583.273	14610
583.313	13824
583.328	13579
583.384	13479
583.385	13448
583.439	12333
583.458	12415
583.494	12851
583.531	12198
583.549	11788
583.603	12034
583.605	12043
583.660	11909
583.676	12102
583.715	12619
583.748	12576
583.770	12652
583.820	13486
583.825	13517
583.881	12824
583.893	12591
583.936	12086
583.965	12555
583.991	12914
584.038	12541
584.046	12525
584.101	12843
584.110	12948
584.156	13055
584.183	13172
584.211	13425
584.255	13550
584.266	13578
584.321	13884
584.328	13878
584.376	13889
584.400	13899
584.431	13885
584.472	14252
584.486	14376
584.541	13682
584.545	13728
584.596	14427
584.617	14451
584.651	14882
584.689	15617
584.706	15693
584.761	15497
584.762	15496
584.816	16105
584.834	16145
584.871	16049
584.906	16369
584.926	16620
584.978	16290
584.980	16272
585.035	17179
585.051	17200
585.090	17685
585.123	18285
585.145	18553
585.195	19600
585.200	19726
585.254	20671
585.267	21276
585.309	24140
585.340	26660
585.364	27904
585.412	25545
585.419	25024
585.473	23134
585.484	22925
585.528	23982
585.556	25295
585.583	27002
585.628	31450
585.637	33013
585.692	48008
585.700	51311
585.747	67456
585.772	62171
585.801	49298
585.845	32128
585.856	29172
585.910	25328
585.917	24946
585.965	24651
585.989	24901
586.019	25136
586.061	24668
586.074	24685
586.128	25727
586.133	25869
586.183	27761
586.205	28236
586.237	28430
586.277	28783
586.292	28882
586.346	28653
586.349	28645
586.401	29323
586.421	29759
586.455	30456
586.493	31635
586.509	33252
586.564	39457
586.565	39682
586.618	52993
586.637	55168
586.672	50833
586.709	41960
586.727	38736
586.781	36254
586.781	36269
586.835	36509
586.853	36612
586.889	37222
586.925	37342
586.944	37603
586.996	39758
586.998	39831
587.052	41698
587.068	42023
587.106	42800
587.140	43808
587.161	44578
587.212	46725
587.215	46875
587.269	49669
587.284	50196
587.323	51537
587.356	53286
587.377	54663
587.427	57989
587.431	58230
587.485	60390
587.499	61174
587.539	64297
587.571	66723
587.593	68128
587.643	71921
587.648	72461
587.702	77829
587.715	79187
587.755	83916
587.786	88013
587.810	91084
587.858	97237
587.864	98156
587.917	107038
587.930	109419
587.971	119428
588.001	126593
588.025	131819
588.073	143617
588.079	145663
588.133	163559
588.145	168004
588.187	184354
588.217	196344
588.241	208452
588.288	234107
588.295	238221
588.348	275699
588.360	284094
588.402	320715
588.431	348263
588.456	374382
588.503	428977
588.510	438929
588.564	524634
588.575	544275
588.617	638889
588.646	710104
588.671	794322
588.718	970617
588.725	1008196
588.778	1319920
588.789	1384826
588.832	1670479
588.861	1845364
588.886	1904937
588.932	1918233
588.939	1897052
588.993	1692456
589.004	1683559
589.047	1870844
589.075	1963096
589.100	1870244
589.147	1588599
589.154	1547579
589.207	1222241
589.218	1161954
589.261	1043840
589.290	980014
589.314	990640
589.361	1034665
589.368	1060734
589.421	1306983
589.433	1362900
589.475	1632426
589.504	1800978
589.528	1825529
589.576	1780355
589.582	1773244
589.635	1784030
589.647	1772873
589.689	1526892
589.718	1304499
589.742	1114799
589.790	757905
589.795	735598
589.849	550051
589.861	510285
589.902	434156
589.932	382018
589.955	350904
590.004	287893
590.009	283657
590.062	240795
590.075	230709
590.115	209686
590.146	194091
590.168	185764
590.218	168168
590.222	166937
590.275	150125
590.289	145991
590.328	137312
590.360	129675
590.381	125502
590.431	116078
590.435	115616
590.488	106704
590.503	104180
590.541	100245
590.574	96769
590.594	94296
590.645	87874
590.647	87752
590.700	82626
590.716	80988
590.753	78014
590.787	75241
590.806	74143
590.859	71136
590.859	71156
590.912	67719
590.930	66575
590.965	64882
591.001	63079
591.018	62345
591.071	60045
591.072	59953
591.124	58444
591.143	57896
591.177	56481
591.214	54725
591.230	54748
591.283	54815
591.285	54739
591.336	52754
591.356	51885
591.389	51713
591.427	51348
591.442	50571
591.495	47501
591.498	47196
591.547	45771
591.569	45171
591.600	44649
591.640	43641
591.653	43640
591.706	43549
591.711	43471
591.759	43392
591.782	43239
591.811	44363
591.853	45924
591.864	45236
591.917	41143
591.924	40507
591.969	39564
591.995	38862
592.022	38569
592.066	38018
592.075	38437
592.127	40637
592.137	40991
592.180	43222
592.208	44486
592.233	42433
592.279	38233
592.285	37932
592.338	34940
592.350	34194
592.390	34388
592.421	34470
592.443	34684
592.491	34948
592.495	34953
592.548	34167
592.562	33892
592.600	32915
592.633	31979
592.653	31769
592.704	30929
592.705	31111
592.775	31389
592.846	31805
592.916	31238
592.987	33208
593.058	31274
593.128	29131
593.199	28119
593.270	27320
593.341	27311
593.411	28510
593.482	27414
593.553	28089
593.623	25982
593.694	26660
593.764	28307
593.835	26456
593.906	24760
593.976	25124
594.047	25741
594.117	30217
594.188	30150
594.258	24548
594.329	22880
594.399	24231
594.470	23658
594.540	22572
594.611	23733
594.681	23502
594.751	22869
594.822	24653
594.892	25482
594.963	24596
595.033	22740
595.103	23705
595.174	25432
595.244	34117
595.314	42422
595.384	25891
595.455	22602
595.525	23034
595.595	22149
595.665	23096
595.736	22264
595.806	21230
595.876	21371
595.946	21886
596.016	20820
596.087	22259
596.157	21498
596.227	21389
596.297	20825
596.367	22081
596.437	23970
596.507	29688
596.577	39081
596.647	25194
596.717	20376
596.787	21720
596.857	21531
596.927	21400
596.997	20497
597.067	21209
597.137	23948
597.207	23137
597.277	21134
597.347	21442
597.417	21273
597.487	22221
597.557	21510
597.626	21873
597.696	22712
597.766	27362
597.836	36042
597.906	25374
597.975	21031
598.045	20316
598.115	19616
598.185	20157
598.254	22006
598.324	22612
598.394	22255
598.464	22153
598.533	21871
598.603	20453
598.672	21010
598.742	20757
598.812	19493
598.881	20941
598.951	19106
599.020	19704
599.090	18940
599.159	20157
599.229	19295
599.299	19653
599.368	18861
599.437	19613
599.507	19745
599.576	20087
599.646	22032
599.715	23319
599.785	20386
599.854	20533
599.924	22730
599.993	20970
600.062	18779
600.132	19273
600.201	19565
600.270	22727
600.340	20932
600.409	19542
600.478	18763
600.547	19762
600.617	19767
600.686	19586
600.755	19003
600.824	20516
600.894	19054
600.963	18667
601.032	17892
601.101	18585
601.170	18075
601.239	17633
601.308	18761
601.378	18260
601.447	16875
601.516	17831
601.585	17932
601.654	18474
601.723	18991
601.792	18853
601.861	19697
601.930	23952
601.999	22466
602.068	19523
602.137	18753
602.206	18706
602.275	19177
602.343	21166
602.412	22460
602.481	19281
602.550	18354
602.619	19118
602.688	18444
602.756	18386
602.825	17736
602.894	18754
602.963	17756
603.032	18409
603.100	17250
603.169	17736
603.238	18450
603.307	18372
603.375	18033
603.444	17916
603.513	18007
603.581	17767
603.650	17755
603.719	17337
603.787	16496
603.856	17194
603.924	17594
603.993	18653
604.061	17500
604.130	17507
604.198	19029
604.267	18389
604.335	17846
604.404	18251
604.472	17442
604.541	18862
604.609	18550
604.678	18689
604.746	17857
604.815	19109
604.883	19419
604.951	18813
605.020	18377
605.088	19193
605.156	17933
605.225	17293
605.293	16767
605.361	17860
605.429	18423
605.498	19030
605.566	19218
605.634	19230
605.702	17968
605.771	19168
605.839	18961
605.907	19327
605.975	18103
606.043	18617
606.111	18911
606.180	19768
606.248	21949
606.316	25840
606.384	20124
606.452	23047
606.520	23144
606.588	19597
606.656	16768
606.724	17121
606.792	15492
606.860	15564
606.928	14416
606.996	15350
607.064	13530
607.132	14256
607.200	15336
607.267	15557
607.335	14081
607.403	15738
607.471	15409
607.539	15513
607.607	14908
607.674	14814
607.742	15094
607.810	15930
607.878	14186
607.946	14609
608.013	14136
608.081	15720
608.149	14727
608.216	14648
608.284	14823
608.352	14863
608.419	15149
608.487	22637
608.555	18426
608.622	13973
608.690	14730
608.757	15924
608.825	15939
608.893	15967
608.960	17566
609.028	21283
609.095	24538
609.163	18236
609.230	16135
609.298	16047
609.365	13370
609.432	14644
609.500	15206
609.567	17291
609.635	17328
609.702	18743
609.769	17419
609.837	19949
609.904	17045
609.971	15557
610.039	19021
610.106	25427
610.173	42873
610.241	96535
610.308	124280
610.375	86158
610.442	28508
610.509	18049
610.577	17381
610.644	15159
610.711	14394
610.778	15380
610.845	15734
610.912	16298
610.980	19481
611.047	26634
611.114	21872
611.181	15896
611.248	14038
611.315	16474
611.382	15378
611.449	16313
611.516	15952
611.583	16571
611.650	16210
611.717	16919
611.784	16457
611.851	17732
611.918	19617
611.984	22786
612.051	30835
612.118	59164
612.185	141789
612.252	117756
612.319	27197
612.386	19987
612.452	18715
612.519	21215
612.586	25818
612.653	22898
612.719	18906
612.786	17187
612.853	15700
612.919	14448
612.986	16554
613.053	15648
613.120	14265
613.186	13302
613.253	15930
613.319	15653
613.386	15446
613.453	16780
613.519	17157
613.586	21048
613.652	28715
613.719	23916
613.785	22685
613.852	16789
613.918	16585
613.985	20963
614.051	32139
614.118	72240
614.184	85867
614.250	25030
614.317	16786
614.383	16199
614.449	14125
614.516	15343
614.582	16571
614.648	15913
614.715	14434
614.781	15435
614.847	15516
614.914	16583
614.980	16382
615.046	16593
615.112	15695
615.179	18210
615.245	21173
615.311	28201
615.377	49173
615.443	63443
615.509	35804
615.575	23624
615.642	20946
615.708	21814
615.774	23680
615.840	27443
615.906	35487
615.972	55992
616.038	111158
616.104	165505
616.170	221039
616.236	222017
616.302	53683
616.368	31642
616.434	24025
616.500	23066
616.565	21992
616.631	25355
616.697	21942
616.763	21639
616.829	27215
616.895	43749
616.961	45323
617.026	26150
617.092	18387
617.158	17793
617.224	16754
617.289	17498
617.355	16015
617.421	15875
617.487	17055
617.552	15705
617.618	14083
617.684	14450
617.749	16242
617.815	14244
617.880	14324
617.946	14318
618.012	13926
618.077	15405
618.143	14548
618.208	14718
618.274	14926
618.339	16780
618.405	14312
618.470	15722
618.536	15528
618.601	17471
618.667	15700
618.732	15938
618.798	15248
618.863	14528
618.928	13771
618.994	16371
619.059	17854
619.124	23366
619.190	20361
619.255	15426
619.320	15152
619.386	14373
619.451	13748
619.516	14928
619.581	14484
619.647	15097
619.712	14599
619.777	15179
619.842	14364
619.907	15275
619.972	14608
620.038	15248
620.103	14072
620.168	13477
620.233	13861
620.298	13659
620.363	13635
620.428	14326
620.493	14324
620.558	14320
620.623	13150
620.688	14123
620.753	12916
620.818	13943
620.883	14110
620.948	13749
621.013	13913
621.078	15558
621.143	13291
621.207	17336
621.272	16323
621.337	17873
621.402	18281
621.467	23591
621.532	25799
621.596	19056
621.661	17443
621.726	16246
621.791	16518
621.855	17462
621.920	18427
621.985	19064
622.049	22898
622.114	21198
622.179	17978
622.243	19116
622.308	16703
622.373	18838
622.437	17928
622.502	17603
622.566	17424
622.631	17150
622.695	18199
622.760	17023
622.824	16877
622.889	18201
622.953	19206
623.018	26742
623.082	29002
623.147	18600
623.211	18110
623.276	18198
623.340	16213
623.404	16351
623.469	16506
623.533	16960
623.597	15210
623.662	16841
623.726	15997
623.790	15989
623.854	15310
623.919	16573
623.983	15786
624.047	15629
624.111	15424
624.176	16294
624.240	15467
624.304	19313
624.368	15931
624.432	16982
624.496	16793
624.560	18549
624.625	19032
624.689	16957
624.753	15385
624.817	16636
624.881	14266
624.945	15766
625.009	15815
625.073	15314
625.137	16045
625.201	19508
625.265	20933
625.329	16923
625.393	17333
625.456	16678
625.520	16081
625.584	19159
625.648	22720
625.712	33084
625.776	79521
625.839	100256
625.903	44902
625.967	20321
626.031	32054
626.095	54733
626.158	22150
626.222	14017
626.286	13791
626.349	12470
626.413	12851
626.477	15233
626.540	13135
626.604	12740
626.668	13471
626.731	12151
626.795	12671
626.858	13372
626.922	11614
626.986	12399
627.049	11312
627.113	11672
627.176	11776
627.240	11807
627.303	12116
627.366	11035
627.430	11230
627.493	12510
627.557	11671
627.620	12874
627.684	11752
627.747	12061
627.810	10116
627.874	11611
627.937	10223
628.000	13540
628.064	12460
628.127	9719
628.190	11583
628.253	12026
628.317	11339
628.380	10721
628.443	10358
628.506	12005
628.569	10331
628.632	10226
628.696	9742
628.759	9892
628.822	9291
628.885	9631
628.948	10470
629.011	10223
629.074	9710
629.137	9181
629.200	9810
629.263	11658
629.326	9124
629.389	10643
629.452	9713
629.515	10777
629.578	9489
629.641	10927
629.704	10586
629.767	10991
629.830	10132
629.892	9491
629.955	9474
630.018	11055
630.081	10577
630.144	14942
630.207	9707
630.269	12000
630.332	11724
630.395	10849
630.458	9573
630.520	8650
630.583	9437
630.646	8461
630.708	7719
630.771	7196
630.834	9011
630.896	8084
630.959	8368
631.021	8219
631.084	8461
631.146	10245
631.209	11751
631.272	10050
631.334	7861
631.397	8150
631.459	8430
631.522	9147
631.584	8792
631.646	9198
631.709	9172
631.771	11611
631.834	10241
631.896	8651
631.958	7026
632.021	8277
632.083	7237
632.145	9256
632.208	7690
632.270	9914
632.332	7408
632.395	7773
632.457	8529
632.519	8680
632.581	8640
632.643	7098
632.706	7362
632.768	7046
632.830	7466
632.892	6887
632.954	7514
633.016	8121
633.078	7699
633.141	6928
633.203	6649
633.265	8310
633.327	7239
633.389	6979
633.451	9022
633.513	10605
633.575	10609
633.637	9566
633.698	9378
633.760	7906
633.822	7043
633.884	8281
633.946	7449
634.008	7682
634.070	8282
634.132	10015
634.193	9438
634.255	7736
634.317	7484
634.379	8768
634.441	8044
634.502	8087
634.564	8748
634.626	9894
634.687	11907
634.749	9757
634.811	7730
634.873	6215
634.934	6124
634.996	8083
635.057	6743
635.119	6520
635.181	6647
635.242	7624
635.304	5527
635.365	8652
635.427	6969
635.488	7803
635.550	6022
635.611	8017
635.673	5239
635.734	8217
635.796	6190
635.857	8712
635.918	6970
635.980	7931
636.041	7296
636.102	7970
636.164	7648
636.225	8247
636.286	6731
636.348	7814
636.409	6682
636.470	7339
636.531	6926
636.593	8248
636.654	6719
636.715	6742
636.776	5527
636.838	5891
636.899	6868
636.960	7087
637.021	6490
637.082	7922
637.143	7277
637.204	5872
637.265	5143
637.326	6704
637.387	6212
637.448	5833
637.509	5291
637.570	6214
637.631	6011
637.692	5799
637.753	4149
637.814	5579
637.875	5098
637.936	6163
637.997	5308
638.058	6751
638.119	6591
638.179	6217
638.240	4678
638.301	6145
638.362	5267
638.423	5815
638.483	6080
638.544	5697
638.605	5207
638.666	4988
638.726	5564
638.787	6721
638.848	4981
638.908	5945
638.969	5366
639.030	5991
639.090	4313
639.151	5135
639.211	5957
639.272	7441
639.332	13007
639.393	9430
639.453	5624
639.514	5690
639.574	4909
639.635	5785
639.695	5538
639.756	4738
639.816	6033
639.877	7085
639.937	10690
639.997	16029
640.058	6269
640.118	4913
640.178	5405
640.239	5460
640.299	3791
640.359	4099
640.420	4576
640.480	5506
640.540	4836
640.600	4471
640.661	4520
640.721	5064
640.781	8249
640.841	6058
640.901	5811
640.961	5884
641.021	5812
641.082	5490
641.142	8806
641.202	7722
641.262	3970
641.322	5585
641.382	3966
641.442	5530
641.502	4938
641.562	4946
641.622	4364
641.682	5525
641.742	4354
641.802	5604
641.861	5501
641.921	6418
641.981	6832
642.041	6999
642.101	7472
642.161	5017
642.221	3609
642.280	4316
642.340	4008
642.400	3678
642.460	4900
642.519	4873
642.579	4064
642.639	5830
642.698	1490
642.758	6537
642.818	4925
642.877	4311
642.937	3712
642.997	5280
643.056	7396
643.116	4557
643.175	5234
643.235	3997
643.294	3470
643.354	4187
643.414	4778
643.473	5912
643.532	5362
643.592	7167
643.651	9383
643.711	15972
643.770	27620
643.830	58584
643.889	152616
643.948	52559
644.008	8885
644.067	6070
644.126	4581
644.186	4322
644.245	5069
644.304	3622
644.363	4725
644.423	3184
644.482	3916
644.541	4270
644.600	2721
644.659	5076
644.719	3585
644.778	5689
644.837	6465
644.896	12176
644.955	26365
645.014	14257
645.073	6757
645.132	5274
645.191	4628
645.250	4356
645.309	4927
645.368	4167
645.427	4820
645.486	4216
645.545	7437
645.604	4248
645.663	4343
645.722	4158
645.781	4346
645.840	4390
645.898	5461
645.957	7435
646.016	7247
646.075	13251
646.134	23255
646.192	54562
646.251	105654
646.310	21849
646.369	5665
646.427	5002
646.486	3819
646.545	4798
646.603	3455
646.662	4276
646.721	3790
646.779	3370
646.838	2536
646.896	5039
646.955	3879
647.014	6366
647.072	6362
647.131	15790
647.189	11567
647.248	3712
647.306	4379
647.365	4137
647.423	1538
647.481	5216
647.540	1497
647.598	3537
647.657	3393
647.715	4317
647.773	1960
647.832	4096
647.890	2231
647.948	3734
648.007	4890
648.065	2388
648.123	3312
648.181	4994
648.240	6573
648.298	6109
648.356	3139
648.414	4604
648.472	3989
648.531	4833
648.589	3457
648.647	3567
648.705	3746
648.763	3750
648.821	3064
648.879	3670
648.937	4327
648.995	3941
649.053	3917
649.111	5104
649.169	6804
649.227	9965
649.285	16660
649.343	47262
649.401	37056
649.459	18665
649.516	16643
649.574	11426
649.632	26935
649.690	40070
649.748	15138
649.806	9877
649.863	18359
649.921	14319
649.979	10123
650.037	4638
650.094	2757
650.152	3969
650.210	2435
650.268	4138
650.325	2875
650.383	3534
650.440	2179
650.498	3855
650.556	3040
650.613	3017
650.671	3305
650.728	2346
650.786	2759
650.843	3629
650.901	1320
650.958	3974
651.016	3076
651.073	3391
651.131	2137
651.188	2060
651.246	3060
651.303	1702
651.360	3144
651.418	2791
651.475	2969
651.532	2182
651.590	2576
651.647	2018
651.704	3075
651.762	3085
651.819	2946
651.876	2831
651.933	2334
651.990	2759
652.048	1460
652.105	2267
652.162	2722
652.219	3082
652.276	2823
652.333	3208
652.390	1641
652.448	2813
652.505	3129
652.562	2958
652.619	3634
652.676	6512
652.733	8507
652.790	3121
652.847	1761
652.904	2732
652.961	1031
653.017	2546
653.074	2906
653.131	2469
653.188	787
653.245	1980
653.302	2589
653.359	1676
653.415	3415
653.472	2495
653.529	2456
653.586	1637
653.642	1323
653.699	2777
653.756	1091
653.813	1770
653.869	2565
653.926	1538
653.983	1613
654.039	2414
654.096	1801
654.152	3454
654.209	1052
654.266	3594
654.322	1104
654.379	2845
654.435	3471
654.492	2613
654.548	4494
654.605	8592
654.661	5369
654.717	3261
654.774	2800
654.830	2680
654.887	2582
654.943	3072
655.000	2926
655.056	2918
655.112	2338
655.168	2598
655.225	3241
655.281	3882
655.337	4469
655.394	7848
655.450	6250
655.506	5014
655.562	7364
655.618	8986
655.675	3635
655.731	3152
655.787	2941
655.843	4368
655.899	2902
655.955	4028
656.011	4444
656.067	3687
656.123	5363
656.179	6193
656.235	7113
656.291	5413
656.347	6846
656.403	5639
656.459	5661
656.515	4537
656.571	4463
656.627	3742
656.683	2616
656.739	4284
656.795	2732
656.850	3611
656.906	3217
656.962	4061
657.018	2177
657.074	3156
657.129	2138
657.185	3060
657.241	2954
657.297	2812
657.352	2509
657.408	2442
657.464	3798
657.519	2951
657.575	1235
657.630	2295
657.686	1816
657.742	2016
657.797	2512
657.853	2742
657.908	3775
657.964	1132
658.019	1598
658.075	1976
658.130	2463
658.186	1228
658.241	1536
658.297	2424
658.352	1289
658.407	2694
658.463	980
658.518	2197
658.573	1977
658.629	1783
658.684	1178
658.739	2171
658.795	387
658.850	2764
658.905	1147
658.960	1708
659.016	1551
659.071	2513
659.126	1487
659.181	2525
659.236	4154
659.291	6290
659.346	3527
659.401	3067
659.457	3426
659.512	5468
659.567	3723
659.622	1725
659.677	1708
659.732	1497
659.787	2425
659.842	2472
659.897	3349
659.952	3207
660.007	1868
660.061	1135
660.116	1910
660.171	1506
660.226	1805
660.281	1867
660.336	987
660.391	2217
660.445	1029
660.500	2766
660.555	898
660.610	548
660.664	2450
660.719	1424
660.774	2348
660.828	2024
660.883	1670
660.938	2129
660.992	512
661.047	3097
661.101	1234
661.156	1505
661.211	1192
661.265	2153
661.320	1193
661.374	2211
661.429	898
661.483	2048
661.538	1543
661.592	2031
661.647	1708
661.701	1880
661.755	2267
661.810	1790
661.864	1232
661.919	1881
661.973	1382
662.027	1773
662.081	1032
662.136	1228
662.190	1650
662.244	2516
662.299	1953
662.353	1584
662.407	1401
662.461	1518
662.515	1930
662.569	1856
662.624	1829
662.678	2274
662.732	1360
662.786	2662
662.840	1990
662.894	2526
662.948	1400
663.002	757
663.056	1948
663.110	1451
663.164	1054
663.218	1610
663.272	1699
663.326	2983
663.380	1481
663.434	2719
663.488	1163
663.542	1873
663.595	1855
663.649	1560
663.703	1598
663.757	1364
663.811	1587
663.864	939
663.918	2090
663.972	1418
664.026	1560
664.079	1011
664.133	1348
664.187	1502
664.240	1272
664.294	1822
664.348	1831
664.401	1337
664.455	1790
664.508	1754
664.562	2153
664.615	2307
664.669	1142
664.722	2355
664.776	1526
664.829	1914
664.883	1883
664.936	1286
664.990	2045
665.043	2922
665.097	2494
665.150	3182
665.203	2359
665.257	1936
665.310	2406
665.363	2063
665.417	2205
665.470	1999
665.523	1919
665.576	2268
665.630	2066
665.683	2012
665.736	2138
665.789	2774
665.842	1060
665.895	2555
665.949	3071
666.002	2339
666.055	2430
666.108	2687
666.161	1513
666.214	2938
666.267	1822
666.320	2080
666.373	2845
666.426	2869
666.479	1912
666.532	2399
666.585	2161
666.638	3182
666.691	2424
666.744	3850
666.796	2251
666.849	2584
666.902	2418
666.955	1777
667.008	1228
667.060	1964
667.113	707
667.166	1582
667.219	1803
667.271	2059
667.324	1814
667.377	2715
667.430	2557
667.482	3064
667.535	3271
667.587	2872
667.640	2234
667.693	2977
667.745	3400
667.798	6913
667.850	3077
667.903	2330
667.955	2155
668.008	2055
668.060	3014
668.113	2155
668.165	3400
668.218	2969
668.270	2520
668.322	2383
668.375	2145
668.427	3063
668.479	1798
668.532	2279
668.584	2370
668.636	2909
668.689	1980
668.741	2076
668.793	2546
668.845	2069
668.898	1922
668.950	2176
669.002	2644
669.054	2247
669.106	1770
669.158	2543
669.211	2552
669.263	1855
669.315	2445
669.367	4330
669.419	3023
669.471	4214
669.523	3678
669.575	6166
669.627	5725
669.679	3827
669.731	3013
669.783	3802
669.835	3461
669.886	4665
669.938	2829
669.990	3152
670.042	2560
670.094	3571
670.146	3163
670.197	4938
670.249	5370
670.301	7430
670.353	9519
670.404	14636
670.456	19748
670.508	32267
670.560	52552
670.611	87192
670.663	148236
670.715	320468
670.766	615223
670.818	288158
670.869	46995
670.921	19790
670.972	12338
671.024	9539
671.075	7345
671.127	6478
671.178	5061
671.230	4605
671.281	4547
671.333	3573
671.384	3141
671.436	4578
671.487	3789
671.538	3697
671.590	3532
671.641	5745
671.692	5542
671.744	9153
671.795	8485
671.846	4747
671.897	2755
671.949	2711
672.000	2803
672.051	3236
672.102	2708
672.153	2145
672.204	2687
672.256	2911
672.307	2230
672.358	2899
672.409	2099
672.460	2281
672.511	1918
672.562	2536
672.613	1018
672.664	2223
672.715	2114
672.766	3037
672.817	1323
672.868	2464
672.919	2608
672.970	2558
673.021	1500
673.071	2315
673.122	2142
673.173	1946
673.224	2015
673.275	1761
673.326	1271
673.376	2290
673.427	937
673.478	1259
673.528	1840
673.579	1490
673.630	1929
673.680	2072
673.731	1057
673.782	1444
673.832	1552
673.883	1760
673.934	1448
673.984	1305
674.035	1095
674.085	2860
674.136	1922
674.186	3482
674.237	3158
674.287	4131
674.338	2678
674.388	2306
674.438	1337
674.489	1576
674.539	1370
674.589	2149
674.640	2478
674.690	1650
674.740	1340
674.791	2173
674.841	1157
674.891	1844
674.942	956
674.992	1682
675.042	1572
675.092	2286
675.142	1649
675.193	1813
675.243	1787
675.293	1380
675.343	1498
675.393	1416
675.443	1416
675.493	1869
675.543	356
675.593	1383
675.643	860
675.693	1681
675.743	1322
675.793	2047
675.843	507
675.893	1238
675.943	1119
675.993	1871
676.043	349
676.093	1408
676.142	1458
676.192	1821
676.242	879
676.292	1074
676.341	1007
676.391	2140
676.441	927
676.491	688
676.540	574
676.590	1392
676.640	1428
676.689	776
676.739	403
676.789	1384
676.838	45
676.888	1842
676.937	1246
676.987	1493
677.037	1230
677.086	647
677.136	877
677.185	770
677.235	1177
677.284	1651
677.333	1219
677.383	865
677.432	906
677.482	706
677.531	1223
677.580	1118
677.630	946
677.679	710
677.728	564
677.778	2127
677.827	435
677.876	1345
677.925	159
677.975	1336
678.024	1120
678.073	1143
678.122	542
678.171	788
678.220	780
678.269	1373
678.319	1580
678.368	1691
678.417	1435
678.466	1595
678.515	735
678.564	1192
678.613	678
678.662	1295
678.711	1270
678.760	906
678.809	634
678.857	1184
678.906	1437
678.955	1326
679.004	1066
679.053	1254
679.102	859
679.151	1313
679.199	728
679.248	1421
679.297	67
679.346	2026
679.394	1116
679.443	878
679.492	310
679.540	928
679.589	798
679.638	986
679.686	507
679.735	591
679.784	724
679.832	1029
679.881	169
679.929	1181
679.978	975
680.026	1177
680.075	184
680.123	860
680.172	273
680.220	664
680.268	740
680.317	659
680.365	540
680.414	925
680.462	807
680.510	1322
680.559	324
680.607	905
680.655	1218
680.703	443
680.752	209
680.800	-336
680.848	356
680.896	779
680.945	-64
680.993	820
681.041	722
681.089	1301
681.137	-155
681.185	-16
681.233	-68
681.258	104
681.281	238
681.329	491
681.377	535
681.380	604
681.425	1290
681.473	1327
681.502	638
681.521	101
681.569	883
681.617	867
681.624	927
681.665	1078
681.713	831
681.745	1371
681.761	1584
681.809	605
681.857	1464
681.867	1479
681.904	1404
681.952	2216
681.989	1217
682.000	882
682.048	1941
682.096	1974
682.111	1814
682.143	1386
682.191	1724
682.233	2393
682.239	2459
682.286	2077
682.334	1914
682.354	1561
682.382	1023
682.430	2438
682.476	2451
682.477	2426
682.525	2525
682.572	1208
682.598	1540
682.620	1796
682.667	2452
682.715	3226
682.720	3171
682.763	2371
682.810	2429
682.841	2056
682.857	1821
682.905	2973
682.952	2634
682.963	2645
683.000	2601
683.047	2155
683.085	3839
683.095	4249
683.142	2434
683.190	2563
683.206	2514
683.237	2439
683.284	3771
683.328	3336
683.332	3268
683.379	3324
683.426	2621
683.449	2716
683.473	2806
683.521	2816
683.568	3546
683.571	3523
683.615	2885
683.662	3769
683.693	3242
683.709	2959
683.757	3410
683.804	3847
683.814	3829
683.851	3571
683.898	4562
683.936	4367
683.945	4322
683.992	3584
684.039	4099
684.057	4078
684.086	3942
684.133	4855
684.179	3820
684.180	3767
684.227	5308
684.274	4157
684.300	4804
684.321	5248
684.368	4262
684.415	4255
684.422	4258
684.462	4284
684.509	4021
684.543	4494
684.556	4615
684.603	5281
684.649	4374
684.665	4472
684.696	4729
684.743	4424
684.786	4525
684.790	4520
684.837	4652
684.883	6010
684.908	5736
684.930	5395
684.977	6788
685.023	5392
685.029	5510
685.070	6226
685.117	5732
685.150	6069
685.164	6237
685.210	5957
685.257	6613
685.272	6547
685.303	6234
685.350	6278
685.393	5727
685.396	5686
685.443	6442
685.490	6914
685.514	6812
685.536	6602
685.583	7014
685.629	7095
685.636	7028
685.675	6549
685.722	6737
685.757	6450
685.768	6359
685.815	6394
685.861	6252
685.878	6554
685.908	7150
685.954	6821
686.000	7477
686.000	7486
686.047	8267
686.093	8871
686.121	9326
686.139	9215
686.185	8693
686.232	8041
686.242	7955
686.278	7641
686.324	7253
686.363	6633
686.370	6571
686.416	6776
686.463	7164
686.484	7001
686.509	6904
686.555	7277
686.601	6927
686.606	7016
686.647	7608
686.693	7810
686.727	7329
686.739	7160
686.785	7318
686.831	8255
686.848	8114
686.877	7780
686.923	7466
686.969	6677
686.969	6673
687.015	7523
687.061	7036
687.090	7553
687.107	7778
687.153	7999
687.199	8269
687.211	8163
687.245	8020
687.291	7982
687.332	8182
687.336	8196
687.382	8791
687.428	8400
687.453	8316
687.474	8057
687.520	7908
687.565	8240
687.574	8047
687.611	7662
687.657	8375
687.695	7850
687.702	7783
687.748	9023
687.794	9093
687.816	9348
687.839	9247
687.885	8526
687.931	8108
687.937	8036
687.976	8060
688.022	8167
688.058	8579
688.067	8662
688.113	8601
688.158	8111
688.179	8319
688.204	8664
688.249	8778
688.295	8496
688.300	8574
688.340	9191
688.386	9688
688.421	9077
688.431	8866
688.477	9354
688.522	9482
688.542	9379
688.567	9389
688.613	9323
688.658	9011
688.663	9025
688.703	9103
688.749	9617
688.784	9573
688.794	9568
688.839	9682
688.884	9562
688.905	9549
688.930	9466
688.975	9193
689.020	9395
689.026	9315
689.065	9201
689.110	9854
689.146	9877
689.155	9794
689.201	9615
689.246	9303
689.267	9337
689.291	9602
689.336	9510
689.381	9492
689.388	9459
689.426	9244
689.471	9959
689.509	9658
689.516	9610
689.561	9726
689.606	9347
689.630	9516
689.651	9754
689.696	9640
689.741	10136
689.750	10078
689.785	9738
689.830	10115
689.871	9743
689.875	9726
689.920	9729
689.965	9652
689.992	9600
690.010	9739
690.054	10262
690.099	10440
690.112	10537
690.144	10661
690.189	10464
690.233	10350
690.233	10366
690.278	10901
690.323	11056
690.354	11131
690.367	11108
690.412	11160
690.457	11588
690.474	11390
690.501	11437
690.546	12459
690.590	12719
690.595	12781
690.635	13466
690.680	13281
690.716	13980
690.724	14396
690.769	15844
690.813	18131
690.836	18721
690.857	20384
690.902	24468
690.946	28936
690.957	29957
690.991	39874
691.035	53111
691.077	66548
691.080	66871
691.124	68999
691.168	70119
691.198	70658
691.213	66234
691.257	54651
691.301	41992
691.318	37078
691.346	33663
691.390	27854
691.434	22790
691.439	22130
691.478	20267
691.522	18827
691.559	16622
691.567	16486
691.611	16345
691.655	15612
691.680	15276
691.699	14959
691.743	14493
691.787	14037
691.800	13649
691.831	13383
691.875	13956
691.919	13552
691.921	13544
691.964	14060
692.008	13705
692.041	13716
692.052	13801
692.096	13969
692.139	14566
692.162	14442
692.183	14076
692.227	13769
692.271	13239
692.282	13200
692.315	13554
692.359	13179
692.402	13483
692.403	13514
692.447	13531
692.490	14017
692.523	13787
692.534	13711
692.578	14471
692.622	13917
692.643	13981
692.666	14036
692.709	13760
692.753	13873
692.763	13830
692.797	13723
692.840	13497
692.884	12865
692.884	12894
692.928	13784
692.971	13970
693.004	14391
693.015	14547
693.059	14853
693.102	15370
693.124	15321
693.146	15431
693.189	16336
693.233	16685
693.245	16815
693.276	17680
693.320	18591
693.363	19802
693.365	19794
693.407	20975
693.450	22304
693.485	23436
693.493	24198
693.537	28179
693.580	31512
693.605	33639
693.624	37893
693.667	47651
693.710	58058
693.725	61435
693.753	80381
693.797	110381
693.840	141685
693.845	144972
693.883	149686
693.926	153139
693.966	157503
693.970	154911
694.013	124171
694.056	94122
694.086	72783
694.099	69089
694.142	57735
694.185	45575
694.206	40030
694.229	37848
694.272	32836
694.315	28377
694.326	27068
694.358	25901
694.401	24642
694.444	22852
694.446	22734
694.487	21933
694.530	20556
694.566	19573
694.573	19452
694.616	18383
694.659	17416
694.686	16668
694.702	16440
694.745	15859
694.787	14945
694.806	14634
694.830	14887
694.873	14973
694.916	15481
694.926	15466
694.959	15130
695.002	14948
695.044	14646
695.046	14601
695.087	14842
695.130	14694
695.166	14936
695.172	15010
695.215	14853
695.258	15182
695.286	15066
695.301	15083
695.343	15272
695.386	15273
695.406	15334
695.428	15163
695.471	14489
695.514	14049
695.526	13844
695.556	13991
695.599	14412
695.641	14488
695.646	14487
695.684	14704
695.726	14699
695.766	14678
695.769	14698
695.811	14625
695.854	14438
695.886	14197
695.896	14220
695.938	14259
695.981	14170
696.005	14236
696.023	14316
696.065	14169
696.108	14120
696.125	14062
696.150	14140
696.192	14229
696.235	14213
696.245	14204
696.277	14410
696.319	14565
696.361	14799
696.365	14774
696.404	14974
696.446	15168
696.485	15196
696.488	15247
696.530	15513
696.572	15645
696.604	15852
696.614	15820
696.656	15454
696.698	15012
696.724	14716
696.740	14714
696.783	14567
696.825	14520
696.844	14431
696.867	14401
696.909	14189
696.951	14104
696.964	14032
696.992	14172
697.034	14319
697.076	14340
697.083	14342
697.118	14616
697.160	14648
697.202	14943
697.203	14905
697.244	14765
697.286	14757
697.323	14543
697.327	14549
697.369	14394
697.411	14159
697.442	13938
697.453	14030
697.494	14198
697.536	14534
697.562	14610
697.578	14631
697.620	14625
697.661	14559
697.682	14553
697.703	14897
697.744	15363
697.786	15965
697.801	16086
697.828	16143
697.869	16227
697.911	16328
697.921	16300
697.952	15977
697.994	15505
698.035	15091
698.040	14983
698.077	14717
698.118	14480
698.160	14172
698.160	14129
698.201	14518
698.243	14843
698.279	15102
698.284	15177
698.325	15480
698.367	15805
698.399	15938
698.408	15839
698.449	15255
698.491	14639
698.518	14209
698.532	14253
698.573	14252
698.614	14227
698.638	14170
698.656	14425
698.697	14947
698.738	15436
698.757	15642
698.779	15782
698.820	15939
698.862	16104
698.877	16124
698.903	16288
698.944	16468
698.985	16653
698.996	16660
699.026	16292
699.067	15720
699.116	14997
699.235	14172
699.354	14310
699.474	15888
699.593	16939
699.713	16524
699.832	15506
699.951	15889
700.070	15129
700.190	15378
700.309	15856
700.428	16658
700.547	15268
700.667	15126
700.786	17001
700.905	15258
701.024	15544
701.143	16829
701.262	13249
701.381	13788
701.500	13809
701.619	15448
701.738	13825
701.857	13509
701.976	12393
702.095	13147
702.214	14035
702.333	15318
702.452	14488
702.571	13258
702.690	13761
702.809	13948
702.928	12965
703.047	14459
703.165	13118
703.284	13464
703.403	12961
703.522	13814
703.640	14208
703.759	16740
703.878	21447
703.997	14670
704.115	12986
704.234	13333
704.353	11957
704.471	12852
704.590	12099
704.708	12782
704.827	12224
704.946	13081
705.064	13489
705.183	13117
705.301	15247
705.420	19902
705.538	19139
705.656	16666
705.775	18496
705.893	32927
706.012	47988
706.130	18316
706.249	16732
706.367	15779
706.485	16543
706.604	16734
706.722	15886
706.840	19560
706.958	20283
707.077	17436
707.195	15118
707.313	14745
707.431	14462
707.549	13864
707.668	14563
707.786	15651
707.904	14164
708.022	14141
708.140	13582
708.258	14115
708.376	14276
708.494	14236
708.612	15276
708.730	21202
708.848	20129
708.966	17479
709.084	18419
709.202	17248
709.320	17701
709.438	16151
709.556	18231
709.674	17394
709.791	18166
709.909	16814
710.027	17282
710.145	16972
710.263	18542
710.380	17521
710.498	16034
710.616	16682
710.733	15781
710.851	16679
710.969	16799
711.086	16590
711.204	15921
711.322	16898
711.439	16625
711.557	16745
711.674	15601
711.792	15839
711.909	17658
712.027	19650
712.144	15767
712.262	15353
712.379	17335
712.497	22465
712.614	23610
712.732	20098
712.849	19430
712.966	19851
713.084	22116
713.201	20254
713.318	19372
713.436	18143
713.553	19329
713.670	18727
713.787	19856
713.905	21613
714.022	19213
714.139	17524
714.256	18781
714.373	19770
714.490	22359
714.608	29723
714.725	81818
714.842	107821
714.959	22059
715.076	17594
715.193	16109
715.310	16729
715.427	16701
715.544	15825
715.661	16552
715.778	16342
715.895	17719
716.011	16737
716.128	16497
716.245	15915
716.362	17921
716.479	18576
716.596	15634
716.713	15784
716.829	16328
716.946	15895
717.063	14971
717.180	15254
717.296	14344
717.413	14572
717.530	14904
717.646	14424
717.763	15520
717.880	13536
717.996	13727
718.113	14378
718.229	13517
718.346	13643
718.462	13748
718.579	15919
718.695	22453
718.812	21512
718.928	20076
719.045	16377
719.161	13007
719.277	12583
719.394	13290
719.510	13853
719.626	13405
719.743	15866
719.859	14915
719.975	16115
720.092	27680
720.208	55656
720.324	18472
720.440	13624
720.557	14959
720.673	20012
720.789	27589
720.905	62630
721.021	28466
721.137	13860
721.253	13908
721.369	13466
721.486	14733
721.602	21396
721.718	13683
721.834	11299
721.950	12355
722.066	11914
722.181	10706
722.297	12904
722.413	10622
722.529	11348
722.645	11840
722.761	11223
722.877	10923
722.993	11220
723.108	11625
723.224	11814
723.340	10799
723.456	10915
723.571	12108
723.687	10591
723.803	10322
723.918	10534
724.034	10823
724.150	11876
724.265	12697
724.381	22654
724.497	33801
724.612	11071
724.728	9767
724.843	9945
724.959	11100
725.074	22014
725.190	29958
725.305	12127
725.421	10647
725.536	10246
725.651	10388
725.767	8961
725.882	9319
725.997	9448
726.113	9266
726.228	9326
726.343	9381
726.459	9812
726.574	9238
726.689	9952
726.804	9779
726.920	9075
727.035	9347
727.150	10368
727.265	9167
727.380	10908
727.495	9839
727.610	9051
727.725	9343
727.841	11155
727.956	20921
728.071	20634
728.186	9287
728.301	8636
728.416	8997
728.531	9668
728.645	8529
728.760	8899
728.875	9767
728.990	10288
729.105	10082
729.220	9141
729.335	8841
729.449	8433
729.564	8371
729.679	7967
729.794	7856
729.908	8923
730.023	9107
730.138	8216
730.253	6753
730.367	7402
730.482	7584
730.596	8091
730.711	8824
730.826	7989
730.940	7975
731.055	8363
731.169	8123
731.284	7758
731.398	7679
731.513	8893
731.627	7923
731.742	9582
731.856	10987
731.970	7371
732.085	7634
732.199	8420
732.313	8673
732.428	12610
732.542	23016
732.656	18452
732.771	8482
732.885	7397
732.999	7452
733.113	8104
733.227	7622
733.342	7643
733.456	7634
733.570	6549
733.684	6690
733.798	7335
733.912	7984
734.026	6488
734.140	6541
734.254	7617
734.368	12836
734.482	19166
734.596	6528
734.710	6675
734.824	6764
734.938	6342
735.052	6116
735.166	7807
735.280	7362
735.393	7453
735.507	7312
735.621	9194
735.735	16757
735.849	8741
735.962	6814
736.076	7135
736.190	7413
736.303	9031
736.417	13889
736.531	7456
736.644	6978
736.758	6007
736.872	6222
736.985	6757
737.099	6189
737.212	5241
737.326	5376
737.439	6248
737.553	5545
737.666	5931
737.780	5484
737.893	5163
738.007	6287
738.120	6180
738.233	5998
738.347	6297
738.460	5886
738.573	5710
738.687	6248
738.800	6601
738.913	7716
739.026	6475
739.140	6647
739.253	6902
739.366	5530
739.479	6517
739.592	5230
739.705	6021
739.818	5927
739.932	6811
740.045	6690
740.158	6097
740.271	6588
740.384	6518
740.497	6776
740.610	6630
740.723	6127
740.836	6428
740.949	6984
741.062	8426
741.174	7963
741.287	7019
741.400	6682
741.513	6649
741.626	7318
741.739	7252
741.851	6425
741.964	6702
742.077	6012
742.189	6673
742.302	8934
742.415	8135
742.527	7273
742.640	6404
742.753	6287
742.865	5684
742.978	5393
743.090	6100
743.203	5593
743.316	5330
743.428	5530
743.541	5403
743.653	5249
743.766	6261
743.878	5956
743.990	7344
744.103	9069
744.215	9084
744.327	5956
744.440	6956
744.552	9398
744.664	6686
744.777	5992
744.889	4005
745.001	4582
745.113	6064
745.226	5298
745.338	4865
745.450	4541
745.562	6329
745.674	4839
745.786	4523
745.898	5558
746.010	5778
746.122	4737
746.234	4851
746.347	4733
746.459	5613
746.570	5678
746.682	7562
746.794	10104
746.906	7687
747.018	5180
747.130	5308
747.242	5088
747.354	4513
747.466	5686
747.577	5302
747.689	5087
747.801	4155
747.913	5041
748.024	4481
748.136	4748
748.248	5168
748.359	4391
748.471	5199
748.583	5316
748.694	5739
748.806	8017
748.918	7140
749.029	6353
749.141	6303
749.252	5277
749.364	5847
749.475	9892
749.587	8304
749.698	5291
749.809	5429
749.921	5226
750.032	5520
750.144	4646
750.255	5161
750.366	4701
750.478	5692
750.589	4985
750.700	5117
750.811	5616
750.923	6687
751.034	9276
751.145	11958
751.256	4980
751.367	5564
751.479	5098
751.590	4772
751.701	4667
751.812	4864
751.923	5093
752.034	5393
752.145	4876
752.256	5761
752.367	4520
752.478	5261
752.589	4499
752.700	4707
752.811	4677
752.922	4866
753.032	5008
753.143	5766
753.254	4268
753.365	5166
753.476	4765
753.586	4478
753.697	3453
753.808	4540
753.919	5114
754.029	4870
754.140	5699
754.251	4704
754.361	5255
754.472	5338
754.582	5656
754.693	5790
754.804	4897
754.914	5093
755.025	4890
755.135	5523
755.246	4962
755.356	4431
755.466	5425
755.577	5961
755.687	4250
755.798	5196
755.908	5561
756.018	5400
756.129	5191
756.239	5403
756.349	5684
756.460	5025
756.570	5609
756.680	5758
756.790	5427
756.900	6553
757.011	5758
757.121	6033
757.231	5849
757.341	6909
757.451	4978
757.561	6456
757.671	5983
757.781	5557
757.891	5780
758.001	5835
758.111	6271
758.221	6845
758.331	6470
758.441	6986
758.551	7839
758.661	7384
758.771	7084
758.880	7538
758.990	5886
759.100	7568
759.210	7454
759.320	7988
759.429	7116
759.539	8222
759.649	7042
759.758	7719
759.868	7509
759.978	8071
760.087	7910
760.197	7185
760.307	7810
760.416	7952
760.526	6740
760.635	9015
760.745	7897
760.854	8709
760.964	8812
761.073	9448
761.182	8892
761.292	8977
761.401	10684
761.511	10144
761.620	10018
761.729	9754
761.839	10252
761.948	11800
762.057	11160
762.166	11359
762.276	9823
762.385	12553
762.494	11067
762.603	11910
762.712	13231
762.822	13482
762.931	12987
763.040	13581
763.149	14517
763.258	15567
763.367	15963
763.476	17397
763.585	17871
763.694	19019
763.803	19008
763.912	20494
764.021	21769
764.130	22904
764.238	24492
764.347	25258
764.456	27276
764.565	29383
764.674	32101
764.783	35421
764.891	38772
765.000	43603
765.109	49162
765.217	56793
765.326	65893
765.435	79290
765.543	95439
765.652	117252
765.761	149716
765.869	202224
765.978	284522
766.086	418102
766.195	646469
766.303	984099
766.412	1108076
766.520	937798
766.629	950870
766.737	660607
766.846	430078
766.954	294971
767.062	211707
767.171	162333
767.279	123277
767.387	97924
767.496	81179
767.604	69679
767.712	60520
767.820	55016
767.928	49586
768.037	45531
768.145	43210
768.253	40947
768.361	39624
768.469	38992
768.577	39911
768.685	41957
768.793	45020
768.901	49581
769.009	56695
769.117	68503
769.225	86244
769.333	117663
769.441	174438
769.549	282029
769.657	504486
769.765	883749
769.873	939296
769.981	833882
770.088	533826
770.196	300603
770.304	190591
770.412	134771
770.519	100450
770.627	78683
770.735	64195
770.842	53566
770.950	46030
771.058	40961
771.165	36160
771.273	31816
771.380	28510
771.488	26785
771.595	24335
771.703	22594
771.810	21435
771.918	20623
772.025	19037
772.133	18259
772.240	16653
772.348	16418
772.455	14927
772.562	14301
772.670	13755
772.777	13531
772.884	12497
772.991	11920
773.099	12070
773.206	11382
773.313	11451
773.420	11730
773.528	10348
773.635	9686
773.742	10053
773.849	9567
773.956	9283
774.063	9358
774.170	9912
774.277	9138
774.384	8367
774.491	8760
774.598	8548
774.705	8777
774.812	8394
774.919	9088
775.026	7593
775.133	8032
775.239	7996
775.346	7397
775.453	7781
775.560	6829
775.667	7139
775.773	7056
775.880	7372
775.987	7257
776.093	7153
776.200	7293
776.307	6415
776.413	7479
776.520	5647
776.627	5781
776.733	6599
776.840	5466
776.946	8392
777.053	10432
777.159	16582
777.266	12694
777.372	14498
777.478	13232
777.585	8952
777.691	6032
777.798	5869
777.904	6909
778.010	7920
778.117	7509
778.223	6207
778.329	5376
778.435	5377
778.542	5263
778.648	4706
778.754	5078
778.860	5050
778.966	5646
779.072	5222
779.178	5339
779.284	5673
779.391	5405
779.497	5174
779.603	8708
779.708	9972
779.815	23818
779.920	76216
780.026	182452
780.132	43163
780.238	9241
780.344	7268
780.450	6378
780.556	4892
780.661	4572
780.767	4768
780.873	4750
780.979	4450
781.085	3861
781.190	4337
781.296	5038
781.402	3220
781.507	3829
781.613	4365
781.719	3673
781.824	4437
781.930	4893
782.035	4187
782.141	4066
782.246	4362
782.352	3826
782.457	4035
782.563	4045
782.668	3878
782.773	4147
782.879	3071
782.984	4206
783.090	4398
783.195	5748
783.300	4512
783.405	3987
783.511	4059
783.616	4248
783.721	3703
783.826	4414
783.932	3799
784.037	4567
784.142	3608
784.247	3154
784.352	3582
784.457	4027
784.562	3707
784.667	3233
784.772	3065
784.877	4091
784.982	3296
785.087	3428
785.192	2890
785.297	4004
785.402	3873
785.507	3481
785.611	3754
785.716	3849
785.821	3739
785.926	3818
786.031	3096
786.135	4015
786.240	3087
786.345	2654
786.450	3612
786.554	3533
786.659	2765
786.763	1557
786.868	3651
786.973	3721
787.077	2518
787.182	2664
787.286	2597
787.391	2719
787.495	2441
787.600	3054
787.704	2749
787.809	2269
787.913	2612
788.017	2666
788.122	3248
788.226	2496
788.330	1855
788.435	2214
788.539	3433
788.643	2684
788.747	2255
788.852	2898
788.956	2607
789.060	3321
789.164	2878
789.268	2202
789.372	3117
789.476	3199
789.580	2626
789.684	1807
789.788	2977
789.892	2703
789.996	3230
790.100	2570
790.204	2328
790.308	1823
790.412	3027
790.516	3680
790.620	3311
790.724	3406
790.828	2389
790.931	2051
791.035	3477
791.139	3599
791.242	2511
791.346	3940
791.450	2688
791.554	2487
791.657	1602
791.761	3329
791.864	3878
791.968	3666
792.072	2530
792.175	2953
792.279	3091
792.382	2951
792.486	2199
792.589	2715
792.693	3059
792.796	1780
792.899	2500
793.003	3353
793.106	1523
793.209	3476
793.313	3411
793.416	2216
793.519	3896
793.623	3511
793.726	5365
793.829	3978
793.932	2814
794.035	2157
794.138	3797
794.242	3938
794.345	4857
794.448	6489
794.551	13099
794.654	42385
794.757	102386
794.860	28294
794.963	5520
795.066	3797
795.169	3787
795.272	3024
795.375	2151
795.477	2494
795.580	2474
795.683	1535
795.786	1822
795.889	1892
795.991	2777
796.094	3126
796.197	2627
796.300	2278
796.402	1557
796.505	1508
796.608	1750
796.710	2540
796.813	2127
796.915	1620
797.018	2487
797.120	2485
797.223	415
797.326	2385
797.428	2037
797.530	2100
797.633	2116
797.735	2709
797.838	3972
797.940	4700
798.042	1396
798.145	1700
798.247	2500
798.349	1674
798.452	1941
798.554	2451
798.656	1033
798.758	1981
798.860	2354
798.962	1433
799.065	1117
799.167	1788
799.269	2653
799.371	2116
799.473	2985
799.575	2820
799.677	3524
799.779	3713
799.881	2525
799.983	2826
800.085	2196
800.187	1642
800.289	1353
800.390	2706
800.492	1420
800.594	2548
800.696	1103
800.798	1773
800.899	1229
801.001	1400
801.103	1705
801.205	1186
801.306	1378
801.408	1306
801.509	1916
801.611	1913
801.713	1201
801.814	1951
801.916	542
802.017	1206
802.119	1515
802.220	1520
802.322	51
802.423	4195
802.525	2373
802.626	1164
802.727	1566
802.829	1797
802.930	435
803.031	2893
803.133	1265
803.234	951
803.335	1748
803.436	315
803.538	1856
803.639	541
803.740	2278
803.841	869
803.942	1885
804.043	2347
804.144	1031
804.245	1121
804.346	724
804.447	1524
804.548	1667
804.649	3826
804.750	1055
804.851	1377
804.952	1273
805.053	1124
805.154	725
805.255	2173
805.355	1816
805.456	1378
805.557	703
805.658	612
805.758	1995
805.859	1813
805.960	1935
806.061	421
806.161	1678
806.262	1507
806.362	1640
806.463	1274
806.564	1401
806.664	1449
806.765	1958
806.865	2170
806.966	2013
807.066	1180
807.166	2683
807.267	1979
807.367	1444
807.468	1290
807.568	868
807.668	2475
807.769	1716
807.869	1000
807.969	1889
808.069	1586
808.170	1405
808.270	614
808.370	2075
808.470	1778
808.570	1863
808.670	1762
808.770	1864
808.870	721
808.970	600
809.070	1237
809.170	930
809.271	1140
809.370	1399
809.470	2168
809.570	1272
809.670	1061
809.770	1697
809.870	1943
809.970	1132
810.070	1790
810.169	824
810.269	410
810.369	1665
810.469	1219
810.568	1089
810.668	1223
810.768	553
810.867	1557
810.967	1288
811.066	1094
811.166	1422
811.265	1351
811.365	1195
811.464	1726
811.564	1468
811.663	2000
811.763	696
811.862	1982
811.962	1493
812.061	1209
812.160	1561
812.260	1795
812.359	1931
812.458	2196
812.557	6185
812.657	10255
812.756	5863
812.855	2508
812.954	1160
813.053	1964
813.153	1555
813.252	1557
813.351	1609
813.450	1605
813.549	1735
813.648	1622
813.747	1021
813.846	2077
813.945	1964
814.044	1922
814.143	2593
814.242	2429
814.341	1087
814.439	1512
814.538	3056
814.637	2143
814.736	2686
814.835	2796
814.933	2459
815.032	3825
815.131	2293
815.229	2585
815.328	2849
815.427	3531
815.525	4113
815.624	3084
815.722	3688
815.821	3333
815.919	3318
816.018	3638
816.116	4272
816.215	3803
816.313	3828
816.412	4567
816.510	4837
816.609	6549
816.707	4905
816.805	5670
816.904	5922
817.002	7628
817.100	8360
817.198	9755
817.296	10049
817.395	12538
817.493	15534
817.591	17090
817.689	23054
817.787	30447
817.885	46139
817.983	75932
818.081	140644
818.179	291486
818.277	595965
818.375	634569
818.473	317782
818.571	150341
818.669	90332
818.767	73367
818.865	69456
818.963	75089
819.061	96989
819.158	148415
819.256	259314
819.354	487551
819.452	818417
819.549	704806
819.647	392333
819.745	202509
819.842	121542
819.940	80583
820.038	57277
820.135	44052
820.233	35375
820.330	26517
820.428	22505
820.525	19397
820.623	16670
820.720	13952
820.818	13309
820.915	12239
821.012	11069
821.110	9059
821.207	8856
821.304	7453
821.402	7441
821.499	8528
821.596	9606
821.693	7502
821.791	6900
821.888	5748
821.985	7466
822.082	6278
822.179	6052
822.276	5178
822.373	4454
822.470	3620
822.567	3585
822.664	2260
822.761	3673
822.858	2367
822.955	2546
823.052	2969
823.149	2389
823.246	2704
823.343	2355
823.440	3028
823.536	2562
823.633	2382
823.730	1895
823.827	3027
823.923	2092
824.020	3096
824.117	2686
824.213	3138
824.310	3124
824.407	2024
824.503	2134
824.600	1878
824.696	1663
824.793	1588
824.889	1473
824.986	2000
825.082	1042
825.179	1604
825.275	622
825.371	1302
825.468	2026
825.564	1021
825.660	1814
825.757	1275
825.853	1969
825.949	1859
826.045	946
826.142	1231
826.238	1429
826.334	1220
826.430	22
826.526	1798
826.622	1328
826.718	674
826.814	19
826.910	1690
827.006	91
827.102	649
827.198	1542
827.294	853
827.390	1190
827.486	1020
827.582	-60
827.678	595
827.774	1014
827.869	617
827.965	1684
828.061	-71
828.157	741
828.252	672
828.348	-396
828.444	1146
828.539	253
828.635	847
828.731	1036
828.826	380
828.922	1429
829.017	1166
829.113	-39
829.208	930
829.304	168
829.399	1346
829.495	525
829.590	1252
829.685	471
829.781	305
829.876	266
829.971	-191
830.066	127
830.162	463
830.257	856
830.352	326
830.447	1521
830.543	1689
830.638	-579
830.733	1349
830.828	-108
830.923	703
831.018	310
831.113	1214
831.208	1035
831.303	961
831.398	1592
831.493	285
831.588	623
831.683	-724
831.778	521
831.873	-40
831.967	-48
832.062	382
832.157	-170
832.252	1365
832.346	849
832.441	1159
832.536	1606
832.631	3777
832.725	3229
832.820	76
832.914	789
833.009	-392
833.104	857
833.198	1670
833.293	172
833.387	689
833.482	770
833.576	436
833.670	546
833.765	310
833.859	368
833.954	1253
834.048	518
834.142	831
834.237	54
834.331	41
834.425	3
834.519	19
834.613	577
834.708	152
834.802	620
834.896	490
834.990	862
835.084	907
835.178	287
835.272	-37
835.366	18
835.460	1356
835.554	202
835.648	228
835.742	53
835.836	770
835.930	-736
836.024	581
836.117	1036
836.211	697
836.305	1479
836.399	2717
836.493	416
836.586	1567
836.680	-32
836.774	-147
836.867	1023
836.961	-547
837.055	-462
837.148	637
837.242	589
837.335	-7
837.429	517
837.522	197
837.616	1541
837.709	2722
837.803	1685
837.896	1046
837.989	816
838.083	1624
838.176	3896
838.269	3297
838.363	1294
838.456	-49
838.549	1159
838.642	2102
838.735	4167
838.829	1859
838.922	-68
839.015	1517
839.108	275
839.201	226
839.294	456
839.387	119
839.480	80
839.573	1828
839.666	1974
839.759	781
839.852	-168
839.945	249
840.038	-6
840.131	-551
840.223	280
840.316	815
840.409	40
840.502	-687
840.594	1726
840.687	-654
840.780	736
840.873	4
840.965	-60
841.058	1028
841.150	2634
841.243	2022
841.336	1235
841.428	658
841.521	188
841.613	1028
841.706	537
841.798	1147
841.890	-108
841.983	165
842.075	491
842.167	255
842.260	125
842.352	1505
842.444	1833
842.537	3845
842.629	7127
842.721	2000
842.813	-151
842.905	-656
842.997	1182
843.090	844
843.182	1438
843.274	3682
843.366	9421
843.458	18600
843.550	14408
843.642	1903
843.734	1151
843.826	1361
843.918	1608
844.009	1036
844.101	252
844.193	55
844.285	120
844.377	622
844.469	2008
844.560	2540
844.652	3428
844.744	1165
844.835	736
844.927	1243
845.019	570
845.110	801
845.202	502
845.293	-242
845.385	-477
845.476	510
845.568	434
845.659	306
845.751	947
845.842	459
845.934	-569
846.025	-481
846.116	101
846.208	-483
846.299	-506
846.390	-172
846.482	571
846.573	1452
846.664	884
846.755	1389
846.846	1908
846.937	-731
847.029	285
847.120	361
847.211	87
847.302	1136
847.393	-472
847.484	600
847.575	-118
847.666	217
847.757	311
847.847	85
847.938	589
848.029	-18
848.120	-200
848.211	-380
848.302	55
848.392	-161
848.483	-12
848.574	-506
848.664	90
848.755	246
848.846	894
848.936	-199
849.027	254
849.118	-45
849.208	-96
849.299	-239
849.389	339
849.480	1457
849.570	2372
849.661	4087
849.751	5811
849.841	2257
849.932	-268
850.022	57
850.112	541
850.203	707
850.293	55
850.383	-125
850.474	-354
850.564	623
850.654	-225
850.744	464
850.834	-84
850.924	191
851.014	466
851.104	193
851.194	-295
851.284	113
851.374	848
851.464	657
851.554	137
851.644	296
851.734	2336
851.824	1895
851.914	1027
852.004	3168
852.094	4306
852.183	775
852.273	-96
852.363	286
852.452	-641
852.542	22
852.632	-404
852.721	-172
852.811	-293
852.901	864
852.990	-304
853.080	349
853.169	-220
853.259	349
853.348	-889
853.438	-272
853.527	290
853.617	666
853.706	1551
853.795	2602
853.885	6317
853.974	13996
854.063	25129
854.152	42034
854.242	17376
854.331	2118
854.420	102
854.509	708
854.598	212
854.687	589
854.777	407
854.866	282
854.955	762
855.044	-72
855.133	-534
855.222	-543
855.311	-248
855.400	-58
855.488	-231
855.577	181
855.666	1375
855.755	998
855.844	1525
855.933	1071
856.021	763
856.110	477
856.199	10
856.288	19
856.376	-440
856.465	-462
856.554	-280
856.642	-395
856.731	685
856.819	-152
856.908	49
856.996	-345
857.085	-156
857.173	-861
857.262	-752
857.350	-738
857.438	-170
857.527	479
857.615	-161
857.703	-325
857.792	-744
857.880	-622
857.968	-67
858.056	-152
858.145	71
858.233	82
858.321	-219
858.409	420
858.497	-973
858.585	-297
858.673	-141
858.761	-212
858.849	216
858.937	20
859.025	802
859.113	148
859.201	-89
859.289	-256
859.377	-447
859.465	51
859.552	-627
859.640	-447
859.728	59
859.816	265
859.903	-570
859.991	116
860.079	-183
860.166	-121
860.254	-597
860.342	-849
860.429	-551
860.517	-168
860.604	657
860.692	-147
860.779	-373
860.867	-709
860.954	-198
861.042	-366
861.129	97
861.216	-134
861.304	-1577
861.391	46
861.478	-427
861.565	314
861.653	-376
861.740	-112
861.827	-77
861.914	-147
862.001	-538
862.089	445
862.176	-389
862.263	-514
862.350	-410
862.437	-271
862.524	-748
862.611	-602
862.698	259
862.785	1316
862.871	645
862.958	-231
863.045	14
863.132	-428
863.219	-491
863.306	-293
863.392	61
863.479	-459
863.566	-402
863.652	-663
863.739	-103
863.826	-1063
863.912	-268
863.999	-1496
864.086	-232
864.172	-734
864.259	-587
864.345	-232
864.432	-618
864.518	596
864.604	-460
864.691	-140
864.777	119
864.863	340
864.950	468
865.036	-341
865.122	330
865.209	-137
865.295	303
865.381	226
865.467	761
865.553	-118
865.639	-32
865.726	1411
865.812	3455
865.898	7003
865.984	9419
866.070	18502
866.156	22817
866.242	5544
866.328	1126
866.414	-225
866.499	24
866.585	640
866.671	-461
866.757	168
866.843	-32
866.928	-558
867.014	-84
867.100	239
867.186	-492
867.271	1424
867.357	650
867.442	1601
867.528	210
867.614	670
867.699	287
867.785	2467
867.870	1648
867.956	3173
868.041	1850
868.127	1503
868.212	2660
868.297	2092
868.383	1000
868.468	924
868.553	2778
868.639	2688
868.724	3464
868.809	6013
868.894	1388
868.979	13
869.065	230
869.150	-78
869.235	97
869.320	-559
869.405	-276
869.490	-1424
869.575	-740
869.660	-599
869.745	-568
869.830	-218
869.915	527
870.000	505
870.085	-335
870.169	616
870.254	733
870.339	-518
870.424	-130
870.509	316
870.593	-18
870.678	-7
870.763	-116
870.847	111
870.932	-893
871.016	-96
871.101	200
871.186	-687
871.270	222
871.355	-1421
871.439	-309
871.523	-1115
871.608	-338
871.692	-144
871.777	566
871.861	345
871.945	-987
872.030	-649
872.114	-782
872.198	-359
872.282	-1012
872.367	-269
872.451	-592
872.535	-339
872.619	-556
872.703	-485
872.787	-832
872.871	-112
872.955	-251
873.039	-842
873.123	112
873.207	-315
873.291	-32
873.375	391
873.459	353
873.543	-637
873.627	-299
873.711	-199
873.794	-535
873.878	-619
873.962	-1115
874.045	-304
874.129	-289
874.137	-224
874.213	422
874.245	-21
874.296	-734
874.352	-809
874.380	-848
874.460	-1193
874.464	-1207
874.547	-678
874.568	-593
874.631	-345
874.676	-502
874.714	-644
874.784	-5
874.798	116
874.881	282
874.892	207
874.965	-203
874.999	-427
875.048	-805
875.107	-918
875.131	-951
875.215	97
875.215	96
875.298	-223
875.323	-300
875.381	-506
875.430	-263
875.465	-104
875.538	252
875.548	295
875.631	-689
875.646	-774
875.714	-1086
875.753	-962
875.798	-820
875.861	-239
875.881	-67
875.964	-163
875.968	-180
876.047	-468
876.076	-506
876.130	-621
876.183	-344
876.213	-194
876.291	183
876.296	211
876.379	-437
876.398	-358
876.462	-28
876.506	62
876.545	94
876.613	-202
876.628	-272
876.711	71
876.721	35
876.794	-59
876.828	-56
876.877	-114
876.935	25
876.960	67
877.043	-163
877.043	-162
877.125	212
877.150	491
877.208	1059
877.258	525
877.291	244
877.365	224
877.374	197
877.456	757
877.472	665
877.539	562
877.579	770
877.622	753
877.687	826
877.704	903
877.787	670
877.794	691
877.869	955
877.901	711
877.952	180
878.008	-18
878.034	-30
878.115	29
878.117	29
878.199	-133
878.222	-8
878.282	377
878.329	489
878.364	486
878.437	246
878.447	252
878.529	-30
878.544	79
878.611	454
878.651	257
878.694	22
878.758	282
878.776	381
878.858	536
878.865	490
878.941	-175
878.972	-225
879.023	-226
879.078	-154
879.105	-103
879.185	-3
879.187	1
879.269	-616
879.292	-450
879.351	-118
879.399	-48
879.433	15
879.506	323
879.516	351
879.598	-6
879.613	-82
879.680	-239
879.720	-128
879.762	-3
879.827	-182
879.844	-266
879.926	17
879.933	13
880.007	243
880.040	348
880.089	359
880.147	388
880.171	503
880.253	1099
880.254	1104
880.335	2019
880.360	2198
880.417	3085
880.467	4150
880.499	5151
880.574	8235
880.580	8228
880.662	3040
880.680	2280
880.744	634
880.787	317
880.825	302
880.893	309
880.907	264
880.989	-537
881.000	-519
881.070	275
881.106	477
881.152	444
881.213	-40
881.233	-220
881.315	26
881.319	15
881.396	19
881.426	-143
881.478	-504
881.532	-231
881.559	42
881.639	-26
881.641	-31
881.722	293
881.745	259
881.803	308
881.852	447
881.885	391
881.958	450
881.966	491
882.047	133
882.064	282
882.129	738
882.171	709
882.210	789
882.277	1432
882.291	1562
882.372	1092
882.383	1073
882.454	752
882.489	738
882.535	482
882.596	-161
882.616	-150
882.697	64
882.702	87
882.778	302
882.808	382
882.859	213
882.914	-83
882.940	-98
883.020	-23
883.021	-19
883.102	-171
883.127	-213
883.183	-295
883.233	86
883.264	321
883.339	45
883.345	32
883.426	119
883.445	150
883.507	42
883.551	67
883.587	270
883.657	131
883.668	64
883.749	37
883.763	-2
883.830	187
883.869	314
883.910	120
883.975	60
883.991	108
884.072	-190
884.081	-208
884.152	-58
884.187	65
884.233	149
884.292	234
884.314	262
884.394	302
884.398	288
884.475	-298
884.504	-358
884.555	-84
884.610	-18
884.636	-19
884.716	26
884.716	31
884.797	218
884.821	237
884.877	439
884.927	404
884.958	259
885.033	349
885.038	352
885.118	79
885.139	-26
885.199	-393
885.244	-406
885.279	-122
885.350	-20
885.359	1
885.439	492
885.456	531
885.520	346
885.561	430
885.600	425
885.667	120
885.680	104
885.760	336
885.773	321
885.840	456
885.878	557
885.920	591
885.984	568
886.000	527
886.080	468
886.089	466
886.160	378
886.195	143
886.240	30
886.300	262
886.320	348
886.400	461
886.406	472
886.480	922
886.511	1046
886.560	912
886.616	737
886.640	780
886.720	907
886.722	905
886.800	779
886.827	776
886.879	139
886.932	-651
886.959	-416
887.038	356
887.039	357
887.119	82
887.143	-1
887.198	252
887.248	448
887.278	224
887.354	-381
887.358	-336
887.437	682
887.459	925
887.517	465
887.564	61
887.596	381
887.669	1131
887.676	1088
887.755	475
887.774	310
887.835	23
887.880	-135
887.914	-15
887.985	119
887.994	165
888.073	688
888.090	767
888.153	494
888.195	304
888.232	463
888.300	771
888.311	727
888.391	376
888.405	304
888.470	79
888.510	-37
888.549	471
888.615	1247
888.628	1184
888.708	825
888.720	766
888.787	775
888.825	732
888.866	559
888.930	328
888.945	391
889.024	709
889.035	745
889.103	1111
889.140	1309
889.182	1165
889.245	924
889.261	1001
889.340	1409
889.349	1445
889.419	828
889.454	526
889.498	802
889.559	1188
889.577	1075
889.656	559
889.664	508
889.735	293
889.768	188
889.814	365
889.873	601
889.978	979
890.083	312
890.187	205
890.292	913
890.397	1205
890.501	1118
890.606	518
890.710	1395
890.815	902
890.919	582
891.024	1330
891.128	893
891.233	298
891.337	1086
891.442	696
891.546	615
891.650	241
891.755	526
891.859	1336
891.963	828
892.068	556
892.172	889
892.276	706
892.380	215
892.484	643
892.589	19
892.693	674
892.797	1002
892.901	12
893.005	999
893.109	843
893.213	659
893.317	854
893.421	730
893.525	-107
893.629	653
893.733	418
893.837	334
893.941	308
894.045	957
894.148	744
894.252	3222
894.356	2165
894.460	726
894.564	813
894.667	398
894.771	581
894.875	518
894.978	746
895.082	54
895.186	186
895.289	374
895.393	1104
895.496	320
895.600	196
895.703	974
895.807	285
895.910	1174
896.014	-15
896.117	-68
896.221	882
896.324	100
896.427	189
896.531	831
896.634	377
896.737	453
896.840	586
896.944	272
897.047	708
897.150	888
897.253	225
897.356	508
897.460	65
897.563	501
897.666	425
897.769	889
897.872	-225
897.975	163
898.078	636
898.181	305
898.284	134
898.387	772
898.490	541
898.593	684
898.695	-114
898.798	1100
898.901	1104
899.004	475
899.107	-18
899.209	320
899.312	320
899.415	313
899.518	546
899.620	469
899.723	62
899.826	787
899.928	1648
900.031	519
900.133	213
900.236	667
900.338	-10
900.441	267
900.543	574
900.646	751
900.748	-245
900.851	-17
900.953	1037
901.055	1016
901.158	1119
901.260	162
901.362	411
901.465	1387
901.567	504
901.669	536
901.771	167
901.873	334
901.976	-634
902.078	498
902.180	98
902.282	418
902.384	605
902.486	1656
902.588	478
902.690	401
902.792	1534
902.894	904
902.996	35
903.098	264
903.200	99
903.302	766
903.404	791
903.505	546
903.607	636
903.709	707
903.811	195
903.913	834
904.014	171
904.116	-533
904.218	939
904.319	552
904.421	1309
904.523	1121
904.624	602
904.726	855
904.827	413
904.929	947
905.030	755
905.132	579
905.233	649
905.335	639
905.436	276
905.537	890
905.639	960
905.740	728
905.841	563
905.943	1013
906.044	988
906.145	1565
906.247	511
906.348	567
906.449	322
906.550	-56
906.651	307
906.752	239
906.854	629
906.955	447
907.056	-47
907.157	464
907.258	273
907.359	815
907.460	909
907.561	851
907.662	532
907.762	34
907.863	-32
907.964	1011
908.065	254
908.166	900
908.267	-241
908.367	-269
908.468	845
908.569	400
908.670	646
908.770	692
908.871	1287
908.971	792
909.072	410
909.173	571
909.273	-409
909.374	400
909.474	309
909.575	583
909.675	386
909.776	577
909.876	156
909.977	162
910.077	588
910.177	416
910.278	475
910.378	657
910.478	-127
910.579	812
910.679	422
910.779	-106
910.879	670
910.980	-294
911.080	8
911.180	101
911.280	-101
911.380	429
911.480	300
911.580	405
911.680	1133
911.780	-175
911.880	977
911.980	365
912.080	658
912.180	921
912.280	204
912.380	677
912.480	500
912.580	904
912.679	468
912.779	574
912.879	512
912.979	390
913.078	45
913.178	-459
913.278	355
913.377	374
913.477	476
913.577	-178
913.676	118
913.776	719
913.875	133
913.975	862
914.074	-793
914.174	619
914.273	-330
914.373	765
914.472	628
914.572	-12
914.671	-4
914.770	-217
914.870	448
914.969	879
915.068	699
915.167	907
915.267	412
915.366	194
915.465	536
915.564	582
915.663	1028
915.763	140
915.862	867
915.961	-112
916.060	502
916.159	-61
916.258	-895
916.357	-87
916.456	915
916.555	43
916.654	1016
916.752	171
916.851	-308
916.950	1004
917.049	1215
917.148	290
917.247	971
917.345	186
917.444	82
917.543	322
917.642	396
917.740	245
917.839	117
917.937	419
918.036	-24
918.135	669
918.233	57
918.332	83
918.430	368
918.529	572
918.627	-39
918.726	1349
918.824	140
918.923	633
919.021	222
919.119	163
919.218	407
919.316	-177
919.414	-446
919.512	392
919.611	647
919.709	240
919.807	-439
919.905	224
920.003	78
920.102	-40
920.200	214
920.298	449
920.396	661
920.494	66
920.592	914
920.690	598
920.788	237
920.886	552
920.984	561
921.082	11
921.180	394
921.277	488
921.375	57
921.473	506
921.571	496
921.669	542
921.766	549
921.864	671
921.962	430
922.060	746
922.157	-339
922.255	560
922.352	239
922.450	732
922.548	0
922.645	-45
922.743	494
922.840	638
922.938	308
923.035	333
923.133	296
923.230	79
923.327	827
923.425	1396
923.522	895
923.619	437
923.717	851
923.814	302
923.911	-394
924.008	1322
924.106	297
924.203	922
924.300	527
924.397	63
924.494	140
924.591	382
924.688	1187
924.786	765
924.883	983
924.979	-181
925.077	612
925.173	190
925.270	207
925.367	814
925.464	587
925.561	803
925.658	723
925.755	1129
925.852	1334
925.948	626
926.045	566
926.142	1414
926.239	1660
926.335	1683
926.432	1138
926.529	619
926.625	1437
926.722	1584
926.818	1167
926.915	1528
927.011	262
927.108	355
927.204	562
927.301	-8
927.397	-167
927.494	853
927.590	208
927.687	-167
927.783	-760
927.879	677
927.976	306
928.072	48
928.168	20
928.264	923
928.361	-393
928.457	1228
928.553	645
928.649	986
928.745	451
928.841	49
928.937	-13
929.033	564
929.129	41
929.225	-607
929.321	137
929.417	-289
929.513	723
929.609	-120
929.705	-333
929.801	-121
929.897	-1170
929.993	280
930.089	54
930.184	557
930.280	506
930.376	-560
930.471	38
930.567	849
930.663	-41
930.758	-170
930.854	-454
930.950	-681
931.045	-300
931.141	914
931.236	775
931.332	495
931.427	-694
931.523	483
931.618	843
931.714	-390
931.809	-343
931.905	-197
932.000	-293
932.095	-848
932.191	96
932.286	328
932.381	-267
932.476	-335
932.572	-318
932.667	-382
932.762	-190
932.857	113
932.952	408
933.047	-163
933.142	173
933.237	89
933.332	-501
933.427	190
933.522	39
933.617	121
933.712	631
933.807	21
933.902	329
933.997	557
934.092	-372
934.187	680
934.282	-854
934.376	-40
934.471	274
934.566	-320
934.661	-563
934.755	354
934.850	-1018
934.945	176
935.039	371
935.134	56
935.228	-697
935.323	590
935.417	377
935.512	-246
935.606	553
935.701	61
935.795	-80
935.890	-59
935.984	581
936.079	339
936.173	-664
936.267	-560
936.362	-324
936.456	-461
936.550	281
936.644	267
936.738	-306
936.833	-735
936.927	737
937.021	118
937.115	192
937.209	-1181
937.303	1088
937.397	-420
937.491	1312
937.585	-102
937.679	-280
937.773	213
937.867	457
937.961	-273
938.055	-421
938.149	438
938.243	-432
938.337	-136
938.430	-44
938.524	-376
938.618	1454
938.712	1748
938.805	36
938.899	191
938.993	647
939.086	719
939.180	1612
939.274	3023
939.367	661
939.461	557
939.554	78
939.648	437
939.741	-261
939.835	492
939.928	612
940.022	388
940.115	-477
940.208	-122
940.302	564
940.395	-386
940.488	-623
940.582	197
940.675	7
940.768	-793
940.861	-333
940.954	502
941.048	-164
941.141	182
941.234	32
941.327	1589
941.420	2245
941.513	870
941.606	264
941.699	291
941.792	-577
941.885	-617
941.978	324
942.071	72
942.164	-406
942.257	-233
942.349	405
942.442	-200
942.535	-872
942.628	-604
942.721	-334
942.813	-157
942.906	511
942.999	-164
943.091	-646
943.184	376
943.277	411
943.369	-242
943.462	-120
943.554	95
943.647	-124
943.739	847
943.832	118
943.924	-128
944.017	286
944.109	-354
944.201	-500
944.294	314
944.386	-258
944.478	-457
944.571	50
944.663	62
944.755	769
944.847	350
944.940	-104
945.032	-575
945.124	-750
945.216	804
945.308	-644
945.400	-199
945.492	-379
945.584	-565
945.676	-1159
945.768	-328
945.860	604
945.952	-921
946.044	270
946.136	165
946.228	-151
946.320	593
946.412	407
946.503	-716
946.595	755
946.687	213
946.779	237
946.870	-125
946.962	-423
947.054	259
947.145	311
947.237	-153
947.329	126
947.420	-690
947.512	-334
947.603	-772
947.695	-435
947.786	-74
947.878	-542
947.969	703
948.061	-915
948.152	-638
948.243	-455
948.335	-228
948.426	-377
948.517	124
948.609	-351
948.700	-565
948.791	-336
948.882	607
948.973	-501
949.065	-545
949.156	-433
949.247	-849
949.338	-34
949.429	-818
949.520	-728
949.611	-525
949.702	-14
949.793	-13
949.884	-263
949.975	-73
950.066	410
950.157	43
950.247	-109
950.338	-108
950.429	20
950.520	-328
950.611	-364
950.701	891
950.792	289
950.883	681
950.973	547
951.064	-64
951.155	49
951.245	-9
951.336	-266
951.427	-602
951.517	-132
951.608	-58
951.698	-897
951.788	-170
951.879	197
951.969	-720
952.060	-514
952.150	43
952.240	-511
952.331	-1647
952.421	602
952.511	-808
952.602	-411
952.692	-18
952.782	-202
952.872	-610
952.962	99
953.052	358
953.143	-329
953.233	-405
953.323	-317
953.413	-406
953.503	-608
953.593	-221
953.683	-1446
953.773	-793
953.863	12
953.953	-822
954.042	157
954.132	-709
954.222	-194
954.312	176
954.402	240
954.492	468
954.581	-357
954.671	-9
954.761	-1109
954.850	430
954.940	-400
955.030	-457
955.119	-14
955.209	421
955.298	-1098
955.388	-166
955.477	-828
955.567	-719
955.656	-295
955.746	136
955.835	-604
955.925	-15
956.014	-311
956.103	574
956.193	-121
956.282	18
956.371	500
956.461	203
956.550	-662
956.639	290
956.728	-482
956.817	60
956.906	-384
956.995	441
957.085	-617
957.174	118
957.263	306
957.352	-715
957.441	114
957.530	-374
957.619	566
957.708	37
957.796	-124
957.885	729
957.974	-278
958.063	365
958.152	-667
958.241	58
958.329	65
958.418	-47
958.507	-725
958.596	745
958.684	-350
958.773	731
958.861	-411
958.950	592
959.039	766
959.127	981
959.216	1098
959.304	173
959.393	869
959.481	745
959.570	456
959.658	12
959.746	613
959.835	1288
959.923	772
960.011	14
960.100	535
960.188	573
960.276	1
960.365	-637
960.453	162
960.541	-945
960.629	-12
960.717	-181
960.805	-263
960.893	-201
960.981	-672
961.069	361
961.158	-117
961.245	-30
961.333	-447
961.421	-454
961.509	-162
961.597	-90
961.685	-393
961.773	-405
961.861	-1055
961.949	-324
962.036	-906
962.124	-302
962.212	258
962.299	-595
962.387	-770
962.475	-1005
962.562	-1334
962.650	-316
962.738	-603
962.825	-836
962.913	-718
963.000	411
963.088	-919
963.175	-285
963.263	-429
963.350	148
963.438	-775
963.525	-746
963.612	1022
963.700	1920
963.787	6520
963.874	3890
963.962	-110
964.049	-808
964.136	-663
964.223	-1362
964.310	-867
964.398	-544
964.485	-864
964.572	23
964.659	217
964.746	-147
964.833	-403
964.920	-971
965.007	-806
965.094	-962
965.181	-943
965.268	-578
965.355	-1017
965.441	-450
965.528	-1063
965.615	-246
965.702	-1085
965.789	-479
965.875	-791
965.962	-1183
966.049	-1180
966.136	-989
966.222	-1366
966.309	-770
966.395	-1611
966.482	-421
966.569	-1312
966.655	-1144
966.742	-1183
966.828	-191
966.915	-1246
967.001	-608
967.087	-897
967.174	-989
967.260	-92
967.347	-110
967.433	1284
967.519	3122
967.605	1324
967.692	-517
967.778	-986
967.864	903
967.950	-992
968.036	-767
968.123	-774
968.209	-15
968.295	-1717
968.381	500
968.467	-919
968.553	-758
968.639	-425
968.725	-1642
968.811	93
968.897	0
968.983	-765
969.069	-1064
969.154	-413
969.240	-760
969.326	-1156
969.412	-1047
969.497	-731
969.583	-1516
969.669	-527
969.755	-300
969.840	-1202
969.926	-1324
970.012	-1300
970.097	-36
970.183	-301
970.268	-205
970.354	125
970.439	-440
970.525	2700
970.610	2
970.696	-228
970.781	-450
970.866	-1602
970.952	-632
971.037	-1158
971.122	-794
971.208	-889
971.293	-1463
971.378	-1572
971.463	-1657
971.549	-1105
971.634	-646
971.719	-991
971.804	-1284
971.889	-515
971.974	-871
972.059	-1342
972.144	-612
972.229	-1046
972.314	-472
972.399	-992
972.484	-1632
972.569	-1153
972.654	-1111
972.739	811
972.824	567
972.908	-1017
972.993	-1099
973.078	-1590
973.163	-1430
973.247	-537
973.332	-943
973.417	135
973.501	-799
973.586	-1021
973.671	-172
973.755	-1632
973.840	331
973.924	-685
974.009	-420
974.093	-1564
974.178	-495
974.262	-425
974.346	165
974.431	-788
974.515	-864
974.600	-1582
974.684	-733
974.768	-1455
974.852	-685
974.937	-1176
975.021	-970
975.105	-1147
975.189	-562
975.273	-772
975.358	-1105
975.442	-1491
975.526	-400
975.610	-976
975.694	-1809
975.778	172
975.862	-1005
975.946	-2148
976.030	23
976.114	-1314
976.198	-1134
976.281	-1224
976.365	-84
976.449	-1252
976.533	-286
976.617	-1452
976.700	-866
976.784	-2200
976.868	-1200
976.951	73
977.035	-461
977.119	-969
977.202	-1157
977.286	-784
977.369	-321
977.453	-620
977.536	-675
977.620	-1487
977.703	-400
977.787	-2048
977.870	-586
977.953	112
978.037	-1053
978.120	-32
978.203	-711
978.287	-37
978.370	-239
978.453	-1231
978.536	-1103
978.620	127
978.703	123
978.786	-556
978.869	-2176
978.952	-2228
979.035	-435
979.118	-340
979.201	-1533
979.284	-1776
979.367	-1276
979.450	-835
979.533	-1271
979.616	-794
979.699	-1550
979.782	-663
979.865	-418
979.948	-147
980.030	-1788
980.113	-705
980.196	-1186
980.279	-367
980.361	-1123
980.444	-1105
980.526	-1111
980.609	-970
980.692	-784
980.774	-472
980.857	-2028
980.939	-389
981.022	-1692
981.104	-1234
981.187	-189
981.269	-389
981.352	-1044
981.434	-765
981.516	-898
981.599	-861
981.681	-535
981.763	-780
981.846	-686
981.928	-1698
982.010	-944
982.092	-1924
982.174	-475
982.256	-1660
982.339	-867
982.421	-634
982.503	-816
982.585	-1668
982.667	-1009
982.749	-706
982.831	-869
982.913	-1723
982.995	-891
983.077	-1750
983.158	-217
983.240	-1555
983.322	-1358
983.404	-104
983.486	-1467
983.568	-1249
983.649	-1060
983.731	-570
983.813	-439
983.894	-941
983.976	-744
984.058	-893
984.139	-1116
984.221	-1350
984.302	-739
984.384	-1316
984.465	-1742
984.547	-881
984.628	-1042
984.710	-627
984.791	-1604
984.872	-1586
984.954	-1459
985.035	-377
985.116	-1451
985.198	-1004
985.279	-661
985.360	-850
985.441	-1303
985.522	-592
985.604	-883
985.685	-1660
985.766	-269
985.847	-411
985.928	-1604
986.009	-957
986.090	-1365
986.171	-479
986.252	-1105
986.333	-1235
986.414	-727
986.495	-874
986.576	-1192
986.656	-917
986.737	-365
986.818	-1182
986.899	-1362
986.980	-1158
987.060	-433
987.141	-1396
987.222	-1196
987.302	-1454
987.383	-1198
987.464	-752
987.544	-1170
987.625	-1215
987.705	-679
987.786	-1483
987.866	-499
987.947	-1482
988.027	-173
988.108	-2133
988.188	-685
988.268	-1242
988.349	-400
988.429	-995
988.509	-436
988.589	-2105
988.670	-2046
988.750	-22
988.830	-1012
988.910	-1157
988.990	-937
989.070	-910
989.151	-1267
989.231	-1581
989.311	-1621
989.391	-568
989.471	-1296
989.551	-1068
989.631	-687
989.711	-138
989.791	-1543
989.870	-795
989.950	-768
990.030	-146
990.110	-1732
990.190	-1113
990.269	-593
990.349	-210
990.429	-1034
990.509	11
990.588	-1966
990.668	-1330
990.747	-1262
990.827	-577
990.907	-821
990.986	-1049
991.066	-1042
991.145	-1420
991.225	-504
991.304	-774
991.383	-456
991.463	-1245
991.542	-1046
991.622	-1479
991.701	-799
991.780	-1286
991.859	-1186
991.939	-1334
992.018	-1452
992.097	-1023
992.176	-236
992.256	-1009
992.335	-1657
992.414	-945
992.493	-1430
992.572	-722
992.651	-430
992.730	-1144
992.809	-1472
992.888	-722
992.967	-1046
993.046	-1173
993.125	-1987
993.203	-578
993.282	-411
993.361	-278
993.440	-679
993.519	-1357
993.597	-598
993.676	-684
993.755	-411
993.834	-1258
993.912	-1349
993.991	-906
994.069	-1741
994.148	-1390
994.226	-1072
994.305	-1124
994.384	-1574
994.462	-367
994.540	-1135
994.619	-1297
994.697	-951
994.776	-1884
994.854	-1400
994.932	-2159
995.011	-449
995.089	-1692
995.167	-1114
995.245	-1005
995.324	-1441
995.402	-1086
995.480	-1259
995.558	-1233
995.636	-1840
995.714	-550
995.792	-768
995.870	-2154
995.948	-1911
996.026	-824
996.104	-2171
996.182	-792
996.260	-660
996.338	-1204
996.416	-2331
996.494	-1298
996.572	-780
996.649	-885
996.727	-2132
996.805	-455
996.883	-998
996.960	-1683
997.038	-1128
997.116	-1151
997.193	-2231
997.271	-1217
997.348	-1413
997.426	-1092
997.504	-2102
997.581	-869
997.658	-802
997.736	-1677
997.813	-1796
997.891	-590
997.968	-1713
998.046	-1950
998.123	-1882
998.200	-1271
998.277	-2003
998.355	-1395
998.432	-1703
998.509	-1484
998.586	-858
998.663	-1036
998.741	-1786
998.818	-1610
998.895	-1373
998.972	-1322
999.049	-1641
999.126	-1912
999.203	-910
999.280	-1183
999.357	-1263
999.434	-1924
999.511	-1836
999.587	-529
999.664	-1767
999.741	-1459
999.818	-833
999.895	-1787
999.971	-1280
1000.048	-1484
1000.125	-697
1000.202	-2650
1000.278	-678
1000.355	-1468
1000.431	-1449
1000.508	-2349
1000.584	-1374
1000.661	-1283
1000.738	-842
1000.814	-2172
1000.890	-1211
1000.967	-1527
1001.043	-1198
1001.120	-1825
1001.196	-1398
1001.272	-2837
1001.349	-1304
1001.425	-1120
1001.501	-1455
1001.577	-1375
1001.654	-1016
1001.730	-882
1001.806	-1113
1001.882	-2297
1001.958	-1165
1002.034	-1140
1002.110	-1570
1002.186	-1590
1002.262	-1739
1002.338	-1093
1002.414	-1678
1002.490	-1377
1002.566	-1477
1002.642	-1664
1002.718	-447
1002.794	-2163
1002.870	-1904
1002.945	-1050
1003.021	-642
1003.097	-1525
1003.173	-663
1003.248	-1398
1003.324	-1259
1003.400	-2202
1003.475	-1651
1003.551	-1714
1003.626	-1708
1003.702	-1910
1003.777	-1812
1003.853	-1774
1003.928	-1358
1004.004	-930
1004.079	-1431
1004.155	-1743
1004.230	-1867
1004.305	-481
1004.381	-2159
1004.456	-1947
1004.531	-1853
1004.607	-1692
1004.682	-1316
1004.757	-1436
1004.832	-1560
1004.907	-1037
1004.982	-1519
1005.057	-1148
1005.133	-1146
1005.208	-2220
1005.283	-2041
1005.358	-1364
1005.433	-1671
1005.508	-1255
1005.583	-1481
1005.657	-1097
1005.732	-1200
1005.807	-1540
1005.882	-1940
1005.957	-1241
1006.032	-1161
1006.106	-2183
1006.181	-1437
1006.256	-1420
1006.331	-2554
1006.405	-2228
1006.480	-1803
1006.554	-1822
1006.629	-1514
1006.704	-1831
1006.778	-1616
1006.853	-1608
1006.927	-1634
1007.002	-1135
1007.076	-1138
1007.150	-1965
1007.225	-1328
1007.299	-1467
1007.373	-1954
1007.448	-1798
1007.522	-1104
1007.596	-946
1007.671	-1556
1007.745	-1312
1007.819	-1937
1007.893	-1454
1007.967	-914
1008.041	-3274
1008.115	-974
1008.190	-2021
1008.264	-1795
1008.338	-2297
1008.412	-2151
1008.486	-1383
1008.560	-1384
1008.633	-1634
1008.707	-1373
1008.781	-1558
1008.855	-2348
1008.929	-1412
1009.003	-1584
1009.076	-1887
1009.150	-1762
1009.224	-2071
1009.298	-1947
1009.371	-1861
1009.445	-314
1009.519	-1549
1009.592	-1833
1009.666	-1700
1009.739	-1357
1009.813	-2328
1009.886	-924
1009.960	-1898
1010.033	-1949
1010.107	-1225
1010.180	-1610
1010.253	-1436
1010.327	-1431
1010.400	-1275
1010.473	-1587
1010.547	-528
1010.620	-2119
1010.693	-724
1010.766	-825
1010.840	-1100
1010.913	-1671
1010.986	-2036
1011.059	-1910
1011.132	-1643
1011.205	-511
1011.278	-1647
1011.351	-1731
1011.424	-1212
1011.497	-2271
1011.570	-1036
1011.643	-1882
1011.716	-1726
1011.789	-2031
1011.862	-1104
1011.934	-1867
1012.007	-2222
1012.080	-2052
1012.153	-1668
1012.225	-707
1012.298	-1864
1012.371	-1822
1012.443	-892
1012.516	-1898
1012.588	-1946
1012.661	-1611
1012.733	-2307
1012.806	-1526
1012.879	-2310
1012.951	-2075
1013.023	-1742
1013.096	-905
1013.168	-1690
1013.241	-953
1013.313	-2266
1013.385	-1852
1013.458	-1693
1013.530	-1052
1013.602	-2444
1013.674	-695
1013.746	-1566
1013.819	-2080
1013.891	-955
1013.963	-1855
1014.035	-2018
1014.107	-1685
1014.179	-1035
1014.251	-1496
1014.323	-936
1014.395	-1635
1014.467	-1290
1014.539	-1303
1014.611	-1859
1014.683	-1760
1014.754	-1718
1014.826	-2192
1014.898	-1460
1014.970	-1513
1015.042	-1217
1015.113	-1337
1015.185	-1641
1015.257	-2437
1015.328	-1949
1015.400	-2067
1015.471	-1051
1015.543	-2872
1015.615	-1331
1015.686	-2145
1015.757	-1807
1015.829	-1673
1015.901	-1428
1015.972	-1543
1016.043	-1903
1016.115	-1846
1016.186	-1081
1016.257	-1701
1016.328	-2096
1016.400	-686
1016.471	-2191
1016.542	-2238
1016.613	-1402
1016.685	-1594
1016.756	-2087
1016.827	-1699
1016.898	-2503
1016.969	-1223
1017.040	-2069
1017.111	-1668
1017.182	-2339
1017.253	-1483
1017.324	-1998
1017.395	-1627
1017.466	-2218
1017.537	-1371
1017.608	-1579
1017.678	-1395
1017.749	-2091
1017.820	-2065
1017.891	-1909
1017.961	-1742
1018.032	-1699
1018.103	-2867
1018.173	-2615
1018.244	-2954
1018.315	-2380
1018.385	-1458
1018.456	-1872
1018.526	-2057
1018.597	-2429
1018.667	-2184
1018.738	-2295
1018.808	-2469
1018.878	-1771
1018.949	-1257
1019.019	-1936
1019.089	-2120
1019.160	-2273
1019.230	-2306
1019.300	-1615
1019.371	-2531
1019.441	-1993
1019.511	-1516
1019.581	-2597
1019.651	-1891
1019.721	-1974
1019.791	-2802
1019.861	-1812
1019.931	-2246
1020.001	-1923
1020.071	-1570
1020.141	-2316
1020.211	-2383
1020.281	-1689
1020.351	-2429
1020.421	-1372
1020.491	-2217
1020.560	-1660
1020.630	-1706
1020.700	-1977
1020.770	-1679
1020.839	-2888
1020.909	-1715
1020.979	-2404
1021.048	-1806
1021.118	-1595
1021.187	-1353
1021.257	-2083
1021.326	-2118
1021.396	-1970
1021.465	-2023
1021.535	-1558
1021.604	-1885
1021.674	-2213
1021.743	-2497
1021.812	-2022
1021.882	-1674
1021.951	-2030
1022.020	-2001
1022.089	-1914
1022.159	-2681
1022.228	-1505
1022.297	-2208
1022.366	-2263
1022.435	-2369
1022.504	-1992
1022.573	-2495
1022.642	-1471
1022.711	-1430
1022.781	-2152
1022.849	-1452
1022.918	-2322
1022.987	-1677
1023.056	-1671
1023.125	-2146
1023.194	-1729
1023.263	-2288
1023.331	-2366
1023.400	-2108
1023.469	-1958
1023.538	-1574
1023.606	-2427
1023.675	-1778
1023.744	-2015
1023.812	-1883
1023.881	-1667
1023.949	-1407
1024.018	-2601
1024.086	-2869
1024.155	-1539
1024.223	-2681
1024.292	-1572
1024.360	-1696
1024.429	-1859
1024.497	-2064
1024.565	-1264
1024.634	-2189
1024.702	-2041
1024.770	-1332
1024.838	-2481
1024.907	-1756
1024.975	-2121
1025.043	-2105
1025.111	-2372
1025.179	-2287
1025.247	-3480
1025.315	-2257
1025.383	-2146
1025.451	-2543
1025.519	-2609
1025.587	-1941
1025.655	-2927
1025.723	-2861
1025.791	-2510
1025.859	-1568
1025.927	-2313
1025.995	-2921
1026.062	-1927
1026.130	-2277
1026.198	-2208
1026.266	-2713
1026.333	-1731
1026.401	-1638
1026.469	-2464
1026.536	-2073
1026.604	-1703
1026.671	-1707
1026.739	-2266
1026.806	-1758
1026.874	-2486
1026.941	-1492
1027.009	-2857
1027.076	-2190
1027.144	-2233
1027.211	-1907
1027.278	-2140
1027.345	-1054
1027.413	-2541
1027.480	-2374
1027.547	-2228
1027.614	-2553
1027.682	-2334
1027.749	-1979
1027.816	-1947
1027.883	-2405
1027.950	-1656
1028.017	-3075
1028.084	-1714
1028.151	-2192
1028.218	-3322
1028.285	-1876
1028.352	-2616
1028.419	-2105
1028.486	-2002
1028.553	-1759
1028.619	-2032
1028.686	-1849
1028.753	-2283
1028.820	-2286
1028.886	-1271
1028.953	-2223
1029.020	-1459
1029.086	-2279
1029.153	-1873
1029.220	-1734
1029.286	-1975
1029.353	-1712
1029.419	-2632
1029.486	-2051
1029.552	-2840
1029.619	-2251
1029.685	-3002
1029.751	-1511
1029.818	-1749
1029.884	-1766
1029.951	-2013
1030.017	-2598
1030.083	-1804
1030.149	-2246
1030.216	-1647
1030.282	-1757
1030.348	-2199
1030.414	-1835
1030.480	-1696
1030.546	-2381
1030.612	-2305
1030.678	-1778
1030.744	-1761
1030.810	-1780
1030.876	-2561
1030.942	-2097
1031.008	-2365
1031.074	-2262
1031.140	-2088
1031.206	-2050
1031.272	-2647
1031.337	-2767
1031.403	-1865
1031.469	-2562
1031.534	-2407
1031.600	-1588
1031.666	-2614
1031.731	-1888
1031.797	-1770
1031.863	-2287
1031.928	-1758
1031.994	-2355
1032.059	-873
1032.125	-2941
1032.190	-2437
1032.256	-1910
1032.321	-2710
1032.386	-1897
1032.452	-1772
1032.517	-2626
1032.582	-2258
1032.647	-1592
1032.713	-2716
1032.778	-1834
1032.843	-1848
1032.908	-2344
1032.974	-1301
1033.039	-2930
1033.104	-1699
1033.169	-2548
1033.234	-2351
1033.299	-1778
1033.364	-1563
1033.429	-1962
1033.494	-1823
1033.559	-2106
1033.624	-1435
1033.688	-1430
1033.753	-2754
1033.818	-1379
1033.883	-2383
1033.948	-1943
1034.013	-2222
1034.077	-2037
1034.142	-1993
1034.207	-2383
1034.271	-1443
1034.336	-1687
1034.400	-2178
1034.465	-1667
1034.530	-2298
1034.594	-1552
1034.658	-2338
1034.723	-2146
1034.787	-1962
1034.852	-2206
1034.916	-2466
1034.981	-2524
1035.045	-1060
1035.109	-2584
1035.173	-1953
1035.238	-2519
1035.302	-1744
1035.366	-2544
1035.430	-1886
1035.495	-2667
1035.559	-1913
1035.623	-2492
1035.687	-2495
1035.751	-2723
1035.815	-1972
1035.879	-2781
1035.943	-2308
1036.007	-1839
1036.071	-1588
1036.135	-2037
1036.198	-1585
1036.262	-3041
1036.326	-2283
1036.390	-2169
1036.454	-2863
1036.517	-1467
1036.581	-1898
1036.645	-1554
1036.709	-1767
1036.772	-2346
1036.836	-1242
1036.900	-2068
1036.963	-2232
1037.026	-1415
1037.090	-2611
1037.154	-2275
1037.217	-1643
1037.280	-2417
1037.344	-2066
1037.407	-2064
1037.471	-2288
1037.534	-1974
1037.597	-3101
1037.661	-2650
1037.724	-2179
1037.787	-2593
1037.850	-1989
1037.913	-2847
1037.977	-1854
1038.040	-2276
1038.103	-1773
1038.166	-2183
1038.229	-2733
1038.292	-1590
1038.355	-1569
1038.418	-2198
1038.481	-2356
1038.544	-2208
1038.607	-2591
1038.670	-2447
1038.732	-1936
1038.795	-2360
1038.858	-2130
1038.921	-1711
1038.984	-1894
1039.046	-2927
1039.109	-2882
1039.172	-2227
1039.234	-2142
1039.297	-2939
1039.360	-2372
1039.422	-2142
1039.485	-1557
1039.547	-2222
1039.610	-1790
1039.672	-1488
1039.734	-2763
1039.797	-2060
1039.859	-1965
1039.922	-3106
1039.984	-1930
1040.046	-2244
1040.109	-2251
1040.171	-2332
1040.233	-1772
1040.295	-2034
1040.358	-2177
1040.420	-2150
1040.482	-2360
1040.544	-2028
1040.606	-2130
1040.668	-2734
1040.730	-2026
1040.792	-2337
1040.854	-2103
1040.916	-2717
1040.978	-2677
1041.040	-2124
1041.102	-2168
1041.164	-2155
1041.225	-2598
1041.287	-2156
1041.349	-2197
1041.411	-1624
1041.472	-1880
1041.534	-2805
1041.596	-1885
1041.657	-2144
1041.719	-2416
1041.781	-2473
1041.842	-1833
1041.904	-2318
1041.965	-2431
1042.027	-1473
1042.088	-1529
1042.150	-1930
1042.211	-2328
1042.272	-2202
1042.334	-2107
1042.395	-2650
1042.456	-2588
1042.518	-1703
1042.579	-2215
1042.640	-1317
1042.701	-2065
1042.763	-1833
1042.824	-2551
1042.885	-1869
1042.946	-2894
1043.007	-2379
1043.068	-2288
1043.129	-2879
1043.190	-2672
1043.251	-1901
1043.312	-2477
1043.373	-2311
1043.434	-1632
1043.495	-2626
1043.556	-2454
1043.616	-1864
1043.677	-2074
1043.738	-2239
1043.799	-2521
1043.859	-2047
1043.920	-2840
1043.981	-1974
1044.041	-2019
1044.102	-3285
1044.162	-2545
1044.223	-2607
1044.284	-2378
1044.344	-2171
1044.405	-2322
1044.465	-2360
1044.525	-2002
1044.586	-1932
1044.646	-2295
1044.707	-2116
1044.767	-2394
1044.827	-1498
1044.887	-1800
1044.948	-1449
1045.008	-2827
1045.068	-2366
1045.128	-1800
1045.188	-3134
1045.249	-2310
1045.309	-2118
1045.369	-2103
1045.429	-2164
1045.489	-2500
1045.549	-1695
1045.609	-2232
1045.669	-2385
1045.729	-1882
1045.789	-2391
1045.848	-2094
1045.908	-1973
1045.968	-1016
1046.028	-1665
1046.088	-1559
1046.147	-1806
1046.207	-2645
1046.267	-1312
1046.326	-2426
1046.386	-2019
1046.446	-1956
1046.505	-1468
1046.565	-1605
1046.624	-1481
1046.684	-1290
1046.743	-1383
1046.803	-845
1046.862	-841
1046.922	0
