'Start Wavelength	183.907
'End Wavelength	1046.922
'Gate Delay	5.000
'Gate Width (ms)	1.050
'Laser Output Level	0.000
'X Position	0.000
'Y Position	0.000
'Z Position	0.000
'Grid Point Number	1.000
'Shot Number	100.000
183.907	717.000
183.977	-258.000
184.047	-351
184.116	468
184.186	354
184.256	571
184.325	-494
184.395	395
184.465	440
184.534	-666
184.604	-142
184.674	798
184.743	134
184.813	-211
184.883	43
184.952	387
185.022	609
185.092	567
185.161	147
185.231	533
185.301	170
185.370	324
185.440	299
185.509	-277
185.579	259
185.649	78
185.718	-381
185.788	325
185.857	-45
185.927	132
185.996	-202
186.066	507
186.136	654
186.205	449
186.275	427
186.344	-10
186.414	200
186.483	262
186.553	1025
186.622	445
186.692	683
186.761	187
186.831	174
186.900	334
186.970	299
187.039	66
187.109	406
187.178	688
187.248	31
187.317	1485
187.387	-428
187.456	376
187.526	544
187.595	695
187.664	-413
187.734	630
187.803	551
187.873	647
187.942	456
188.012	914
188.081	418
188.150	602
188.220	516
188.289	295
188.358	518
188.428	1256
188.497	259
188.567	1041
188.636	243
188.705	510
188.775	398
188.844	22
188.913	901
188.983	372
189.052	-50
189.121	894
189.191	180
189.260	1593
189.329	1261
189.399	947
189.468	269
189.537	54
189.606	420
189.676	1013
189.745	597
189.814	1722
189.883	385
189.953	527
190.022	817
190.091	1518
190.161	2132
190.230	1412
190.299	522
190.368	620
190.437	-118
190.507	751
190.576	799
190.645	54
190.714	-29
190.783	412
190.853	282
190.922	974
190.991	9
191.060	560
191.129	-112
191.198	1071
191.268	902
191.337	215
191.406	651
191.475	633
191.544	490
191.613	260
191.682	400
191.752	128
191.821	509
191.890	1337
191.959	413
192.028	1094
192.097	1128
192.166	557
192.235	-277
192.304	1154
192.373	505
192.442	500
192.511	1006
192.580	599
192.650	457
192.719	1347
192.788	715
192.857	1222
192.926	531
192.995	1186
193.064	1486
193.133	1638
193.202	2232
193.271	2045
193.340	984
193.409	1660
193.478	1378
193.547	2696
193.615	2112
193.684	3121
193.753	2532
193.822	1833
193.891	465
193.960	1258
194.029	573
194.098	1829
194.167	-266
194.236	1414
194.305	-325
194.374	930
194.443	843
194.512	756
194.580	1077
194.649	1770
194.718	1117
194.787	920
194.856	343
194.925	1191
194.994	1510
195.062	1367
195.131	1255
195.200	1406
195.269	1407
195.338	562
195.407	521
195.475	915
195.544	1037
195.613	1489
195.682	1019
195.751	1866
195.819	867
195.888	1621
195.957	1854
196.026	1314
196.094	868
196.163	1788
196.232	1324
196.301	1914
196.369	1550
196.438	1359
196.507	989
196.576	739
196.644	629
196.713	1411
196.782	769
196.850	1668
196.919	660
196.988	1153
197.056	1062
197.125	1257
197.194	961
197.262	598
197.331	861
197.400	1595
197.468	1017
197.537	1274
197.606	398
197.674	1963
197.743	1913
197.812	1361
197.880	2421
197.949	1836
198.017	2142
198.086	1874
198.155	1705
198.223	1295
198.292	2391
198.360	2018
198.429	1354
198.497	1569
198.566	1521
198.635	2882
198.703	1267
198.772	1567
198.840	3031
198.909	3295
198.977	1768
199.046	1650
199.114	1064
199.183	1997
199.251	1216
199.320	1348
199.388	1111
199.457	626
199.525	1094
199.594	1636
199.662	1438
199.731	908
199.799	1130
199.867	1392
199.936	1354
200.004	1189
200.073	1274
200.141	999
200.210	733
200.278	699
200.346	560
200.415	1041
200.483	1712
200.552	1966
200.620	770
200.688	1590
200.757	1749
200.825	341
200.893	1197
200.962	945
201.030	645
201.098	890
201.167	1593
201.235	1201
201.303	1583
201.372	1607
201.440	1245
201.508	1726
201.577	1635
201.645	1728
201.713	1577
201.781	2078
201.850	1592
201.918	1397
201.986	1454
202.055	2211
202.123	662
202.191	1925
202.259	1930
202.327	960
202.396	540
202.464	1001
202.532	1443
202.600	3096
202.669	2003
202.737	2463
202.805	1658
202.873	1093
202.941	1455
203.009	1750
203.078	1163
203.146	1848
203.214	1450
203.282	638
203.350	1997
203.418	1869
203.487	1677
203.555	1340
203.623	1940
203.691	2086
203.759	1920
203.827	1285
203.895	1740
203.963	2398
204.031	1670
204.099	1941
204.168	603
204.236	2253
204.304	1987
204.372	1815
204.440	1857
204.508	1675
204.576	1169
204.644	1030
204.712	765
204.780	1970
204.848	1718
204.916	1954
204.984	1762
205.052	1892
205.120	1142
205.188	2462
205.256	1307
205.324	2514
205.392	1773
205.460	1893
205.528	1940
205.596	2442
205.664	1580
205.732	2022
205.799	4081
205.867	6221
205.935	2587
206.003	2565
206.071	1619
206.139	2572
206.207	1657
206.275	1420
206.343	925
206.411	1778
206.478	1263
206.546	2205
206.614	1977
206.682	2473
206.750	2028
206.818	2307
206.885	2384
206.953	1887
207.021	1917
207.089	2934
207.157	1540
207.225	2091
207.292	980
207.360	2398
207.428	2236
207.496	1879
207.563	1593
207.631	2240
207.699	1753
207.767	1476
207.834	1976
207.902	2178
207.970	1320
208.038	2179
208.105	2598
208.173	2883
208.241	2948
208.309	3119
208.376	2352
208.444	3984
208.512	2283
208.579	1507
208.647	3002
208.715	3149
208.782	2333
208.850	2161
208.918	2386
208.985	2736
209.053	2070
209.120	2517
209.188	1177
209.256	3544
209.323	1547
209.391	3178
209.459	3393
209.526	2600
209.594	2953
209.661	3000
209.729	1328
209.796	1516
209.864	2732
209.932	2059
209.999	3365
210.067	3046
210.134	2567
210.202	2811
210.269	3285
210.337	3996
210.404	2362
210.472	2508
210.539	2570
210.607	2946
210.674	3264
210.742	3333
210.809	3081
210.877	3410
210.944	3250
211.012	3428
211.079	3822
211.146	2182
211.214	2841
211.281	3446
211.349	3005
211.416	2978
211.484	3278
211.551	2865
211.618	3163
211.686	3649
211.753	2552
211.821	3640
211.888	2866
211.955	3154
212.023	2867
212.090	2771
212.157	3169
212.225	3646
212.292	5542
212.359	8469
212.427	12262
212.494	8288
212.561	5443
212.629	4889
212.696	3740
212.763	4583
212.831	2676
212.898	3856
212.965	2703
213.032	3061
213.100	3510
213.167	3880
213.234	4184
213.301	3074
213.369	3588
213.436	2953
213.503	3222
213.570	3828
213.638	2482
213.705	3032
213.772	2654
213.839	3411
213.906	3923
213.973	3863
214.041	3377
214.108	3762
214.175	3019
214.242	3719
214.309	3280
214.376	4415
214.444	3243
214.511	3904
214.578	3455
214.645	4100
214.712	3916
214.779	4227
214.846	3373
214.913	4470
214.980	4041
215.048	4067
215.115	4816
215.182	4077
215.249	3831
215.316	3962
215.383	3338
215.450	4002
215.517	2731
215.584	3792
215.651	3355
215.718	3441
215.785	3699
215.852	3607
215.919	3645
215.986	4459
216.053	2703
216.120	3160
216.187	2995
216.254	4369
216.321	3244
216.388	3303
216.455	4159
216.522	3675
216.589	4375
216.656	5481
216.722	5949
216.789	6107
216.856	5526
216.923	5066
216.990	4826
217.057	5237
217.124	5454
217.191	5681
217.258	5692
217.324	6685
217.391	6261
217.458	5705
217.525	5327
217.592	4686
217.659	3585
217.725	4731
217.792	5013
217.859	4843
217.926	3723
217.993	3968
218.059	3275
218.126	3523
218.193	3175
218.260	3409
218.327	3114
218.393	3698
218.460	3526
218.527	2898
218.594	2823
218.660	4734
218.727	5098
218.794	2518
218.860	3563
218.927	2634
218.994	2701
219.061	3320
219.127	3557
219.194	5059
219.261	3170
219.327	2581
219.394	3211
219.461	1920
219.527	2755
219.594	3653
219.661	2448
219.727	1715
219.794	3760
219.860	2580
219.927	3588
219.994	3859
220.060	6050
220.127	5005
220.193	4853
220.260	5760
220.326	7464
220.393	9643
220.460	10170
220.526	8396
220.593	6242
220.659	7341
220.726	7107
220.792	10537
220.859	11413
220.925	14095
220.992	14977
221.058	14495
221.125	13307
221.191	10193
221.258	6298
221.324	5835
221.391	4484
221.457	3490
221.524	4959
221.590	5152
221.657	9937
221.723	8049
221.789	7310
221.856	6785
221.922	5563
221.989	4931
222.055	3774
222.121	3830
222.188	4626
222.254	3692
222.321	3789
222.387	3239
222.453	2935
222.520	3367
222.586	2039
222.652	3601
222.719	2888
222.785	3427
222.851	2934
222.918	3211
222.984	2933
223.050	3013
223.116	1940
223.183	3127
223.249	2819
223.315	2601
223.382	2873
223.448	2790
223.514	2024
223.580	1986
223.647	1506
223.713	2311
223.779	2446
223.845	2948
223.911	2600
223.978	2909
224.044	3051
224.110	3025
224.176	2762
224.242	2763
224.309	1264
224.375	2488
224.441	2463
224.507	2690
224.573	2242
224.639	3569
224.705	2193
224.772	2808
224.838	2273
224.904	3306
224.970	2428
225.036	2190
225.102	1991
225.168	3448
225.234	3049
225.300	3233
225.366	2438
225.432	2870
225.499	2166
225.565	3622
225.631	3282
225.697	3231
225.763	4002
225.829	4483
225.895	5229
225.961	5447
226.027	5485
226.093	5365
226.159	8234
226.225	11561
226.291	19207
226.357	23874
226.423	16589
226.489	10364
226.554	7686
226.620	8283
226.686	9628
226.752	13235
226.818	18453
226.884	27522
226.950	25200
227.016	15229
227.082	9861
227.148	8142
227.214	7209
227.279	6162
227.345	5557
227.411	5288
227.477	5239
227.543	6565
227.609	6484
227.674	6289
227.740	4271
227.806	4955
227.872	4285
227.938	4726
228.003	5757
228.069	4241
228.135	3311
228.201	3412
228.267	3033
228.332	4183
228.398	4254
228.464	3325
228.530	2582
228.595	3711
228.661	3017
228.727	4638
228.792	4656
228.858	3096
228.924	2820
228.990	4969
229.055	3289
229.121	5219
229.187	3159
229.252	3514
229.318	2263
229.384	3584
229.449	2887
229.515	1971
229.581	1246
229.646	4774
229.712	3401
229.777	5845
229.843	6267
229.909	5327
229.974	5268
230.040	5436
230.105	5109
230.171	5309
230.236	5794
230.302	8776
230.368	6489
230.433	4252
230.499	4578
230.564	5504
230.630	3469
230.695	4174
230.761	4085
230.826	2234
230.892	5746
230.957	3217
231.023	3519
231.088	4382
231.154	3695
231.219	3964
231.284	3970
231.350	5673
231.415	3720
231.481	4374
231.546	2895
231.612	3458
231.677	2869
231.742	2694
231.808	3789
231.873	3437
231.939	1635
232.004	5222
232.069	4846
232.135	3615
232.200	3306
232.265	3414
232.331	2557
232.396	3125
232.461	2356
232.527	2729
232.592	3077
232.657	3532
232.723	4061
232.788	3815
232.853	2679
232.918	2943
232.984	2441
233.049	2401
233.114	2502
233.179	3536
233.245	4490
233.310	5831
233.375	2598
233.440	2732
233.506	2944
233.571	3351
233.636	3385
233.701	2841
233.766	4711
233.832	5642
233.897	3279
233.962	2735
234.027	4505
234.092	3053
234.157	2577
234.222	3435
234.288	4390
234.353	10643
234.418	9185
234.483	7345
234.548	5402
234.613	4050
234.678	4936
234.743	4872
234.808	11273
234.873	8189
234.938	5182
235.004	3954
235.069	4458
235.134	3890
235.199	4487
235.264	3420
235.329	3209
235.394	3929
235.459	4350
235.524	4343
235.589	4077
235.654	3995
235.719	2934
235.784	3611
235.849	4135
235.913	6792
235.978	6988
236.043	7222
236.108	4568
236.173	4869
236.238	5434
236.303	3872
236.368	4707
236.433	6430
236.498	8388
236.563	9205
236.627	17992
236.692	37091
236.757	33310
236.822	18445
236.887	12221
236.952	11073
237.017	8619
237.081	11502
237.146	13636
237.211	26221
237.276	38693
237.341	42583
237.405	31536
237.470	19022
237.535	12383
237.600	9020
237.664	8187
237.729	6899
237.794	8703
237.859	16525
237.923	10687
237.988	6715
238.053	7683
238.118	8058
238.182	14196
238.247	12630
238.312	6523
238.376	6870
238.441	4173
238.506	6158
238.570	3434
238.635	4607
238.700	3994
238.764	4456
238.829	6968
238.893	8182
238.958	5909
239.023	5589
239.087	4552
239.152	5561
239.216	2796
239.281	4121
239.346	4195
239.410	4011
239.475	4609
239.539	13066
239.604	8680
239.668	5526
239.733	3654
239.797	5035
239.862	8158
239.926	10652
239.991	5815
240.055	3029
240.120	4193
240.184	4887
240.249	2744
240.313	3917
240.378	3554
240.442	8014
240.507	11549
240.571	5769
240.635	7172
240.700	8628
240.764	4123
240.829	4440
240.893	2387
240.957	4720
241.022	8594
241.086	11814
241.151	5841
241.215	3252
241.279	4985
241.344	7395
241.408	5813
241.472	4908
241.537	5746
241.601	5395
241.665	4248
241.730	4975
241.794	5660
241.858	5337
241.922	4535
241.987	5188
242.051	3791
242.115	4420
242.179	4893
242.244	4691
242.308	5190
242.372	5160
242.436	5755
242.501	5208
242.565	3142
242.629	4295
242.693	3780
242.757	4419
242.822	4754
242.886	4922
242.950	4392
243.014	5217
243.078	5183
243.142	5974
243.206	5144
243.271	6074
243.335	5997
243.399	9287
243.463	26483
243.527	51084
243.591	18344
243.655	10913
243.719	6259
243.783	7676
243.847	10365
243.911	14043
243.975	13029
244.040	9167
244.104	7507
244.168	5420
244.232	7390
244.296	10031
244.360	10934
244.424	6186
244.488	4962
244.552	5769
244.615	3586
244.679	4454
244.743	5096
244.807	5200
244.871	4382
244.935	4780
244.999	2624
245.063	3861
245.127	4662
245.191	8633
245.255	7879
245.319	6483
245.383	5438
245.446	5895
245.510	4347
245.574	3742
245.638	5216
245.702	4087
245.766	9739
245.829	6709
245.893	5318
245.957	4838
246.021	6113
246.085	5863
246.149	6510
246.212	13341
246.276	16843
246.340	9755
246.404	6943
246.467	7192
246.531	9117
246.595	7736
246.659	6593
246.722	5586
246.786	8048
246.850	8001
246.913	9105
246.977	5117
247.041	5488
247.104	5923
247.168	6228
247.232	12714
247.295	21864
247.359	12392
247.423	7273
247.486	12000
247.550	7745
247.614	5931
247.677	8077
247.741	5670
247.804	4993
247.868	6324
247.932	11157
247.995	20786
248.059	8914
248.122	6504
248.186	7957
248.249	13285
248.313	31814
248.376	33950
248.440	22214
248.503	10393
248.567	9632
248.630	12517
248.694	17594
248.757	21889
248.821	34612
248.884	24495
248.948	22022
249.011	30849
249.075	39906
249.138	33332
249.202	17427
249.265	11778
249.328	13496
249.392	10360
249.455	9849
249.519	8070
249.582	10078
249.645	16918
249.709	16003
249.772	16238
249.835	11622
249.899	9524
249.962	8383
250.025	7614
250.089	15818
250.152	20190
250.215	11898
250.279	9476
250.342	9066
250.405	10108
250.468	8934
250.532	11719
250.595	20321
250.658	52419
250.721	71595
250.785	34630
250.848	20654
250.911	11825
250.974	12315
251.038	16084
251.101	23238
251.164	14373
251.227	16739
251.290	16334
251.354	25162
251.417	68463
251.480	67409
251.543	60468
251.606	101723
251.669	85197
251.732	46263
251.795	41973
251.859	43475
251.922	74914
251.985	48496
252.048	23430
252.111	18223
252.174	16154
252.237	25910
252.300	44177
252.363	55574
252.426	82599
252.489	44116
252.552	24729
252.615	18210
252.678	20193
252.741	36948
252.804	52817
252.867	88076
252.930	60405
252.993	33425
253.056	21609
253.119	16158
253.182	13151
253.245	23079
253.308	18482
253.371	14802
253.434	12510
253.497	13324
253.559	21945
253.622	16637
253.685	20065
253.748	19577
253.811	11338
253.874	12986
253.937	11932
254.000	10434
254.062	16772
254.125	22690
254.188	23588
254.251	18468
254.314	10686
254.376	17423
254.439	19040
254.502	15474
254.565	16661
254.628	26477
254.690	17463
254.753	9816
254.816	9076
254.878	9713
254.941	16462
255.004	15586
255.067	8394
255.129	8355
255.192	6054
255.255	4294
255.317	6612
255.380	4633
255.443	4231
255.505	4097
255.568	4171
255.631	4439
255.693	5283
255.756	3620
255.819	4633
255.881	3495
255.944	4457
256.006	4546
256.069	5122
256.132	4604
256.194	6382
256.257	11797
256.319	8921
256.382	9315
256.444	7570
256.507	6164
256.569	6913
256.632	7365
256.694	11070
256.757	30326
256.819	70828
256.882	35772
256.944	16093
257.007	12143
257.069	10763
257.132	8192
257.194	8121
257.257	6809
257.319	6820
257.381	9792
257.444	26042
257.506	74794
257.569	80995
257.631	38334
257.693	23420
257.756	13806
257.818	10944
257.880	7920
257.943	8041
258.005	5824
258.067	5947
258.130	5908
258.192	8404
258.254	11667
258.317	8584
258.379	6730
258.441	13562
258.503	13094
258.566	15443
258.628	17091
258.690	6771
258.753	8308
258.815	12806
258.877	7995
258.939	6004
259.001	5965
259.064	6373
259.126	6542
259.188	8571
259.250	6279
259.312	7686
259.375	10555
259.437	8792
259.499	6254
259.561	5687
259.623	6645
259.685	6423
259.747	5569
259.809	14818
259.872	23085
259.934	35120
259.996	31870
260.058	11318
260.120	6908
260.182	6446
260.244	4737
260.306	4285
260.368	5362
260.430	5723
260.492	10857
260.554	14213
260.616	9267
260.678	20919
260.740	23559
260.802	8126
260.864	7929
260.926	5547
260.988	6468
261.050	6874
261.112	14515
261.174	30028
261.236	19333
261.298	8424
261.359	12281
261.421	15456
261.483	6407
261.545	7151
261.607	3586
261.669	4902
261.731	7695
261.793	16885
261.854	8989
261.916	7012
261.978	6197
262.040	6643
262.102	5369
262.164	7596
262.225	6289
262.287	4993
262.349	12977
262.411	9650
262.472	5607
262.534	8923
262.596	14144
262.658	6552
262.719	4092
262.781	6136
262.843	12366
262.904	8051
262.966	6947
263.028	9496
263.090	35727
263.151	78500
263.213	27334
263.275	16062
263.336	8321
263.398	6821
263.459	4282
263.521	5192
263.583	12421
263.644	8495
263.706	5064
263.767	2940
263.829	3965
263.891	3173
263.952	3223
264.014	3518
264.075	6986
264.137	15941
264.198	7371
264.260	3714
264.321	4272
264.383	11223
264.444	24779
264.506	8264
264.567	6395
264.629	11546
264.690	20612
264.752	8094
264.813	6167
264.875	4886
264.936	5399
264.998	4028
265.059	3545
265.120	5986
265.182	9787
265.243	44958
265.305	44610
265.366	13746
265.427	7132
265.489	6383
265.550	4464
265.611	6471
265.673	5652
265.734	4523
265.795	4676
265.857	4663
265.918	6365
265.979	15720
266.040	65763
266.102	57990
266.163	19368
266.224	13037
266.286	7980
266.347	5740
266.408	6088
266.469	5638
266.530	4406
266.592	4184
266.653	8395
266.714	12684
266.775	5479
266.836	3912
266.898	2981
266.959	7750
267.020	5434
267.081	5334
267.142	3728
267.203	4008
267.264	3331
267.326	5185
267.387	3533
267.448	3288
267.509	4415
267.570	3601
267.631	3377
267.692	3271
267.753	4500
267.814	4515
267.875	8303
267.936	16109
267.997	9986
268.058	7635
268.119	5634
268.180	5804
268.241	3272
268.302	3976
268.363	3319
268.424	3872
268.485	4895
268.546	3167
268.607	3448
268.668	2542
268.729	3242
268.790	3884
268.851	4895
268.912	11147
268.972	12358
269.033	6601
269.094	3438
269.155	4073
269.216	3105
269.277	4158
269.338	3254
269.398	4229
269.459	4028
269.520	6617
269.581	7110
269.642	8637
269.702	6284
269.763	6651
269.824	4830
269.885	6479
269.945	9865
270.006	5166
270.067	3342
270.128	4217
270.188	3508
270.249	4712
270.310	3069
270.370	4791
270.431	3366
270.492	3722
270.553	3469
270.613	9239
270.674	15620
270.734	7987
270.795	4577
270.856	7334
270.916	5416
270.977	4402
271.038	5440
271.098	5282
271.159	8348
271.219	7732
271.280	5023
271.340	4447
271.401	3976
271.462	8727
271.522	6245
271.583	5191
271.643	4263
271.704	4556
271.764	6319
271.825	13998
271.885	36319
271.946	42874
272.006	17267
272.066	23707
272.127	33983
272.187	12457
272.248	7492
272.308	9202
272.369	24613
272.429	13219
272.489	11349
272.550	11967
272.610	13162
272.671	9572
272.731	7825
272.791	11743
272.852	8011
272.912	7740
272.972	5193
273.033	5320
273.093	6961
273.153	7322
273.214	5936
273.274	6702
273.334	20590
273.394	34295
273.455	16104
273.515	15089
273.575	31476
273.635	13474
273.696	16675
273.756	29418
273.816	13982
273.876	9433
273.936	15304
273.997	22276
274.057	7831
274.117	6408
274.177	11316
274.237	41930
274.297	33001
274.358	22086
274.418	27076
274.478	21178
274.538	9293
274.598	7098
274.658	19213
274.718	22382
274.778	10091
274.838	6922
274.898	12690
274.958	31207
275.018	31003
275.078	21561
275.138	9889
275.198	7067
275.258	5325
275.318	6273
275.378	11085
275.438	12123
275.498	8779
275.558	16616
275.618	30836
275.678	23105
275.738	16071
275.798	12522
275.858	6250
275.918	4507
275.978	6302
276.038	6364
276.098	5004
276.157	9902
276.217	25889
276.277	12239
276.337	8500
276.397	5586
276.457	7081
276.517	5663
276.576	3979
276.636	3929
276.696	7683
276.756	16723
276.815	11981
276.875	6400
276.935	7480
276.995	6521
277.055	4064
277.114	4225
277.174	6680
277.234	19391
277.293	7677
277.353	6495
277.413	4350
277.472	5229
277.532	5256
277.592	6804
277.651	16967
277.711	27966
277.771	11209
277.830	36406
277.890	27130
277.950	21373
278.009	52083
278.069	19831
278.128	21485
278.188	29140
278.248	14460
278.307	33061
278.367	19425
278.426	8108
278.486	5256
278.545	4772
278.605	4625
278.664	4610
278.724	5020
278.783	15161
278.843	31450
278.902	9893
278.962	6713
279.021	7769
279.081	8658
279.140	8496
279.199	7989
279.259	7831
279.318	7364
279.378	9866
279.437	17057
279.496	48386
279.556	124248
279.615	90743
279.675	26922
279.734	18459
279.793	25910
279.853	34966
279.912	14332
279.971	9387
280.031	7529
280.090	15179
280.149	24007
280.208	22452
280.268	88317
280.327	80182
280.386	21302
280.445	19746
280.505	18175
280.564	9154
280.623	7267
280.682	12688
280.742	18051
280.801	6761
280.860	5585
280.919	4543
280.978	4149
281.037	4036
281.097	3912
281.156	4405
281.215	4090
281.274	6284
281.333	21740
281.392	15300
281.451	4457
281.510	3856
281.569	4145
281.628	3600
281.688	3101
281.747	4814
281.806	3860
281.865	3405
281.924	2810
281.983	4234
282.042	2020
282.101	2969
282.160	3172
282.219	3149
282.278	4105
282.337	13568
282.396	9388
282.454	4973
282.513	5553
282.572	20051
282.631	10996
282.690	4473
282.749	3782
282.808	5865
282.867	5776
282.926	4664
282.985	2932
283.043	3554
283.102	3653
283.161	4389
283.220	9971
283.279	20795
283.338	7036
283.396	4938
283.455	4613
283.514	5686
283.573	8157
283.631	6021
283.690	3652
283.749	4405
283.808	10052
283.866	11026
283.925	4160
283.984	4865
284.043	7184
284.101	7370
284.160	4210
284.219	6407
284.277	5600
284.336	9377
284.395	27628
284.453	21142
284.512	8878
284.570	12579
284.629	10348
284.688	9296
284.746	9951
284.805	11589
284.863	14782
284.922	18605
284.981	23463
285.039	34115
285.098	59452
285.156	111697
285.215	132174
285.273	134122
285.332	112917
285.390	67773
285.449	43568
285.507	31660
285.566	23037
285.624	18016
285.683	13732
285.741	11967
285.799	10344
285.858	9616
285.916	8613
285.975	7191
286.033	5607
286.091	5590
286.150	4729
286.208	6177
286.267	6263
286.325	6246
286.383	9626
286.442	7879
286.500	4350
286.558	4183
286.616	3259
286.675	7160
286.733	5237
286.791	5680
286.850	5861
286.908	7629
286.966	11263
287.024	6171
287.083	4915
287.141	4409
287.199	4511
287.257	7186
287.315	6144
287.374	6356
287.432	13947
287.490	9033
287.548	5882
287.606	4342
287.664	4940
287.723	7471
287.781	8317
287.839	5976
287.897	7087
287.955	10295
288.013	17457
288.071	39314
288.129	112020
288.187	210293
288.245	119954
288.303	47555
288.361	27853
288.419	20307
288.477	14467
288.535	10048
288.593	8748
288.651	6580
288.709	4218
288.767	5420
288.825	4869
288.883	3848
288.941	4334
288.999	3774
289.057	4208
289.115	3409
289.173	3927
289.231	3533
289.289	3332
289.346	3722
289.404	4286
289.462	7101
289.520	7573
289.578	3964
289.636	3685
289.694	2440
289.751	2813
289.809	2946
289.867	2836
289.925	4804
289.983	4989
290.040	2835
290.098	3340
290.156	3373
290.214	4295
290.271	2926
290.329	2423
290.387	2360
290.444	2340
290.502	1872
290.560	2758
290.617	3030
290.675	2882
290.733	2704
290.790	3740
290.848	3343
290.906	3465
290.963	3148
291.021	2958
291.078	3224
291.136	4791
291.194	12046
291.251	22654
291.309	7758
291.366	3283
291.424	3315
291.481	3487
291.539	3067
291.596	3273
291.654	2942
291.711	1547
291.769	3970
291.826	7373
291.884	4495
291.941	1443
291.999	3285
292.056	3159
292.114	4182
292.171	2942
292.228	3377
292.286	3596
292.343	8026
292.401	9696
292.458	5431
292.515	3535
292.573	5302
292.630	5330
292.687	4590
292.745	3022
292.802	5981
292.859	13881
292.917	23000
292.974	12593
293.031	5368
293.089	3246
293.146	3955
293.203	2934
293.260	2609
293.318	3317
293.375	6354
293.432	3180
293.489	3519
293.546	3357
293.604	5779
293.661	14746
293.718	34810
293.775	17966
293.832	9103
293.889	7286
293.947	6742
294.004	4615
294.061	5216
294.118	11924
294.175	23979
294.232	28887
294.289	11882
294.346	7679
294.403	9047
294.460	6897
294.517	4652
294.574	3989
294.631	3573
294.688	5974
294.745	14007
294.802	40792
294.859	44554
294.916	17016
294.973	8772
295.030	7620
295.087	6934
295.144	5325
295.201	5225
295.258	4449
295.315	6189
295.372	16061
295.429	29219
295.486	12722
295.542	9631
295.599	21485
295.656	35067
295.713	21646
295.770	27318
295.827	11485
295.883	6799
295.940	6303
295.997	9999
296.054	9028
296.111	5429
296.167	4066
296.224	3013
296.281	3613
296.338	4101
296.394	3982
296.451	5356
296.508	13466
296.564	24645
296.621	17379
296.678	34267
296.734	44926
296.791	18527
296.848	10365
296.904	11582
296.961	22616
297.018	32156
297.074	23371
297.131	10780
297.187	8188
297.244	12401
297.301	31024
297.357	50055
297.414	18942
297.470	8546
297.527	6459
297.583	5700
297.640	5460
297.696	5246
297.753	3730
297.809	3706
297.866	2776
297.922	2090
297.979	3494
298.035	4203
298.092	7221
298.148	19607
298.204	17866
298.261	9532
298.317	16132
298.374	38359
298.430	21599
298.486	11793
298.543	7933
298.599	8558
298.656	12088
298.712	18003
298.768	39881
298.824	28057
298.881	10567
298.937	7256
298.993	6019
299.050	7381
299.106	6561
299.162	5227
299.218	4853
299.275	4986
299.331	5836
299.387	11120
299.443	33004
299.500	32958
299.556	12944
299.612	6666
299.668	6678
299.724	7628
299.780	7409
299.837	6414
299.893	10000
299.949	30673
300.005	33098
300.061	28824
300.117	44881
300.173	22508
300.229	11377
300.285	14149
300.341	16688
300.397	9093
300.453	5843
300.510	5548
300.566	5090
300.622	6252
300.678	14331
300.734	26557
300.790	26569
300.845	32259
300.901	19325
300.957	29389
301.013	23392
301.069	9737
301.125	6971
301.181	7681
301.237	7135
301.293	4371
301.349	4449
301.405	3667
301.461	4618
301.516	6583
301.572	7439
301.628	11229
301.684	8901
301.740	14129
301.796	22778
301.851	15066
301.907	25134
301.963	26352
302.019	37206
302.074	85119
302.130	84273
302.186	42653
302.242	17824
302.297	12875
302.353	12915
302.409	22500
302.464	19915
302.520	16061
302.576	34971
302.631	39609
302.687	24500
302.743	11147
302.798	6209
302.854	5544
302.910	6001
302.965	7771
303.021	14120
303.076	12908
303.132	15332
303.187	17727
303.243	9283
303.299	6382
303.354	5190
303.410	5700
303.465	5066
303.521	4023
303.576	4443
303.632	6831
303.687	12973
303.743	30553
303.798	25732
303.853	11617
303.909	7002
303.964	7223
304.020	9959
304.075	15865
304.130	13187
304.186	23603
304.241	22921
304.297	18524
304.352	10992
304.358	10581
304.407	7248
304.449	6159
304.463	5797
304.518	6496
304.539	6215
304.573	5765
304.629	6524
304.630	6609
304.684	10652
304.720	18854
304.739	22960
304.794	33515
304.811	29056
304.850	18282
304.902	9163
304.905	8588
304.960	6795
304.992	6848
305.015	6869
305.071	7969
305.083	7612
305.126	6255
305.173	4901
305.181	4699
305.236	3547
305.264	4140
305.292	4812
305.347	6487
305.354	6683
305.402	7755
305.445	7564
305.457	7523
305.512	9062
305.535	8877
305.567	8652
305.622	10381
305.626	10644
305.678	16629
305.716	30445
305.733	35456
305.788	38017
305.807	33015
305.843	24198
305.897	29647
305.898	29702
305.953	29864
305.988	21026
306.008	16152
306.063	12334
306.078	11193
306.118	8258
306.168	5977
306.173	5810
306.228	5397
306.259	5370
306.283	5354
306.338	4133
306.349	4353
306.393	5539
306.440	6314
306.448	6411
306.503	6734
306.530	7260
306.558	9169
306.613	17959
306.620	19198
306.668	26262
306.711	32441
306.723	33005
306.778	25965
306.801	20387
306.833	13950
306.888	7737
306.892	7538
306.943	6386
306.982	5459
306.997	5161
307.052	5049
307.072	5053
307.107	5672
307.162	7903
307.163	7924
307.217	10141
307.253	11208
307.272	11320
307.327	11374
307.343	10933
307.381	10111
307.434	10054
307.436	10286
307.491	17740
307.524	25358
307.546	27899
307.600	29785
307.614	27076
307.655	17318
307.704	10755
307.710	10567
307.765	12377
307.795	14352
307.819	16525
307.874	24126
307.885	24383
307.929	22250
307.975	21512
307.984	22708
308.038	34485
308.065	43206
308.093	63164
308.148	116176
308.156	125886
308.202	166803
308.246	187005
308.257	183785
308.312	129818
308.336	105606
308.366	83252
308.421	51879
308.426	49265
308.475	34479
308.517	25580
308.530	23989
308.585	19880
308.607	18557
308.639	17981
308.694	17968
308.697	18028
308.748	24122
308.787	31217
308.803	31428
308.857	27041
308.877	24966
308.912	24238
308.967	25852
308.967	25890
309.021	35815
309.058	44163
309.076	54258
309.130	91290
309.148	105546
309.185	146013
309.238	211483
309.239	212035
309.293	218636
309.328	211364
309.348	195484
309.402	133850
309.418	117238
309.457	87625
309.508	55550
309.511	54611
309.566	44928
309.598	39398
309.620	39020
309.674	40805
309.688	41537
309.729	39675
309.778	35011
309.783	34501
309.837	28124
309.868	25385
309.892	28613
309.946	37919
309.959	41249
310.001	52438
310.049	61610
310.055	59833
310.109	37926
310.139	25607
310.163	21032
310.218	14157
310.229	12987
310.272	11323
310.319	9972
310.326	9726
310.381	8115
310.409	7298
310.435	7129
310.489	6978
310.499	6971
310.543	7008
310.589	6998
310.598	7017
310.652	7297
310.679	7266
310.706	6718
310.760	5760
310.769	5597
310.814	5303
310.859	4996
310.868	5065
310.923	5544
310.948	5780
310.977	6256
311.031	7171
311.038	7303
311.085	6652
311.128	5703
311.139	5778
311.193	6398
311.218	6606
311.247	6443
311.301	6222
311.308	6177
311.356	6015
311.398	5811
311.410	5832
311.464	5892
311.488	5954
311.518	5832
311.572	5497
311.578	5466
311.626	7485
311.668	9220
311.680	9132
311.734	8530
311.758	8256
311.788	8397
311.842	8674
311.847	8686
311.896	10413
311.937	11954
311.950	11886
312.004	11427
312.027	11192
312.058	9778
312.112	7244
312.117	6979
312.165	6620
312.207	6297
312.297	8895
312.386	7286
312.476	8399
312.566	13863
312.656	7232
312.745	6084
312.835	6290
312.925	8176
313.015	6327
313.104	6555
313.194	5924
313.284	6255
313.374	8537
313.463	7075
313.553	5908
313.643	6012
313.732	5523
313.822	5039
313.912	7015
314.001	6963
314.091	7502
314.180	9781
314.270	7995
314.360	8021
314.449	7228
314.539	6541
314.628	6600
314.718	6694
314.808	7351
314.897	6055
314.987	6157
315.076	6718
315.166	7934
315.255	7169
315.345	7894
315.434	7498
315.524	7775
315.613	7432
315.703	9680
315.792	8946
315.881	10355
315.971	8123
316.060	13189
316.150	15669
316.239	15794
316.328	8178
316.418	5707
316.507	6119
316.597	7241
316.686	6781
316.775	8876
316.865	16458
316.954	5969
317.043	4990
317.133	6081
317.222	5399
317.311	5722
317.400	4175
317.490	7562
317.579	8041
317.668	5630
317.757	6902
317.847	9761
317.936	16890
318.025	17513
318.114	10963
318.203	10193
318.293	20216
318.382	43292
318.471	28544
318.560	37615
318.649	59417
318.738	15125
318.828	9426
318.917	10466
319.006	12333
319.095	23583
319.184	70189
319.273	40198
319.362	21271
319.451	8591
319.540	8218
319.629	14659
319.718	25391
319.807	14420
319.896	25343
319.985	83405
320.074	32367
320.163	10145
320.252	13406
320.341	12595
320.430	13152
320.519	13487
320.608	9864
320.697	9045
320.786	8348
320.875	8451
320.964	12327
321.053	17419
321.142	22694
321.230	25103
321.319	19555
321.408	41356
321.497	19979
321.586	18196
321.675	20643
321.764	23344
321.852	17929
321.941	25620
322.030	18422
322.119	20000
322.207	41790
322.296	25732
322.385	16150
322.474	18095
322.562	49292
322.651	27107
322.740	17798
322.829	23485
322.917	21965
323.006	15675
323.095	13216
323.183	11024
323.272	17931
323.361	26222
323.449	61111
323.538	22881
323.626	42712
323.715	25803
323.804	14516
323.892	38287
323.981	23735
324.069	9625
324.158	22071
324.246	21018
324.335	10407
324.424	16005
324.512	7985
324.601	9657
324.689	11360
324.778	15125
324.866	15923
324.954	7363
325.043	6962
325.131	11521
325.220	17245
325.308	18594
325.397	15758
325.485	11122
325.574	5369
325.662	5022
325.750	5880
325.839	6057
325.927	5401
326.015	7477
326.104	8107
326.192	10757
326.280	5809
326.369	6398
326.457	8702
326.545	15130
326.634	7376
326.722	4910
326.810	5731
326.898	5081
326.987	6526
327.075	12250
327.163	13277
327.251	7172
327.340	7398
327.428	8493
327.516	5656
327.604	5644
327.692	5885
327.781	6666
327.869	8992
327.957	7427
328.045	7321
328.133	5040
328.221	5721
328.309	6017
328.397	6270
328.485	7295
328.574	9699
328.662	26790
328.750	15716
328.838	6675
328.926	6275
329.014	5975
329.102	8849
329.190	20810
329.278	13757
329.366	5772
329.454	6709
329.542	6430
329.630	6023
329.718	7254
329.806	8591
329.893	10718
329.981	14536
330.069	27434
330.157	83831
330.245	178910
330.333	108689
330.421	27238
330.509	17531
330.597	36554
330.684	24978
330.772	10964
330.860	13120
330.948	17867
331.036	9557
331.123	4883
331.211	5707
331.299	7435
331.387	15168
331.475	25223
331.562	8784
331.650	5231
331.738	5464
331.825	7755
331.913	5077
332.001	4969
332.089	6734
332.176	11932
332.264	20492
332.352	16609
332.439	7946
332.527	6313
332.614	5275
332.702	6545
332.790	5345
332.877	10757
332.965	19346
333.052	8265
333.140	7821
333.228	14394
333.315	6784
333.403	6788
333.490	13286
333.578	11653
333.665	16532
333.753	11363
333.840	5707
333.928	6945
334.015	15116
334.103	26479
334.190	76710
334.278	21519
334.365	9003
334.452	5273
334.540	5453
334.627	6725
334.715	8837
334.802	16084
334.889	66560
334.977	61562
335.064	10375
335.151	6520
335.239	8210
335.326	11965
335.413	42091
335.501	56335
335.588	10295
335.675	7461
335.762	9303
335.850	15147
335.937	9606
336.024	21376
336.111	74548
336.199	31435
336.286	8111
336.373	5615
336.460	4603
336.547	5202
336.635	6483
336.722	6693
336.809	6130
336.896	9777
336.983	28108
337.070	67282
337.157	85891
337.245	51028
337.332	32186
337.419	7413
337.506	5459
337.593	7502
337.680	23187
337.767	66588
337.854	20590
337.941	21541
338.028	19502
338.115	8905
338.202	11632
338.289	17749
338.376	46195
338.463	18857
338.550	38041
338.637	42242
338.724	12543
338.811	14646
338.898	5870
338.984	6072
339.071	7615
339.158	8130
339.245	17995
339.332	11618
339.419	11996
339.506	11086
339.593	4045
339.679	5157
339.766	4891
339.853	7380
339.940	12809
340.027	5513
340.113	5768
340.200	7893
340.287	5853
340.374	7745
340.460	12617
340.547	6911
340.634	9249
340.720	31695
340.807	19573
340.894	5333
340.980	4830
341.067	5384
341.154	5970
341.240	8901
341.327	16687
341.414	8349
341.500	9670
341.587	5849
341.674	5664
341.760	11911
341.847	13983
341.933	6422
342.020	3567
342.106	4162
342.193	5575
342.279	9793
342.366	8023
342.452	12244
342.539	7387
342.625	15368
342.712	34425
342.798	15660
342.885	7466
342.971	3771
343.058	3714
343.144	4479
343.230	4292
343.317	5337
343.403	4742
343.490	3458
343.576	3570
343.662	5363
343.749	6601
343.835	7984
343.921	13191
344.008	59281
344.094	115654
344.180	30294
344.267	13998
344.353	35961
344.439	37711
344.525	24701
344.612	34170
344.698	46693
344.784	30585
344.870	13940
344.957	9133
345.043	10467
345.129	7124
345.215	13197
345.301	8730
345.387	6614
345.474	4512
345.560	4065
345.646	5440
345.732	5624
345.818	6817
345.904	5994
345.990	6575
346.076	6305
346.162	9892
346.249	6239
346.335	4914
346.421	5949
346.507	16162
346.593	46950
346.679	13929
346.765	6196
346.851	5287
346.937	4128
347.023	5007
347.108	5726
347.194	4972
347.280	6096
347.366	7218
347.452	16651
347.538	54859
347.624	44902
347.710	36205
347.796	7850
347.882	5136
347.967	4864
348.053	7965
348.139	5696
348.225	4834
348.311	5031
348.397	5488
348.482	5500
348.568	6795
348.654	4468
348.740	4010
348.825	4279
348.911	9448
348.997	28087
349.083	50203
349.168	10441
349.254	6221
349.340	6631
349.425	4344
349.511	5946
349.597	7353
349.682	12383
349.768	38099
349.854	18777
349.939	6118
350.025	5846
350.110	7809
350.196	4884
350.282	3849
350.367	4794
350.453	6045
350.538	6798
350.624	6219
350.709	6676
350.795	4301
350.880	5151
350.966	5351
351.051	7773
351.137	5667
351.222	5344
351.308	13398
351.393	35385
351.479	11569
351.564	5343
351.649	4216
351.735	3836
351.820	3754
351.906	5561
351.991	7349
352.076	22124
352.162	33870
352.247	8711
352.332	6296
352.418	12201
352.503	15846
352.588	47957
352.673	39514
352.759	10378
352.844	5836
352.929	7154
353.014	8833
353.100	5931
353.185	7140
353.270	12256
353.355	13428
353.441	6199
353.526	6188
353.611	12287
353.696	12524
353.781	8957
353.866	4940
353.952	5804
354.037	12954
354.122	23800
354.207	22017
354.292	9429
354.377	5274
354.462	5165
354.547	6400
354.632	6794
354.717	8304
354.802	7062
354.887	4452
354.972	5191
355.057	4425
355.142	4543
355.227	5462
355.312	8819
355.397	18499
355.482	37899
355.567	20478
355.652	15053
355.737	15718
355.822	42952
355.907	35368
355.991	8874
356.076	5112
356.161	5323
356.246	5091
356.331	7030
356.416	13058
356.501	62686
356.585	63402
356.670	13752
356.755	10411
356.840	12943
356.924	48032
357.009	139023
357.094	58670
357.179	15978
357.263	11141
357.348	11491
357.433	11738
357.517	10988
357.602	8852
357.687	7686
357.771	13796
357.856	44688
357.941	28945
358.025	42351
358.110	140732
358.195	73002
358.279	16278
358.364	12447
358.448	32617
358.533	82298
358.617	60240
358.702	57601
358.787	23969
358.871	13978
358.956	12902
359.040	6240
359.125	5341
359.209	6701
359.294	22741
359.378	38109
359.462	13574
359.547	7490
359.631	5137
359.716	4744
359.800	5640
359.885	8401
359.969	5757
360.053	5925
360.138	5296
360.222	7789
360.306	12986
360.391	11740
360.475	24186
360.559	49630
360.644	33740
360.728	23204
360.812	37208
360.896	92401
360.981	44696
361.065	25505
361.149	8820
361.233	8052
361.318	6488
361.402	7497
361.486	6295
361.570	4370
361.654	7251
361.739	17178
361.823	63640
361.907	90231
361.991	19976
362.075	12392
362.159	23500
362.243	17332
362.327	12124
362.411	11358
362.495	8057
362.580	6214
362.664	5119
362.748	4505
362.832	6021
362.916	7949
363.000	19686
363.084	61616
363.168	101626
363.252	29059
363.336	12050
363.420	15962
363.503	58685
363.587	70071
363.671	14907
363.755	9662
363.839	13591
363.923	7474
364.007	14142
364.091	16274
364.175	22867
364.258	90634
364.342	50914
364.426	25926
364.510	15224
364.594	16202
364.677	22680
364.761	80512
364.845	58220
364.929	23097
365.013	18426
365.096	16493
365.180	19335
365.264	26764
365.347	93195
365.431	41903
365.515	14042
365.598	7323
365.682	6619
365.766	12141
365.849	15763
365.933	7181
366.017	10642
366.100	8802
366.184	3579
366.267	5661
366.351	5319
366.435	5140
366.518	4465
366.602	4338
366.685	4957
366.769	5817
366.852	10625
366.936	17535
367.019	9867
367.103	9378
367.186	18017
367.270	6634
367.353	3351
367.436	4612
367.520	5163
367.603	6143
367.687	8181
367.770	14414
367.853	10410
367.937	26639
368.020	43149
368.104	11907
368.187	11664
368.270	17139
368.353	16809
368.437	17793
368.520	30926
368.603	22304
368.687	33196
368.770	59920
368.853	18133
368.936	16775
369.020	18235
369.103	7811
369.186	6202
369.269	8493
369.352	10240
369.436	14060
369.519	11060
369.602	7329
369.685	7000
369.768	6588
369.851	5818
369.934	3875
370.018	6176
370.101	12520
370.184	11557
370.267	9605
370.350	18324
370.433	24631
370.516	49150
370.599	49720
370.682	16462
370.765	34829
370.848	41192
370.931	69256
371.014	29676
371.097	7790
371.180	6796
371.263	4798
371.346	3330
371.429	5193
371.511	5631
371.594	9648
371.677	15852
371.760	20407
371.843	16453
371.926	61902
372.009	127261
372.091	49067
372.174	31105
372.257	63910
372.340	28020
372.423	24212
372.505	28180
372.588	13205
372.671	24091
372.754	67722
372.836	36308
372.919	31008
373.002	59767
373.085	19406
373.167	14835
373.250	32945
373.332	66784
373.415	88780
373.498	162000
373.580	68408
373.663	77826
373.746	103390
373.828	30187
373.911	14922
373.993	15566
374.076	55799
374.159	53244
374.241	22853
374.324	60555
374.406	41931
374.489	52870
374.571	133378
374.654	58942
374.736	31697
374.819	85146
374.901	120554
374.983	118004
375.066	27360
375.148	13087
375.231	44961
375.313	85540
375.395	33528
375.478	9417
375.560	6850
375.643	8856
375.725	28364
375.807	101255
375.890	77832
375.972	31353
376.054	19531
376.136	25849
376.219	13663
376.301	33026
376.383	85659
376.465	36170
376.548	23475
376.630	28975
376.712	76170
376.794	36708
376.877	7732
376.959	5000
377.041	5973
377.123	13259
377.205	17359
377.287	4225
377.369	4710
377.452	4645
377.534	4539
377.616	4490
377.698	4776
377.780	4260
377.862	5384
377.944	4972
378.026	3608
378.108	4284
378.190	4106
378.272	4004
378.354	4461
378.436	3631
378.518	8136
378.600	26654
378.682	22779
378.764	43605
378.846	34191
378.928	11744
379.010	15109
379.091	9949
379.173	5381
379.255	4305
379.337	7172
379.419	21847
379.501	60705
379.583	25418
379.664	7988
379.746	15973
379.828	43658
379.910	58183
379.991	48760
380.073	10569
380.155	7155
380.237	5372
380.318	4630
380.400	5982
380.482	10396
380.564	14614
380.645	13853
380.727	13304
380.809	9638
380.890	8031
380.972	5151
381.053	4993
381.135	7549
381.217	15799
381.298	46474
381.380	25033
381.461	19977
381.543	77459
381.624	94036
381.706	21778
381.787	12833
381.869	15468
381.951	38612
382.032	121873
382.113	80317
382.195	23760
382.276	16250
382.358	27913
382.439	70337
382.521	80803
382.602	115458
382.684	60485
382.765	105135
382.846	114424
382.928	128942
383.009	76639
383.090	72153
383.172	203431
383.253	256746
383.334	108220
383.416	110443
383.497	61110
383.578	37702
383.659	67293
383.741	198824
383.822	392515
383.903	204291
383.984	91815
384.066	140717
384.147	89041
384.228	22853
384.309	16616
384.390	13259
384.471	9725
384.553	10916
384.634	13471
384.715	14827
384.796	8813
384.877	10799
384.958	39880
385.039	49393
385.120	19990
385.201	10570
385.282	11999
385.363	12284
385.444	11213
385.525	22372
385.606	62270
385.687	49730
385.768	15630
385.849	19372
385.930	66435
386.011	106826
386.092	34388
386.173	10938
386.254	8139
386.335	8352
386.416	10011
386.496	30952
386.577	44830
386.658	18442
386.739	11412
386.820	10814
386.901	9052
386.981	8232
387.062	5673
387.143	11460
387.224	41436
387.304	39613
387.385	14619
387.466	11023
387.547	14851
387.627	10514
387.708	16806
387.789	69978
387.869	85545
387.950	24583
388.031	6978
388.111	6902
388.192	16832
388.273	22539
388.353	13815
388.434	8747
388.514	17765
388.595	65210
388.676	84875
388.756	44662
388.837	41926
388.917	27536
388.998	7279
389.078	8030
389.159	6708
389.239	5835
389.320	9695
389.400	7577
389.480	18080
389.561	44333
389.641	23280
389.722	9649
389.802	14835
389.883	20599
389.963	49392
390.043	32871
390.124	14046
390.204	19749
390.284	52963
390.365	34383
390.445	44385
390.525	113303
390.605	98859
390.686	32531
390.766	12276
390.846	6930
390.927	5947
391.007	6256
391.087	7720
391.167	7743
391.247	5432
391.328	7884
391.408	14556
391.488	12101
391.568	4151
391.648	7081
391.728	10924
391.808	10186
391.888	11268
391.969	24633
392.049	40103
392.129	19711
392.209	21109
392.289	50876
392.369	28009
392.449	27448
392.529	17364
392.609	11787
392.689	15457
392.769	45890
392.849	39649
392.929	28310
393.009	67493
393.089	44182
393.169	22832
393.248	67249
393.328	286580
393.408	296961
393.488	68054
393.568	21029
393.648	13898
393.728	10177
393.807	9522
393.887	12001
393.967	11841
394.047	15985
394.127	22501
394.206	40807
394.286	126703
394.366	360660
394.446	379916
394.525	152262
394.605	51479
394.685	31669
394.764	46896
394.844	67741
394.924	47409
395.003	17802
395.083	12927
395.163	11897
395.242	11476
395.322	11995
395.402	9510
395.481	14021
395.561	29526
395.640	72239
395.720	54325
395.799	82751
395.879	77885
395.958	68846
396.038	192007
396.117	445917
396.197	459150
396.276	241467
396.356	101404
396.435	60453
396.515	35289
396.594	28784
396.673	34417
396.753	88984
396.832	274217
396.912	211458
396.991	59075
397.070	17730
397.150	10630
397.229	10097
397.308	8410
397.388	11469
397.467	8937
397.546	6147
397.625	4715
397.705	9171
397.784	8421
397.863	5992
397.942	4069
398.022	6112
398.101	21638
398.180	64981
398.259	36099
398.338	10298
398.417	6305
398.497	5389
398.576	5790
398.655	3659
398.734	4272
398.813	6035
398.892	20685
398.971	68754
399.050	35805
399.129	7201
399.208	4333
399.287	5303
399.366	5447
399.445	4546
399.524	4775
399.603	3815
399.682	8301
399.761	22091
399.840	71089
399.919	55310
399.998	9544
400.077	3286
400.156	3553
400.235	6554
400.313	4073
400.392	5668
400.471	23988
400.550	39029
400.629	11607
400.708	5820
400.786	6157
400.865	16306
400.944	18578
401.023	10202
401.102	3317
401.180	3085
401.259	3757
401.338	5178
401.416	6078
401.495	5524
401.574	4805
401.652	3907
401.731	6008
401.810	4395
401.888	2940
401.967	3082
402.046	4048
402.124	6423
402.203	6279
402.281	5652
402.360	7644
402.438	21334
402.517	16101
402.596	6243
402.674	5859
402.753	4333
402.831	4274
402.910	5035
402.988	12392
403.066	34369
403.145	22302
403.223	14081
403.302	32034
403.380	24181
403.459	21293
403.537	10498
403.615	5700
403.694	3726
403.772	4882
403.850	5215
403.929	5584
404.007	7504
404.085	12142
404.164	14087
404.242	22518
404.320	63801
404.398	145402
404.477	169538
404.555	164948
404.633	129104
404.711	122868
404.789	111045
404.868	42560
404.946	18155
405.024	11032
405.102	8185
405.180	7355
405.258	5418
405.336	6156
405.415	5405
405.493	8681
405.571	8187
405.649	3973
405.727	3484
405.805	6392
405.883	6231
405.961	6533
406.039	7341
406.117	4592
406.195	7178
406.273	25422
406.351	86860
406.429	53837
406.507	12053
406.585	5163
406.663	5127
406.740	5754
406.818	4881
406.896	3289
406.974	4042
407.052	8798
407.130	52004
407.208	72550
407.285	16169
407.363	4675
407.441	4033
407.519	3008
407.596	4984
407.674	12456
407.752	33077
407.830	32834
407.907	13283
407.985	3806
408.063	3820
408.141	3028
408.218	6317
408.296	5528
408.373	3348
408.451	4490
408.529	4370
408.606	2937
408.684	1904
408.762	2404
408.839	1659
408.917	2499
408.994	3171
409.072	2880
409.149	3487
409.227	4612
409.304	5319
409.382	3238
409.459	1869
409.537	4045
409.614	4809
409.692	2530
409.769	3232
409.846	3542
409.924	6575
410.001	7359
410.079	4418
410.156	4284
410.233	4762
410.311	3218
410.388	2890
410.465	4885
410.543	6402
410.620	3684
410.697	4075
410.775	4242
410.852	1122
410.929	4580
411.006	7363
411.083	4384
411.161	14415
411.238	13727
411.315	6305
411.392	3468
411.469	7301
411.547	9008
411.624	4939
411.701	4570
411.778	4578
411.855	7806
411.932	4361
412.009	2077
412.086	3072
412.163	4122
412.240	4906
412.317	6105
412.394	6602
412.471	3865
412.548	2166
412.625	2346
412.702	4319
412.779	9225
412.856	7933
412.933	2873
413.010	3249
413.087	5478
413.164	23406
413.241	33940
413.318	9499
413.395	6842
413.471	9692
413.548	4600
413.625	3755
413.702	3628
413.779	4020
413.855	2078
413.932	1789
414.009	1692
414.086	2480
414.162	2326
414.239	6195
414.316	21383
414.393	47712
414.469	17770
414.546	3211
414.623	2491
414.699	3326
414.776	3222
414.853	2315
414.929	3388
415.006	3193
415.082	3963
415.159	4326
415.236	2610
415.312	3381
415.389	5161
415.465	7166
415.542	4104
415.618	2147
415.695	5067
415.771	3178
415.848	2864
415.924	3087
416.000	2126
416.077	3000
416.153	956
416.230	1012
416.306	2076
416.383	1242
416.459	2234
416.535	594
416.612	1569
416.688	2427
416.764	2333
416.841	1506
416.917	1640
416.993	2776
417.069	4318
417.146	6864
417.222	13112
417.298	7028
417.374	2466
417.451	3828
417.527	3104
417.603	3876
417.679	3039
417.755	2618
417.831	1962
417.908	1586
417.984	1633
418.060	2310
418.136	6057
418.212	8008
418.288	2820
418.364	2397
418.440	2260
418.516	4957
418.592	6530
418.668	10493
418.744	14633
418.820	10802
418.896	3581
418.972	1770
419.048	2603
419.124	7972
419.200	5005
419.276	1966
419.352	1130
419.428	1938
419.504	2645
419.579	3559
419.655	3072
419.731	3488
419.807	9384
419.883	16545
419.959	11995
420.034	5520
420.110	8593
420.186	33019
420.262	26064
420.337	5717
420.413	3435
420.489	2570
420.565	2837
420.640	1891
420.716	2672
420.792	1301
420.867	2938
420.943	1671
421.019	4747
421.094	4015
421.170	2224
421.245	1745
421.321	2579
421.397	2817
421.472	6808
421.548	18425
421.623	13230
421.699	5704
421.774	4103
421.850	4168
421.925	5819
422.001	5230
422.076	4809
422.152	5124
422.227	8435
422.302	9156
422.378	11657
422.453	19868
422.529	48750
422.604	158673
422.679	284463
422.755	179197
422.830	57656
422.905	22018
422.981	12099
423.056	8009
423.131	6462
423.207	5178
423.282	5658
423.357	9930
423.432	7513
423.508	6452
423.583	14534
423.658	11433
423.733	5100
423.808	5095
423.883	5036
423.959	4723
424.034	2856
424.109	3067
424.184	1763
424.259	1804
424.334	2410
424.409	1425
424.484	2136
424.559	2729
424.634	2279
424.709	3823
424.784	4427
424.859	2909
424.934	5788
425.009	20154
425.084	33958
425.159	13068
425.234	3861
425.309	2668
425.384	13071
425.459	24035
425.534	6752
425.609	2927
425.683	2934
425.758	2121
425.833	2911
425.908	3966
425.983	11164
426.058	34386
426.132	17081
426.207	4337
426.282	6563
426.357	5377
426.431	2635
426.506	2464
426.581	2252
426.655	2977
426.730	2202
426.805	2660
426.879	4182
426.954	2942
427.029	6354
427.103	31408
427.178	75409
427.253	33796
427.327	5908
427.402	9023
427.476	25701
427.551	13612
427.625	4116
427.700	4139
427.774	2002
427.849	4063
427.923	2230
427.998	2210
428.072	2141
428.147	5955
428.221	18478
428.296	42494
428.370	20717
428.444	5954
428.519	7914
428.593	15188
428.667	13637
428.742	14742
428.816	14022
428.890	34390
428.965	55199
429.039	24854
429.113	17698
429.188	7574
429.262	2312
429.336	5534
429.410	15901
429.485	11457
429.559	13826
429.633	11040
429.707	4347
429.781	8131
429.855	40767
429.930	55371
430.004	39429
430.078	66962
430.152	54601
430.226	64317
430.300	63698
430.374	11440
430.448	6089
430.522	22375
430.596	65508
430.670	38576
430.744	57735
430.818	89037
430.892	20863
430.966	4838
431.040	2698
431.114	1701
431.188	1567
431.262	1411
431.336	1641
431.410	6855
431.484	19276
431.557	12256
431.631	2959
431.705	2419
431.779	8267
431.853	33898
431.927	24443
432.000	4273
432.074	2257
432.148	3195
432.222	3413
432.295	2239
432.369	1743
432.443	4629
432.516	28714
432.590	73523
432.664	28152
432.737	4184
432.811	1542
432.885	809
432.958	2347
433.032	2106
433.106	1096
433.179	1561
433.253	1627
433.326	1485
433.400	1842
433.473	1381
433.547	561
433.620	2020
433.694	3980
433.767	3904
433.841	1781
433.914	1784
433.988	1241
434.061	2028
434.134	1658
434.208	466
434.281	1064
434.355	1186
434.428	2408
434.501	2067
434.575	1270
434.648	1862
434.721	988
434.795	1014
434.868	810
434.941	1147
435.014	876
435.088	1360
435.161	2791
435.234	3856
435.307	5570
435.381	2769
435.454	1476
435.527	2190
435.600	1864
435.673	1275
435.746	1155
435.819	2043
435.892	1123
435.966	1042
436.039	1327
436.112	1761
436.185	473
436.258	506
436.331	894
436.404	1094
436.477	519
436.550	1267
436.623	1683
436.696	1524
436.769	1881
436.842	1326
436.915	1779
436.987	2962
437.060	1433
437.133	600
437.206	1396
437.279	1613
437.352	1136
437.425	1307
437.498	2825
437.570	5187
437.643	5441
437.716	2198
437.789	1242
437.861	6765
437.934	20012
438.007	9147
438.080	2312
438.152	2327
438.225	6240
438.298	37107
438.370	96783
438.443	45325
438.516	18100
438.588	4111
438.661	1848
438.734	1595
438.806	2379
438.879	2988
438.951	5597
439.024	10945
439.096	3583
439.169	1177
439.241	891
439.314	987
439.386	3682
439.459	4304
439.531	8211
439.604	3593
439.676	1384
439.749	1129
439.821	886
439.893	2109
439.966	1561
440.038	3309
440.110	4012
440.183	2328
440.255	1364
440.327	3599
440.400	15983
440.472	64696
440.544	40869
440.617	6422
440.689	7224
440.761	9758
440.833	15453
440.905	9722
440.978	1946
441.050	1215
441.122	657
441.194	1333
441.266	1389
441.338	1168
441.411	3562
441.483	19971
441.555	29643
441.627	6951
441.699	4242
441.771	4355
441.843	1350
441.915	911
441.987	1286
442.059	1244
442.131	2207
442.203	4367
442.275	4467
442.347	4085
442.419	4022
442.491	11896
442.563	27333
442.635	17122
442.706	16960
442.778	14629
442.850	3187
442.922	1339
442.994	1896
443.066	3564
443.137	3496
443.209	2469
443.281	3226
443.353	6004
443.425	19350
443.496	55387
443.568	50156
443.640	18574
443.711	5381
443.783	3249
443.855	2624
443.926	1476
443.998	1806
444.070	2791
444.141	2925
444.213	5022
444.285	5165
444.356	4342
444.428	3582
444.499	1327
444.571	576
444.642	2099
444.714	1560
444.785	3773
444.857	5299
444.928	11476
445.000	7256
445.071	7949
445.143	8927
445.214	5074
445.285	8277
445.357	22417
445.428	47401
445.500	97099
445.571	62096
445.642	27579
445.714	16318
445.785	20314
445.856	6135
445.928	5609
445.999	6219
446.070	5784
446.141	4329
446.213	5259
446.284	2770
446.355	2919
446.426	2617
446.497	1342
446.569	4804
446.640	6698
446.711	3950
446.782	1974
446.853	2083
446.924	3032
446.995	2048
447.066	2552
447.138	4142
447.209	2742
447.280	1258
447.351	682
447.422	1409
447.493	2257
447.564	2748
447.635	3961
447.706	1581
447.777	1008
447.847	1019
447.918	840
447.989	2425
448.060	3918
448.131	8414
448.202	7345
448.273	5423
448.344	2650
448.414	1202
448.485	1408
448.556	1315
448.627	1535
448.698	1855
448.768	1086
448.839	1235
448.910	5192
448.981	4290
449.051	1653
449.122	1617
449.193	750
449.263	1415
449.334	1280
449.405	2591
449.475	5075
449.546	4424
449.616	4721
449.687	4291
449.758	2160
449.828	1160
449.899	1562
449.969	508
450.040	649
450.110	1108
450.181	2317
450.251	1806
450.322	1865
450.392	2383
450.463	2225
450.533	683
450.604	2092
450.674	2064
450.744	1690
450.815	947
450.885	1507
450.955	632
451.026	1224
451.096	1205
451.166	1580
451.237	5251
451.307	12322
451.377	5108
451.447	2289
451.518	627
451.588	1595
451.658	2031
451.728	4141
451.799	13900
451.869	16333
451.939	4035
452.009	1587
452.079	2017
452.149	1865
452.219	4094
452.289	16323
452.360	10972
452.430	2689
452.500	2837
452.570	2541
452.640	3695
452.710	8500
452.780	14024
452.850	9359
452.920	8529
452.990	3926
453.060	2452
453.129	3931
453.199	5097
453.269	17370
453.339	35264
453.409	53202
453.479	55385
453.549	78559
453.619	81261
453.688	28740
453.758	4912
453.828	3062
453.898	2132
453.968	1521
454.037	1387
454.087	1554
454.107	1610
454.168	1346
454.177	1290
454.247	1772
454.249	1762
454.316	1126
454.330	1374
454.386	2264
454.411	4507
454.456	8063
454.492	9663
454.525	11082
454.574	5843
454.595	3570
454.655	1916
454.665	1660
454.734	2818
454.736	2902
454.804	5008
454.817	6725
454.873	13226
454.898	13940
454.943	14973
454.979	9635
455.013	4882
455.060	3534
455.082	3140
455.141	3831
455.152	3972
455.221	12491
455.222	12702
455.291	25398
455.303	26761
455.360	30097
455.384	42650
455.430	62005
455.465	46162
455.499	31507
455.546	20879
455.569	16231
455.627	9822
455.638	8694
455.707	3095
455.708	3105
455.777	2097
455.789	2156
455.846	2575
455.869	2534
455.916	2261
455.950	2533
455.985	2827
456.031	2389
456.054	2177
456.112	1734
456.124	1635
456.193	2299
456.193	2285
456.262	1311
456.274	1595
456.332	3048
456.355	3093
456.401	2988
456.436	2609
456.470	2173
456.516	2003
456.540	1935
456.597	1736
456.609	1693
456.678	1985
456.678	1974
456.747	1233
456.759	1261
456.817	1515
456.840	1706
456.886	1758
456.920	1923
456.955	2303
457.001	2182
457.024	2107
457.082	2581
457.093	2687
457.162	2920
457.163	2941
457.232	3868
457.243	3801
457.301	2863
457.324	2285
457.370	1559
457.405	1968
457.439	2365
457.485	2112
457.508	1988
457.566	2467
457.577	2573
457.646	2827
457.647	2851
457.715	4349
457.727	4461
457.784	5183
457.808	5739
457.853	6559
457.889	7386
457.922	7239
457.969	6592
457.991	6940
458.050	8017
458.060	8211
458.129	9625
458.130	9710
458.198	9133
458.211	8591
458.267	5620
458.292	4445
458.336	4057
458.372	3981
458.405	4559
458.453	5662
458.474	6604
458.533	10138
458.543	10478
458.611	14944
458.614	15103
458.680	11300
458.694	9614
458.749	5904
458.775	4829
458.818	3632
458.855	3344
458.887	3433
458.936	3110
458.955	2890
459.016	3151
459.024	3198
459.093	3232
459.097	3229
459.162	3717
459.177	3856
459.230	4048
459.257	4449
459.299	4913
459.338	5014
459.368	5051
459.418	5690
459.437	5644
459.499	4548
459.505	4488
459.574	3781
459.579	3743
459.643	3287
459.659	3365
459.711	3916
459.740	3997
459.780	3909
459.820	4128
459.849	4376
459.900	4754
459.917	4825
459.981	4723
459.986	4668
460.054	4602
460.061	4565
460.123	4497
460.141	4579
460.191	5637
460.222	6110
460.260	6489
460.302	7370
460.328	7085
460.382	5927
460.397	5879
460.462	5766
460.465	5887
460.534	8945
460.543	9388
460.602	24985
460.623	30989
460.671	46369
460.703	62364
460.739	62763
460.783	55940
460.808	46708
460.864	11064
460.876	8170
460.944	4813
460.945	4776
461.013	4777
461.024	4676
461.081	4534
461.104	4725
461.150	4794
461.184	4425
461.218	4310
461.264	4527
461.286	4510
461.345	4233
461.355	4177
461.423	4386
461.425	4386
461.491	4421
461.505	4472
461.559	6867
461.585	7968
461.628	11883
461.665	15974
461.696	18305
461.745	23376
461.764	21055
461.825	8351
461.832	7993
461.901	5417
461.905	5380
461.969	4820
461.985	4641
462.037	4797
462.065	4910
462.105	5153
462.145	5378
462.173	6988
462.225	10038
462.241	10641
462.305	14296
462.310	14086
462.378	10453
462.385	9700
462.446	5591
462.465	4786
462.514	4921
462.545	5134
462.582	5012
462.625	4960
462.650	4969
462.705	4895
462.718	4984
462.785	5160
462.786	5184
462.854	6986
462.865	7248
462.922	8401
462.945	9021
462.990	7766
463.025	6257
463.058	5711
463.104	5072
463.126	4962
463.184	4822
463.194	4901
463.262	5194
463.264	5226
463.330	5610
463.344	5571
463.398	6338
463.424	6765
463.466	6133
463.504	5533
463.533	5929
463.583	6756
463.601	6770
463.663	6305
463.669	6402
463.737	7741
463.743	7892
463.805	11481
463.823	12458
463.873	16605
463.903	19296
463.940	21029
463.982	23510
464.008	20055
464.062	10651
464.076	9904
464.142	6220
464.144	6193
464.211	6235
464.221	6201
464.279	6454
464.301	6593
464.347	6814
464.381	6981
464.414	7361
464.461	7903
464.482	8194
464.540	8986
464.550	8948
464.617	8606
464.620	8581
464.685	9194
464.699	9286
464.753	10112
464.779	10584
464.820	11783
464.859	13009
464.888	12210
464.938	10584
464.956	10929
465.018	12079
465.023	11976
465.091	10499
465.098	10318
465.158	9765
465.177	9659
465.226	9735
465.257	9658
465.293	10169
465.336	10741
465.361	11099
465.416	11954
465.428	12561
465.495	15803
465.496	15867
465.563	22143
465.575	23274
465.631	27634
465.654	29607
465.698	20967
465.734	12875
465.765	11311
465.813	9220
465.833	9039
465.893	8872
465.900	8899
465.968	9012
465.972	9004
466.035	9891
466.052	10137
466.102	10034
466.131	9879
466.170	9324
466.210	8785
466.237	9569
466.290	11041
466.304	10896
466.369	10185
466.372	10228
466.439	11054
466.449	11144
466.506	11546
466.528	11674
466.573	14661
466.607	16914
466.641	22993
466.687	31366
466.708	34762
466.766	44242
466.775	41497
466.842	20107
466.845	19052
466.909	13471
466.925	12187
466.977	11900
467.004	11762
467.044	12475
467.083	13155
467.111	14355
467.163	16545
467.178	17283
467.242	20215
467.245	20105
467.312	17112
467.321	16688
467.379	16876
467.400	16898
467.446	16858
467.480	16777
467.559	16100
467.638	13238
467.717	13843
467.796	16788
467.875	17129
467.955	15809
468.034	19408
468.113	36312
468.192	52833
468.271	21636
468.350	14078
468.429	14219
468.508	13747
468.588	12676
468.667	12290
468.746	14505
468.825	13988
468.904	12379
468.983	14274
469.062	18865
469.141	22057
469.220	13981
469.299	12806
469.378	13515
469.456	17014
469.535	16521
469.614	13647
469.693	13225
469.772	17198
469.851	19616
469.930	18786
470.009	13655
470.088	13910
470.166	14565
470.245	16851
470.324	18213
470.403	15833
470.482	14481
470.560	13124
470.639	13904
470.718	15463
470.797	13646
470.875	13898
470.954	17398
471.033	20041
471.111	11475
471.190	11321
471.269	10224
471.347	10294
471.426	11568
471.505	12911
471.583	14384
471.662	13799
471.740	12394
471.819	13026
471.898	12214
471.976	12440
472.055	11550
472.133	13426
472.212	15517
472.290	15653
472.369	13184
472.447	10972
472.526	11515
472.604	12270
472.683	12262
472.761	13277
472.839	12338
472.918	10799
472.996	11826
473.075	12913
473.153	12058
473.231	11731
473.310	12755
473.388	13399
473.466	11736
473.545	13334
473.623	17456
473.701	16780
473.780	12495
473.858	11248
473.936	13270
474.014	11705
474.093	12791
474.171	16391
474.249	19799
474.327	15872
474.405	10847
474.484	11384
474.562	11635
474.640	10857
474.718	10898
474.796	11985
474.874	10758
474.952	11415
475.030	9749
475.108	10769
475.187	10292
475.265	11103
475.343	13170
475.421	15052
475.499	12200
475.577	12880
475.655	13727
475.733	22776
475.811	34526
475.889	33557
475.966	27603
476.044	11749
476.122	11759
476.200	13153
476.278	11786
476.356	10394
476.434	10541
476.512	10242
476.590	13498
476.667	12611
476.745	10249
476.823	11397
476.901	10304
476.979	10550
477.056	11304
477.134	11760
477.212	11208
477.290	12052
477.367	10348
477.445	10024
477.523	9041
477.601	10372
477.678	9872
477.756	11641
477.834	12731
477.911	10038
477.989	9726
478.066	9803
478.144	9593
478.222	11360
478.299	12413
478.377	13122
478.454	10302
478.532	9629
478.609	10216
478.687	11519
478.764	9348
478.842	10306
478.919	10669
478.997	11624
479.074	9331
479.152	11372
479.229	12382
479.307	9868
479.384	8315
479.461	9198
479.539	8470
479.616	11002
479.694	10026
479.771	10918
479.848	11272
479.926	12640
480.003	15959
480.080	10021
480.157	8307
480.235	9178
480.312	9619
480.389	9957
480.467	14302
480.544	17108
480.621	11695
480.698	10690
480.775	11558
480.853	11975
480.930	10471
481.007	9297
481.084	11366
481.161	14362
481.238	12653
481.315	9105
481.392	8417
481.470	9728
481.547	9411
481.624	9904
481.701	9134
481.778	8937
481.855	10872
481.932	13691
482.009	19639
482.086	18318
482.163	9747
482.240	10523
482.317	12489
482.393	13314
482.470	9359
482.547	9334
482.624	8322
482.701	9461
482.778	9840
482.855	8601
482.932	8405
483.009	8703
483.085	9948
483.162	12093
483.239	13361
483.316	9507
483.393	8841
483.469	9258
483.546	10375
483.623	11327
483.699	9073
483.776	10110
483.853	10805
483.930	14038
484.006	29718
484.083	51567
484.160	39569
484.236	49117
484.313	43197
484.389	31204
484.466	28123
484.543	26469
484.619	26017
484.696	26123
484.772	27262
484.849	28804
484.925	25451
485.002	25671
485.078	25697
485.155	27379
485.231	24411
485.308	23848
485.384	23240
485.461	26385
485.537	37261
485.614	46947
485.690	26863
485.766	23230
485.843	24496
485.919	30711
485.995	34041
486.072	23315
486.148	21519
486.224	22036
486.301	22180
486.377	25458
486.453	25396
486.530	25793
486.606	30065
486.682	35657
486.758	38180
486.835	41914
486.911	34927
486.987	47299
487.063	59764
487.139	70364
487.215	55084
487.292	32617
487.368	24825
487.444	26005
487.520	31120
487.596	31060
487.672	32292
487.748	50599
487.824	70495
487.900	40411
487.976	25288
488.052	25349
488.128	31493
488.204	27817
488.280	23402
488.356	24889
488.432	39072
488.508	61277
488.584	32561
488.660	21561
488.736	21965
488.812	22059
488.888	27194
488.964	34003
489.039	61778
489.115	100033
489.191	72014
489.267	25163
489.343	21754
489.418	20471
489.494	17800
489.570	16773
489.646	19668
489.722	18848
489.797	19263
489.873	23871
489.949	44006
490.024	48782
490.100	19476
490.176	19137
490.251	22247
490.327	27525
490.403	20233
490.478	17472
490.554	16222
490.629	16170
490.705	15966
490.781	18607
490.856	16678
490.932	18897
491.007	19410
491.083	18807
491.158	17784
491.234	20009
491.309	35106
491.385	42726
491.460	18387
491.536	17693
491.611	18585
491.686	18595
491.762	23736
491.837	40981
491.913	69476
491.988	90419
492.063	126429
492.139	45095
492.214	25986
492.289	16347
492.365	14165
492.440	18073
492.515	17255
492.590	18303
492.666	15296
492.741	17519
492.816	23628
492.891	18579
492.967	15828
493.042	16100
493.117	17637
493.192	19957
493.267	33772
493.342	117380
493.418	194600
493.493	46626
493.568	15162
493.643	13819
493.718	15631
493.793	21235
493.868	26132
493.943	19862
494.018	15437
494.093	12983
494.168	13735
494.243	13764
494.318	12316
494.393	12400
494.468	12960
494.543	12601
494.618	15128
494.693	13780
494.768	13279
494.842	13927
494.917	11809
494.992	13727
495.067	13592
495.142	11888
495.217	14361
495.292	13621
495.366	14966
495.441	19235
495.516	22312
495.591	28283
495.665	77077
495.740	196279
495.815	117856
495.890	24297
495.964	16322
496.039	18199
496.114	16761
496.188	18525
496.263	19171
496.338	16474
496.412	17477
496.487	19935
496.561	20128
496.636	22474
496.710	18362
496.785	20353
496.860	20311
496.934	18695
497.009	17869
497.083	18846
497.158	19410
497.232	20205
497.307	24463
497.381	21405
497.455	22720
497.530	28238
497.604	24708
497.679	23297
497.753	30629
497.827	38843
497.902	34851
497.976	38685
498.050	69765
498.125	249194
498.199	345883
498.273	70569
498.348	41402
498.422	35793
498.496	33174
498.570	32221
498.645	26273
498.719	26061
498.793	29166
498.867	37814
498.941	46220
499.016	101575
499.090	285262
499.164	173987
499.238	24780
499.312	19283
499.386	22338
499.460	22679
499.534	19253
499.609	21846
499.683	28609
499.757	28659
499.831	44725
499.905	171146
499.979	233689
500.053	44226
500.127	35708
500.201	30069
500.275	20213
500.349	17487
500.422	19444
500.496	25173
500.570	48012
500.644	106661
500.718	208507
500.792	83303
500.866	19456
500.940	19849
501.013	19388
501.087	18001
501.161	28631
501.235	35266
501.309	56753
501.382	159606
501.456	199824
501.530	45969
501.603	57645
501.677	37981
501.751	13745
501.825	16770
501.898	24518
501.972	66135
502.046	64734
502.119	17118
502.193	30594
502.266	73311
502.340	55101
502.413	31943
502.487	67672
502.561	47456
502.634	21182
502.708	14835
502.781	13097
502.855	12746
502.928	10425
503.002	10627
503.075	9881
503.149	11316
503.222	11982
503.295	12127
503.369	14049
503.442	17625
503.516	44712
503.589	125528
503.662	112745
503.736	35884
503.809	56468
503.882	63301
503.956	64980
504.029	81225
504.102	37590
504.175	40181
504.249	19986
504.322	14989
504.395	15580
504.468	12562
504.542	10155
504.615	9412
504.688	9438
504.761	9295
504.834	12938
504.907	14402
504.980	22170
505.053	14451
505.127	13394
505.200	19389
505.273	14449
505.346	12460
505.419	9005
505.492	9398
505.565	8569
505.638	8649
505.711	7934
505.784	8577
505.857	8116
505.930	9621
506.003	8806
506.076	10766
506.149	10971
506.221	14438
506.294	14541
506.367	24426
506.440	88459
506.513	77880
506.586	16832
506.659	12229
506.731	10727
506.804	11717
506.877	15623
506.950	13134
507.022	9623
507.095	10179
507.168	14112
507.241	11248
507.313	8301
507.386	9164
507.459	13770
507.531	11297
507.604	9294
507.677	9788
507.749	7491
507.822	11670
507.894	20486
507.967	29169
508.040	18614
508.112	15771
508.185	14261
508.257	13584
508.330	19746
508.402	14649
508.475	14797
508.547	15153
508.620	13831
508.692	19126
508.765	17523
508.837	12607
508.909	11507
508.982	11624
509.054	13475
509.127	13286
509.199	12225
509.271	10770
509.344	11729
509.416	12158
509.488	12003
509.560	13036
509.633	13307
509.705	15693
509.777	15351
509.849	21236
509.922	18066
509.994	15702
510.066	15792
510.138	15859
510.210	27483
510.283	25865
510.355	21145
510.427	18196
510.499	17526
510.571	16843
510.643	15943
510.715	23191
510.787	22050
510.859	18073
510.931	18382
511.003	22773
511.076	23588
511.148	16367
511.219	15964
511.291	21798
511.363	26660
511.435	18575
511.507	16030
511.579	16511
511.651	15109
511.723	14589
511.795	13998
511.867	14445
511.939	14729
512.010	23325
512.082	25432
512.154	14816
512.226	15718
512.298	18501
512.369	28690
512.441	24620
512.513	21674
512.585	19273
512.656	17664
512.728	18235
512.800	16154
512.871	14868
512.943	14994
513.015	14035
513.086	14735
513.158	16827
513.230	16117
513.301	19675
513.373	23538
513.444	17024
513.516	13867
513.588	14549
513.659	15112
513.731	17219
513.802	15846
513.874	26725
513.945	46795
514.016	24238
514.088	14072
514.159	14571
514.231	18587
514.302	24901
514.374	20260
514.445	17336
514.516	26916
514.588	25873
514.659	16996
514.730	24325
514.802	24795
514.873	16206
514.944	19684
515.016	17819
515.087	20101
515.158	21341
515.229	29741
515.301	18838
515.372	21196
515.443	19797
515.514	17879
515.585	16326
515.656	15968
515.728	14998
515.799	13120
515.870	14751
515.941	13806
516.012	14633
516.083	18704
516.154	20873
516.225	23557
516.296	23087
516.367	20813
516.438	20888
516.509	25202
516.580	31616
516.651	70602
516.722	260287
516.793	206069
516.864	42129
516.935	34638
517.006	35066
517.077	43750
517.148	82768
517.219	237572
517.289	517637
517.360	209975
517.431	79333
517.502	23091
517.573	19891
517.643	18340
517.714	20439
517.785	22215
517.856	20601
517.926	25561
517.997	28377
518.068	32910
518.138	42431
518.209	54629
518.280	159081
518.350	640810
518.421	465143
518.492	66988
518.562	29619
518.633	24234
518.703	21032
518.774	26581
518.845	40725
518.915	42554
518.986	25749
519.056	23807
519.127	37428
519.197	55258
519.268	109686
519.338	102011
519.408	26273
519.479	28377
519.549	23868
519.620	17340
519.690	14252
519.760	13949
519.831	14027
519.901	14710
519.971	13240
520.042	12746
520.112	14349
520.182	17416
520.253	19546
520.323	14957
520.393	19263
520.463	33811
520.534	21794
520.604	43463
520.674	28068
520.744	19244
520.814	43123
520.885	52856
520.955	35611
521.025	120996
521.095	85373
521.165	16418
521.235	14065
521.305	12686
521.375	12723
521.445	13027
521.515	16317
521.585	18934
521.655	19759
521.725	15399
521.795	14638
521.865	10381
521.935	16619
522.005	16724
522.075	11633
522.145	12683
522.215	12147
522.285	17509
522.355	20732
522.424	35521
522.494	38673
522.564	23230
522.634	32883
522.704	98202
522.774	57959
522.843	15094
522.913	12887
522.983	16145
523.053	13781
523.122	13816
523.192	16748
523.262	46661
523.331	66102
523.401	18893
523.471	12676
523.540	11493
523.610	9318
523.680	8945
523.749	10463
523.819	12145
523.888	13073
523.958	9091
524.027	11180
524.097	10651
524.166	10314
524.236	11374
524.305	13253
524.375	9766
524.444	9525
524.514	11525
524.583	9793
524.653	11898
524.722	14105
524.791	10783
524.861	10644
524.930	9126
524.999	9633
525.069	13352
525.138	11785
525.207	12412
525.277	11384
525.346	10380
525.415	10316
525.484	10665
525.554	10981
525.623	12081
525.692	11407
525.761	11503
525.830	11074
525.900	11189
525.969	15147
526.038	20163
526.107	26553
526.176	69656
526.245	67588
526.314	32941
526.383	44944
526.452	57306
526.522	84768
526.591	112451
526.660	62549
526.729	36586
526.797	29954
526.867	55342
526.935	243774
527.004	329812
527.073	177135
527.142	27530
527.211	15074
527.280	14639
527.349	16011
527.418	9229
527.487	11068
527.555	7754
527.624	8628
527.693	7892
527.762	10661
527.831	7709
527.899	9412
527.968	8271
528.037	8471
528.106	10258
528.174	18353
528.243	17399
528.312	18247
528.380	30522
528.449	12542
528.518	9325
528.586	7179
528.655	8821
528.723	7818
528.792	6803
528.861	8917
528.929	8264
528.998	8481
529.066	7672
529.135	9949
529.203	8725
529.272	8607
529.340	11600
529.409	11684
529.477	10045
529.545	10704
529.614	13869
529.682	12914
529.751	17155
529.819	18751
529.887	15768
529.956	12159
530.024	11923
530.092	10641
530.161	12986
530.229	17437
530.297	14211
530.365	13250
530.434	11399
530.502	11266
530.570	11390
530.638	8817
530.707	10353
530.775	12435
530.843	9600
530.911	9951
530.979	11165
531.047	11208
531.115	12634
531.183	11081
531.252	11228
531.320	10486
531.388	10577
531.456	11280
531.524	9825
531.592	12219
531.660	15114
531.728	12290
531.796	11359
531.864	12148
531.932	11959
532.000	12849
532.067	12997
532.135	15772
532.203	17126
532.271	17805
532.339	25996
532.407	52542
532.475	43919
532.542	24660
532.610	23632
532.678	25180
532.746	68603
532.814	214084
532.881	81143
532.949	20970
533.017	16844
533.084	14784
533.152	13777
533.220	13751
533.287	13991
533.355	15308
533.423	14328
533.490	13640
533.558	13444
533.625	14431
533.693	17086
533.761	16564
533.828	17967
533.896	17884
533.963	27507
534.031	37664
534.098	42565
534.166	31627
534.233	22274
534.300	23176
534.368	23528
534.435	22615
534.503	20867
534.570	21825
534.637	19792
534.705	18693
534.772	18524
534.840	19469
534.907	39434
534.974	55841
535.041	20615
535.109	17841
535.176	14561
535.243	14806
535.310	14355
535.378	13702
535.445	12412
535.512	13061
535.579	13446
535.646	12624
535.714	13869
535.781	17319
535.848	18252
535.915	19447
535.982	22126
536.049	22897
536.116	23662
536.183	20754
536.250	20108
536.317	19765
536.384	20062
536.451	23547
536.518	24039
536.585	18797
536.652	22147
536.719	26197
536.786	21663
536.853	19853
536.920	22623
536.987	33196
537.053	30633
537.120	90950
537.187	114237
537.254	18133
537.321	13021
537.388	14010
537.454	10946
537.521	10521
537.588	10722
537.654	13108
537.721	13942
537.788	13271
537.855	10959
537.921	11515
537.988	11681
538.055	12749
538.121	11085
538.188	12424
538.254	15941
538.321	29834
538.388	21897
538.454	13047
538.521	11443
538.587	11009
538.654	10108
538.720	11132
538.787	10750
538.853	11515
538.920	13294
538.986	13924
539.053	12309
539.119	11514
539.185	11754
539.252	14491
539.318	19358
539.385	17201
539.451	15065
539.517	14930
539.583	15675
539.650	26255
539.716	81405
539.782	35257
539.849	13190
539.915	12992
539.981	11762
540.047	14558
540.114	13444
540.180	14783
540.246	12220
540.312	17123
540.378	27979
540.444	32674
540.510	29355
540.576	87092
540.643	43107
540.709	12250
540.775	12099
540.841	11777
540.907	14339
540.973	23514
541.039	22137
541.105	21092
541.171	13330
541.237	12484
541.303	13030
541.369	14131
541.435	16906
541.500	26756
541.566	20117
541.632	11225
541.698	9583
541.764	10897
541.830	9913
541.896	9748
541.961	11817
542.027	10979
542.093	11212
542.159	12095
542.224	12748
542.290	19374
542.356	25838
542.421	31565
542.487	18627
542.553	12591
542.618	14759
542.684	13823
542.750	13421
542.815	13943
542.881	19509
542.947	69196
543.012	74251
543.078	14453
543.143	12178
543.209	12998
543.274	11561
543.340	14391
543.405	26005
543.471	53222
543.536	17165
543.602	11782
543.667	10340
543.732	11980
543.798	9734
543.863	12011
543.928	10446
543.994	10023
544.059	11383
544.124	11514
544.190	11249
544.255	11756
544.320	11495
544.386	12775
544.451	16313
544.516	17600
544.581	17351
544.646	39417
544.712	84949
544.777	24959
544.842	14074
544.907	14635
544.972	13039
545.037	12947
545.102	13919
545.168	13425
545.233	15027
545.298	15441
545.363	15991
545.428	19469
545.493	27595
545.558	62702
545.623	36069
545.688	14303
545.753	12582
545.818	13224
545.883	14088
545.947	14029
546.012	14463
546.077	14720
546.142	13778
546.207	13430
546.272	17346
546.337	18836
546.401	15943
546.466	15249
546.531	13679
546.596	15112
546.661	14845
546.725	14254
546.790	12323
546.855	13026
546.919	11609
546.984	14703
547.049	14751
547.113	17716
547.178	14547
547.243	16017
547.307	18530
547.372	20435
547.436	22446
547.501	18542
547.565	18686
547.630	21613
547.695	21489
547.759	21540
547.823	21674
547.888	18429
547.952	17374
548.017	17553
548.081	21929
548.146	24893
548.210	23424
548.274	18957
548.339	17810
548.403	17670
548.468	15898
548.532	16565
548.596	17671
548.660	16930
548.725	18393
548.789	19962
548.853	23364
548.917	19960
548.982	21316
549.046	25207
549.110	17484
549.174	16558
549.238	15728
549.303	16602
549.367	18945
549.431	17197
549.495	17261
549.559	16925
549.623	17632
549.687	20724
549.751	26912
549.815	23990
549.879	22280
549.943	19337
550.007	21928
550.071	21426
550.135	24467
550.199	22985
550.263	20679
550.327	20379
550.391	26023
550.455	23615
550.519	21039
550.582	23148
550.646	27352
550.710	31736
550.774	23722
550.838	22519
550.901	22918
550.965	25306
551.029	26142
551.093	28103
551.156	32228
551.220	47202
551.284	61783
551.347	33347
551.411	48829
551.475	69946
551.538	30067
551.602	23779
551.666	22240
551.729	20684
551.793	21771
551.856	22034
551.920	23281
551.983	22721
552.047	21674
552.110	20519
552.174	21269
552.237	21239
552.301	19851
552.364	20644
552.428	19398
552.491	19475
552.554	21471
552.618	20362
552.681	22089
552.745	22679
552.808	27892
552.871	35691
552.934	31985
552.998	24982
553.061	25259
553.124	24957
553.187	25599
553.251	26086
553.314	30084
553.377	31930
553.440	45687
553.503	128986
553.567	313429
553.630	91231
553.693	28759
553.756	24435
553.819	20878
553.882	19560
553.945	20122
554.008	19808
554.071	18517
554.134	19166
554.197	17859
554.260	18818
554.323	20593
554.386	19900
554.449	19355
554.512	19740
554.575	18354
554.638	19323
554.701	19092
554.764	18563
554.827	17748
554.889	17804
554.952	17068
555.015	16508
555.078	16134
555.141	17442
555.203	16322
555.266	17361
555.329	16406
555.391	16428
555.454	16922
555.517	17958
555.580	16642
555.642	14821
555.705	15616
555.768	16913
555.830	15602
555.893	14889
555.955	14779
556.018	15886
556.080	15523
556.143	15435
556.206	15144
556.268	15950
556.330	16194
556.393	16008
556.455	15863
556.518	20334
556.580	23777
556.643	16525
556.705	14171
556.767	14204
556.830	14454
556.892	15552
556.955	23679
557.017	19637
557.079	15313
557.142	14683
557.204	16414
557.266	28329
557.328	28339
557.391	15102
557.453	13221
557.515	13724
557.577	16061
557.639	17393
557.701	13600
557.764	12062
557.826	13136
557.888	14364
557.950	13842
558.012	14008
558.074	16030
558.136	25847
558.198	55310
558.260	33721
558.322	17000
558.384	16497
558.446	20086
558.508	21602
558.570	25176
558.632	37186
558.694	56189
558.756	48884
558.818	102133
558.880	293393
558.942	129522
559.003	64390
559.065	43031
559.127	21855
559.189	20120
559.251	22036
559.312	25831
559.374	48118
559.436	161827
559.498	113359
559.559	26229
559.621	21365
559.683	21264
559.744	29689
559.806	72940
559.868	127772
559.929	39442
559.991	22584
560.052	24576
560.114	53228
560.176	45476
560.237	34720
560.299	58747
560.360	24575
560.422	15001
560.483	14091
560.545	13523
560.606	13097
560.667	12717
560.729	12942
560.790	11930
560.852	13188
560.913	12316
560.974	13184
561.036	11844
561.097	12708
561.158	13200
561.220	14330
561.281	13462
561.342	13818
561.403	15201
561.465	18616
561.526	33661
561.587	56412
561.648	22206
561.709	14169
561.771	14288
561.832	13402
561.893	12899
561.954	13386
562.015	12955
562.076	13461
562.137	13438
562.198	12741
562.259	13391
562.320	13216
562.381	15003
562.442	19078
562.503	18859
562.564	13562
562.625	13703
562.686	12864
562.747	14650
562.808	15648
562.869	13710
562.930	16047
562.991	15417
563.051	14428
563.112	13433
563.173	13216
563.234	11985
563.294	14228
563.355	13202
563.416	13862
563.477	13427
563.537	13812
563.598	13835
563.659	14248
563.720	13321
563.780	14111
563.841	15184
563.901	14343
563.962	12928
564.023	13839
564.083	13283
564.144	14779
564.204	14781
564.265	14551
564.325	14988
564.386	23394
564.446	26439
564.507	15397
564.567	13310
564.628	14431
564.688	13337
564.749	14051
564.809	14706
564.869	17284
564.930	14600
564.990	15191
565.050	14790
565.111	13810
565.171	13131
565.231	14510
565.292	14824
565.352	13589
565.412	15115
565.472	14721
565.532	16069
565.593	15872
565.653	14726
565.713	15665
565.773	16657
565.833	18683
565.893	21953
565.953	17610
566.013	15999
566.074	17699
566.134	19096
566.194	26665
566.254	30706
566.314	24227
566.374	20341
566.434	19580
566.494	20099
566.554	21124
566.614	22333
566.673	20982
566.733	21572
566.793	22835
566.853	22993
566.913	23949
566.973	23558
567.033	24914
567.092	24686
567.152	25495
567.212	25111
567.272	24857
567.331	26643
567.391	25950
567.451	27031
567.511	29468
567.570	30798
567.630	26107
567.690	24197
567.749	24810
567.809	24715
567.868	27513
567.928	28524
567.988	31391
568.047	35229
568.107	39136
568.166	47574
568.226	58535
568.285	75300
568.345	79961
568.404	77894
568.464	75085
568.523	72138
568.582	73969
568.642	76853
568.701	83263
568.761	98443
568.820	121791
568.879	136891
568.939	131732
568.998	116562
569.057	102710
569.116	90103
569.176	78386
569.235	69175
569.294	62104
569.353	55239
569.413	49878
569.472	46168
569.531	41972
569.590	37811
569.649	36107
569.708	32828
569.767	31137
569.827	33114
569.886	31549
569.945	26095
570.004	25479
570.063	24187
570.122	23986
570.181	24679
570.240	23219
570.299	23230
570.358	24737
570.417	21736
570.475	18458
570.534	18404
570.593	19261
570.652	18658
570.711	20489
570.770	16875
570.829	18579
570.887	17352
570.946	18989
571.005	16061
571.064	15100
571.122	15532
571.181	16719
571.240	15375
571.299	14877
571.357	14819
571.416	15525
571.475	15421
571.533	18064
571.592	13761
571.650	14298
571.709	13586
571.768	13392
571.826	12698
571.885	12149
571.943	12817
572.002	12701
572.060	13201
572.119	11937
572.177	12494
572.236	11680
572.294	11047
572.352	12482
572.411	12244
572.469	12322
572.528	11932
572.586	13211
572.644	13951
572.703	18112
572.761	14863
572.819	12017
572.877	11629
572.936	11537
572.994	11819
573.052	11593
573.110	11541
573.169	13095
573.227	11156
573.285	11315
573.343	10335
573.401	12118
573.459	11510
573.517	10877
573.576	11023
573.634	11480
573.692	11915
573.750	10403
573.808	10903
573.866	10317
573.924	13310
573.982	13460
574.040	11837
574.098	12190
574.155	9626
574.213	10542
574.271	10003
574.329	10366
574.387	10489
574.445	10100
574.503	10028
574.560	10526
574.618	9867
574.676	9472
574.734	9098
574.792	10854
574.849	10766
574.907	8778
574.965	10329
575.022	9114
575.080	9836
575.138	10338
575.195	9890
575.253	10735
575.311	11247
575.368	10908
575.426	9531
575.483	10025
575.541	9642
575.598	9236
575.656	10540
575.713	10333
575.771	10145
575.828	9595
575.886	9118
575.943	9748
576.001	10221
576.058	10685
576.115	10439
576.173	11770
576.230	12056
576.287	13728
576.345	12911
576.402	10949
576.459	10845
576.517	11451
576.574	11904
576.631	11796
576.688	10343
576.746	10620
576.803	10603
576.860	10417
576.917	10566
576.974	11685
577.031	10726
577.089	10823
577.146	10252
577.203	10613
577.260	12037
577.317	11133
577.374	12416
577.431	12353
577.488	11088
577.545	11373
577.602	12420
577.659	13371
577.716	13182
577.773	17036
577.830	15728
577.886	15525
577.943	14473
578.000	15398
578.057	15850
578.114	17784
578.171	20691
578.227	30182
578.284	35828
578.341	30985
578.398	27702
578.454	24513
578.511	23061
578.568	21077
578.625	17742
578.681	17030
578.738	15064
578.794	14849
578.851	14620
578.908	13801
578.964	14228
579.021	13592
579.077	13420
579.134	12547
579.190	13104
579.247	12960
579.303	11694
579.360	11855
579.416	12534
579.473	12626
579.529	13115
579.586	13830
579.642	13649
579.698	14343
579.755	15361
579.811	15859
579.867	17358
579.924	17763
579.980	20438
580.036	24037
580.093	29983
580.149	43723
580.205	56904
580.261	51870
580.317	43574
580.374	37759
580.430	33691
580.486	31750
580.542	26118
580.598	24151
580.619	23258
580.654	21731
580.692	20297
580.710	19621
580.765	19357
580.767	19368
580.823	18107
580.838	17855
580.879	17252
580.911	16980
580.935	16802
580.984	16581
580.991	16577
581.047	17400
581.057	17410
581.103	17535
581.130	18302
581.159	19142
581.203	21816
581.215	22525
581.270	23056
581.276	22879
581.326	21408
581.349	20565
581.382	19256
581.422	18258
581.438	17880
581.494	17865
581.494	17837
581.550	15867
581.567	16096
581.606	16643
581.640	15952
581.661	15533
581.713	16171
581.717	16240
581.773	15529
581.786	15370
581.829	14802
581.859	14638
581.885	14530
581.932	14269
581.940	14217
581.996	13588
582.004	13702
582.052	14416
582.077	14110
582.107	13744
582.150	14938
582.163	15318
582.219	14084
582.223	14105
582.274	14385
582.296	14374
582.330	14343
582.368	15249
582.386	15696
582.441	14825
582.441	14826
582.497	15360
582.514	15699
582.552	16519
582.587	17648
582.608	18255
582.659	17776
582.663	17733
582.719	16757
582.732	16429
582.774	15600
582.805	15688
582.830	15745
582.877	16693
582.885	16881
582.941	18461
582.950	18700
582.996	19706
583.023	20023
583.052	20788
583.095	23653
583.107	24472
583.162	29215
583.168	29694
583.218	33343
583.240	33158
583.273	32586
583.313	30087
583.328	29029
583.384	27440
583.385	27334
583.439	24377
583.458	23815
583.494	22908
583.531	21987
583.549	21557
583.603	20841
583.605	20819
583.660	19956
583.676	19759
583.715	19185
583.748	18707
583.770	18523
583.820	18867
583.825	18883
583.881	18425
583.893	18294
583.936	17905
583.965	17921
583.991	17863
584.038	17593
584.046	17584
584.101	18104
584.110	18050
584.156	17433
584.183	17538
584.211	18017
584.255	18258
584.266	18193
584.321	17609
584.328	17651
584.376	18238
584.400	18270
584.431	18142
584.472	17600
584.486	17625
584.541	19523
584.545	19566
584.596	19394
584.617	19099
584.651	19062
584.689	19444
584.706	19479
584.761	19523
584.762	19525
584.816	19816
584.834	19811
584.871	20164
584.906	20519
584.926	20672
584.978	20274
584.980	20251
585.035	20899
585.051	21014
585.090	21684
585.123	22467
585.145	22786
585.195	22896
585.200	22971
585.254	24118
585.267	24683
585.309	26844
585.340	29172
585.364	30456
585.412	28534
585.419	28171
585.473	26792
585.484	26714
585.528	27964
585.556	29362
585.583	31043
585.628	35874
585.637	37725
585.692	54976
585.700	58721
585.747	76720
585.772	71939
585.801	58655
585.845	39231
585.856	35844
585.910	30290
585.917	29866
585.965	29544
585.989	29324
586.019	28979
586.061	28809
586.074	28840
586.128	29011
586.133	29075
586.183	29986
586.205	30362
586.237	30942
586.277	30684
586.292	30501
586.346	31286
586.349	31280
586.401	31664
586.421	32053
586.455	33211
586.493	34895
586.509	35885
586.564	38524
586.565	38688
586.618	48462
586.637	49833
586.672	47562
586.709	41551
586.727	39364
586.781	38770
586.781	38787
586.835	39378
586.853	39923
586.889	40342
586.925	40085
586.944	40582
586.996	43205
586.998	43272
587.052	44710
587.068	45037
587.106	46303
587.140	47413
587.161	47741
587.212	48678
587.215	48825
587.269	51461
587.284	52289
587.323	54240
587.356	56094
587.377	57311
587.427	59498
587.431	59688
587.485	62550
587.499	63215
587.539	66318
587.571	69208
587.593	70841
587.643	73429
587.648	73818
587.702	79593
587.715	80821
587.755	85078
587.786	88354
587.810	91312
587.858	97897
587.864	98757
587.917	107432
587.930	109495
587.971	118632
588.001	125328
588.025	130508
588.073	141439
588.079	143379
588.133	161864
588.145	165895
588.187	180352
588.217	191647
588.241	202906
588.288	225025
588.295	228684
588.348	261916
588.360	269393
588.402	303570
588.431	328123
588.456	353059
588.503	404538
588.510	413875
588.564	492829
588.575	510247
588.617	598695
588.646	664938
588.671	742750
588.718	897742
588.725	929459
588.778	1184111
588.789	1235922
588.832	1451809
588.861	1584476
588.886	1594656
588.932	1548868
588.939	1528016
588.993	1312485
589.004	1293010
589.047	1525343
589.075	1665629
589.100	1607862
589.147	1424233
589.154	1392340
589.207	1123113
589.218	1070463
589.261	973653
589.290	918076
589.314	926831
589.361	961294
589.368	982171
589.421	1168601
589.433	1210106
589.475	1399340
589.504	1518212
589.528	1503208
589.576	1401365
589.582	1403657
589.635	1468345
589.647	1477483
589.689	1330406
589.718	1187854
589.742	1038160
589.790	740242
589.795	720217
589.849	544441
589.861	505690
589.902	427927
589.932	373306
589.955	344302
590.004	285746
590.009	282016
590.062	243425
590.075	234196
590.115	212012
590.146	195659
590.168	187002
590.218	167590
590.222	166497
590.275	151612
590.289	147820
590.328	138716
590.360	131052
590.381	126848
590.431	116617
590.435	116235
590.488	108880
590.503	106666
590.541	102062
590.574	98128
590.594	95717
590.645	89294
590.647	89238
590.700	85247
590.716	84189
590.753	81224
590.787	78052
590.806	76963
590.859	73614
590.859	73648
590.912	70438
590.930	69255
590.965	67776
591.001	66236
591.018	65539
591.071	62997
591.072	62888
591.124	61558
591.143	61003
591.177	59453
591.214	57653
591.230	57668
591.283	57509
591.285	57411
591.336	55060
591.356	54105
591.389	53944
591.427	53418
591.442	52822
591.495	50324
591.498	50064
591.547	49044
591.569	48591
591.600	47815
591.640	46406
591.653	46432
591.706	46347
591.711	46272
591.759	45869
591.782	45506
591.811	45993
591.853	46647
591.864	46358
591.917	44279
591.924	43909
591.969	43257
591.995	42797
592.022	42355
592.066	41395
592.075	41557
592.127	42174
592.137	42215
592.180	43109
592.208	43569
592.233	42500
592.279	40140
592.285	39982
592.338	38134
592.350	37650
592.390	38017
592.421	38186
592.443	37994
592.491	37322
592.495	37360
592.548	36952
592.562	36766
592.600	36284
592.633	35759
592.653	35669
592.704	35067
592.705	35259
592.775	34797
592.846	34541
592.916	34116
592.987	34100
593.058	33842
593.128	32674
593.199	31571
593.270	32048
593.341	30992
593.411	31604
593.482	31280
593.553	30568
593.623	28861
593.694	29239
593.764	29417
593.835	29168
593.906	27912
593.976	28899
594.047	28818
594.117	30831
594.188	30402
594.258	27887
594.329	26343
594.399	27336
594.470	27440
594.540	27085
594.611	26291
594.681	26516
594.751	25661
594.822	28120
594.892	26558
594.963	27985
595.033	27396
595.103	26810
595.174	27799
595.244	31981
595.314	37039
595.384	26297
595.455	26025
595.525	26864
595.595	25650
595.665	26307
595.736	25581
595.806	26043
595.876	24974
595.946	24676
596.016	23801
596.087	25576
596.157	25291
596.227	25130
596.297	25782
596.367	26401
596.437	26738
596.507	31058
596.577	34124
596.647	28138
596.717	25922
596.787	26893
596.857	26103
596.927	27508
596.997	25986
597.067	29107
597.137	32055
597.207	30422
597.277	26477
597.347	26791
597.417	26423
597.487	28019
597.557	27346
597.626	27584
597.696	27619
597.766	30125
597.836	33808
597.906	27726
597.975	25290
598.045	25846
598.115	25171
598.185	26404
598.254	27280
598.324	28763
598.394	27505
598.464	27402
598.533	27499
598.603	27330
598.672	26967
598.742	26840
598.812	26258
598.881	27506
598.951	26425
599.020	27506
599.090	26945
599.159	27331
599.229	26774
599.299	25855
599.368	26108
599.437	27765
599.507	26699
599.576	27798
599.646	31139
599.715	32980
599.785	27458
599.854	27580
599.924	28213
599.993	28334
600.062	27788
600.132	28071
600.201	28287
600.270	29855
600.340	30280
600.409	29551
600.478	29425
600.547	29718
600.617	29775
600.686	29198
600.755	28308
600.824	29200
600.894	27385
600.963	29103
601.032	28712
601.101	28346
601.170	27898
601.239	29227
601.308	29604
601.378	30157
601.447	29959
601.516	30794
601.585	30194
601.654	32058
601.723	31727
601.792	33291
601.861	34403
601.930	41540
601.999	37440
602.068	34280
602.137	34232
602.206	35423
602.275	35026
602.343	36063
602.412	35939
602.481	35251
602.550	34556
602.619	35083
602.688	34775
602.756	36341
602.825	34430
602.894	35065
602.963	34802
603.032	36106
603.100	34897
603.169	35635
603.238	35851
603.307	34881
603.375	35309
603.444	36005
603.513	33517
603.581	34245
603.650	35898
603.719	32077
603.787	29968
603.856	30989
603.924	31516
603.993	32879
604.061	31279
604.130	32942
604.198	32786
604.267	33077
604.335	33615
604.404	34364
604.472	34119
604.541	34230
604.609	36122
604.678	36809
604.746	36419
604.815	37392
604.883	36800
604.951	36166
605.020	36022
605.088	35054
605.156	31441
605.225	32572
605.293	32057
605.361	32671
605.429	31545
605.498	33655
605.566	31480
605.634	34086
605.702	33821
605.771	33164
605.839	34461
605.907	30968
605.975	33868
606.043	33553
606.111	31792
606.180	36538
606.248	39249
606.316	42552
606.384	34421
606.452	31791
606.520	27270
606.588	25862
606.656	22829
606.724	23988
606.792	22543
606.860	20544
606.928	19871
606.996	20504
607.064	18833
607.132	20241
607.200	20344
607.267	21484
607.335	21055
607.403	20917
607.471	20976
607.539	20818
607.607	20244
607.674	19392
607.742	20584
607.810	20078
607.878	19221
607.946	19706
608.013	19626
608.081	20599
608.149	20814
608.216	20358
608.284	20919
608.352	20065
608.419	20197
608.487	24855
608.555	21251
608.622	20064
608.690	19902
608.757	21051
608.825	21252
608.893	22205
608.960	23120
609.028	25631
609.095	25237
609.163	22152
609.230	19576
609.298	19822
609.365	18799
609.432	19956
609.500	20520
609.567	23920
609.635	23974
609.702	24840
609.769	25234
609.837	23699
609.904	23013
609.971	23136
610.039	28800
610.106	36911
610.173	62947
610.241	133562
610.308	162818
610.375	100707
610.442	39279
610.509	26883
610.577	23820
610.644	21774
610.711	21793
610.778	21825
610.845	22309
610.912	24090
610.980	28864
611.047	43047
611.114	32742
611.181	23090
611.248	19752
611.315	21553
611.382	20541
611.449	22550
611.516	22281
611.583	22770
611.650	22203
611.717	23092
611.784	22811
611.851	24562
611.918	27879
611.984	30157
612.051	40679
612.118	76015
612.185	182962
612.252	155987
612.319	41311
612.386	28269
612.452	26345
612.519	26770
612.586	28760
612.653	26200
612.719	23607
612.786	23117
612.853	22479
612.919	22010
612.986	21852
613.053	20545
613.120	20389
613.186	20143
613.253	21401
613.319	20101
613.386	18913
613.453	20644
613.519	21965
613.586	23742
613.652	29979
613.719	25806
613.785	24270
613.852	21995
613.918	21570
613.985	25959
614.051	33081
614.118	64481
614.184	70133
614.250	25927
614.317	21087
614.383	21013
614.449	20727
614.516	20830
614.582	20145
614.648	20379
614.715	20010
614.781	21010
614.847	19940
614.914	20423
614.980	20736
615.046	20549
615.112	21781
615.179	22419
615.245	22840
615.311	26888
615.377	37324
615.443	47547
615.509	34832
615.575	28463
615.642	25454
615.708	25510
615.774	26974
615.840	30602
615.906	36924
615.972	50785
616.038	85668
616.104	147752
616.170	262764
616.236	277085
616.302	70427
616.368	41281
616.434	31336
616.500	29921
616.565	28478
616.631	31257
616.697	29167
616.763	28665
616.829	34073
616.895	52549
616.961	56878
617.026	35773
617.092	24449
617.158	23212
617.224	22671
617.289	22116
617.355	20778
617.421	21703
617.487	20384
617.552	19644
617.618	18761
617.684	19721
617.749	21149
617.815	19479
617.880	18311
617.946	19232
618.012	19799
618.077	19543
618.143	19520
618.208	20387
618.274	20448
618.339	21714
618.405	18333
618.470	20770
618.536	18892
618.601	21436
618.667	19528
618.732	19213
618.798	18082
618.863	19706
618.928	17302
618.994	20120
619.059	20182
619.124	25371
619.190	21239
619.255	18628
619.320	18680
619.386	19289
619.451	18130
619.516	18546
619.581	18418
619.647	19286
619.712	19127
619.777	18652
619.842	19392
619.907	20010
619.972	19108
620.038	19327
620.103	17416
620.168	17809
620.233	17554
620.298	18552
620.363	16943
620.428	18280
620.493	18582
620.558	18517
620.623	18799
620.688	18736
620.753	19197
620.818	18664
620.883	18806
620.948	18416
621.013	19953
621.078	19814
621.143	17815
621.207	21606
621.272	20668
621.337	20791
621.402	21892
621.467	24001
621.532	24114
621.596	23611
621.661	20625
621.726	20696
621.791	20050
621.855	21016
621.920	21860
621.985	21632
622.049	23551
622.114	22556
622.179	22008
622.243	22335
622.308	21648
622.373	22923
622.437	23211
622.502	22514
622.566	21941
622.631	21133
622.695	22642
622.760	22662
622.824	22706
622.889	22505
622.953	24189
623.018	28149
623.082	29480
623.147	22316
623.211	21215
623.276	23059
623.340	20322
623.404	21258
623.469	20799
623.533	21620
623.597	20658
623.662	20794
623.726	20154
623.790	19357
623.854	19328
623.919	20080
623.983	19606
624.047	20720
624.111	19540
624.176	21279
624.240	20755
624.304	24711
624.368	20629
624.432	20033
624.496	20897
624.560	21195
624.625	21746
624.689	21787
624.753	20134
624.817	20223
624.881	19220
624.945	19574
625.009	18952
625.073	19941
625.137	19868
625.201	22497
625.265	23218
625.329	20314
625.393	20849
625.456	20278
625.520	19670
625.584	20999
625.648	23107
625.712	30773
625.776	52604
625.839	62580
625.903	32076
625.967	20376
626.031	27857
626.095	39092
626.158	21729
626.222	16395
626.286	16655
626.349	15324
626.413	14349
626.477	17085
626.540	15544
626.604	15451
626.668	15197
626.731	16284
626.795	16180
626.858	16026
626.922	14648
626.986	15534
627.049	12947
627.113	15001
627.176	14763
627.240	15479
627.303	14513
627.366	14318
627.430	16053
627.493	15010
627.557	13407
627.620	16606
627.684	14513
627.747	14417
627.810	12556
627.874	14668
627.937	12316
628.000	15586
628.064	14250
628.127	12208
628.190	13367
628.253	13123
628.317	12320
628.380	13040
628.443	12547
628.506	13985
628.569	12589
628.632	12114
628.696	12592
628.759	12123
628.822	12254
628.885	11683
628.948	12685
629.011	11327
629.074	11523
629.137	11578
629.200	11438
629.263	13595
629.326	10691
629.389	11106
629.452	11616
629.515	12274
629.578	12317
629.641	12591
629.704	12022
629.767	12221
629.830	12152
629.892	12509
629.955	11339
630.018	13361
630.081	11101
630.144	13456
630.207	11740
630.269	13129
630.332	11446
630.395	11639
630.458	11018
630.520	10455
630.583	11455
630.646	11374
630.708	10353
630.771	11200
630.834	10493
630.896	10765
630.959	10021
631.021	9939
631.084	11062
631.146	11102
631.209	11831
631.272	11385
631.334	10680
631.397	10683
631.459	10602
631.522	10721
631.584	9763
631.646	10190
631.709	11342
631.771	12445
631.834	11325
631.896	11129
631.958	9620
632.021	11244
632.083	9672
632.145	11227
632.208	10253
632.270	10884
632.332	9145
632.395	8790
632.457	9903
632.519	10195
632.581	10456
632.643	8987
632.706	9334
632.768	9154
632.830	9157
632.892	10085
632.954	8458
633.016	10660
633.078	8301
633.141	9192
633.203	8683
633.265	9539
633.327	9383
633.389	8643
633.451	10161
633.513	11319
633.575	10389
633.637	10326
633.698	9736
633.760	10759
633.822	8775
633.884	9618
633.946	9398
634.008	9336
634.070	10881
634.132	15280
634.193	12518
634.255	9443
634.317	8774
634.379	10081
634.441	9818
634.502	9364
634.564	9129
634.626	8716
634.687	8951
634.749	9496
634.811	8696
634.873	7568
634.934	8814
634.996	9229
635.057	8261
635.119	7374
635.181	8991
635.242	9804
635.304	6663
635.365	10015
635.427	7373
635.488	8952
635.550	7988
635.611	9282
635.673	7366
635.734	9965
635.796	8463
635.857	10046
635.918	7720
635.980	9888
636.041	8283
636.102	9373
636.164	8954
636.225	10043
636.286	6784
636.348	10223
636.409	7707
636.470	8008
636.531	8882
636.593	7881
636.654	8459
636.715	7484
636.776	7811
636.838	7603
636.899	7747
636.960	7609
637.021	7600
637.082	7867
637.143	7943
637.204	7244
637.265	6345
637.326	7609
637.387	7485
637.448	7167
637.509	7192
637.570	7286
637.631	7893
637.692	6751
637.753	6378
637.814	7946
637.875	6527
637.936	8290
637.997	6769
638.058	8610
638.119	7896
638.179	7714
638.240	7075
638.301	7196
638.362	6151
638.423	7758
638.483	7942
638.544	6374
638.605	7260
638.666	6406
638.726	7191
638.787	8298
638.848	6243
638.908	6835
638.969	5978
639.030	7605
639.090	5848
639.151	6863
639.211	7610
639.272	8860
639.332	11247
639.393	9335
639.453	6280
639.514	7235
639.574	6561
639.635	6302
639.695	6481
639.756	6305
639.816	7076
639.877	7083
639.937	10482
639.997	12766
640.058	7113
640.118	6610
640.178	6885
640.239	6534
640.299	6164
640.359	6422
640.420	5903
640.480	6703
640.540	5993
640.600	6326
640.661	7140
640.721	6365
640.781	9828
640.841	7800
640.901	7978
640.961	7622
641.021	6860
641.082	6646
641.142	7600
641.202	8000
641.262	4535
641.322	6818
641.382	5416
641.442	7124
641.502	5815
641.562	6653
641.622	5290
641.682	6329
641.742	5991
641.802	7007
641.861	6531
641.921	6227
641.981	7525
642.041	7488
642.101	8030
642.161	6378
642.221	5545
642.280	5960
642.340	5316
642.400	5266
642.460	5552
642.519	6372
642.579	5637
642.639	6888
642.698	3564
642.758	8521
642.818	6095
642.877	5785
642.937	5312
642.997	7574
643.056	9298
643.116	5407
643.175	6734
643.235	6034
643.294	5834
643.354	7303
643.414	5421
643.473	7751
643.532	7175
643.592	9740
643.651	13058
643.711	21631
643.770	34900
643.830	74768
643.889	180971
643.948	60818
644.008	12120
644.067	7864
644.126	6205
644.186	7041
644.245	6913
644.304	5595
644.363	6867
644.423	6097
644.482	4436
644.541	6752
644.600	4623
644.659	7345
644.719	6379
644.778	7539
644.837	9994
644.896	17005
644.955	33907
645.014	19148
645.073	10680
645.132	6722
645.191	6416
645.250	6238
645.309	6950
645.368	5889
645.427	6361
645.486	6531
645.545	10105
645.604	5966
645.663	5800
645.722	5748
645.781	5579
645.840	6377
645.898	6610
645.957	9905
646.016	9915
646.075	17618
646.134	29325
646.192	70230
646.251	125702
646.310	25478
646.369	8375
646.427	7645
646.486	5816
646.545	6200
646.603	6404
646.662	6169
646.721	5347
646.779	4861
646.838	4200
646.896	6489
646.955	5361
647.014	7403
647.072	9139
647.131	20241
647.189	14472
647.248	5994
647.306	5328
647.365	5194
647.423	3634
647.481	5877
647.540	3228
647.598	5553
647.657	4439
647.715	5975
647.773	3574
647.832	5755
647.890	3477
647.948	4993
648.007	4841
648.065	4645
648.123	4815
648.181	7844
648.240	9858
648.298	8603
648.356	4892
648.414	5102
648.472	5223
648.531	5433
648.589	4325
648.647	4720
648.705	3870
648.763	4939
648.821	4626
648.879	4651
648.937	4354
648.995	5063
649.053	4507
649.111	7420
649.169	8760
649.227	12961
649.285	22268
649.343	59370
649.401	43088
649.459	16241
649.516	14577
649.574	10980
649.632	22856
649.690	34380
649.748	15654
649.806	16133
649.863	29315
649.921	20885
649.979	13377
650.037	6292
650.094	3572
650.152	4837
650.210	3859
650.268	5869
650.325	4360
650.383	5290
650.440	3805
650.498	5214
650.556	4496
650.613	3754
650.671	4235
650.728	4011
650.786	4649
650.843	4490
650.901	2769
650.958	5159
651.016	3680
651.073	3677
651.131	3247
651.188	3153
651.246	4112
651.303	3255
651.360	4679
651.418	3576
651.475	3357
651.532	3467
651.590	3775
651.647	3561
651.704	3852
651.762	3954
651.819	3848
651.876	3413
651.933	3687
651.990	4703
652.048	2149
652.105	3115
652.162	4392
652.219	3568
652.276	3692
652.333	4736
652.390	2684
652.448	4131
652.505	4387
652.562	4400
652.619	6768
652.676	10900
652.733	13980
652.790	5114
652.847	2799
652.904	4222
652.961	2623
653.017	3143
653.074	4487
653.131	3669
653.188	2057
653.245	3785
653.302	2490
653.359	3274
653.415	3581
653.472	3131
653.529	3821
653.586	2928
653.642	2396
653.699	3649
653.756	2237
653.813	3684
653.869	4085
653.926	2859
653.983	2216
654.039	3864
654.096	2813
654.152	4834
654.209	2395
654.266	4352
654.322	2789
654.379	4254
654.435	3312
654.492	4676
654.548	4285
654.605	5965
654.661	5346
654.717	4053
654.774	4091
654.830	3916
654.887	3773
654.943	3216
655.000	3839
655.056	3560
655.112	3778
655.168	3120
655.225	3592
655.281	4363
655.337	3806
655.394	6438
655.450	5081
655.506	4709
655.562	4387
655.618	6769
655.675	3260
655.731	3145
655.787	2689
655.843	3607
655.899	2514
655.955	3966
656.011	2652
656.067	2885
656.123	4016
656.179	3203
656.235	3980
656.291	2751
656.347	4282
656.403	3127
656.459	2770
656.515	4115
656.571	4050
656.627	3212
656.683	2726
656.739	3621
656.795	2327
656.850	4136
656.906	2769
656.962	4488
657.018	2310
657.074	3363
657.129	2819
657.185	4277
657.241	3823
657.297	4167
657.352	3186
657.408	3331
657.464	3473
657.519	3217
657.575	1907
657.630	3455
657.686	2847
657.742	3349
657.797	3271
657.853	3072
657.908	3849
657.964	2309
658.019	2865
658.075	3286
658.130	3330
658.186	2849
658.241	3084
658.297	2814
658.352	2387
658.407	4245
658.463	2338
658.518	3096
658.573	2419
658.629	1950
658.684	2740
658.739	3503
658.795	2120
658.850	3366
658.905	1952
658.960	3438
659.016	2080
659.071	3341
659.126	3426
659.181	3830
659.236	4621
659.291	6339
659.346	5059
659.401	4746
659.457	6894
659.512	10352
659.567	5620
659.622	2981
659.677	3296
659.732	2317
659.787	3672
659.842	3392
659.897	3158
659.952	3832
660.007	3208
660.061	3700
660.116	1865
660.171	3110
660.226	2712
660.281	4227
660.336	2074
660.391	4204
660.445	2468
660.500	2969
660.555	3053
660.610	3399
660.664	3267
660.719	3285
660.774	3156
660.828	4131
660.883	2172
660.938	3219
660.992	1435
661.047	3420
661.101	3239
661.156	2592
661.211	2266
661.265	2624
661.320	2339
661.374	2386
661.429	2384
661.483	3468
661.538	1880
661.592	2966
661.647	3407
661.701	4207
661.755	2703
661.810	3757
661.864	2620
661.919	1910
661.973	3115
662.027	3016
662.081	2559
662.136	1941
662.190	2906
662.244	3332
662.299	2320
662.353	3217
662.407	2168
662.461	2887
662.515	3255
662.569	2498
662.624	3520
662.678	2635
662.732	2268
662.786	2882
662.840	2795
662.894	3339
662.948	2499
663.002	2988
663.056	2355
663.110	3485
663.164	2116
663.218	3496
663.272	2819
663.326	3230
663.380	3228
663.434	3143
663.488	1997
663.542	3193
663.595	2870
663.649	2591
663.703	2768
663.757	3088
663.811	1933
663.864	2664
663.918	3398
663.972	3864
664.026	2510
664.079	2567
664.133	2925
664.187	2997
664.240	1718
664.294	2574
664.348	2886
664.401	3485
664.455	2820
664.508	2372
664.562	2258
664.615	3502
664.669	1991
664.722	2975
664.776	2623
664.829	3288
664.883	2787
664.936	2776
664.990	2926
665.043	3838
665.097	2254
665.150	4019
665.203	2448
665.257	2733
665.310	3021
665.363	3395
665.417	2943
665.470	3359
665.523	3627
665.576	3311
665.630	2146
665.683	2758
665.736	2405
665.789	3230
665.842	793
665.895	3515
665.949	2801
666.002	2925
666.055	2644
666.108	3647
666.161	2586
666.214	3355
666.267	2444
666.320	4019
666.373	2784
666.426	2489
666.479	2994
666.532	2855
666.585	2826
666.638	3062
666.691	2160
666.744	4014
666.796	2413
666.849	3835
666.902	3118
666.955	3398
667.008	2625
667.060	2396
667.113	2151
667.166	2752
667.219	2659
667.271	3050
667.324	2249
667.377	3527
667.430	3451
667.482	5463
667.535	4605
667.587	3795
667.640	3293
667.693	4101
667.745	4287
667.798	5360
667.850	2535
667.903	2448
667.955	2541
668.008	2993
668.060	3088
668.113	3051
668.165	2930
668.218	3512
668.270	2431
668.322	3171
668.375	2801
668.427	2603
668.479	1665
668.532	4154
668.584	2481
668.636	2604
668.689	3094
668.741	2338
668.793	2770
668.845	2528
668.898	3094
668.950	3615
669.002	2652
669.054	3115
669.106	2779
669.158	3238
669.211	3670
669.263	4168
669.315	4475
669.367	7480
669.419	4212
669.471	4459
669.523	3803
669.575	5228
669.627	4542
669.679	3815
669.731	4136
669.783	4205
669.835	3372
669.886	5067
669.938	4630
669.990	5130
670.042	4470
670.094	5129
670.146	4732
670.197	6725
670.249	8000
670.301	10196
670.353	14447
670.404	20865
670.456	29741
670.508	45686
670.560	68462
670.611	110570
670.663	181315
670.715	366104
670.766	589729
670.818	311600
670.869	73636
670.921	30109
670.972	19745
671.024	14503
671.075	10681
671.127	9032
671.178	7043
671.230	6979
671.281	6136
671.333	5215
671.384	4319
671.436	5796
671.487	4976
671.538	5547
671.590	5377
671.641	6515
671.692	6051
671.744	9511
671.795	9657
671.846	6276
671.897	4743
671.949	3723
672.000	3258
672.051	3624
672.102	4131
672.153	3331
672.204	3368
672.256	4383
672.307	3282
672.358	3530
672.409	2988
672.460	3776
672.511	2642
672.562	3652
672.613	2435
672.664	2730
672.715	3647
672.766	3245
672.817	2088
672.868	3142
672.919	2144
672.970	3031
673.021	1410
673.071	2166
673.122	2314
673.173	3057
673.224	1778
673.275	2881
673.326	2932
673.376	2860
673.427	2503
673.478	3020
673.528	1967
673.579	2170
673.630	2238
673.680	3294
673.731	1775
673.782	2836
673.832	2463
673.883	2518
673.934	2348
673.984	2075
674.035	1957
674.085	3353
674.136	1948
674.186	3408
674.237	2873
674.287	4359
674.338	2862
674.388	2659
674.438	2029
674.489	2046
674.539	1860
674.589	2300
674.640	2721
674.690	2203
674.740	1780
674.791	2711
674.841	2359
674.891	2776
674.942	1893
674.992	2765
675.042	1670
675.092	2212
675.142	2115
675.193	2381
675.243	1725
675.293	2669
675.343	1800
675.393	2913
675.443	2258
675.493	2064
675.543	1382
675.593	3308
675.643	1155
675.693	2399
675.743	2655
675.793	3383
675.843	1472
675.893	2540
675.943	1794
675.993	2438
676.043	1146
676.093	2928
676.142	1436
676.192	2347
676.242	1984
676.292	2865
676.341	1913
676.391	2368
676.441	1617
676.491	1924
676.540	1699
676.590	2208
676.640	2337
676.689	2282
676.739	1231
676.789	2117
676.838	1321
676.888	2128
676.937	1305
676.987	2713
677.037	1481
677.086	2116
677.136	1604
677.185	1564
677.235	1400
677.284	1997
677.333	1564
677.383	2337
677.432	1288
677.482	1626
677.531	1874
677.580	1205
677.630	1135
677.679	1453
677.728	1493
677.778	1825
677.827	1647
677.876	1246
677.925	1471
677.975	2375
678.024	980
678.073	1634
678.122	1953
678.171	2017
678.220	1729
678.269	2715
678.319	1756
678.368	1379
678.417	1520
678.466	2005
678.515	2723
678.564	2172
678.613	1461
678.662	1673
678.711	1893
678.760	2015
678.809	1534
678.857	2486
678.906	1260
678.955	1789
679.004	2376
679.053	2334
679.102	1100
679.151	1707
679.199	840
679.248	2583
679.297	1267
679.346	2588
679.394	1227
679.443	2092
679.492	1779
679.540	1855
679.589	2292
679.638	1516
679.686	1578
679.735	1942
679.784	1277
679.832	1654
679.881	769
679.929	2037
679.978	1075
680.026	1967
680.075	1186
680.123	1486
680.172	1215
680.220	1621
680.268	1310
680.317	1079
680.365	932
680.414	1040
680.462	820
680.510	2053
680.559	1257
680.607	1364
680.655	1142
680.703	2291
680.752	1311
680.800	1694
680.848	697
680.896	2186
680.945	869
680.993	2258
681.041	423
681.089	2206
681.137	1769
681.185	1537
681.233	834
681.258	921
681.281	989
681.329	1200
681.377	708
681.380	772
681.425	1710
681.473	1986
681.502	1841
681.521	1716
681.569	2418
681.617	1533
681.624	1527
681.665	1398
681.713	1690
681.745	2040
681.761	2185
681.809	936
681.857	2141
681.867	1876
681.904	913
681.952	2615
681.989	1636
682.000	1328
682.048	2327
682.096	1191
682.111	1491
682.143	2076
682.191	1524
682.233	2398
682.239	2520
682.286	1294
682.334	1524
682.354	1469
682.382	1363
682.430	2320
682.476	1788
682.477	1766
682.525	1842
682.572	1368
682.598	1552
682.620	1714
682.667	1974
682.715	2265
682.720	2214
682.763	1595
682.810	2159
682.841	1877
682.857	1714
682.905	2310
682.952	1874
682.963	1954
683.000	2156
683.047	1750
683.085	2570
683.095	2790
683.142	1890
683.190	2277
683.206	2223
683.237	2086
683.284	2064
683.328	2429
683.332	2451
683.379	2082
683.426	1635
683.449	2055
683.473	2470
683.521	1506
683.568	2212
683.571	2181
683.615	1645
683.662	2466
683.693	2345
683.709	2237
683.757	2419
683.804	2141
683.814	2192
683.851	2438
683.898	2061
683.936	2762
683.945	2911
683.992	2407
684.039	2862
684.057	2485
684.086	1897
684.133	3125
684.179	2195
684.180	2155
684.227	3060
684.274	2773
684.300	2859
684.321	2900
684.368	2719
684.415	3310
684.422	3141
684.462	2059
684.509	2404
684.543	2741
684.556	2869
684.603	2553
684.649	2404
684.665	2691
684.696	3307
684.743	2937
684.786	2972
684.790	2966
684.837	2536
684.883	3693
684.908	3584
684.930	3439
684.977	3510
685.023	3277
685.029	3268
685.070	3150
685.117	2791
685.150	2841
685.164	2887
685.210	2945
685.257	3896
685.272	3923
685.303	3811
685.350	2714
685.393	2965
685.396	2996
685.443	3549
685.490	3619
685.514	3649
685.536	3632
685.583	3612
685.629	4043
685.636	3973
685.675	3520
685.722	3393
685.757	3097
685.768	2990
685.815	3483
685.861	3097
685.878	3192
685.908	3407
685.954	3771
686.000	3799
686.000	3797
686.047	3988
686.093	4220
686.121	3970
686.139	3714
686.185	4359
686.232	2908
686.242	3165
686.278	4077
686.324	3891
686.363	3664
686.370	3647
686.416	3627
686.463	4275
686.484	4149
686.509	3955
686.555	4480
686.601	3535
686.606	3645
686.647	4449
686.693	3412
686.727	3541
686.739	3650
686.785	3502
686.831	3696
686.848	3717
686.877	3747
686.923	3877
686.969	4093
686.969	4093
687.015	4561
687.061	3784
687.090	4404
687.107	4703
687.153	4028
687.199	4526
687.211	4208
687.245	3413
687.291	4243
687.332	3917
687.336	3890
687.382	4495
687.428	3778
687.453	4316
687.474	4772
687.520	4175
687.565	4874
687.574	4809
687.611	4459
687.657	5045
687.695	4560
687.702	4531
687.748	5263
687.794	5847
687.816	5795
687.839	5474
687.885	5126
687.931	4876
687.937	4868
687.976	4956
688.022	4892
688.058	4583
688.067	4507
688.113	4713
688.158	4362
688.179	4588
688.204	4988
688.249	4646
688.295	5267
688.300	5223
688.340	4697
688.386	5407
688.421	4867
688.431	4760
688.477	4685
688.522	5091
688.542	5263
688.567	5418
688.613	4773
688.658	5429
688.663	5310
688.703	4482
688.749	5501
688.784	5244
688.794	5163
688.839	4979
688.884	5348
688.905	5281
688.930	5189
688.975	5460
689.020	5475
689.026	5413
689.065	5194
689.110	5268
689.146	5568
689.155	5626
689.201	5725
689.246	5936
689.267	5822
689.291	5740
689.336	5863
689.381	5677
689.388	5742
689.426	6061
689.471	6310
689.509	6052
689.516	5974
689.561	5780
689.606	5345
689.630	5300
689.651	5427
689.696	5949
689.741	5840
689.750	5816
689.785	5707
689.830	5861
689.871	5954
689.875	5970
689.920	6331
689.965	6157
689.992	6296
690.010	6461
690.054	6505
690.099	6967
690.112	7013
690.144	7040
690.189	6768
690.233	6621
690.233	6630
690.278	6960
690.323	6813
690.354	7271
690.367	7598
690.412	7716
690.457	7949
690.474	8140
690.501	8416
690.546	9009
690.590	9910
690.595	9937
690.635	10950
690.680	12105
690.716	13394
690.724	13944
690.769	16520
690.813	19680
690.836	20907
690.857	24137
690.902	32540
690.946	40740
690.957	42926
690.991	60885
691.035	85877
691.077	111996
691.080	112480
691.124	111460
691.168	105959
691.198	103313
691.213	95310
691.257	72040
691.301	50206
691.318	41554
691.346	36345
691.390	28378
691.434	21187
691.439	20275
691.478	17855
691.522	16007
691.559	14155
691.567	13972
691.611	12544
691.655	11140
691.680	10459
691.699	10280
691.743	9550
691.787	9399
691.800	9130
691.831	8704
691.875	8827
691.919	8121
691.921	8114
691.964	8723
692.008	8671
692.041	8804
692.052	8829
692.096	8501
692.139	8915
692.162	8728
692.183	8539
692.227	8746
692.271	8327
692.282	8275
692.315	8241
692.359	8230
692.402	8528
692.403	8545
692.447	8025
692.490	8406
692.523	8160
692.534	8187
692.578	8943
692.622	8887
692.643	9083
692.666	9051
692.709	8730
692.753	8852
692.763	8753
692.797	8962
692.840	9253
692.884	9847
692.884	9870
692.928	10387
692.971	10608
693.004	10722
693.015	10805
693.059	11111
693.102	11616
693.124	11767
693.146	11973
693.189	12600
693.233	12811
693.245	12992
693.276	14236
693.320	15225
693.363	17133
693.365	17148
693.407	19536
693.450	22467
693.485	24688
693.493	26043
693.537	33304
693.580	40444
693.605	44666
693.624	52433
693.667	70693
693.710	89879
693.725	96705
693.753	129928
693.797	183721
693.840	239388
693.845	245203
693.883	243756
693.926	235065
693.966	227986
693.970	223334
694.013	171815
694.056	121777
694.086	87305
694.099	81897
694.142	64944
694.185	47651
694.206	39647
694.229	37063
694.272	31862
694.315	26762
694.326	25390
694.358	23467
694.401	21098
694.444	18503
694.446	18324
694.487	16816
694.530	15552
694.566	14593
694.573	14551
694.616	13654
694.659	13114
694.686	12579
694.702	12361
694.745	12201
694.787	11398
694.806	11135
694.830	10984
694.873	10521
694.916	10303
694.926	10207
694.959	10222
695.002	10178
695.044	10085
695.046	10069
695.087	10152
695.130	10010
695.166	9866
695.172	9886
695.215	9884
695.258	10089
695.286	9793
695.301	9593
695.343	9664
695.386	9322
695.406	9101
695.428	9020
695.471	8873
695.514	9012
695.526	8960
695.556	8982
695.599	9318
695.641	9238
695.646	9220
695.684	9295
695.726	9320
695.766	9525
695.769	9555
695.811	9278
695.854	9499
695.886	9396
695.896	9365
695.938	9194
695.981	8934
696.005	9015
696.023	9100
696.065	8793
696.108	8598
696.125	8498
696.150	8752
696.192	9275
696.235	9583
696.245	9718
696.277	10215
696.319	10485
696.361	11001
696.365	11009
696.404	11167
696.446	11347
696.485	11522
696.488	11526
696.530	11106
696.572	10620
696.604	10388
696.614	10408
696.656	10215
696.698	10192
696.724	10034
696.740	9994
696.783	10087
696.825	9997
696.844	9918
696.867	9986
696.909	10042
696.951	10128
696.964	10191
696.992	10053
697.034	9588
697.076	9190
697.083	9104
697.118	9451
697.160	9694
697.202	10151
697.203	10133
697.244	9837
697.286	9628
697.323	9219
697.327	9247
697.369	9434
697.411	9606
697.442	9684
697.453	9699
697.494	9619
697.536	9630
697.562	9578
697.578	9582
697.620	9556
697.661	9490
697.682	9451
697.703	9549
697.744	9524
697.786	9836
697.801	9835
697.828	9843
697.869	9841
697.911	9876
697.921	9855
697.952	9830
697.994	9733
698.035	9744
698.040	9711
698.077	9575
698.118	9404
698.160	9150
698.160	9122
698.201	9044
698.243	8771
698.279	8611
698.284	8686
698.325	9140
698.367	9616
698.399	9922
698.408	9933
698.449	9887
698.491	9834
698.518	9774
698.532	9832
698.573	9924
698.614	10045
698.638	10068
698.656	10084
698.697	10078
698.738	10071
698.757	10034
698.779	9955
698.820	9755
698.862	9571
698.877	9478
698.903	9658
698.944	9903
698.985	10141
698.996	10183
699.026	10149
699.067	10064
699.116	9938
699.235	9563
699.354	10103
699.474	10017
699.593	11077
699.713	8847
699.832	9792
699.951	9682
700.070	10324
700.190	9620
700.309	9829
700.428	10210
700.547	9870
700.667	9815
700.786	10245
700.905	8509
701.024	9765
701.143	9320
701.262	9834
701.381	9155
701.500	9877
701.619	9404
701.738	9215
701.857	9773
701.976	9302
702.095	9077
702.214	10057
702.333	10110
702.452	9144
702.571	8935
702.690	10558
702.809	9104
702.928	9214
703.047	10094
703.165	9301
703.284	8818
703.403	10130
703.522	8559
703.640	10515
703.759	9951
703.878	11018
703.997	9336
704.115	9586
704.234	9072
704.353	7653
704.471	9108
704.590	8863
704.708	9220
704.827	9787
704.946	9276
705.064	8726
705.183	9562
705.301	10155
705.420	12010
705.538	11852
705.656	10360
705.775	13694
705.893	25504
706.012	32555
706.130	11472
706.249	11836
706.367	10087
706.485	10972
706.604	9633
706.722	11620
706.840	11670
706.958	13108
707.077	11228
707.195	10630
707.313	10435
707.431	10334
707.549	9937
707.668	10787
707.786	10439
707.904	9636
708.022	10178
708.140	10511
708.258	9707
708.376	10269
708.494	9814
708.612	10662
708.730	11906
708.848	12153
708.966	11380
709.084	10637
709.202	10055
709.320	11130
709.438	10602
709.556	10570
709.674	10710
709.791	11455
709.909	10869
710.027	11067
710.145	10963
710.263	11059
710.380	11373
710.498	10770
710.616	11055
710.733	11025
710.851	10501
710.969	11370
711.086	10073
711.204	10398
711.322	9699
711.439	10468
711.557	10874
711.674	10034
711.792	8868
711.909	11895
712.027	14129
712.144	11012
712.262	10656
712.379	10740
712.497	12773
712.614	13414
712.732	12210
712.849	11661
712.966	11522
713.084	12062
713.201	11188
713.318	12381
713.436	11579
713.553	11788
713.670	11802
713.787	12052
713.905	11629
714.022	11136
714.139	10974
714.256	11204
714.373	11808
714.490	14084
714.608	19359
714.725	56173
714.842	61405
714.959	12278
715.076	10551
715.193	11089
715.310	10756
715.427	11069
715.544	10966
715.661	10727
715.778	10339
715.895	11584
716.011	10777
716.128	10825
716.245	10829
716.362	10846
716.479	11371
716.596	11163
716.713	10970
716.829	10816
716.946	10180
717.063	9955
717.180	9583
717.296	9976
717.413	10417
717.530	10208
717.646	9774
717.763	10041
717.880	9816
717.996	9679
718.113	9777
718.229	9420
718.346	9980
718.462	9907
718.579	10004
718.695	11723
718.812	10673
718.928	11774
719.045	9558
719.161	9345
719.277	9598
719.394	10152
719.510	10573
719.626	10676
719.743	11077
719.859	10551
719.975	12248
720.092	19932
720.208	35774
720.324	13667
720.440	10146
720.557	11148
720.673	11784
720.789	14035
720.905	19717
721.021	13333
721.137	9412
721.253	8858
721.369	9942
721.486	10383
721.602	11821
721.718	10107
721.834	10062
721.950	10553
722.066	9748
722.181	9569
722.297	9919
722.413	9427
722.529	9352
722.645	9624
722.761	9621
722.877	9924
722.993	9514
723.108	9181
723.224	10125
723.340	9432
723.456	9307
723.571	8830
723.687	8761
723.803	9018
723.918	7851
724.034	9578
724.150	8733
724.265	8820
724.381	12197
724.497	13215
724.612	9451
724.728	9012
724.843	8828
724.959	9310
725.074	12305
725.190	12850
725.305	9162
725.421	9085
725.536	7938
725.651	7749
725.767	7911
725.882	8657
725.997	8234
726.113	8658
726.228	8365
726.343	8530
726.459	8891
726.574	8134
726.689	8109
726.804	8102
726.920	7687
727.035	8285
727.150	8129
727.265	8452
727.380	8805
727.495	9380
727.610	8139
727.725	9265
727.841	11322
727.956	20417
728.071	16764
728.186	8762
728.301	8414
728.416	8254
728.531	7943
728.645	8150
728.760	7682
728.875	8067
728.990	8035
729.105	7754
729.220	7987
729.335	9094
729.449	7233
729.564	7731
729.679	7983
729.794	8246
729.908	8430
730.023	8086
730.138	7057
730.253	7719
730.367	7056
730.482	7745
730.596	7317
730.711	7945
730.826	8505
730.940	7923
731.055	7429
731.169	8869
731.284	8408
731.398	8551
731.513	7719
731.627	8713
731.742	7952
731.856	7998
731.970	7947
732.085	8189
732.199	7703
732.313	8798
732.428	12279
732.542	19712
732.656	14233
732.771	9336
732.885	8762
732.999	8101
733.113	8318
733.227	9288
733.342	8056
733.456	7707
733.570	6810
733.684	8351
733.798	8265
733.912	7853
734.026	7318
734.140	8198
734.254	8159
734.368	10136
734.482	9470
734.596	7280
734.710	7925
734.824	8674
734.938	7940
735.052	7828
735.166	8063
735.280	8402
735.393	7968
735.507	7691
735.621	9006
735.735	10377
735.849	8021
735.962	8032
736.076	7418
736.190	8262
736.303	7684
736.417	9034
736.531	7373
736.644	8640
736.758	7188
736.872	8503
736.985	7890
737.099	7920
737.212	7287
737.326	8067
737.439	6614
737.553	8264
737.666	8025
737.780	7871
737.893	8246
738.007	8585
738.120	7012
738.233	7508
738.347	7852
738.460	8147
738.573	7321
738.687	7894
738.800	7840
738.913	8681
739.026	7687
739.140	7929
739.253	8224
739.366	7713
739.479	7246
739.592	7067
739.705	8130
739.818	7952
739.932	7630
740.045	8392
740.158	6936
740.271	8588
740.384	8004
740.497	8145
740.610	8729
740.723	7731
740.836	9019
740.949	9078
741.062	8619
741.174	8591
741.287	8391
741.400	7705
741.513	8391
741.626	9184
741.739	7543
741.851	8979
741.964	8405
742.077	8184
742.189	8349
742.302	8711
742.415	7801
742.527	7801
742.640	9136
742.753	8051
742.865	6814
742.978	7740
743.090	7881
743.203	7988
743.316	8296
743.428	8482
743.541	8176
743.653	8179
743.766	8161
743.878	7785
743.990	8586
744.103	8684
744.215	8300
744.327	8743
744.440	9539
744.552	8866
744.664	8388
744.777	8993
744.889	7827
745.001	9043
745.113	8435
745.226	8523
745.338	8997
745.450	8929
745.562	7696
745.674	9231
745.786	8184
745.898	8538
746.010	9192
746.122	8866
746.234	9229
746.347	9420
746.459	8661
746.570	9282
746.682	8407
746.794	9608
746.906	8419
747.018	9927
747.130	8577
747.242	9447
747.354	8727
747.466	9140
747.577	8948
747.689	8935
747.801	8852
747.913	9737
748.024	9459
748.136	9093
748.248	8261
748.359	8441
748.471	9293
748.583	9609
748.694	10339
748.806	10875
748.918	10145
749.029	8776
749.141	9673
749.252	9792
749.364	9739
749.475	11193
749.587	9943
749.698	10209
749.809	9814
749.921	10934
750.032	10081
750.144	10191
750.255	9638
750.366	10388
750.478	10058
750.589	9936
750.700	9792
750.811	10731
750.923	10756
751.034	11363
751.145	12364
751.256	9993
751.367	10116
751.479	10600
751.590	10132
751.701	10118
751.812	10189
751.923	10533
752.034	10255
752.145	10233
752.256	10575
752.367	11078
752.478	11076
752.589	11316
752.700	11178
752.811	10410
752.922	10075
753.032	10529
753.143	10642
753.254	10526
753.365	11642
753.476	11006
753.586	11429
753.697	11232
753.808	12229
753.919	11763
754.029	11765
754.140	12273
754.251	11837
754.361	12098
754.472	12593
754.582	12307
754.693	12052
754.804	13510
754.914	12939
755.025	12490
755.135	13042
755.246	12613
755.356	12499
755.466	13080
755.577	14162
755.687	13500
755.798	13939
755.908	14087
756.018	13059
756.129	14025
756.239	15247
756.349	14551
756.460	14791
756.570	14679
756.680	14508
756.790	15312
756.900	15624
757.011	15305
757.121	16098
757.231	16012
757.341	16480
757.451	16529
757.561	16624
757.671	17115
757.781	16661
757.891	18509
758.001	17289
758.111	18984
758.221	17887
758.331	18728
758.441	19127
758.551	19249
758.661	20380
758.771	20505
758.880	20350
758.990	20991
759.100	20639
759.210	21790
759.320	21689
759.429	21616
759.539	22084
759.649	23153
759.758	23261
759.868	24258
759.978	24610
760.087	24990
760.197	25466
760.307	26038
760.416	26884
760.526	27094
760.635	28048
760.745	29022
760.854	30009
760.964	30361
761.073	31384
761.182	32197
761.292	32527
761.401	33906
761.511	35066
761.620	36047
761.729	37558
761.839	39242
761.948	39526
762.057	41279
762.166	41467
762.276	43397
762.385	45111
762.494	48152
762.603	49250
762.712	50551
762.822	53104
762.931	55371
763.040	56728
763.149	61151
763.258	64413
763.367	67334
763.476	70992
763.585	73679
763.694	79034
763.803	83301
763.912	88691
764.021	95079
764.130	98932
764.238	107553
764.347	115797
764.456	125516
764.565	136783
764.674	150114
764.783	165456
764.891	181902
765.000	202905
765.109	227741
765.217	261044
765.326	298032
765.435	346247
765.543	409820
765.652	489894
765.761	594889
765.869	725447
765.978	886669
766.086	1062784
766.195	1170584
766.303	1061880
766.412	663828
766.520	769941
766.629	1178779
766.737	1200208
766.846	1037245
766.954	839180
767.062	678122
767.171	547316
767.279	441984
767.387	365251
767.496	310236
767.604	268448
767.712	235670
767.820	210344
767.928	192407
768.037	179630
768.145	168513
768.253	162577
768.361	159706
768.469	158843
768.577	161064
768.685	170267
768.793	181661
768.901	198819
769.009	230192
769.117	276548
769.225	345781
769.333	447319
769.441	605113
769.549	817851
769.657	1035531
769.765	975529
769.873	704439
769.981	1046644
770.088	1055948
770.196	828238
770.304	625352
770.412	483076
770.519	384066
770.627	315526
770.735	262485
770.842	222606
770.950	192830
771.058	168147
771.165	152013
771.273	135223
771.380	121842
771.488	110413
771.595	102565
771.703	93321
771.810	86684
771.918	80358
772.025	76683
772.133	71910
772.240	66071
772.348	63679
772.455	60128
772.562	56919
772.670	53805
772.777	52584
772.884	49289
772.991	46680
773.099	45030
773.206	42700
773.313	41671
773.420	39462
773.528	38204
773.635	36265
773.742	36488
773.849	36026
773.956	34031
774.063	32757
774.170	31426
774.277	31629
774.384	30827
774.491	29146
774.598	28518
774.705	27644
774.812	26833
774.919	26866
775.026	27397
775.133	23784
775.239	24599
775.346	24127
775.453	23711
775.560	21975
775.667	22658
775.773	21882
775.880	22705
775.987	21304
776.093	20841
776.200	20320
776.307	19543
776.413	19523
776.520	18337
776.627	18596
776.733	18511
776.840	17646
776.946	17864
777.053	17133
777.159	18304
777.266	16558
777.372	17742
777.478	15845
777.585	16558
777.691	15448
777.798	15256
777.904	16032
778.010	17030
778.117	14857
778.223	15009
778.329	14350
778.435	14512
778.542	14401
778.648	13052
778.754	13352
778.860	13852
778.966	13977
779.072	13251
779.178	14065
779.284	14163
779.391	15248
779.497	17775
779.603	25618
779.708	40522
779.815	90197
779.920	272759
780.026	394884
780.132	103258
780.238	31334
780.344	20461
780.450	17095
780.556	14832
780.661	12028
780.767	12490
780.873	10296
780.979	11685
781.085	10116
781.190	11454
781.296	9337
781.402	9590
781.507	9353
781.613	10003
781.719	8447
781.824	8571
781.930	8369
782.035	8707
782.141	8984
782.246	8196
782.352	8234
782.457	8042
782.563	7663
782.668	8868
782.773	7419
782.879	7689
782.984	7967
783.090	8298
783.195	7786
783.300	6838
783.405	7416
783.511	7313
783.616	6908
783.721	7415
783.826	6481
783.932	8617
784.037	7335
784.142	6585
784.247	7428
784.352	7591
784.457	6479
784.562	7034
784.667	6489
784.772	6673
784.877	6639
784.982	6441
785.087	5773
785.192	6327
785.297	6149
785.402	6178
785.507	6169
785.611	6016
785.716	6122
785.821	6292
785.926	6020
786.031	6062
786.135	5458
786.240	5768
786.345	5642
786.450	6313
786.554	5307
786.659	5965
786.763	4622
786.868	6123
786.973	6208
787.077	5593
787.182	5201
787.286	5343
787.391	4942
787.495	5389
787.600	5112
787.704	4886
787.809	5216
787.913	5268
788.017	5316
788.122	5526
788.226	4352
788.330	4635
788.435	4774
788.539	4223
788.643	4374
788.747	4362
788.852	3793
788.956	4878
789.060	5319
789.164	5031
789.268	4771
789.372	4940
789.476	4224
789.580	4288
789.684	3635
789.788	4739
789.892	3143
789.996	4483
790.100	4361
790.204	4763
790.308	3766
790.412	5211
790.516	5118
790.620	4408
790.724	4248
790.828	4252
790.931	3687
791.035	6005
791.139	4718
791.242	3871
791.346	4605
791.450	4507
791.554	3515
791.657	2912
791.761	4053
791.864	4624
791.968	3647
792.072	3294
792.175	3437
792.279	3695
792.382	3116
792.486	4537
792.589	3163
792.693	3283
792.796	2799
792.899	4553
793.003	4687
793.106	2751
793.209	3803
793.313	4214
793.416	2956
793.519	5413
793.623	4688
793.726	4984
793.829	4422
793.932	4852
794.035	3598
794.138	6008
794.242	6813
794.345	10372
794.448	19095
794.551	48485
794.654	155396
794.757	249447
794.860	56076
794.963	13078
795.066	6924
795.169	7247
795.272	4604
795.375	5551
795.477	3556
795.580	4912
795.683	3361
795.786	4125
795.889	1694
795.991	4365
796.094	4377
796.197	2445
796.300	3848
796.402	3861
796.505	3053
796.608	3459
796.710	3049
796.813	3711
796.915	2498
797.018	3299
797.120	2895
797.223	1507
797.326	3915
797.428	3120
797.530	3046
797.633	2368
797.735	3469
797.838	3039
797.940	4198
798.042	2898
798.145	2198
798.247	3289
798.349	2102
798.452	3194
798.554	1857
798.656	2533
798.758	3566
798.860	2980
798.962	2040
799.065	1833
799.167	2161
799.269	3559
799.371	3022
799.473	2566
799.575	2052
799.677	2830
799.779	3475
799.881	1332
799.983	2703
800.085	2804
800.187	2996
800.289	2514
800.390	2067
800.492	1818
800.594	3488
800.696	2381
800.798	1954
800.899	2568
801.001	1958
801.103	2226
801.205	1633
801.306	1628
801.408	2025
801.509	2480
801.611	2829
801.713	2594
801.814	1661
801.916	1957
802.017	1861
802.119	1767
802.220	2619
802.322	466
802.423	3262
802.525	1850
802.626	2759
802.727	2693
802.829	1976
802.930	587
803.031	2820
803.133	1447
803.234	1511
803.335	2417
803.436	1031
803.538	2113
803.639	1283
803.740	2426
803.841	1791
803.942	1424
804.043	1789
804.144	1657
804.245	2161
804.346	1975
804.447	660
804.548	2516
804.649	2507
804.750	1598
804.851	1123
804.952	2034
805.053	2428
805.154	237
805.255	2125
805.355	1824
805.456	1116
805.557	2074
805.658	744
805.758	2713
805.859	1778
805.960	1550
806.061	1050
806.161	1474
806.262	2035
806.362	1903
806.463	2103
806.564	2031
806.664	1699
806.765	1720
806.865	1754
806.966	1915
807.066	1403
807.166	2270
807.267	1798
807.367	1141
807.468	1299
807.568	1173
807.668	1765
807.769	2648
807.869	1336
807.969	1882
808.069	2418
808.170	1505
808.270	1013
808.370	1793
808.470	1591
808.570	910
808.670	1445
808.770	1679
808.870	554
808.970	1058
809.070	1313
809.170	1127
809.271	1597
809.370	697
809.470	939
809.570	1473
809.670	953
809.770	1174
809.870	1486
809.970	1116
810.070	835
810.169	2076
810.269	154
810.369	2404
810.469	1309
810.568	838
810.668	916
810.768	874
810.867	1554
810.967	1787
811.066	1860
811.166	1838
811.265	2238
811.365	546
811.464	925
811.564	1355
811.663	1380
811.763	1085
811.862	1752
811.962	2244
812.061	1033
812.160	1406
812.260	1219
812.359	1683
812.458	1698
812.557	4400
812.657	5477
812.756	3377
812.855	1476
812.954	970
813.053	1088
813.153	1660
813.252	688
813.351	1403
813.450	1065
813.549	1035
813.648	1819
813.747	1520
813.846	436
813.945	617
814.044	1141
814.143	1373
814.242	1210
814.341	1185
814.439	1623
814.538	2249
814.637	560
814.736	1060
814.835	1888
814.933	1124
815.032	1940
815.131	1310
815.229	1287
815.328	1651
815.427	1368
815.525	1124
815.624	1257
815.722	1652
815.821	2222
815.919	1222
816.018	901
816.116	2417
816.215	1573
816.313	2158
816.412	1375
816.510	1989
816.609	2782
816.707	2066
816.805	1331
816.904	1436
817.002	2431
817.100	3105
817.198	3328
817.296	2779
817.395	3149
817.493	4754
817.591	4630
817.689	6034
817.787	7672
817.885	13375
817.983	23242
818.081	47696
818.179	105659
818.277	234128
818.375	222831
818.473	79486
818.571	32718
818.669	19887
818.767	15776
818.865	16364
818.963	20260
819.061	27369
819.158	45455
819.256	92221
819.354	194318
819.452	377339
819.549	287258
819.647	106261
819.745	43947
819.842	26378
819.940	17728
820.038	12952
820.135	10814
820.233	8435
820.330	5884
820.428	5873
820.525	5315
820.623	4358
820.720	3218
820.818	3413
820.915	3466
821.012	4003
821.110	2329
821.207	2576
821.304	2151
821.402	1922
821.499	2211
821.596	2607
821.693	2227
821.791	2096
821.888	1626
821.985	2659
822.082	1493
822.179	1382
822.276	1918
822.373	1448
822.470	774
822.567	1356
822.664	802
822.761	1587
822.858	215
822.955	1775
823.052	1322
823.149	1268
823.246	1112
823.343	207
823.440	1430
823.536	1178
823.633	1383
823.730	397
823.827	749
823.923	1014
824.020	1281
824.117	833
824.213	573
824.310	1565
824.407	1003
824.503	1384
824.600	1178
824.696	603
824.793	1500
824.889	470
824.986	781
825.082	870
825.179	691
825.275	604
825.371	-107
825.468	1006
825.564	-378
825.660	1079
825.757	682
825.853	1372
825.949	427
826.045	1468
826.142	-362
826.238	1
826.334	861
826.430	-215
826.526	932
826.622	370
826.718	1025
826.814	409
826.910	1098
827.006	419
827.102	536
827.198	1145
827.294	123
827.390	1340
827.486	1115
827.582	-118
827.678	360
827.774	1127
827.869	-336
827.965	1579
828.061	-158
828.157	849
828.252	926
828.348	-385
828.444	1473
828.539	-500
828.635	183
828.731	972
828.826	-132
828.922	762
829.017	-182
829.113	373
829.208	287
829.304	-42
829.399	694
829.495	-327
829.590	644
829.685	200
829.781	334
829.876	423
829.971	-258
830.066	-50
830.162	-207
830.257	-18
830.352	-261
830.447	960
830.543	452
830.638	-191
830.733	916
830.828	-190
830.923	106
831.018	122
831.113	248
831.208	1080
831.303	79
831.398	-91
831.493	109
831.588	409
831.683	-336
831.778	717
831.873	129
831.967	1078
832.062	-368
832.157	-607
832.252	772
832.346	885
832.441	443
832.536	756
832.631	1322
832.725	605
832.820	-142
832.914	-225
833.009	-669
833.104	51
833.198	482
833.293	33
833.387	-243
833.482	456
833.576	131
833.670	815
833.765	117
833.859	737
833.954	978
834.048	281
834.142	563
834.237	-131
834.331	406
834.425	-396
834.519	-1116
834.613	1567
834.708	-141
834.802	-179
834.896	-288
834.990	668
835.084	266
835.178	826
835.272	-275
835.366	11
835.460	616
835.554	421
835.648	136
835.742	-405
835.836	-107
835.930	-525
836.024	77
836.117	721
836.211	108
836.305	476
836.399	1223
836.493	-170
836.586	435
836.680	106
836.774	-273
836.867	584
836.961	-279
837.055	300
837.148	49
837.242	335
837.335	-233
837.429	188
837.522	-282
837.616	435
837.709	1223
837.803	282
837.896	428
837.989	-120
838.083	330
838.176	887
838.269	301
838.363	406
838.456	-104
838.549	469
838.642	375
838.735	1526
838.829	1477
838.922	-112
839.015	193
839.108	-216
839.201	-153
839.294	315
839.387	305
839.480	-674
839.573	413
839.666	501
839.759	-801
839.852	-375
839.945	-119
840.038	-482
840.131	-256
840.223	-144
840.316	1029
840.409	355
840.502	-1313
840.594	1527
840.687	-933
840.780	357
840.873	130
840.965	362
841.058	13
841.150	1058
841.243	-293
841.336	861
841.428	187
841.521	-468
841.613	-966
841.706	727
841.798	491
841.890	503
841.983	-1348
842.075	152
842.167	395
842.260	-202
842.352	723
842.444	-222
842.537	799
842.629	1137
842.721	234
842.813	29
842.905	-711
842.997	804
843.090	266
843.182	825
843.274	465
843.366	2411
843.458	4481
843.550	3848
843.642	-667
843.734	259
843.826	-427
843.918	238
844.009	139
844.101	-32
844.193	208
844.285	163
844.377	-29
844.469	614
844.560	-207
844.652	-459
844.744	284
844.835	69
844.927	436
845.019	251
845.110	201
845.202	787
845.293	191
845.385	-14
845.476	-424
845.568	270
845.659	-96
845.751	721
845.842	-173
845.934	-316
846.025	-1192
846.116	300
846.208	-214
846.299	365
846.390	-503
846.482	441
846.573	396
846.664	639
846.755	-560
846.846	605
846.937	-967
847.029	-414
847.120	-88
847.211	-194
847.302	1024
847.393	-244
847.484	-271
847.575	-104
847.666	-164
847.757	-224
847.847	-1051
847.938	665
848.029	339
848.120	-676
848.211	-18
848.302	-494
848.392	-357
848.483	-384
848.574	-613
848.664	-921
848.755	-251
848.846	408
848.936	-468
849.027	-111
849.118	-137
849.208	-358
849.299	-102
849.389	23
849.480	581
849.570	1443
849.661	1172
849.751	2092
849.841	719
849.932	46
850.022	-677
850.112	1034
850.203	-569
850.293	308
850.383	625
850.474	-479
850.564	225
850.654	377
850.744	-801
850.834	-12
850.924	805
851.014	103
851.104	-621
851.194	-1009
851.284	-49
851.374	627
851.464	101
851.554	1100
851.644	843
851.734	3354
851.824	5904
851.914	11089
852.004	21667
852.094	22104
852.183	4723
852.273	1074
852.363	27
852.452	45
852.542	109
852.632	-379
852.721	-678
852.811	332
852.901	270
852.990	651
853.080	-397
853.169	-627
853.259	-286
853.348	-471
853.438	158
853.527	36
853.617	-400
853.706	512
853.795	1308
853.885	3153
853.974	4849
854.063	8925
854.152	15532
854.242	4686
854.331	399
854.420	315
854.509	-221
854.598	433
854.687	-329
854.777	-1128
854.866	-469
854.955	-88
855.044	-961
855.133	-808
855.222	223
855.311	-743
855.400	-159
855.488	-799
855.577	-737
855.666	33
855.755	256
855.844	560
855.933	49
856.021	598
856.110	-89
856.199	-328
856.288	-930
856.376	-754
856.465	191
856.554	305
856.642	-840
856.731	-86
856.819	-492
856.908	-672
856.996	-829
857.085	-306
857.173	-1127
857.262	-653
857.350	-421
857.438	-77
857.527	-534
857.615	-443
857.703	-277
857.792	-686
857.880	-732
857.968	-429
858.056	-717
858.145	-924
858.233	-766
858.321	-838
858.409	-439
858.497	-820
858.585	-576
858.673	178
858.761	-1595
858.849	-529
858.937	-785
859.025	-47
859.113	-1315
859.201	-1191
859.289	65
859.377	-51
859.465	-517
859.552	-483
859.640	-1636
859.728	-791
859.816	-317
859.903	-881
859.991	-1631
860.079	247
860.166	-1279
860.254	-38
860.342	-523
860.429	-1143
860.517	-1164
860.604	-408
860.692	-703
860.779	-934
860.867	-525
860.954	-945
861.042	-624
861.129	-385
861.216	-794
861.304	-647
861.391	-1018
861.478	-891
861.565	-97
861.653	111
861.740	-862
861.827	-592
861.914	-154
862.001	-215
862.089	-1184
862.176	-646
862.263	-680
862.350	-67
862.437	-1432
862.524	-422
862.611	-380
862.698	-297
862.785	-141
862.871	-117
862.958	-780
863.045	-381
863.132	-619
863.219	-520
863.306	-1649
863.392	-742
863.479	-850
863.566	170
863.652	-1131
863.739	-934
863.826	-829
863.912	-46
863.999	-1452
864.086	-1
864.172	1
864.259	-320
864.345	-538
864.432	-183
864.518	-751
864.604	-428
864.691	-769
864.777	-498
864.863	263
864.950	-53
865.036	-1170
865.122	507
865.209	-396
865.295	166
865.381	-620
865.467	-358
865.553	-803
865.639	-269
865.726	-287
865.812	1416
865.898	1912
865.984	2921
866.070	6205
866.156	7467
866.242	1225
866.328	-51
866.414	-833
866.499	-805
866.585	-618
866.671	180
866.757	-1213
866.843	-999
866.928	-614
867.014	-623
867.100	107
867.186	-23
867.271	-59
867.357	-597
867.442	161
867.528	-200
867.614	-881
867.699	-896
867.785	-489
867.870	-319
867.956	-585
868.041	596
868.127	-142
868.212	-643
868.297	-182
868.383	-673
868.468	-975
868.553	740
868.639	-90
868.724	972
868.809	704
868.894	-389
868.979	-368
869.065	-522
869.150	-790
869.235	-785
869.320	-272
869.405	-528
869.490	-1222
869.575	-954
869.660	-383
869.745	-297
869.830	-741
869.915	-756
870.000	-1129
870.085	-703
870.169	-654
870.254	-526
870.339	-1014
870.424	-597
870.509	-445
870.593	-282
870.678	-256
870.763	-936
870.847	-914
870.932	-853
871.016	-407
871.101	-590
871.186	-766
871.270	-331
871.355	-797
871.439	-571
871.523	-719
871.608	52
871.692	-525
871.777	160
871.861	-344
871.945	-635
872.030	-202
872.114	-300
872.198	-603
872.282	-764
872.367	-1101
872.451	-189
872.535	-921
872.619	-1034
872.703	-1026
872.787	-564
872.871	-1503
872.955	-651
873.039	-1707
873.123	-977
873.207	-741
873.291	-172
873.375	-1242
873.459	-584
873.543	-862
873.627	-552
873.711	-860
873.794	-741
873.878	-1216
873.962	-785
874.045	-870
874.129	-225
874.137	-264
874.213	-653
874.245	-671
874.296	-701
874.352	-1457
874.380	-1827
874.460	-549
874.464	-498
874.547	-749
874.568	-724
874.631	-656
874.676	-110
874.714	340
874.784	391
874.798	411
874.881	453
874.892	357
874.965	-379
874.999	-641
875.048	-977
875.107	-1065
875.131	-1110
875.215	-319
875.215	-319
875.298	-874
875.323	-792
875.381	-625
875.430	-357
875.465	-127
875.538	-994
875.548	-1119
875.631	-659
875.646	-677
875.714	-846
875.753	-765
875.798	-569
875.861	-533
875.881	-554
875.964	-289
875.968	-304
876.047	-522
876.076	-532
876.130	-525
876.183	-643
876.213	-742
876.291	332
876.296	402
876.379	-1288
876.398	-1013
876.462	-5
876.506	-454
876.545	-891
876.613	-1070
876.628	-1113
876.711	-926
876.721	-890
876.794	-513
876.828	-626
876.877	-810
876.935	-576
876.960	-487
877.043	-127
877.043	-130
877.125	-759
877.150	-638
877.208	-468
877.258	-59
877.291	288
877.365	231
877.374	218
877.456	473
877.472	273
877.539	-741
877.579	-540
877.622	-184
877.687	-395
877.704	-487
877.787	-716
877.794	-672
877.869	-135
877.901	-21
877.952	141
878.008	346
878.034	456
878.115	-366
878.117	-379
878.199	-385
878.222	-270
878.282	-123
878.329	-98
878.364	-45
878.437	135
878.447	139
878.529	-797
878.544	-755
878.611	-509
878.651	-714
878.694	-830
878.758	-302
878.776	-164
878.858	-269
878.865	-251
878.941	-21
878.972	-75
879.023	-233
879.078	-322
879.105	-287
879.185	-69
879.187	-69
879.269	-277
879.292	-478
879.351	-718
879.399	-211
879.433	-89
879.506	-796
879.516	-800
879.598	-231
879.613	-169
879.680	-272
879.720	-197
879.762	-133
879.827	240
879.844	348
879.926	22
879.933	28
880.007	217
880.040	-42
880.089	-488
880.147	-362
880.171	-313
880.253	23
880.254	21
880.335	188
880.360	378
880.417	1287
880.467	1996
880.499	2402
880.574	3250
880.580	3158
880.662	1312
880.680	925
880.744	321
880.787	57
880.825	74
880.893	-50
880.907	-111
880.989	-38
881.000	-50
881.070	189
881.106	328
881.152	480
881.213	736
881.233	654
881.315	-113
881.319	-146
881.396	17
881.426	-60
881.478	-341
881.532	103
881.559	376
881.639	-150
881.641	-165
881.722	9
881.745	-19
881.803	-28
881.852	-78
881.885	-88
881.958	-280
881.966	-283
882.047	475
882.064	499
882.129	527
882.171	555
882.210	553
882.277	369
882.291	340
882.372	606
882.383	554
882.454	-7
882.489	65
882.535	230
882.596	-6
882.616	-87
882.697	-341
882.702	-341
882.778	131
882.808	288
882.859	314
882.914	8
882.940	-29
883.020	129
883.021	130
883.102	51
883.127	-126
883.183	-42
883.233	228
883.264	343
883.339	196
883.345	171
883.426	263
883.445	245
883.507	131
883.551	-170
883.587	-256
883.657	41
883.668	87
883.749	314
883.763	328
883.830	85
883.869	-133
883.910	-313
883.975	-277
883.991	-18
884.072	642
884.081	779
884.152	576
884.187	242
884.233	81
884.292	349
884.314	448
884.394	331
884.398	320
884.475	126
884.504	196
884.555	325
884.610	211
884.636	227
884.716	148
884.716	152
884.797	486
884.821	509
884.877	265
884.927	84
884.958	170
885.033	271
885.038	255
885.118	-6
885.139	-133
885.199	-8
885.244	288
885.279	376
885.350	325
885.359	337
885.439	882
885.456	840
885.520	384
885.561	358
885.600	478
885.667	525
885.680	459
885.760	119
885.773	35
885.840	220
885.878	406
885.920	219
885.984	-377
886.000	-318
886.080	556
886.089	577
886.160	-99
886.195	-134
886.240	554
886.300	934
886.320	743
886.400	491
886.406	463
886.480	550
886.511	507
886.560	339
886.616	254
886.640	331
886.720	474
886.722	474
886.800	123
886.827	10
886.879	165
886.932	259
886.959	339
887.038	620
887.039	621
887.119	217
887.143	196
887.198	350
887.248	200
887.278	291
887.354	613
887.358	608
887.437	588
887.459	554
887.517	1089
887.564	1483
887.596	1301
887.669	904
887.676	917
887.755	930
887.774	926
887.835	593
887.880	423
887.914	284
887.985	-44
887.994	23
888.073	607
888.090	735
888.153	631
888.195	430
888.232	576
888.300	1029
888.311	960
888.391	363
888.405	262
888.470	578
888.510	669
888.549	649
888.615	843
888.628	854
888.708	736
888.720	728
888.787	878
888.825	896
888.866	708
888.930	471
888.945	540
889.024	883
889.035	931
889.103	891
889.140	833
889.182	826
889.245	817
889.261	826
889.340	886
889.349	886
889.419	354
889.454	93
889.498	6
889.559	-104
889.577	38
889.656	659
889.664	724
889.735	838
889.768	887
889.814	860
889.873	826
889.978	1043
890.083	861
890.187	636
890.292	242
890.397	662
890.501	2173
890.606	1181
890.710	906
890.815	1848
890.919	561
891.024	635
891.128	1424
891.233	1490
891.337	905
891.442	225
891.546	445
891.650	1045
891.755	745
891.859	1395
891.963	981
892.068	613
892.172	-53
892.276	1343
892.380	459
892.484	1276
892.589	203
892.693	931
892.797	1087
892.901	643
893.005	222
893.109	497
893.213	1520
893.317	371
893.421	76
893.525	493
893.629	0
893.733	1277
893.837	677
893.941	520
894.045	1638
894.148	3152
894.252	9056
894.356	4510
894.460	1488
894.564	330
894.667	-70
894.771	771
894.875	166
894.978	-318
895.082	823
895.186	1258
895.289	941
895.393	1480
895.496	731
895.600	3
895.703	519
895.807	593
895.910	1095
896.014	319
896.117	200
896.221	562
896.324	171
896.427	607
896.531	-78
896.634	746
896.737	338
896.840	668
896.944	658
897.047	85
897.150	144
897.253	72
897.356	508
897.460	506
897.563	-301
897.666	665
897.769	641
897.872	190
897.975	151
898.078	-238
898.181	830
898.284	742
898.387	265
898.490	-17
898.593	-56
898.695	469
898.798	206
898.901	289
899.004	499
899.107	-54
899.209	46
899.312	685
899.415	276
899.518	994
899.620	477
899.723	542
899.826	769
899.928	1353
900.031	67
900.133	11
900.236	444
900.338	7
900.441	862
900.543	129
900.646	349
900.748	509
900.851	222
900.953	200
901.055	1019
901.158	-19
901.260	-42
901.362	828
901.465	-23
901.567	282
901.669	572
901.771	1632
901.873	382
901.976	-30
902.078	-125
902.180	522
902.282	-267
902.384	-264
902.486	401
902.588	202
902.690	493
902.792	533
902.894	866
902.996	-43
903.098	-41
903.200	261
903.302	804
903.404	379
903.505	-512
903.607	487
903.709	1184
903.811	36
903.913	398
904.014	501
904.116	756
904.218	-156
904.319	695
904.421	386
904.523	317
904.624	583
904.726	53
904.827	435
904.929	-83
905.030	-136
905.132	88
905.233	256
905.335	-52
905.436	41
905.537	715
905.639	-34
905.740	837
905.841	401
905.943	551
906.044	710
906.145	-723
906.247	599
906.348	18
906.449	542
906.550	248
906.651	400
906.752	227
906.854	240
906.955	-145
907.056	234
907.157	90
907.258	-371
907.359	269
907.460	363
907.561	-440
907.662	887
907.762	-209
907.863	-250
907.964	408
908.065	-84
908.166	-3
908.267	187
908.367	870
908.468	-20
908.569	44
908.670	-285
908.770	969
908.871	1040
908.971	1245
909.072	570
909.173	101
909.273	307
909.374	418
909.474	650
909.575	713
909.675	255
909.776	507
909.876	-424
909.977	-298
910.077	138
910.177	295
910.278	-221
910.378	-105
910.478	27
910.579	-746
910.679	-333
910.779	-205
910.879	459
910.980	75
911.080	-676
911.180	148
911.280	455
911.380	97
911.480	38
911.580	-542
911.680	647
911.780	-518
911.880	-159
911.980	337
912.080	27
912.180	93
912.280	663
912.380	255
912.480	-327
912.580	549
912.679	-22
912.779	1611
912.879	-554
912.979	24
913.078	321
913.178	384
913.278	671
913.377	-713
913.477	208
913.577	-117
913.676	302
913.776	-157
913.875	280
913.975	468
914.074	-321
914.174	-348
914.273	359
914.373	684
914.472	64
914.572	-474
914.671	244
914.770	-118
914.870	-91
914.969	-532
915.068	29
915.167	624
915.267	-138
915.366	114
915.465	253
915.564	464
915.663	-96
915.763	594
915.862	-43
915.961	-417
916.060	231
916.159	164
916.258	466
916.357	526
916.456	433
916.555	-633
916.654	242
916.752	-63
916.851	-102
916.950	956
917.049	111
917.148	-282
917.247	469
917.345	-165
917.444	410
917.543	-23
917.642	-47
917.740	-110
917.839	-312
917.937	55
918.036	-109
918.135	625
918.233	271
918.332	-109
918.430	339
918.529	-165
918.627	283
918.726	-575
918.824	452
918.923	-546
919.021	405
919.119	72
919.218	-540
919.316	296
919.414	161
919.512	-302
919.611	342
919.709	560
919.807	-120
919.905	-48
920.003	187
920.102	36
920.200	159
920.298	61
920.396	-142
920.494	322
920.592	416
920.690	686
920.788	264
920.886	-558
920.984	-7
921.082	-423
921.180	596
921.277	482
921.375	438
921.473	-567
921.571	159
921.669	488
921.766	-320
921.864	-73
921.962	-158
922.060	556
922.157	269
922.255	-504
922.352	-13
922.450	694
922.548	470
922.645	35
922.743	317
922.840	-584
922.938	258
923.035	-94
923.133	-115
923.230	-727
923.327	412
923.425	327
923.522	525
923.619	107
923.717	331
923.814	274
923.911	-95
924.008	142
924.106	-506
924.203	116
924.300	-156
924.397	-390
924.494	259
924.591	821
924.688	-588
924.786	8
924.883	783
924.979	-534
925.077	-229
925.173	109
925.270	-383
925.367	203
925.464	208
925.561	510
925.658	770
925.755	1081
925.852	482
925.948	919
926.045	178
926.142	261
926.239	-108
926.335	381
926.432	334
926.529	16
926.625	851
926.722	567
926.818	300
926.915	-265
927.011	528
927.108	-406
927.204	697
927.301	696
927.397	465
927.494	-60
927.590	-83
927.687	979
927.783	263
927.879	59
927.976	-16
928.072	181
928.168	357
928.264	-555
928.361	-181
928.457	387
928.553	283
928.649	200
928.745	510
928.841	-471
928.937	-394
929.033	-688
929.129	393
929.225	78
929.321	386
929.417	428
929.513	-659
929.609	489
929.705	295
929.801	-274
929.897	535
929.993	-14
930.089	-65
930.184	768
930.280	-66
930.376	509
930.471	-210
930.567	-200
930.663	-344
930.758	-167
930.854	-801
930.950	314
931.045	-710
931.141	-564
931.236	554
931.332	-912
931.427	-392
931.523	-75
931.618	185
931.714	-751
931.809	-605
931.905	-463
932.000	-350
932.095	-425
932.191	139
932.286	-225
932.381	424
932.476	-416
932.572	-336
932.667	-336
932.762	-469
932.857	185
932.952	15
933.047	-300
933.142	47
933.237	-313
933.332	-318
933.427	164
933.522	188
933.617	487
933.712	-557
933.807	-261
933.902	-14
933.997	-908
934.092	-485
934.187	-442
934.282	410
934.376	147
934.471	-89
934.566	117
934.661	-213
934.755	-556
934.850	-215
934.945	219
935.039	-167
935.134	-509
935.228	-686
935.323	558
935.417	-130
935.512	-161
935.606	-355
935.701	65
935.795	-255
935.890	91
935.984	315
936.079	-49
936.173	-114
936.267	-18
936.362	-1088
936.456	302
936.550	-611
936.644	-359
936.738	404
936.833	-315
936.927	470
937.021	-22
937.115	17
937.209	-590
937.303	-457
937.397	-807
937.491	105
937.585	-711
937.679	371
937.773	-721
937.867	-1094
937.961	590
938.055	38
938.149	66
938.243	-687
938.337	-351
938.430	-439
938.524	-442
938.618	-445
938.712	-705
938.805	-374
938.899	-552
938.993	203
939.086	-638
939.180	600
939.274	460
939.367	-607
939.461	-216
939.554	-407
939.648	136
939.741	-724
939.835	-688
939.928	661
940.022	-367
940.115	-693
940.208	-224
940.302	-149
940.395	85
940.488	-311
940.582	-5
940.675	-972
940.768	6
940.861	-746
940.954	615
941.048	-116
941.141	300
941.234	-264
941.327	-253
941.420	-57
941.513	-444
941.606	-761
941.699	353
941.792	-160
941.885	-467
941.978	-43
942.071	-385
942.164	-361
942.257	-553
942.349	-332
942.442	-506
942.535	-635
942.628	-228
942.721	-443
942.813	-1713
942.906	753
942.999	-845
943.091	-254
943.184	-476
943.277	-761
943.369	-315
943.462	-171
943.554	10
943.647	-382
943.739	-1218
943.832	480
943.924	-722
944.017	-142
944.109	-1133
944.201	-718
944.294	-480
944.386	-535
944.478	-717
944.571	-128
944.663	-680
944.755	-109
944.847	250
944.940	201
945.032	-1824
945.124	-873
945.216	-419
945.308	-858
945.400	-823
945.492	-283
945.584	-363
945.676	-537
945.768	-401
945.860	-958
945.952	-982
946.044	-636
946.136	-289
946.228	-914
946.320	-482
946.412	-352
946.503	-321
946.595	648
946.687	-467
946.779	-1138
946.870	-614
946.962	-729
947.054	-191
947.145	-421
947.237	-1092
947.329	-506
947.420	-912
947.512	-1356
947.603	-785
947.695	-1022
947.786	-1812
947.878	-1071
947.969	-819
948.061	-461
948.152	-791
948.243	-80
948.335	-320
948.426	-461
948.517	-593
948.609	-988
948.700	-965
948.791	-899
948.882	-1228
948.973	-1302
949.065	-181
949.156	-793
949.247	-487
949.338	-527
949.429	-551
949.520	640
949.611	-1203
949.702	-454
949.793	-154
949.884	-752
949.975	-975
950.066	-947
950.157	-584
950.247	-367
950.338	-447
950.429	-1396
950.520	-1201
950.611	152
950.701	-296
950.792	-342
950.883	-302
950.973	-403
951.064	-686
951.155	-377
951.245	-311
951.336	-322
951.427	-824
951.517	-349
951.608	36
951.698	-1279
951.788	-352
951.879	-607
951.969	-823
952.060	-675
952.150	-430
952.240	-430
952.331	-1958
952.421	212
952.511	-1526
952.602	-961
952.692	-1030
952.782	-413
952.872	-1352
952.962	-1457
953.052	-210
953.143	-1141
953.233	-350
953.323	-494
953.413	-1045
953.503	-584
953.593	-20
953.683	-997
953.773	-47
953.863	-71
953.953	-192
954.042	215
954.132	-677
954.222	-441
954.312	-427
954.402	-534
954.492	-202
954.581	-317
954.671	-498
954.761	-785
954.850	419
954.940	-337
955.030	-545
955.119	197
955.209	-31
955.298	-482
955.388	184
955.477	-858
955.567	-272
955.656	-802
955.746	-105
955.835	-579
955.925	-119
956.014	-566
956.103	-678
956.193	-221
956.282	-336
956.371	-939
956.461	-351
956.550	-272
956.639	-610
956.728	-1669
956.817	-778
956.906	-687
956.995	-186
957.085	-908
957.174	252
957.263	-775
957.352	-257
957.441	-925
957.530	-200
957.619	270
957.708	395
957.796	311
957.885	-997
957.974	-747
958.063	347
958.152	-492
958.241	760
958.329	-221
958.418	228
958.507	-140
958.596	413
958.684	-380
958.773	692
958.861	-197
958.950	657
959.039	924
959.127	1145
959.216	507
959.304	185
959.393	-57
959.481	991
959.570	725
959.658	24
959.746	1075
959.835	571
959.923	1330
960.011	226
960.100	217
960.188	999
960.276	0
960.365	-242
960.453	-244
960.541	-448
960.629	208
960.717	-444
960.805	-486
960.893	143
960.981	-204
961.069	-84
961.158	-404
961.245	-129
961.333	-446
961.421	-1248
961.509	92
961.597	-161
961.685	164
961.773	-440
961.861	-462
961.949	63
962.036	-686
962.124	-437
962.212	-654
962.299	-621
962.387	-367
962.475	-1058
962.562	-512
962.650	300
962.738	-664
962.825	-1317
962.913	412
963.000	-592
963.088	-739
963.175	-847
963.263	-396
963.350	-186
963.438	-559
963.525	-1007
963.612	806
963.700	882
963.787	3943
963.874	1289
963.962	280
964.049	-21
964.136	-927
964.223	-1201
964.310	-624
964.398	-798
964.485	-13
964.572	-377
964.659	1002
964.746	-487
964.833	-620
964.920	-436
965.007	-380
965.094	-125
965.181	-134
965.268	-569
965.355	754
965.441	-715
965.528	-1558
965.615	-507
965.702	-484
965.789	-1785
965.875	-828
965.962	-538
966.049	-1696
966.136	-431
966.222	-1561
966.309	67
966.395	-554
966.482	239
966.569	-1128
966.655	-658
966.742	-759
966.828	-1328
966.915	-1469
967.001	-509
967.087	-868
967.174	-645
967.260	-153
967.347	-209
967.433	1345
967.519	1731
967.605	-335
967.692	-1155
967.778	-697
967.864	-506
967.950	-761
968.036	-1603
968.123	69
968.209	-1257
968.295	-1045
968.381	-150
968.467	-269
968.553	-1788
968.639	-800
968.725	-1586
968.811	-137
968.897	-768
968.983	-784
969.069	-828
969.154	-754
969.240	-1067
969.326	-1442
969.412	-1490
969.497	-878
969.583	-688
969.669	-844
969.755	-427
969.840	-1710
969.926	-1138
970.012	-705
970.097	-390
970.183	-1618
970.268	-985
970.354	-506
970.439	-1025
970.525	938
970.610	-1495
970.696	-329
970.781	-1404
970.866	-1460
970.952	-967
971.037	-316
971.122	-109
971.208	-1448
971.293	-1108
971.378	-1245
971.463	-730
971.549	-730
971.634	-749
971.719	-412
971.804	-884
971.889	-752
971.974	-1840
972.059	-1402
972.144	-556
972.229	-708
972.314	-1149
972.399	-809
972.484	-501
972.569	-860
972.654	-706
972.739	-273
972.824	-584
972.908	-494
972.993	-1459
973.078	-485
973.163	-924
973.247	-650
973.332	-1794
973.417	-246
973.501	-1658
973.586	-872
973.671	-1122
973.755	-453
973.840	-340
973.924	110
974.009	-1012
974.093	-1154
974.178	327
974.262	-343
974.346	-581
974.431	-1565
974.515	-1381
974.600	-1648
974.684	-184
974.768	-880
974.852	-692
974.937	-1691
975.021	-620
975.105	-1007
975.189	-1221
975.273	-524
975.358	-1510
975.442	-1802
975.526	-510
975.610	-1647
975.694	-274
975.778	-832
975.862	-609
975.946	-2598
976.030	-289
976.114	-1221
976.198	-559
976.281	-1094
976.365	-1160
976.449	-1283
976.533	-983
976.617	-1441
976.700	-12
976.784	-739
976.868	-1020
976.951	-909
977.035	-958
977.119	-1318
977.202	-697
977.286	-631
977.369	-1154
977.453	-511
977.536	-2056
977.620	-602
977.703	-664
977.787	-1558
977.870	-375
977.953	-1366
978.037	-2581
978.120	-483
978.203	-1035
978.287	-510
978.370	-1305
978.453	-1165
978.536	-901
978.620	-310
978.703	-779
978.786	-1039
978.869	-1571
978.952	-1672
979.035	206
979.118	-1357
979.201	-1376
979.284	-1202
979.367	-1485
979.450	-542
979.533	-1053
979.616	-1712
979.699	-1775
979.782	-1002
979.865	-1139
979.948	-1252
980.030	-1275
980.113	-1235
980.196	-1794
980.279	-1220
980.361	-845
980.444	-1073
980.526	-352
980.609	-1154
980.692	-1531
980.774	-1261
980.857	-1683
980.939	-176
981.022	-1418
981.104	-1170
981.187	-1512
981.269	-1242
981.352	-977
981.434	-1629
981.516	-1143
981.599	75
981.681	-1123
981.763	-967
981.846	-569
981.928	-1222
982.010	-1464
982.092	-2025
982.174	-446
982.256	-803
982.339	-942
982.421	-727
982.503	-1102
982.585	-2145
982.667	-1583
982.749	-587
982.831	-2009
982.913	-2087
982.995	-1076
983.077	-1420
983.158	-393
983.240	-2053
983.322	-1765
983.404	-778
983.486	-1210
983.568	-1658
983.649	-1398
983.731	-1277
983.813	-1817
983.894	-960
983.976	-1746
984.058	-1995
984.139	-253
984.221	-1323
984.302	-417
984.384	-1711
984.465	-2182
984.547	-1559
984.628	-2576
984.710	-1196
984.791	-1749
984.872	-919
984.954	-1116
985.035	-1441
985.116	-1787
985.198	-1429
985.279	-777
985.360	-1197
985.441	-1492
985.522	-959
985.604	-1293
985.685	-2854
985.766	-1217
985.847	-766
985.928	-1543
986.009	-1235
986.090	-1646
986.171	-1576
986.252	-1195
986.333	-978
986.414	-1601
986.495	-1184
986.576	-1064
986.656	-1437
986.737	-1066
986.818	-1146
986.899	-1398
986.980	-1491
987.060	-832
987.141	-2028
987.222	-1241
987.302	-1058
987.383	-1694
987.464	-2032
987.544	-810
987.625	-1349
987.705	-1229
987.786	-996
987.866	-2026
987.947	-1601
988.027	-446
988.108	-1850
988.188	-681
988.268	-1709
988.349	-1568
988.429	-582
988.509	-1178
988.589	-1496
988.670	-2149
988.750	-271
988.830	-2028
988.910	-764
988.990	-1000
989.070	-600
989.151	-1360
989.231	-1671
989.311	-1262
989.391	-1447
989.471	-1385
989.551	-1292
989.631	-2151
989.711	-1370
989.791	-2156
989.870	-2058
989.950	-880
990.030	-871
990.110	-1438
990.190	-1255
990.269	-673
990.349	-1730
990.429	-1631
990.509	-1101
990.588	-1860
990.668	-277
990.747	-861
990.827	-1962
990.907	-1368
990.986	-1209
991.066	-1426
991.145	-1489
991.225	-950
991.304	-1240
991.383	-1404
991.463	-2165
991.542	-1384
991.622	-1651
991.701	-3138
991.780	-1685
991.859	-748
991.939	-2045
992.018	-1498
992.097	-814
992.176	-1278
992.256	-1400
992.335	-1850
992.414	-1130
992.493	-714
992.572	-2222
992.651	-663
992.730	-1280
992.809	-1344
992.888	-1205
992.967	-1111
993.046	-1188
993.125	-2209
993.203	-1449
993.282	-828
993.361	-947
993.440	-717
993.519	-1781
993.597	-1413
993.676	-1721
993.755	-619
993.834	-916
993.912	-2445
993.991	-826
994.069	-978
994.148	-1716
994.226	-1736
994.305	-1080
994.384	-1983
994.462	-628
994.540	-2112
994.619	-1104
994.697	-865
994.776	-2236
994.854	-444
994.932	-1786
995.011	-1430
995.089	-2126
995.167	-1258
995.245	-1769
995.324	-2034
995.402	-754
995.480	-1366
995.558	-1487
995.636	-2456
995.714	-1575
995.792	-1486
995.870	-2349
995.948	-1880
996.026	-1684
996.104	-1569
996.182	-1476
996.260	-1500
996.338	-1793
996.416	-1919
996.494	-1800
996.572	-784
996.649	-1885
996.727	-1696
996.805	-1438
996.883	-1858
996.960	-877
997.038	-1088
997.116	-872
997.193	-1851
997.271	-1255
997.348	-1430
997.426	-1085
997.504	-2323
997.581	-1599
997.658	-1527
997.736	-1690
997.813	-1794
997.891	-234
997.968	-2276
998.046	-1604
998.123	-1923
998.200	-936
998.277	-2743
998.355	-1082
998.432	-2510
998.509	-2214
998.586	-961
998.663	-1477
998.741	-1532
998.818	-1092
998.895	-1780
998.972	-1393
999.049	-1578
999.126	-2182
999.203	-604
999.280	-1687
999.357	-962
999.434	-2349
999.511	-1415
999.587	-1299
999.664	-2168
999.741	-1370
999.818	-1555
999.895	-1772
999.971	-1401
1000.048	-1909
1000.125	-1266
1000.202	-2291
1000.278	-1415
1000.355	-1495
1000.431	-1746
1000.508	-1609
1000.584	-979
1000.661	-1453
1000.738	-1904
1000.814	-1436
1000.890	-1197
1000.967	-1491
1001.043	-1416
1001.120	-2175
1001.196	-1108
1001.272	-1999
1001.349	-1771
1001.425	-1097
1001.501	-2338
1001.577	-2182
1001.654	-535
1001.730	-1796
1001.806	-1484
1001.882	-2074
1001.958	-1312
1002.034	-1309
1002.110	-1133
1002.186	-1590
1002.262	-1774
1002.338	-2673
1002.414	-1911
1002.490	-2117
1002.566	-2672
1002.642	-1647
1002.718	-1508
1002.794	-1858
1002.870	-2001
1002.945	-1777
1003.021	-1862
1003.097	-1947
1003.173	-1525
1003.248	-1739
1003.324	-2234
1003.400	-2084
1003.475	-2194
1003.551	-1479
1003.626	-1882
1003.702	-2157
1003.777	-2503
1003.853	-1692
1003.928	-1429
1004.004	-2106
1004.079	-1585
1004.155	-1769
1004.230	-2269
1004.305	-1102
1004.381	-1779
1004.456	-1276
1004.531	-1800
1004.607	-2055
1004.682	-2234
1004.757	-1494
1004.832	-1880
1004.907	-1153
1004.982	-997
1005.057	-1559
1005.133	-2429
1005.208	-1445
1005.283	-1866
1005.358	-843
1005.433	-1704
1005.508	-1084
1005.583	-1392
1005.657	-1751
1005.732	-1247
1005.807	-2172
1005.882	-1923
1005.957	-1327
1006.032	-1452
1006.106	-873
1006.181	-1804
1006.256	-1306
1006.331	-1748
1006.405	-2076
1006.480	-2107
1006.554	-1583
1006.629	-1341
1006.704	-2349
1006.778	-2248
1006.853	-1862
1006.927	-2085
1007.002	-2344
1007.076	-975
1007.150	-1664
1007.225	-1667
1007.299	-1967
1007.373	-1905
1007.448	-2042
1007.522	-1372
1007.596	-1730
1007.671	-1964
1007.745	-780
1007.819	-2305
1007.893	-2148
1007.967	-1141
1008.041	-3002
1008.115	-2073
1008.190	-1873
1008.264	-1763
1008.338	-2060
1008.412	-2169
1008.486	-1521
1008.560	-2034
1008.633	-2750
1008.707	-2331
1008.781	-1465
1008.855	-2413
1008.929	-2370
1009.003	-2039
1009.076	-2491
1009.150	-1719
1009.224	-1469
1009.298	-1098
1009.371	-2178
1009.445	-1485
1009.519	-2466
1009.592	-2695
1009.666	-2259
1009.739	-1691
1009.813	-2458
1009.886	-1165
1009.960	-2185
1010.033	-736
1010.107	-1260
1010.180	-2508
1010.253	-1795
1010.327	-1926
1010.400	-2139
1010.473	-2363
1010.547	-845
1010.620	-2784
1010.693	-1334
1010.766	-1999
1010.840	-1972
1010.913	-1235
1010.986	-2981
1011.059	-1762
1011.132	-1848
1011.205	-1451
1011.278	-1930
1011.351	-1939
1011.424	-1997
1011.497	-2244
1011.570	-2828
1011.643	-2076
1011.716	-2683
1011.789	-2489
1011.862	-1201
1011.934	-1748
1012.007	-2501
1012.080	-2394
1012.153	-1457
1012.225	-901
1012.298	-2335
1012.371	-1946
1012.443	-1148
1012.516	-2251
1012.588	-1888
1012.661	-1172
1012.733	-2321
1012.806	-2414
1012.879	-3312
1012.951	-1937
1013.023	-1862
1013.096	-1384
1013.168	-1491
1013.241	-1229
1013.313	-2103
1013.385	-2255
1013.458	-1917
1013.530	-2015
1013.602	-2680
1013.674	-1289
1013.746	-3015
1013.819	-2412
1013.891	-1899
1013.963	-2731
1014.035	-1959
1014.107	-1734
1014.179	-1816
1014.251	-2682
1014.323	-2174
1014.395	-2256
1014.467	-2018
1014.539	-1394
1014.611	-1746
1014.683	-2124
1014.754	-1586
1014.826	-2731
1014.898	-1557
1014.970	-2298
1015.042	-1132
1015.113	-2076
1015.185	-2255
1015.257	-2870
1015.328	-1246
1015.400	-2818
1015.471	-1910
1015.543	-2684
1015.615	-1491
1015.686	-1969
1015.757	-2745
1015.829	-1929
1015.901	-2668
1015.972	-1788
1016.043	-1832
1016.115	-2168
1016.186	-1952
1016.257	-2400
1016.328	-1680
1016.400	-1509
1016.471	-2227
1016.542	-2424
1016.613	-1567
1016.685	-1973
1016.756	-1729
1016.827	-2554
1016.898	-2962
1016.969	-1451
1017.040	-2584
1017.111	-1832
1017.182	-1863
1017.253	-2103
1017.324	-1791
1017.395	-2982
1017.466	-1613
1017.537	-1095
1017.608	-1819
1017.678	-1874
1017.749	-1424
1017.820	-2614
1017.891	-2364
1017.961	-2487
1018.032	-1909
1018.103	-1676
1018.173	-1672
1018.244	-2368
1018.315	-2679
1018.385	-1709
1018.456	-2023
1018.526	-2894
1018.597	-2074
1018.667	-2068
1018.738	-2060
1018.808	-2165
1018.878	-2195
1018.949	-2737
1019.019	-1000
1019.089	-1486
1019.160	-1761
1019.230	-2601
1019.300	-1763
1019.371	-2397
1019.441	-1682
1019.511	-1785
1019.581	-2263
1019.651	-1910
1019.721	-999
1019.791	-1721
1019.861	-2517
1019.931	-1183
1020.001	-1969
1020.071	-1655
1020.141	-2063
1020.211	-2271
1020.281	-1822
1020.351	-2513
1020.421	-1911
1020.491	-1159
1020.560	-2537
1020.630	-1813
1020.700	-1632
1020.770	-1789
1020.839	-1959
1020.909	-1722
1020.979	-2215
1021.048	-1968
1021.118	-2370
1021.187	-2230
1021.257	-1960
1021.326	-2038
1021.396	-2429
1021.465	-2656
1021.535	-2384
1021.604	-2230
1021.674	-2098
1021.743	-2138
1021.812	-2495
1021.882	-2104
1021.951	-1306
1022.020	-2533
1022.089	-2018
1022.159	-2150
1022.228	-1559
1022.297	-2782
1022.366	-2018
1022.435	-1900
1022.504	-1442
1022.573	-2489
1022.642	-1838
1022.711	-2061
1022.781	-2204
1022.849	-1672
1022.918	-2255
1022.987	-2146
1023.056	-1586
1023.125	-2055
1023.194	-1890
1023.263	-1852
1023.331	-1907
1023.400	-1914
1023.469	-2852
1023.538	-1718
1023.606	-2124
1023.675	-1558
1023.744	-2240
1023.812	-2120
1023.881	-1612
1023.949	-1901
1024.018	-1564
1024.086	-1559
1024.155	-1990
1024.223	-2313
1024.292	-1893
1024.360	-1564
1024.429	-2614
1024.497	-2294
1024.565	-1374
1024.634	-2434
1024.702	-1330
1024.770	-2266
1024.838	-1616
1024.907	-1120
1024.975	-2526
1025.043	-2245
1025.111	-2338
1025.179	-1426
1025.247	-1084
1025.315	-1732
1025.383	-2038
1025.451	-2487
1025.519	-2250
1025.587	-2005
1025.655	-1005
1025.723	-1891
1025.791	-2088
1025.859	-1532
1025.927	-1399
1025.995	-1987
1026.062	-1746
1026.130	-2158
1026.198	-1582
1026.266	-1788
1026.333	-1134
1026.401	-2018
1026.469	-2280
1026.536	-1533
1026.604	-1678
1026.671	-2330
1026.739	-1317
1026.806	-2218
1026.874	-2600
1026.941	-1689
1027.009	-1864
1027.076	-2559
1027.144	-1012
1027.211	-2949
1027.278	-1539
1027.345	-1917
1027.413	-1748
1027.480	-2715
1027.547	-2406
1027.614	-1635
1027.682	-1295
1027.749	-1340
1027.816	-1810
1027.883	-870
1027.950	-2038
1028.017	-2221
1028.084	-1214
1028.151	-2870
1028.218	-2244
1028.285	-1912
1028.352	-2428
1028.419	-2636
1028.486	-1982
1028.553	-1983
1028.619	-1875
1028.686	-2037
1028.753	-2492
1028.820	-2409
1028.886	-2255
1028.953	-2222
1029.020	-933
1029.086	-1593
1029.153	-2338
1029.220	-1978
1029.286	-1801
1029.353	-1369
1029.419	-2558
1029.486	-2335
1029.552	-2182
1029.619	-1740
1029.685	-2337
1029.751	-2118
1029.818	-1460
1029.884	-2048
1029.951	-1410
1030.017	-2291
1030.083	-2203
1030.149	-2111
1030.216	-2463
1030.282	-1656
1030.348	-1436
1030.414	-2474
1030.480	-1400
1030.546	-2006
1030.612	-878
1030.678	-1885
1030.744	-1974
1030.810	-2091
1030.876	-1894
1030.942	-2000
1031.008	-1985
1031.074	-2352
1031.140	-1582
1031.206	-2166
1031.272	-2902
1031.337	-1745
1031.403	-1628
1031.469	-2137
1031.534	-1917
1031.600	-1151
1031.666	-1988
1031.731	-1541
1031.797	-1959
1031.863	-1543
1031.928	-1770
1031.994	-1950
1032.059	-2572
1032.125	-1801
1032.190	-2204
1032.256	-2523
1032.321	-1867
1032.386	-1870
1032.452	-2210
1032.517	-2430
1032.582	-1972
1032.647	-2273
1032.713	-2404
1032.778	-2101
1032.843	-1916
1032.908	-2265
1032.974	-1902
1033.039	-2049
1033.104	-1543
1033.169	-2148
1033.234	-1702
1033.299	-1715
1033.364	-1037
1033.429	-2165
1033.494	-1287
1033.559	-1857
1033.624	-2270
1033.688	-2275
1033.753	-2586
1033.818	-1354
1033.883	-1285
1033.948	-1969
1034.013	-1356
1034.077	-1463
1034.142	-2006
1034.207	-2439
1034.271	-1705
1034.336	-1439
1034.400	-1803
1034.465	-1269
1034.530	-1276
1034.594	-1888
1034.658	-1729
1034.723	-1690
1034.787	-1393
1034.852	-2461
1034.916	-1862
1034.981	-1682
1035.045	-1119
1035.109	-2080
1035.173	-1719
1035.238	-2000
1035.302	-1520
1035.366	-2019
1035.430	-2178
1035.495	-1848
1035.559	-1233
1035.623	-1931
1035.687	-2278
1035.751	-1719
1035.815	-2212
1035.879	-1954
1035.943	-2007
1036.007	-2025
1036.071	-1832
1036.135	-2622
1036.198	-2249
1036.262	-1500
1036.326	-2620
1036.390	-2037
1036.454	-1518
1036.517	-1988
1036.581	-1613
1036.645	-1369
1036.709	-1536
1036.772	-2164
1036.836	-1788
1036.900	-1530
1036.963	-2152
1037.026	-2509
1037.090	-2766
1037.154	-2536
1037.217	-1599
1037.280	-1410
1037.344	-1562
1037.407	-1763
1037.471	-622
1037.534	-2063
1037.597	-1576
1037.661	-1548
1037.724	-1752
1037.787	-1562
1037.850	-1938
1037.913	-1818
1037.977	-1774
1038.040	-1899
1038.103	-1604
1038.166	-3205
1038.229	-2121
1038.292	-2002
1038.355	-2114
1038.418	-1539
1038.481	-1660
1038.544	-1658
1038.607	-2434
1038.670	-2354
1038.732	-1606
1038.795	-1732
1038.858	-2454
1038.921	-2143
1038.984	-1833
1039.046	-1894
1039.109	-2733
1039.172	-946
1039.234	-2234
1039.297	-2104
1039.360	-2362
1039.422	-1795
1039.485	-1968
1039.547	-2131
1039.610	-2572
1039.672	-1484
1039.734	-2135
1039.797	-2446
1039.859	-1788
1039.922	-1744
1039.984	-2515
1040.046	-2292
1040.109	-1982
1040.171	-2524
1040.233	-1914
1040.295	-2413
1040.358	-2463
1040.420	-2508
1040.482	-2820
1040.544	-1423
1040.606	-1366
1040.668	-1811
1040.730	-2486
1040.792	-2247
1040.854	-2126
1040.916	-1907
1040.978	-3147
1041.040	-1368
1041.102	-2282
1041.164	-2360
1041.225	-1368
1041.287	-2115
1041.349	-2577
1041.411	-1914
1041.472	-1642
1041.534	-2031
1041.596	-2498
1041.657	-2065
1041.719	-2283
1041.781	-2252
1041.842	-1773
1041.904	-2116
1041.965	-2524
1042.027	-1637
1042.088	-1943
1042.150	-1661
1042.211	-1869
1042.272	-2103
1042.334	-1334
1042.395	-2482
1042.456	-1451
1042.518	-2279
1042.579	-2064
1042.640	-2631
1042.701	-1865
1042.763	-2108
1042.824	-2799
1042.885	-2642
1042.946	-2786
1043.007	-2501
1043.068	-2794
1043.129	-1842
1043.190	-1810
1043.251	-2609
1043.312	-2230
1043.373	-1988
1043.434	-1573
1043.495	-2033
1043.556	-1488
1043.616	-2372
1043.677	-2305
1043.738	-1963
1043.799	-2494
1043.859	-1997
1043.920	-2040
1043.981	-2554
1044.041	-1388
1044.102	-2874
1044.162	-1944
1044.223	-2243
1044.284	-2352
1044.344	-2488
1044.405	-2710
1044.465	-2194
1044.525	-2179
1044.586	-2007
1044.646	-2038
1044.707	-2538
1044.767	-1526
1044.827	-2359
1044.887	-1962
1044.948	-2111
1045.008	-2148
1045.068	-2793
1045.128	-2142
1045.188	-1710
1045.249	-1587
1045.309	-2114
1045.369	-2391
1045.429	-1714
1045.489	-1806
1045.549	-1711
1045.609	-2020
1045.669	-1880
1045.729	-2713
1045.789	-2706
1045.848	-2361
1045.908	-1391
1045.968	-2248
1046.028	-2401
1046.088	-2041
1046.147	-1041
1046.207	-1854
1046.267	-2329
1046.326	-1489
1046.386	-2305
1046.446	-1643
1046.505	-1390
1046.565	-1614
1046.624	-1700
1046.684	-1109
1046.743	-829
1046.803	-1120
1046.862	-60
1046.922	0
