'Start Wavelength	183.907
'End Wavelength	1046.922
'Gate Delay	5.000
'Gate Width (ms)	1.050
'Laser Output Level	0.000
'X Position	0.000
'Y Position	0.000
'Z Position	0.000
'Grid Point Number	1.000
'Shot Number	100.000
183.907	26.000
183.977	-597.000
184.047	-647
184.116	-460
184.186	514
184.256	254
184.325	-715
184.395	-279
184.465	459
184.534	474
184.604	-738
184.674	-426
184.743	213
184.813	-75
184.883	364
184.952	165
185.022	8
185.092	-145
185.161	-341
185.231	-14
185.301	62
185.370	503
185.440	-546
185.509	-269
185.579	134
185.649	224
185.718	-195
185.788	199
185.857	-323
185.927	41
185.996	-145
186.066	-121
186.136	81
186.205	-159
186.275	499
186.344	-167
186.414	-182
186.483	404
186.553	995
186.622	333
186.692	882
186.761	220
186.831	9
186.900	-52
186.970	764
187.039	-203
187.109	-35
187.178	52
187.248	588
187.317	207
187.387	63
187.456	206
187.526	194
187.595	128
187.664	-86
187.734	200
187.803	304
187.873	-232
187.942	115
188.012	-323
188.081	128
188.150	-55
188.220	42
188.289	-15
188.358	-406
188.428	746
188.497	-418
188.567	256
188.636	-631
188.705	-136
188.775	309
188.844	-36
188.913	-521
188.983	54
189.052	321
189.121	-105
189.191	726
189.260	96
189.329	300
189.399	242
189.468	-237
189.537	521
189.606	262
189.676	338
189.745	289
189.814	297
189.883	101
189.953	-160
190.022	-101
190.091	228
190.161	133
190.230	136
190.299	41
190.368	51
190.437	-21
190.507	-429
190.576	379
190.645	322
190.714	-194
190.783	-93
190.853	405
190.922	-296
190.991	-569
191.060	-257
191.129	500
191.198	-291
191.268	400
191.337	69
191.406	289
191.475	559
191.544	164
191.613	-333
191.682	-471
191.752	397
191.821	393
191.890	-422
191.959	513
192.028	262
192.097	112
192.166	101
192.235	-789
192.304	148
192.373	-111
192.442	506
192.511	-94
192.580	-108
192.650	314
192.719	-638
192.788	365
192.857	257
192.926	-282
192.995	-73
193.064	-237
193.133	32
193.202	444
193.271	547
193.340	276
193.409	137
193.478	1082
193.547	309
193.615	142
193.684	32
193.753	-409
193.822	820
193.891	-100
193.960	-145
194.029	58
194.098	29
194.167	-584
194.236	-218
194.305	187
194.374	209
194.443	650
194.512	552
194.580	-490
194.649	552
194.718	129
194.787	206
194.856	194
194.925	-39
194.994	-199
195.062	-103
195.131	405
195.200	324
195.269	-396
195.338	96
195.407	-218
195.475	-58
195.544	754
195.613	-623
195.682	-173
195.751	126
195.819	574
195.888	281
195.957	852
196.026	491
196.094	-113
196.163	-146
196.232	177
196.301	-210
196.369	304
196.438	520
196.507	189
196.576	-705
196.644	196
196.713	421
196.782	517
196.850	9
196.919	210
196.988	50
197.056	462
197.125	-9
197.194	499
197.262	-238
197.331	217
197.400	-58
197.468	42
197.537	241
197.606	84
197.674	536
197.743	812
197.812	-119
197.880	800
197.949	163
198.017	-27
198.086	75
198.155	712
198.223	308
198.292	1232
198.360	403
198.429	-433
198.497	-195
198.566	545
198.635	411
198.703	149
198.772	450
198.840	594
198.909	195
198.977	182
199.046	214
199.114	-64
199.183	-16
199.251	-673
199.320	-205
199.388	156
199.457	605
199.525	450
199.594	379
199.662	-67
199.731	173
199.799	505
199.867	-25
199.936	-311
200.004	27
200.073	4
200.141	264
200.210	326
200.278	689
200.346	97
200.415	-458
200.483	224
200.552	-174
200.620	-299
200.688	750
200.757	251
200.825	-175
200.893	-156
200.962	560
201.030	151
201.098	-477
201.167	630
201.235	151
201.303	-272
201.372	484
201.440	230
201.508	238
201.577	279
201.645	-407
201.713	-109
201.781	-267
201.850	189
201.918	268
201.986	1119
202.055	511
202.123	-349
202.191	162
202.259	-469
202.327	-214
202.396	-350
202.464	-99
202.532	-92
202.600	1095
202.669	-200
202.737	-90
202.805	271
202.873	666
202.941	407
203.009	-114
203.078	-595
203.146	19
203.214	-123
203.282	268
203.350	668
203.418	-87
203.487	374
203.555	222
203.623	787
203.691	413
203.759	62
203.827	31
203.895	74
203.963	108
204.031	284
204.099	-79
204.168	521
204.236	-202
204.304	516
204.372	700
204.440	317
204.508	-289
204.576	155
204.644	318
204.712	113
204.780	881
204.848	59
204.916	-64
204.984	302
205.052	218
205.120	76
205.188	-35
205.256	890
205.324	-128
205.392	-489
205.460	292
205.528	-19
205.596	265
205.664	3
205.732	186
205.799	725
205.867	645
205.935	957
206.003	661
206.071	259
206.139	309
206.207	366
206.275	540
206.343	673
206.411	-293
206.478	579
206.546	391
206.614	84
206.682	-33
206.750	652
206.818	748
206.885	-248
206.953	56
207.021	-51
207.089	302
207.157	115
207.225	175
207.292	348
207.360	72
207.428	391
207.496	812
207.563	142
207.631	354
207.699	473
207.767	539
207.834	776
207.902	283
207.970	-225
208.038	-172
208.105	-377
208.173	552
208.241	149
208.309	192
208.376	87
208.444	358
208.512	-151
208.579	-210
208.647	-167
208.715	486
208.782	0
208.850	-363
208.918	542
208.985	174
209.053	1204
209.120	-325
209.188	-113
209.256	693
209.323	-308
209.391	120
209.459	722
209.526	382
209.594	350
209.661	-317
209.729	133
209.796	535
209.864	527
209.932	-641
209.999	637
210.067	307
210.134	927
210.202	539
210.269	898
210.337	128
210.404	342
210.472	376
210.539	1063
210.607	481
210.674	925
210.742	871
210.809	-377
210.877	619
210.944	395
211.012	-328
211.079	1414
211.146	201
211.214	815
211.281	-79
211.349	780
211.416	1546
211.484	510
211.551	274
211.618	244
211.686	164
211.753	113
211.821	805
211.888	-81
211.955	-54
212.023	573
212.090	161
212.157	881
212.225	874
212.292	998
212.359	1720
212.427	2798
212.494	785
212.561	435
212.629	112
212.696	633
212.763	533
212.831	345
212.898	501
212.965	909
213.032	596
213.100	406
213.167	378
213.234	747
213.301	-87
213.369	523
213.436	727
213.503	224
213.570	368
213.638	-119
213.705	177
213.772	677
213.839	-57
213.906	226
213.973	557
214.041	1015
214.108	490
214.175	1028
214.242	214
214.309	585
214.376	-180
214.444	858
214.511	59
214.578	343
214.645	767
214.712	613
214.779	1171
214.846	169
214.913	1000
214.980	1247
215.048	947
215.115	174
215.182	281
215.249	409
215.316	186
215.383	983
215.450	774
215.517	370
215.584	1000
215.651	783
215.718	1083
215.785	1033
215.852	292
215.919	988
215.986	764
216.053	201
216.120	307
216.187	798
216.254	952
216.321	898
216.388	453
216.455	1156
216.522	462
216.589	294
216.656	1150
216.722	678
216.789	784
216.856	810
216.923	487
216.990	858
217.057	949
217.124	677
217.191	583
217.258	977
217.324	675
217.391	1817
217.458	1609
217.525	1237
217.592	1051
217.659	1074
217.725	673
217.792	271
217.859	733
217.926	878
217.993	664
218.059	625
218.126	240
218.193	336
218.260	490
218.327	430
218.393	637
218.460	130
218.527	573
218.594	490
218.660	855
218.727	1468
218.794	84
218.860	544
218.927	474
218.994	412
219.061	208
219.127	513
219.194	628
219.261	354
219.327	205
219.394	333
219.461	279
219.527	-58
219.594	640
219.661	610
219.727	-387
219.794	204
219.860	83
219.927	490
219.994	1229
220.060	323
220.127	1203
220.193	783
220.260	142
220.326	1313
220.393	1738
220.460	3032
220.526	988
220.593	1211
220.659	1952
220.726	844
220.792	2870
220.859	1873
220.925	3297
220.992	4107
221.058	3311
221.125	2227
221.191	1455
221.258	518
221.324	573
221.391	279
221.457	717
221.524	154
221.590	1041
221.657	2208
221.723	1279
221.789	1868
221.856	1459
221.922	1014
221.989	1201
222.055	509
222.121	282
222.188	1036
222.254	433
222.321	295
222.387	945
222.453	777
222.520	468
222.586	746
222.652	204
222.719	205
222.785	518
222.851	400
222.918	509
222.984	1067
223.050	376
223.116	-333
223.183	953
223.249	65
223.315	867
223.382	821
223.448	881
223.514	454
223.580	782
223.647	-403
223.713	-40
223.779	1095
223.845	251
223.911	626
223.978	71
224.044	749
224.110	249
224.176	1567
224.242	-46
224.309	218
224.375	430
224.441	-3
224.507	564
224.573	382
224.639	596
224.705	285
224.772	-268
224.838	344
224.904	1350
224.970	911
225.036	657
225.102	504
225.168	-58
225.234	1367
225.300	812
225.366	582
225.432	6
225.499	554
225.565	651
225.631	484
225.697	865
225.763	811
225.829	1011
225.895	1513
225.961	380
226.027	800
226.093	1099
226.159	1883
226.225	1542
226.291	4394
226.357	4751
226.423	2313
226.489	2319
226.554	1210
226.620	1215
226.686	1556
226.752	1328
226.818	3010
226.884	8065
226.950	6106
227.016	1751
227.082	1044
227.148	1453
227.214	1070
227.279	645
227.345	744
227.411	29
227.477	287
227.543	1238
227.609	1539
227.674	948
227.740	721
227.806	824
227.872	269
227.938	945
228.003	1023
228.069	250
228.135	1065
228.201	694
228.267	227
228.332	535
228.398	-106
228.464	1189
228.530	-625
228.595	233
228.661	497
228.727	387
228.792	379
228.858	-391
228.924	220
228.990	1358
229.055	50
229.121	707
229.187	351
229.252	419
229.318	-71
229.384	200
229.449	555
229.515	-571
229.581	-182
229.646	739
229.712	469
229.777	1436
229.843	824
229.909	1298
229.974	1228
230.040	901
230.105	762
230.171	30
230.236	924
230.302	1294
230.368	939
230.433	313
230.499	633
230.564	1367
230.630	1313
230.695	627
230.761	578
230.826	-259
230.892	1002
230.957	542
231.023	298
231.088	-22
231.154	722
231.219	788
231.284	571
231.350	45
231.415	74
231.481	209
231.546	272
231.612	406
231.677	817
231.742	-206
231.808	1353
231.873	285
231.939	-561
232.004	1082
232.069	1422
232.135	560
232.200	71
232.265	362
232.331	-13
232.396	114
232.461	367
232.527	-190
232.592	-148
232.657	778
232.723	-927
232.788	-221
232.853	1010
232.918	424
232.984	453
233.049	-310
233.114	552
233.179	112
233.245	941
233.310	16
233.375	177
233.440	827
233.506	313
233.571	-201
233.636	227
233.701	664
233.766	357
233.832	687
233.897	443
233.962	423
234.027	932
234.092	683
234.157	181
234.222	-57
234.288	772
234.353	2187
234.418	696
234.483	1368
234.548	604
234.613	577
234.678	401
234.743	944
234.808	1521
234.873	1560
234.938	599
235.004	76
235.069	388
235.134	333
235.199	1142
235.264	820
235.329	227
235.394	234
235.459	-115
235.524	-220
235.589	866
235.654	313
235.719	-445
235.784	642
235.849	1151
235.913	884
235.978	927
236.043	699
236.108	635
236.173	682
236.238	1260
236.303	37
236.368	-99
236.433	1513
236.498	614
236.563	1236
236.627	3088
236.692	8638
236.757	5776
236.822	2554
236.887	1645
236.952	1801
237.017	1144
237.081	1364
237.146	1813
237.211	4234
237.276	8602
237.341	12047
237.405	4645
237.470	2056
237.535	869
237.600	1203
237.664	1371
237.729	1950
237.794	995
237.859	2573
237.923	1143
237.988	681
238.053	1423
238.118	826
238.182	2688
238.247	1682
238.312	727
238.376	1173
238.441	-28
238.506	1467
238.570	-270
238.635	1676
238.700	1162
238.764	254
238.829	797
238.893	568
238.958	900
239.023	582
239.087	-171
239.152	721
239.216	512
239.281	1012
239.346	605
239.410	726
239.475	242
239.539	2783
239.604	899
239.668	911
239.733	329
239.797	609
239.862	1096
239.926	1062
239.991	843
240.055	450
240.120	333
240.184	612
240.249	111
240.313	-82
240.378	22
240.442	1573
240.507	1773
240.571	779
240.635	776
240.700	833
240.764	944
240.829	374
240.893	70
240.957	1024
241.022	1201
241.086	1823
241.151	592
241.215	528
241.279	1283
241.344	475
241.408	538
241.472	468
241.537	1597
241.601	947
241.665	7
241.730	155
241.794	838
241.858	438
241.922	381
241.987	611
242.051	567
242.115	-16
242.179	541
242.244	-190
242.308	1141
242.372	424
242.436	659
242.501	847
242.565	-242
242.629	229
242.693	802
242.757	529
242.822	642
242.886	669
242.950	728
243.014	475
243.078	439
243.142	1198
243.206	141
243.271	801
243.335	378
243.399	1467
243.463	4709
243.527	8717
243.591	1566
243.655	1599
243.719	475
243.783	1143
243.847	1323
243.911	1174
243.975	1262
244.040	-20
244.104	1763
244.168	587
244.232	853
244.296	1165
244.360	723
244.424	645
244.488	74
244.552	1164
244.615	-206
244.679	614
244.743	272
244.807	-84
244.871	-214
244.935	483
244.999	137
245.063	-176
245.127	696
245.191	937
245.255	488
245.319	807
245.383	-247
245.446	2003
245.510	-123
245.574	837
245.638	531
245.702	28
245.766	1654
245.829	1066
245.893	-543
245.957	103
246.021	1361
246.085	346
246.149	284
246.212	2282
246.276	1604
246.340	685
246.404	767
246.467	828
246.531	215
246.595	872
246.659	562
246.722	89
246.786	746
246.850	1759
246.913	966
246.977	248
247.041	196
247.104	767
247.168	797
247.232	2525
247.295	3699
247.359	1457
247.423	613
247.486	1119
247.550	1137
247.614	283
247.677	1234
247.741	465
247.804	735
247.868	1120
247.932	2122
247.995	2921
248.059	268
248.122	438
248.186	1546
248.249	1373
248.313	6767
248.376	5730
248.440	2941
248.503	379
248.567	1709
248.630	1217
248.694	2198
248.757	3466
248.821	5776
248.884	3760
248.948	2860
249.011	4908
249.075	7957
249.138	5354
249.202	1820
249.265	738
249.328	2263
249.392	694
249.455	564
249.519	1068
249.582	1485
249.645	1719
249.709	741
249.772	504
249.835	1544
249.899	558
249.962	1029
250.025	-560
250.089	2621
250.152	2681
250.215	977
250.279	6
250.342	1318
250.405	1000
250.468	515
250.532	1930
250.595	2560
250.658	10737
250.721	12865
250.785	3618
250.848	3574
250.911	879
250.974	1507
251.038	2637
251.101	3331
251.164	1417
251.227	1857
251.290	1663
251.354	3375
251.417	13738
251.480	9099
251.543	8116
251.606	25083
251.669	12015
251.732	5189
251.795	6275
251.859	6611
251.922	14986
251.985	6758
252.048	3330
252.111	2203
252.174	1520
252.237	4585
252.300	7798
252.363	9161
252.426	18221
252.489	4898
252.552	3900
252.615	1842
252.678	2794
252.741	6586
252.804	9557
252.867	18174
252.930	8421
252.993	5311
253.056	2600
253.119	2105
253.182	1670
253.245	2430
253.308	2449
253.371	565
253.434	1467
253.497	1853
253.559	4464
253.622	1367
253.685	1957
253.748	1209
253.811	596
253.874	1382
253.937	501
254.000	1833
254.062	2416
254.125	3598
254.188	4383
254.251	1648
254.314	2643
254.376	1546
254.439	2238
254.502	1754
254.565	2099
254.628	3434
254.690	1730
254.753	1105
254.816	1383
254.878	258
254.941	2513
255.004	1526
255.067	486
255.129	81
255.192	623
255.255	-299
255.317	1050
255.380	779
255.443	266
255.505	-69
255.568	-522
255.631	-542
255.693	615
255.756	-267
255.819	1148
255.881	-133
255.944	441
256.006	-652
256.069	752
256.132	-426
256.194	1191
256.257	1018
256.319	836
256.382	1295
256.444	1358
256.507	832
256.569	5
256.632	795
256.694	717
256.757	6674
256.819	12313
256.882	3379
256.944	1201
257.007	1410
257.069	584
257.132	881
257.194	1126
257.257	-210
257.319	-130
257.381	908
257.444	3665
257.506	17179
257.569	12621
257.631	4124
257.693	3002
257.756	1254
257.818	502
257.880	448
257.943	788
258.005	185
258.067	1031
258.130	863
258.192	766
258.254	1376
258.317	561
258.379	319
258.441	1905
258.503	1930
258.566	2238
258.628	2696
258.690	-119
258.753	1330
258.815	1325
258.877	-35
258.939	633
259.001	1059
259.064	317
259.126	345
259.188	904
259.250	576
259.312	752
259.375	1363
259.437	689
259.499	1141
259.561	-101
259.623	175
259.685	692
259.747	599
259.809	1971
259.872	2805
259.934	7007
259.996	5477
260.058	1773
260.120	614
260.182	73
260.244	764
260.306	49
260.368	280
260.430	158
260.492	1948
260.554	2523
260.616	433
260.678	3343
260.740	2737
260.802	73
260.864	635
260.926	268
260.988	1230
261.050	757
261.112	3342
261.174	5932
261.236	1821
261.298	454
261.359	1766
261.421	1468
261.483	375
261.545	1534
261.607	-199
261.669	65
261.731	803
261.793	2330
261.854	-213
261.916	1681
261.978	499
262.040	339
262.102	434
262.164	-142
262.225	342
262.287	381
262.349	1249
262.411	1152
262.472	1026
262.534	624
262.596	1220
262.658	1182
262.719	-702
262.781	735
262.843	907
262.904	466
262.966	417
263.028	70
263.090	6073
263.151	12307
263.213	3864
263.275	1842
263.336	451
263.398	980
263.459	-325
263.521	203
263.583	1037
263.644	451
263.706	-99
263.767	-466
263.829	581
263.891	453
263.952	-384
264.014	-122
264.075	1968
264.137	3633
264.198	1321
264.260	60
264.321	178
264.383	2287
264.444	5589
264.506	662
264.567	900
264.629	3093
264.690	3930
264.752	674
264.813	365
264.875	298
264.936	1305
264.998	220
265.059	-36
265.120	91
265.182	1708
265.243	8454
265.305	4350
265.366	989
265.427	1081
265.489	851
265.550	-547
265.611	404
265.673	-119
265.734	-110
265.795	707
265.857	-622
265.918	-335
265.979	3418
266.040	13434
266.102	5364
266.163	1698
266.224	1228
266.286	1085
266.347	-597
266.408	268
266.469	526
266.530	-512
266.592	-428
266.653	459
266.714	733
266.775	-373
266.836	263
266.898	-590
266.959	651
267.020	288
267.081	507
267.142	403
267.203	-817
267.264	-1073
267.326	429
267.387	58
267.448	-581
267.509	-74
267.570	-144
267.631	181
267.692	-1361
267.753	210
267.814	-725
267.875	661
267.936	1798
267.997	1221
268.058	151
268.119	85
268.180	-90
268.241	-731
268.302	128
268.363	-225
268.424	317
268.485	186
268.546	-673
268.607	-362
268.668	88
268.729	-183
268.790	-786
268.851	405
268.912	36
268.972	398
269.033	385
269.094	-1004
269.155	-382
269.216	-280
269.277	-740
269.338	-666
269.398	-444
269.459	-1033
269.520	419
269.581	440
269.642	203
269.702	-275
269.763	386
269.824	-30
269.885	362
269.945	637
270.006	122
270.067	-478
270.128	-896
270.188	-607
270.249	-325
270.310	-514
270.370	50
270.431	-774
270.492	-644
270.553	-379
270.613	410
270.674	1688
270.734	168
270.795	-393
270.856	659
270.916	-792
270.977	222
271.038	-498
271.098	244
271.159	189
271.219	131
271.280	-153
271.340	-688
271.401	-1312
271.462	115
271.522	393
271.583	-423
271.643	314
271.704	-595
271.764	1121
271.825	794
271.885	7585
271.946	5374
272.006	1560
272.066	3867
272.127	4871
272.187	893
272.248	186
272.308	51
272.369	4051
272.429	1668
272.489	239
272.550	1143
272.610	2229
272.671	-67
272.731	625
272.791	370
272.852	-49
272.912	-23
272.972	-109
273.033	146
273.093	-178
273.153	1018
273.214	-68
273.274	465
273.334	4650
273.394	5284
273.455	805
273.515	1905
273.575	4723
273.635	1298
273.696	2738
273.756	5116
273.816	1306
273.876	130
273.936	2117
273.997	3116
274.057	-962
274.117	-165
274.177	884
274.237	8212
274.297	5163
274.358	2469
274.418	4905
274.478	2793
274.538	624
274.598	221
274.658	2948
274.718	2080
274.778	786
274.838	101
274.898	831
274.958	3329
275.018	5355
275.078	2235
275.138	24
275.198	98
275.258	-785
275.318	136
275.378	608
275.438	-284
275.498	-324
275.558	1548
275.618	5238
275.678	2041
275.738	1903
275.798	1472
275.858	135
275.918	-464
275.978	759
276.038	498
276.098	-647
276.157	177
276.217	2851
276.277	589
276.337	402
276.397	-426
276.457	569
276.517	-415
276.576	-580
276.636	-724
276.696	-484
276.756	2093
276.815	1038
276.875	-120
276.935	234
276.995	145
277.055	-187
277.114	-522
277.174	1014
277.234	1997
277.293	345
277.353	-343
277.413	-481
277.472	30
277.532	-169
277.592	240
277.651	1657
277.711	1917
277.771	824
277.830	4683
277.890	2644
277.950	2605
278.009	8345
278.069	1531
278.128	1992
278.188	2866
278.248	933
278.307	3467
278.367	1465
278.426	628
278.486	-47
278.545	-800
278.605	499
278.664	-29
278.724	314
278.783	3755
278.843	6158
278.902	157
278.962	-379
279.021	544
279.081	468
279.140	526
279.199	211
279.259	571
279.318	44
279.378	387
279.437	2339
279.496	9387
279.556	25696
279.615	13695
279.675	2341
279.734	1421
279.793	3244
279.853	5625
279.912	1099
279.971	1146
280.031	106
280.090	3664
280.149	4291
280.208	3959
280.268	19778
280.327	13280
280.386	2091
280.445	2169
280.505	1513
280.564	1501
280.623	106
280.682	1356
280.742	1702
280.801	189
280.860	-97
280.919	446
280.978	-180
281.037	-77
281.097	-115
281.156	-388
281.215	190
281.274	596
281.333	4239
281.392	1805
281.451	125
281.510	-55
281.569	-654
281.628	-1109
281.688	-142
281.747	817
281.806	-93
281.865	-8
281.924	-119
281.983	-29
282.042	-691
282.101	-563
282.160	-601
282.219	-642
282.278	-599
282.337	1432
282.396	381
282.454	-644
282.513	299
282.572	2251
282.631	735
282.690	-559
282.749	-1055
282.808	264
282.867	-491
282.926	-42
282.985	739
283.043	-1343
283.102	-286
283.161	-552
283.220	1950
283.279	3202
283.338	317
283.396	-130
283.455	-454
283.514	-81
283.573	110
283.631	481
283.690	-233
283.749	-369
283.808	655
283.866	-120
283.925	-743
283.984	-526
284.043	60
284.101	-553
284.160	-368
284.219	1347
284.277	-683
284.336	654
284.395	4106
284.453	2041
284.512	-1
284.570	974
284.629	907
284.688	34
284.746	-706
284.805	386
284.863	82
284.922	467
284.981	1176
285.039	1585
285.098	3632
285.156	14885
285.215	42886
285.273	33849
285.332	12700
285.390	6000
285.449	3336
285.507	2079
285.566	1224
285.624	752
285.683	1075
285.741	564
285.799	637
285.858	-224
285.916	-186
285.975	-321
286.033	-1310
286.091	-115
286.150	-742
286.208	-161
286.267	216
286.325	-277
286.383	477
286.442	85
286.500	305
286.558	-305
286.616	-445
286.675	134
286.733	-85
286.791	-285
286.850	-830
286.908	140
286.966	792
287.024	-512
287.083	-581
287.141	13
287.199	126
287.257	-486
287.315	98
287.374	-379
287.432	1577
287.490	-457
287.548	77
287.606	-303
287.664	-612
287.723	363
287.781	158
287.839	-256
287.897	-74
287.955	39
288.013	222
288.071	4820
288.129	24588
288.187	53461
288.245	17587
288.303	5042
288.361	2653
288.419	2075
288.477	700
288.535	809
288.593	817
288.651	-513
288.709	-445
288.767	-115
288.825	-460
288.883	122
288.941	381
288.999	-534
289.057	-283
289.115	-860
289.173	-313
289.231	-383
289.289	-988
289.346	-322
289.404	-583
289.462	-453
289.520	35
289.578	214
289.636	-74
289.694	104
289.751	-240
289.809	-848
289.867	-164
289.925	405
289.983	-512
290.040	-912
290.098	-543
290.156	179
290.214	-778
290.271	-284
290.329	-655
290.387	-323
290.444	-1189
290.502	-556
290.560	-380
290.617	-685
290.675	-1386
290.733	-595
290.790	-151
290.848	-547
290.906	-585
290.963	5
291.021	-610
291.078	-800
291.136	-462
291.194	2239
291.251	4456
291.309	1378
291.366	-104
291.424	-267
291.481	324
291.539	-459
291.596	-240
291.654	-1013
291.711	-645
291.769	-417
291.826	257
291.884	-44
291.941	-932
291.999	-841
292.056	-498
292.114	-727
292.171	-326
292.228	-832
292.286	515
292.343	-213
292.401	575
292.458	-491
292.515	-1200
292.573	362
292.630	-477
292.687	125
292.745	-660
292.802	773
292.859	3487
292.917	3737
292.974	1386
293.031	-147
293.089	-818
293.146	-761
293.203	-677
293.260	108
293.318	-240
293.375	1199
293.432	279
293.489	-1014
293.546	-188
293.604	-111
293.661	2857
293.718	8474
293.775	3015
293.832	105
293.889	506
293.947	819
294.004	96
294.061	524
294.118	2400
294.175	5145
294.232	8453
294.289	1496
294.346	515
294.403	439
294.460	316
294.517	-372
294.574	-733
294.631	-372
294.688	977
294.745	2856
294.802	11587
294.859	12382
294.916	2887
294.973	1074
295.030	896
295.087	474
295.144	16
295.201	438
295.258	-67
295.315	-246
295.372	3663
295.429	4955
295.486	1807
295.542	1944
295.599	8072
295.656	10182
295.713	6674
295.770	6455
295.827	1444
295.883	1418
295.940	61
295.997	1649
296.054	701
296.111	-639
296.167	-329
296.224	483
296.281	-738
296.338	-195
296.394	-472
296.451	578
296.508	2867
296.564	5090
296.621	3075
296.678	8548
296.734	9715
296.791	2133
296.848	863
296.904	943
296.961	3424
297.018	7397
297.074	4902
297.131	1600
297.187	94
297.244	2479
297.301	8865
297.357	12302
297.414	3372
297.470	772
297.527	37
297.583	86
297.640	-209
297.696	418
297.753	-250
297.809	-286
297.866	-675
297.922	-427
297.979	-667
298.035	-700
298.092	707
298.148	3656
298.204	2997
298.261	956
298.317	3791
298.374	9436
298.430	3831
298.486	947
298.543	499
298.599	268
298.656	409
298.712	2121
298.768	6329
298.824	2658
298.881	235
298.937	395
298.993	-548
299.050	433
299.106	107
299.162	-313
299.218	-27
299.275	-425
299.331	74
299.387	1367
299.443	8481
299.500	5785
299.556	2045
299.612	1133
299.668	577
299.724	330
299.780	813
299.837	499
299.893	1862
299.949	4900
300.005	5479
300.061	6457
300.117	11044
300.173	4222
300.229	1322
300.285	1412
300.341	1288
300.397	479
300.453	-134
300.510	238
300.566	447
300.622	-80
300.678	1726
300.734	4379
300.790	5972
300.845	7304
300.901	4166
300.957	4799
301.013	3732
301.069	636
301.125	716
301.181	69
301.237	206
301.293	-747
301.349	-148
301.405	-1157
301.461	-801
301.516	180
301.572	512
301.628	909
301.684	120
301.740	1872
301.796	2424
301.851	1820
301.907	3572
301.963	3742
302.019	9322
302.074	23622
302.130	20911
302.186	8805
302.242	2306
302.297	1856
302.353	2761
302.409	3943
302.464	3596
302.520	2481
302.576	7917
302.631	8487
302.687	3702
302.743	474
302.798	369
302.854	234
302.910	340
302.965	798
303.021	1341
303.076	780
303.132	1986
303.187	2904
303.243	1018
303.299	4
303.354	145
303.410	501
303.465	84
303.521	597
303.576	458
303.632	859
303.687	2266
303.743	8496
303.798	6208
303.853	1585
303.909	727
303.964	409
304.020	454
304.075	1360
304.130	1098
304.186	3293
304.241	3773
304.297	1072
304.352	442
304.358	434
304.407	364
304.449	72
304.463	-29
304.518	283
304.539	502
304.573	858
304.629	980
304.630	996
304.684	1710
304.720	4308
304.739	5642
304.794	8330
304.811	7093
304.850	3955
304.902	1680
304.905	1542
304.960	391
304.992	508
305.015	600
305.071	1206
305.083	1128
305.126	796
305.173	158
305.181	60
305.236	-164
305.264	27
305.292	215
305.347	202
305.354	166
305.402	-36
305.445	609
305.457	790
305.512	1666
305.535	1395
305.567	961
305.622	1372
305.626	1440
305.678	3349
305.716	7561
305.733	9150
305.788	9038
305.807	8148
305.843	6332
305.897	8578
305.898	8608
305.953	8180
305.988	5663
306.008	4134
306.063	1941
306.078	1599
306.118	1107
306.168	492
306.173	431
306.228	301
306.259	333
306.283	387
306.338	157
306.349	266
306.393	952
306.440	1442
306.448	1482
306.503	993
306.530	1330
306.558	2324
306.613	5347
306.620	5701
306.668	7488
306.711	8928
306.723	8938
306.778	6189
306.801	4762
306.833	3067
306.888	1574
306.892	1430
306.943	246
306.982	350
306.997	462
307.052	535
307.072	787
307.107	1419
307.162	2071
307.163	2083
307.217	4060
307.253	5014
307.272	5112
307.327	5655
307.343	5099
307.381	3559
307.434	2774
307.436	2875
307.491	7080
307.524	10182
307.546	11061
307.600	9896
307.614	8925
307.655	4909
307.704	2608
307.710	2633
307.765	3155
307.795	3983
307.819	5511
307.874	10292
307.885	10457
307.929	7624
307.975	5550
307.984	5691
308.038	7450
308.065	9238
308.093	15368
308.148	31449
308.156	35315
308.202	63220
308.246	79157
308.257	75668
308.312	42469
308.336	29342
308.366	22143
308.421	12525
308.426	11728
308.475	7685
308.517	5027
308.530	4706
308.585	4207
308.607	4022
308.639	3990
308.694	4281
308.697	4346
308.748	8506
308.787	12513
308.803	12686
308.857	9751
308.877	8652
308.912	7329
308.967	5929
308.967	5910
309.021	7869
309.058	9546
309.076	11755
309.130	20077
309.148	23679
309.185	44578
309.238	81262
309.239	81788
309.293	99028
309.328	98619
309.348	84348
309.402	41687
309.418	30662
309.457	20988
309.508	11355
309.511	11161
309.566	9471
309.598	8210
309.620	7957
309.674	8069
309.688	8164
309.729	7807
309.778	6825
309.783	6727
309.837	5376
309.868	4874
309.892	5732
309.946	8424
309.959	9147
310.001	13745
310.049	18522
310.055	17916
310.109	10939
310.139	6950
310.163	5665
310.218	3727
310.229	3312
310.272	2725
310.319	2514
310.326	2533
310.381	2555
310.409	2391
310.435	2168
310.489	1984
310.499	1959
310.543	2033
310.589	2043
310.598	2155
310.652	2793
310.679	3096
310.706	2864
310.760	2390
310.769	2289
310.814	1790
310.859	1278
310.868	1348
310.923	1965
310.948	2210
310.977	2141
311.031	1823
311.038	1808
311.085	2073
311.128	2187
311.139	2188
311.193	2083
311.218	2057
311.247	2110
311.301	2199
311.308	2200
311.356	2132
311.398	2078
311.410	2115
311.464	2185
311.488	2262
311.518	2075
311.572	1555
311.578	1498
311.626	2360
311.668	3161
311.680	3289
311.734	3715
311.758	3920
311.788	4043
311.842	4179
311.847	4182
311.896	4688
311.937	5118
311.950	5274
312.004	5889
312.027	6132
312.058	4969
312.112	2853
312.117	2633
312.165	2229
312.207	1868
312.297	4425
312.386	4526
312.476	2603
312.566	3569
312.656	3040
312.745	2358
312.835	2923
312.925	3169
313.015	2565
313.104	4044
313.194	1940
313.284	2415
313.374	2935
313.463	2809
313.553	2738
313.643	1194
313.732	2064
313.822	1683
313.912	2912
314.001	1831
314.091	3161
314.180	5342
314.270	3910
314.360	3028
314.449	2809
314.539	2662
314.628	2096
314.718	1979
314.808	3150
314.897	3041
314.987	1549
315.076	1815
315.166	2775
315.255	3588
315.345	3305
315.434	3515
315.524	3297
315.613	3377
315.703	2519
315.792	3275
315.881	3568
315.971	2885
316.060	4638
316.150	8434
316.239	10399
316.328	4799
316.418	2109
316.507	1992
316.597	2968
316.686	1914
316.775	3460
316.865	10535
316.954	2776
317.043	2315
317.133	1904
317.222	1747
317.311	1224
317.400	1614
317.490	2289
317.579	2264
317.668	1486
317.757	2642
317.847	3301
317.936	5602
318.025	4893
318.114	3554
318.203	2758
318.293	4569
318.382	8077
318.471	7525
318.560	11345
318.649	32137
318.738	9836
318.828	3321
318.917	2870
319.006	4911
319.095	10705
319.184	34191
319.273	21407
319.362	6132
319.451	2800
319.540	2518
319.629	3042
319.718	7305
319.807	5187
319.896	9044
319.985	42045
320.074	19305
320.163	4476
320.252	6340
320.341	6319
320.430	7345
320.519	4460
320.608	2722
320.697	3719
320.786	2770
320.875	2875
320.964	3143
321.053	3704
321.142	5727
321.230	6724
321.319	5697
321.408	13843
321.497	8515
321.586	4994
321.675	8237
321.764	8933
321.852	6122
321.941	7546
322.030	4800
322.119	6422
322.207	13123
322.296	15802
322.385	7823
322.474	5452
322.562	13385
322.651	11064
322.740	5306
322.829	8893
322.917	12328
323.006	7340
323.095	5308
323.183	4329
323.272	6535
323.361	8450
323.449	34017
323.538	15331
323.626	20876
323.715	19752
323.804	5434
323.892	20469
323.981	15123
324.069	4812
324.158	10991
324.246	14800
324.335	3153
324.424	4525
324.512	2747
324.601	2503
324.689	3424
324.778	6016
324.866	8660
324.954	3996
325.043	2639
325.131	4683
325.220	10461
325.308	13462
325.397	8064
325.485	6888
325.574	1562
325.662	1519
325.750	1809
325.839	1979
325.927	1319
326.015	2092
326.104	3878
326.192	5903
326.280	2249
326.369	1868
326.457	2507
326.545	3760
326.634	2505
326.722	1839
326.810	2785
326.898	2048
326.987	2047
327.075	3265
327.163	4879
327.251	2899
327.340	2675
327.428	3631
327.516	1998
327.604	1347
327.692	1841
327.781	2379
327.869	4992
327.957	3087
328.045	2985
328.133	1940
328.221	2583
328.309	1916
328.397	1488
328.485	2169
328.574	2711
328.662	6230
328.750	5889
328.838	3471
328.926	1920
329.014	1788
329.102	2849
329.190	9070
329.278	7088
329.366	2136
329.454	1999
329.542	1942
329.630	1312
329.718	2681
329.806	2797
329.893	3192
329.981	5358
330.069	5996
330.157	22204
330.245	69627
330.333	49628
330.421	10126
330.509	4905
330.597	9282
330.684	9086
330.772	3898
330.860	7178
330.948	10995
331.036	5236
331.123	2014
331.211	2272
331.299	3669
331.387	6835
331.475	16514
331.562	4268
331.650	1468
331.738	2025
331.825	3748
331.913	1975
332.001	2465
332.089	2810
332.176	6311
332.264	12190
332.352	14010
332.439	3618
332.527	2860
332.614	2764
332.702	4175
332.790	2352
332.877	4431
332.965	13178
333.052	3890
333.140	1699
333.228	4757
333.315	2031
333.403	2358
333.490	7603
333.578	7335
333.665	3735
333.753	2554
333.840	2281
333.928	1926
334.015	7710
334.103	11414
334.190	44111
334.278	17026
334.365	4503
334.452	3118
334.540	1914
334.627	2229
334.715	4102
334.802	6047
334.889	33075
334.977	48122
335.064	6022
335.151	2201
335.239	3025
335.326	4553
335.413	18418
335.501	38636
335.588	5793
335.675	2615
335.762	4360
335.850	9049
335.937	4238
336.024	8261
336.111	43783
336.199	25804
336.286	4471
336.373	1691
336.460	1262
336.547	1640
336.635	2730
336.722	2049
336.809	2822
336.896	3000
336.983	10603
337.070	35698
337.157	51119
337.245	29977
337.332	26531
337.419	4455
337.506	2718
337.593	3823
337.680	9482
337.767	42538
337.854	12011
337.941	12329
338.028	10926
338.115	4914
338.202	5038
338.289	8204
338.376	27666
338.463	13047
338.550	19399
338.637	29989
338.724	6430
338.811	12168
338.898	3152
338.984	2094
339.071	3653
339.158	2598
339.245	5443
339.332	5266
339.419	5571
339.506	7920
339.593	1611
339.679	1746
339.766	978
339.853	1653
339.940	3572
340.027	1951
340.113	2143
340.200	2554
340.287	1816
340.374	2493
340.460	3217
340.547	2287
340.634	2569
340.720	7575
340.807	6751
340.894	1964
340.980	1579
341.067	1374
341.154	2443
341.240	2119
341.327	4199
341.414	2157
341.500	1771
341.587	2007
341.674	1706
341.760	2146
341.847	3274
341.933	1937
342.020	356
342.106	1098
342.193	1121
342.279	1824
342.366	1839
342.452	2745
342.539	1958
342.625	3098
342.712	9380
342.798	4511
342.885	2296
342.971	505
343.058	1553
343.144	740
343.230	1441
343.317	1354
343.403	502
343.490	850
343.576	949
343.662	1235
343.749	1103
343.835	1943
343.921	2810
344.008	14826
344.094	47660
344.180	14178
344.267	2753
344.353	11348
344.439	19182
344.525	5689
344.612	4125
344.698	3595
344.784	2220
344.870	1119
344.957	852
345.043	2410
345.129	1230
345.215	2741
345.301	2194
345.387	889
345.474	1597
345.560	1385
345.646	2059
345.732	1362
345.818	2511
345.904	1545
345.990	1691
346.076	1452
346.162	4761
346.249	1828
346.335	1550
346.421	1304
346.507	3549
346.593	18971
346.679	6771
346.765	2758
346.851	1539
346.937	1266
347.023	1969
347.108	1385
347.194	1590
347.280	1795
347.366	1666
347.452	3947
347.538	20670
347.624	17531
347.710	15702
347.796	2928
347.882	2155
347.967	1251
348.053	3780
348.139	2797
348.225	1724
348.311	1379
348.397	901
348.482	1373
348.568	1761
348.654	1199
348.740	706
348.825	875
348.911	2273
348.997	7132
349.083	24236
349.168	5842
349.254	2123
349.340	1555
349.425	1305
349.511	871
349.597	2025
349.682	3330
349.768	11468
349.854	7941
349.939	2292
350.025	802
350.110	1723
350.196	1301
350.282	864
350.367	1281
350.453	1726
350.538	3206
350.624	1629
350.709	2200
350.795	1384
350.880	1158
350.966	1283
351.051	2711
351.137	2605
351.222	1501
351.308	2863
351.393	9676
351.479	3870
351.564	1641
351.649	1273
351.735	1048
351.820	1930
351.906	858
351.991	704
352.076	4571
352.162	11576
352.247	2340
352.332	1159
352.418	1848
352.503	3094
352.588	11110
352.673	12814
352.759	2417
352.844	1323
352.929	1757
353.014	2369
353.100	1308
353.185	1608
353.270	2441
353.355	3521
353.441	852
353.526	1689
353.611	1964
353.696	3681
353.781	2265
353.866	1636
353.952	1431
354.037	1936
354.122	5552
354.207	5138
354.292	2304
354.377	968
354.462	1379
354.547	1234
354.632	1511
354.717	3007
354.802	2477
354.887	1246
354.972	835
355.057	637
355.142	910
355.227	1371
355.312	1486
355.397	2692
355.482	8429
355.567	5955
355.652	3564
355.737	3922
355.822	10916
355.907	14339
355.991	2038
356.076	1451
356.161	1016
356.246	544
356.331	919
356.416	2676
356.501	18511
356.585	30102
356.670	3877
356.755	2707
356.840	2420
356.924	8800
357.009	49322
357.094	26954
357.179	4041
357.263	2946
357.348	1652
357.433	3111
357.517	2080
357.602	1835
357.687	1519
357.771	3055
357.856	10226
357.941	8685
358.025	7945
358.110	47358
358.195	31206
358.279	5052
358.364	2115
358.448	6315
358.533	22399
358.617	18472
358.702	17686
358.787	8083
358.871	2487
358.956	3188
359.040	831
359.125	1248
359.209	1284
359.294	4154
359.378	9568
359.462	3721
359.547	1776
359.631	1985
359.716	781
359.800	1596
359.885	4196
359.969	1860
360.053	1505
360.138	1155
360.222	1315
360.306	2997
360.391	3175
360.475	4069
360.559	12441
360.644	8104
360.728	7707
360.812	8460
360.896	36890
360.981	18307
361.065	11308
361.149	2681
361.233	2662
361.318	1617
361.402	1762
361.486	1847
361.570	950
361.654	2306
361.739	2737
361.823	15363
361.907	38969
361.991	7901
362.075	3153
362.159	5436
362.243	5236
362.327	2898
362.411	4422
362.495	3203
362.580	1740
362.664	1679
362.748	1734
362.832	1188
362.916	1244
363.000	5493
363.084	17451
363.168	42101
363.252	12471
363.336	3373
363.420	4677
363.503	24228
363.587	47616
363.671	7451
363.755	2475
363.839	3820
363.923	2552
364.007	3127
364.091	4411
364.175	6823
364.258	46614
364.342	33087
364.426	12866
364.510	8791
364.594	6263
364.677	6720
364.761	25999
364.845	28107
364.929	5929
365.013	5139
365.096	3370
365.180	5052
365.264	8008
365.347	52019
365.431	31183
365.515	8448
365.598	1957
365.682	2916
365.766	4945
365.849	10430
365.933	2443
366.017	4541
366.100	5337
366.184	1016
366.267	1649
366.351	1405
366.435	1460
366.518	1092
366.602	1248
366.685	1294
366.769	549
366.852	3602
366.936	8337
367.019	2959
367.103	3127
367.186	10893
367.270	3265
367.353	582
367.436	1540
367.520	7
367.603	253
367.687	1611
367.770	2967
367.853	3052
367.937	6707
368.020	17915
368.104	3798
368.187	2260
368.270	4390
368.353	3983
368.437	5521
368.520	18636
368.603	11841
368.687	8336
368.770	21607
368.853	6278
368.936	4507
369.020	9050
369.103	2606
369.186	899
369.269	1281
369.352	2292
369.436	4183
369.519	3103
369.602	1132
369.685	2315
369.768	2118
369.851	1902
369.934	618
370.018	1259
370.101	2069
370.184	3431
370.267	3141
370.350	3196
370.433	6774
370.516	14215
370.599	22623
370.682	5015
370.765	9143
370.848	10919
370.931	24744
371.014	15360
371.097	2597
371.180	1716
371.263	1172
371.346	972
371.429	1570
371.511	980
371.594	2129
371.677	4680
371.760	10453
371.843	4553
371.926	12309
372.009	44271
372.091	18896
372.174	7641
372.257	25303
372.340	14204
372.423	8329
372.505	15341
372.588	6272
372.671	4760
372.754	21085
372.836	15555
372.919	11554
373.002	37080
373.085	11074
373.167	4065
373.250	6642
373.332	23140
373.415	23869
373.498	58852
373.580	27911
373.663	19042
373.746	40359
373.828	10266
373.911	4659
373.993	4204
374.076	26080
374.159	37454
374.241	8314
374.324	17556
374.406	15994
374.489	12005
374.571	50108
374.654	28043
374.736	7938
374.819	28201
374.901	40427
374.983	52247
375.066	11492
375.148	3762
375.231	16538
375.313	53246
375.395	22455
375.478	4897
375.560	2583
375.643	2573
375.725	6381
375.807	34945
375.890	38848
375.972	20189
376.054	7666
376.136	15886
376.219	8364
376.301	7267
376.383	33264
376.465	16865
376.548	6311
376.630	7295
376.712	27038
376.794	17517
376.877	2221
376.959	1835
377.041	1549
377.123	6030
377.205	11663
377.287	2219
377.369	1047
377.452	1314
377.534	924
377.616	1084
377.698	719
377.780	508
377.862	67
377.944	2334
378.026	539
378.108	1233
378.190	920
378.272	1269
378.354	686
378.436	943
378.518	2245
378.600	13650
378.682	10706
378.764	10839
378.846	13012
378.928	4223
379.010	4544
379.091	2906
379.173	925
379.255	793
379.337	1581
379.419	4189
379.501	19285
379.583	10882
379.664	2165
379.746	3289
379.828	11043
379.910	16110
379.991	18432
380.073	3818
380.155	2095
380.237	1241
380.318	438
380.400	720
380.482	1809
380.564	4118
380.645	2928
380.727	3123
380.809	2299
380.890	1704
380.972	1220
381.053	1269
381.135	2025
381.217	3184
381.298	13074
381.380	7475
381.461	3946
381.543	20576
381.624	38497
381.706	7901
381.787	3505
381.869	4713
381.951	5987
382.032	39075
382.113	36138
382.195	7165
382.276	4678
382.358	5770
382.439	22584
382.521	26122
382.602	45669
382.684	21002
382.765	28447
382.846	31294
382.928	23793
383.009	15192
383.090	7753
383.172	25140
383.253	57116
383.334	25124
383.416	34602
383.497	23279
383.578	4841
383.659	7990
383.741	21182
383.822	79968
383.903	53453
383.984	17124
384.066	42681
384.147	32656
384.228	6939
384.309	3636
384.390	2937
384.471	2004
384.553	2845
384.634	3727
384.715	4311
384.796	2627
384.877	1827
384.958	8969
385.039	15868
385.120	6361
385.201	3896
385.282	3871
385.363	5277
385.444	3986
385.525	3343
385.606	16717
385.687	22537
385.768	5168
385.849	5159
385.930	14861
386.011	40593
386.092	14359
386.173	3191
386.254	2783
386.335	2339
386.416	2672
386.496	5669
386.577	14496
386.658	8158
386.739	4592
386.820	5121
386.901	4444
386.981	3831
387.062	1945
387.143	2626
387.224	9862
387.304	15266
387.385	5320
387.466	3093
387.547	6333
387.627	3604
387.708	3690
387.789	18953
387.869	33150
387.950	11332
388.031	1472
388.111	1880
388.192	8495
388.273	15920
388.353	9369
388.434	2758
388.514	3155
388.595	17975
388.676	32360
388.756	15853
388.837	10666
388.917	8710
388.998	2063
389.078	2285
389.159	1718
389.239	883
389.320	3343
389.400	1428
389.480	5211
389.561	16254
389.641	11272
389.722	2364
389.802	3461
389.883	5556
389.963	17903
390.043	16416
390.124	5825
390.204	4583
390.284	12825
390.365	10436
390.445	15838
390.525	37694
390.605	31707
390.686	10086
390.766	3884
390.846	2009
390.927	1308
391.007	1110
391.087	2782
391.167	1972
391.247	1392
391.328	3475
391.408	7456
391.488	7091
391.568	1323
391.648	1634
391.728	2503
391.808	2809
391.888	2157
391.969	6364
392.049	14643
392.129	8839
392.209	6457
392.289	16487
392.369	12231
392.449	15096
392.529	10468
392.609	4588
392.689	4478
392.769	14034
392.849	17207
392.929	9802
393.009	28210
393.089	21231
393.169	7228
393.248	13747
393.328	92608
393.408	154862
393.488	37828
393.568	7732
393.648	4571
393.728	2979
393.807	2700
393.887	2960
393.967	3113
394.047	3322
394.127	4866
394.206	8195
394.286	22359
394.366	119593
394.446	189110
394.525	55912
394.605	12497
394.685	7800
394.764	17376
394.844	34418
394.924	29326
395.003	6769
395.083	3897
395.163	4040
395.242	3027
395.322	3572
395.402	2037
395.481	4555
395.561	8702
395.640	36069
395.720	24834
395.799	35496
395.879	41948
395.958	15652
396.038	36605
396.117	159015
396.197	240477
396.276	93279
396.356	28962
396.435	19456
396.515	12134
396.594	6383
396.673	7146
396.753	19163
396.832	100425
396.912	105822
396.991	25010
397.070	6037
397.150	2625
397.229	3352
397.308	2378
397.388	4446
397.467	3205
397.546	2136
397.625	763
397.705	2486
397.784	2633
397.863	1277
397.942	857
398.022	1996
398.101	6977
398.180	36633
398.259	27131
398.338	5989
398.417	1912
398.497	2003
398.576	2942
398.655	488
398.734	1729
398.813	1382
398.892	5811
398.971	36738
399.050	27443
399.129	2841
399.208	1417
399.287	2006
399.366	993
399.445	1491
399.524	1385
399.603	462
399.682	1667
399.761	5359
399.840	33468
399.919	40524
399.998	6145
400.077	760
400.156	35
400.235	2746
400.313	1473
400.392	1140
400.471	5294
400.550	11668
400.629	3285
400.708	2013
400.786	1425
400.865	8434
400.944	12033
401.023	5629
401.102	1538
401.180	1196
401.259	1091
401.338	855
401.416	2400
401.495	1106
401.574	2792
401.652	1383
401.731	2350
401.810	2206
401.888	861
401.967	-93
402.046	3
402.124	1633
402.203	1970
402.281	1475
402.360	1603
402.438	10495
402.517	10979
402.596	2339
402.674	2438
402.753	1786
402.831	666
402.910	1271
402.988	2444
403.066	12221
403.145	10730
403.223	3751
403.302	8541
403.380	9171
403.459	7530
403.537	4408
403.615	2178
403.694	679
403.772	607
403.850	602
403.929	587
404.007	-598
404.085	2606
404.164	531
404.242	900
404.320	3064
404.398	14425
404.477	17753
404.555	29535
404.633	38835
404.711	14838
404.789	9455
404.868	2459
404.946	1099
405.024	520
405.102	-19
405.180	-77
405.258	-475
405.336	855
405.415	165
405.493	2913
405.571	2800
405.649	58
405.727	-419
405.805	2506
405.883	1408
405.961	1158
406.039	3682
406.117	996
406.195	1593
406.273	3071
406.351	25950
406.429	24525
406.507	5334
406.585	1772
406.663	489
406.740	1017
406.818	96
406.896	276
406.974	1155
407.052	386
407.130	11238
407.208	26314
407.285	7637
407.363	813
407.441	288
407.519	112
407.596	1008
407.674	1775
407.752	6538
407.830	12808
407.907	8243
407.985	1213
408.063	1060
408.141	-64
408.218	2749
408.296	2088
408.373	344
408.451	991
408.529	470
408.606	-421
408.684	-12
408.762	444
408.839	4
408.917	-155
408.994	161
409.072	-81
409.149	116
409.227	127
409.304	1257
409.382	391
409.459	308
409.537	1026
409.614	648
409.692	859
409.769	-120
409.846	701
409.924	1770
410.001	202
410.079	876
410.156	1092
410.233	490
410.311	709
410.388	-69
410.465	558
410.543	669
410.620	797
410.697	475
410.775	789
410.852	-863
410.929	1020
411.006	1116
411.083	-53
411.161	1751
411.238	3947
411.315	3261
411.392	971
411.469	778
411.547	663
411.624	373
411.701	484
411.778	315
411.855	788
411.932	-66
412.009	65
412.086	1235
412.163	1402
412.240	928
412.317	2022
412.394	2437
412.471	1028
412.548	102
412.625	651
412.702	383
412.779	1810
412.856	1683
412.933	261
413.010	354
413.087	664
413.164	4203
413.241	9302
413.318	1684
413.395	808
413.471	1094
413.548	1399
413.625	780
413.702	414
413.779	1885
413.855	128
413.932	-1095
414.009	-357
414.086	-109
414.162	72
414.239	1126
414.316	3624
414.393	12447
414.469	6142
414.546	742
414.623	260
414.699	-106
414.776	159
414.853	450
414.929	30
415.006	326
415.082	1975
415.159	1318
415.236	1149
415.312	452
415.389	1346
415.465	268
415.542	710
415.618	-693
415.695	1118
415.771	63
415.848	315
415.924	-37
416.000	1075
416.077	327
416.153	-44
416.230	-720
416.306	-579
416.383	-158
416.459	1009
416.535	-498
416.612	-28
416.688	-41
416.764	-329
416.841	-368
416.917	593
416.993	689
417.069	596
417.146	603
417.222	1282
417.298	879
417.374	-806
417.451	263
417.527	240
417.603	125
417.679	1232
417.755	-6
417.831	-67
417.908	-105
417.984	-482
418.060	-554
418.136	161
418.212	1319
418.288	406
418.364	792
418.440	217
418.516	836
418.592	2290
418.668	3376
418.744	2530
418.820	2652
418.896	691
418.972	-331
419.048	-67
419.124	1281
419.200	203
419.276	367
419.352	-101
419.428	98
419.504	-336
419.579	-155
419.655	-32
419.731	437
419.807	856
419.883	2647
419.959	3190
420.034	1169
420.110	1128
420.186	5554
420.262	8004
420.337	1509
420.413	272
420.489	212
420.565	653
420.640	-337
420.716	727
420.792	-818
420.867	718
420.943	-894
421.019	42
421.094	11
421.170	41
421.245	-694
421.321	316
421.397	-389
421.472	967
421.548	2651
421.623	3081
421.699	1033
421.774	1157
421.850	-142
421.925	473
422.001	783
422.076	392
422.152	-258
422.227	1150
422.302	2167
422.378	2237
422.453	3815
422.529	9927
422.604	42463
422.679	125942
422.755	94067
422.830	23385
422.905	6864
422.981	3147
423.056	1510
423.131	1671
423.207	1299
423.282	218
423.357	1984
423.432	1648
423.508	397
423.583	1914
423.658	2200
423.733	354
423.808	597
423.883	1367
423.959	541
424.034	-63
424.109	445
424.184	-52
424.259	-748
424.334	-639
424.409	-956
424.484	-562
424.559	-274
424.634	-394
424.709	-515
424.784	639
424.859	42
424.934	-224
425.009	2689
425.084	8161
425.159	3769
425.234	814
425.309	-686
425.384	889
425.459	3993
425.534	1775
425.609	63
425.683	14
425.758	-698
425.833	-225
425.908	1013
425.983	884
426.058	6920
426.132	5572
426.207	1111
426.282	2786
426.357	3135
426.431	597
426.506	44
426.581	703
426.655	366
426.730	-375
426.805	-467
426.879	-581
426.954	95
427.029	1042
427.103	4725
427.178	21187
427.253	15690
427.327	2011
427.402	1133
427.476	7368
427.551	4315
427.625	442
427.700	1493
427.774	473
427.849	869
427.923	42
427.998	-525
428.072	-114
428.147	1604
428.221	4278
428.296	15447
428.370	11471
428.444	1198
428.519	3183
428.593	7774
428.667	8543
428.742	8142
428.816	8164
428.890	12706
428.965	24944
429.039	10566
429.113	10964
429.188	4918
429.262	577
429.336	311
429.410	2590
429.485	4099
429.559	5423
429.633	7344
429.707	1429
429.781	1828
429.855	14821
429.930	29129
430.004	18483
430.078	35928
430.152	36494
430.226	22263
430.300	31817
430.374	5825
430.448	1900
430.522	6339
430.596	34194
430.670	26386
430.744	14908
430.818	36176
430.892	11817
430.966	773
431.040	910
431.114	-582
431.188	-294
431.262	24
431.336	-186
431.410	2101
431.484	9563
431.557	7730
431.631	75
431.705	-411
431.779	733
431.853	11278
431.927	13845
432.000	1703
432.074	563
432.148	1102
432.222	1605
432.295	424
432.369	-219
432.443	588
432.516	5631
432.590	24689
432.664	15328
432.737	999
432.811	-499
432.885	-904
432.958	-682
433.032	313
433.106	-39
433.179	-608
433.253	-506
433.326	-836
433.400	-321
433.473	-657
433.547	-1066
433.620	-492
433.694	-355
433.767	169
433.841	-418
433.914	-137
433.988	35
434.061	-255
434.134	-405
434.208	-622
434.281	-872
434.355	-704
434.428	438
434.501	-412
434.575	-457
434.648	-618
434.721	-343
434.795	-950
434.868	-217
434.941	-649
435.014	-1147
435.088	-359
435.161	-832
435.234	307
435.307	414
435.381	783
435.454	-738
435.527	-108
435.600	130
435.673	-491
435.746	-362
435.819	-1059
435.892	13
435.966	-929
436.039	-456
436.112	898
436.185	277
436.258	-398
436.331	-563
436.404	-957
436.477	-21
436.550	-522
436.623	-863
436.696	-396
436.769	-371
436.842	-460
436.915	-215
436.987	581
437.060	-97
437.133	-1046
437.206	-635
437.279	145
437.352	-362
437.425	-373
437.498	-132
437.570	281
437.643	769
437.716	-227
437.789	104
437.861	72
437.934	2851
438.007	1568
438.080	411
438.152	-715
438.225	572
438.298	6183
438.370	35463
438.443	23291
438.516	4003
438.588	756
438.661	-439
438.734	-311
438.806	-12
438.879	140
438.951	448
439.024	1128
439.096	287
439.169	-817
439.241	412
439.314	-1399
439.386	333
439.459	1371
439.531	2176
439.604	242
439.676	583
439.749	-944
439.821	-786
439.893	-122
439.966	518
440.038	-673
440.110	588
440.183	-373
440.255	-964
440.327	134
440.400	3118
440.472	19361
440.544	21471
440.617	3294
440.689	999
440.761	1093
440.833	1470
440.905	1736
440.978	-540
441.050	-515
441.122	51
441.194	-973
441.266	-608
441.338	-1070
441.411	254
441.483	3393
441.555	9602
441.627	3019
441.699	994
441.771	2427
441.843	615
441.915	-58
441.987	-5
442.059	-657
442.131	261
442.203	1226
442.275	1246
442.347	1510
442.419	600
442.491	1713
442.563	11377
442.635	9799
442.706	7747
442.778	9241
442.850	1127
442.922	-851
442.994	113
443.066	909
443.137	822
443.209	339
443.281	163
443.353	1051
443.425	5606
443.496	20354
443.568	27122
443.640	10534
443.711	1573
443.783	275
443.855	539
443.926	-435
443.998	-110
444.070	453
444.141	625
444.213	467
444.285	574
444.356	694
444.428	1910
444.499	12
444.571	-1046
444.642	-474
444.714	-197
444.785	518
444.857	1786
444.928	6719
445.000	5299
445.071	2991
445.143	5835
445.214	1736
445.285	1343
445.357	10115
445.428	17085
445.500	42812
445.571	39711
445.642	17000
445.714	7954
445.785	13421
445.856	4293
445.928	707
445.999	881
446.070	252
446.141	-314
446.213	1336
446.284	519
446.355	490
446.426	608
446.497	-98
446.569	1245
446.640	2647
446.711	1494
446.782	-251
446.853	82
446.924	560
446.995	67
447.066	171
447.138	1612
447.209	1907
447.280	-612
447.351	-930
447.422	-511
447.493	-327
447.564	464
447.635	-269
447.706	-167
447.777	-141
447.847	-785
447.918	-394
447.989	1226
448.060	1313
448.131	4197
448.202	4743
448.273	2396
448.344	1248
448.414	-297
448.485	-558
448.556	-316
448.627	-745
448.698	472
448.768	-884
448.839	-861
448.910	1624
448.981	2480
449.051	-295
449.122	-632
449.193	-1000
449.263	-686
449.334	-633
449.405	-260
449.475	269
449.546	1709
449.616	2410
449.687	3411
449.758	177
449.828	-297
449.899	-229
449.969	358
450.040	302
450.110	216
450.181	544
450.251	452
450.322	-938
450.392	334
450.463	-52
450.533	-250
450.604	98
450.674	-310
450.744	576
450.815	573
450.885	393
450.955	32
451.026	-743
451.096	-252
451.166	250
451.237	1462
451.307	8952
451.377	4999
451.447	66
451.518	191
451.588	-403
451.658	-13
451.728	336
451.799	6216
451.869	13090
451.939	3796
452.009	330
452.079	-782
452.149	-228
452.219	772
452.289	8806
452.360	10983
452.430	1857
452.500	-52
452.570	270
452.640	1763
452.710	3166
452.780	10067
452.850	4304
452.920	2793
452.990	578
453.060	65
453.129	224
453.199	1169
453.269	5467
453.339	26662
453.409	47897
453.479	32792
453.549	55844
453.619	66556
453.688	36776
453.758	5354
453.828	984
453.898	465
453.968	561
454.037	632
454.087	-62
454.107	-354
454.168	-17
454.177	28
454.247	-127
454.249	-118
454.316	-50
454.330	-72
454.386	-195
454.411	1125
454.456	3258
454.492	6056
454.525	8556
454.574	4916
454.595	3332
454.655	394
454.665	-74
454.734	222
454.736	265
454.804	1531
454.817	2516
454.873	6305
454.898	8307
454.943	11892
454.979	7782
455.013	4071
455.060	1692
455.082	700
455.141	722
455.152	729
455.221	4258
455.222	4405
455.291	14541
455.303	13820
455.360	10315
455.384	12299
455.430	15072
455.465	13670
455.499	12490
455.546	9463
455.569	7985
455.627	7084
455.638	6996
455.707	1232
455.708	1232
455.777	261
455.789	214
455.846	42
455.869	19
455.916	-107
455.950	-429
455.985	-672
456.031	17
456.054	294
456.112	64
456.124	38
456.193	-144
456.193	-151
456.262	-124
456.274	-38
456.332	408
456.355	631
456.401	896
456.436	406
456.470	-90
456.516	-421
456.540	-549
456.597	-785
456.609	-828
456.678	-333
456.678	-338
456.747	-812
456.759	-702
456.817	-132
456.840	-342
456.886	-772
456.920	-801
456.955	-823
457.001	-602
457.024	-501
457.082	-119
457.093	-0
457.162	821
457.163	831
457.232	945
457.243	855
457.301	589
457.324	291
457.370	-321
457.405	-306
457.439	-184
457.485	-121
457.508	-169
457.566	8
457.577	98
457.646	547
457.647	551
457.715	97
457.727	44
457.784	36
457.808	170
457.853	312
457.889	1005
457.922	1461
457.969	777
457.991	580
458.050	698
458.060	761
458.129	1335
458.130	1367
458.198	1990
458.211	1815
458.267	781
458.292	446
458.336	273
458.372	205
458.405	205
458.453	27
458.474	82
458.533	1409
458.543	1586
458.611	2786
458.614	2856
458.680	3013
458.694	2452
458.749	1096
458.775	784
458.818	101
458.855	114
458.887	332
458.936	-62
458.955	-253
459.016	121
459.024	188
459.093	940
459.097	926
459.162	327
459.177	342
459.230	405
459.257	319
459.299	361
459.338	553
459.368	608
459.418	849
459.437	862
459.499	792
459.505	798
459.574	-150
459.579	-122
459.643	83
459.659	-64
459.711	-141
459.740	117
459.780	228
459.820	236
459.849	290
459.900	512
459.917	613
459.981	529
459.986	494
460.054	519
460.061	506
460.123	771
460.141	763
460.191	692
460.222	691
460.260	633
460.302	717
460.328	778
460.382	1195
460.397	1154
460.462	722
460.465	759
460.534	1038
460.543	1129
460.602	2832
460.623	3441
460.671	6931
460.703	10966
460.739	11308
460.783	11806
460.808	11519
460.864	4067
460.876	3264
460.944	1096
460.945	1060
461.013	146
461.024	65
461.081	286
461.104	285
461.150	263
461.184	502
461.218	726
461.264	671
461.286	491
461.345	314
461.355	379
461.423	317
461.425	328
461.491	637
461.505	747
461.559	2137
461.585	2696
461.628	4548
461.665	6480
461.696	7577
461.745	11074
461.764	10326
461.825	4729
461.832	4690
461.901	1903
461.905	1891
461.969	763
461.985	535
462.037	761
462.065	903
462.105	959
462.145	967
462.173	1618
462.225	2997
462.241	3564
462.305	6506
462.310	6371
462.378	5221
462.385	4694
462.446	2028
462.465	1392
462.514	849
462.545	979
462.582	1008
462.625	817
462.650	532
462.705	423
462.718	647
462.785	1452
462.786	1462
462.854	1971
462.865	2110
462.922	3022
462.945	3536
462.990	2809
463.025	1568
463.058	1101
463.104	496
463.126	257
463.184	130
463.194	237
463.262	728
463.264	755
463.330	948
463.344	905
463.398	1040
463.424	1180
463.466	1185
463.504	1413
463.533	1521
463.583	1255
463.601	1278
463.663	1648
463.669	1688
463.737	1873
463.743	1926
463.805	3624
463.823	4081
463.873	6516
463.903	8044
463.940	9064
463.982	11050
464.008	9501
464.062	4689
464.076	4348
464.142	1412
464.144	1362
464.211	880
464.221	844
464.279	907
464.301	954
464.347	1251
464.381	1450
464.414	1743
464.461	2245
464.482	2393
464.540	2651
464.550	2511
464.617	1539
464.620	1499
464.685	1817
464.699	1920
464.753	2302
464.779	2426
464.820	2729
464.859	3135
464.888	3029
464.938	2783
464.956	2900
465.018	3276
465.023	3267
465.091	3189
465.098	3157
465.158	2660
465.177	2498
465.226	2331
465.257	2285
465.293	2518
465.336	2725
465.361	2707
465.416	2807
465.428	3143
465.495	4771
465.496	4799
465.563	7977
465.575	8573
465.631	11589
465.654	13116
465.698	9020
465.734	4963
465.765	4209
465.813	2760
465.833	2581
465.893	2589
465.900	2526
465.968	2087
465.972	2045
466.035	2016
466.052	2025
466.102	2531
466.131	2834
466.170	2572
466.210	2268
466.237	2611
466.290	3259
466.304	3225
466.369	3042
466.372	3044
466.439	3004
466.449	2989
466.506	3695
466.528	3958
466.573	4982
466.607	5752
466.641	8852
466.687	13134
466.708	14851
466.766	19742
466.775	18352
466.842	7748
466.845	7228
466.909	4929
466.925	4418
466.977	4361
467.004	4395
467.044	4838
467.083	5286
467.111	5019
467.163	4491
467.178	4730
467.242	5713
467.245	5674
467.312	4756
467.321	4631
467.379	4358
467.400	4250
467.446	4926
467.480	5410
467.559	4405
467.638	3380
467.717	4296
467.796	3876
467.875	4016
467.955	3836
468.034	6570
468.113	15910
468.192	23672
468.271	6577
468.350	3444
468.429	3369
468.508	3898
468.588	2522
468.667	2911
468.746	3345
468.825	3687
468.904	2491
468.983	4021
469.062	5597
469.141	7336
469.220	3068
469.299	3730
469.378	2690
469.456	3325
469.535	3777
469.614	3363
469.693	3094
469.772	4737
469.851	5882
469.930	5009
470.009	3099
470.088	3127
470.166	2627
470.245	3892
470.324	3388
470.403	3125
470.482	2857
470.560	2468
470.639	2832
470.718	3705
470.797	2926
470.875	3126
470.954	4917
471.033	6108
471.111	2948
471.190	2278
471.269	1681
471.347	2908
471.426	2139
471.505	3885
471.583	3943
471.662	3308
471.740	2820
471.819	2822
471.898	2822
471.976	3152
472.055	1855
472.133	3391
472.212	3763
472.290	5455
472.369	2813
472.447	2437
472.526	1424
472.604	2663
472.683	2224
472.761	2871
472.839	3170
472.918	2862
472.996	2061
473.075	3697
473.153	2741
473.231	2299
473.310	2831
473.388	3398
473.466	1675
473.545	2972
473.623	3546
473.701	1989
473.780	2629
473.858	2674
473.936	3541
474.014	2245
474.093	2546
474.171	4515
474.249	5919
474.327	5499
474.405	1999
474.484	3312
474.562	1991
474.640	2409
474.718	2406
474.796	2646
474.874	3655
474.952	1641
475.030	1720
475.108	2216
475.187	2822
475.265	3570
475.343	3744
475.421	3899
475.499	2509
475.577	2833
475.655	3410
475.733	6709
475.811	13840
475.889	12871
475.966	9718
476.044	2966
476.122	3050
476.200	3374
476.278	2190
476.356	2233
476.434	2496
476.512	2624
476.590	3032
476.667	3914
476.745	1934
476.823	2688
476.901	2423
476.979	3321
477.056	2402
477.134	3276
477.212	2647
477.290	1816
477.367	1723
477.445	2327
477.523	1851
477.601	2722
477.678	1657
477.756	2873
477.834	3625
477.911	2203
477.989	1770
478.066	2248
478.144	3026
478.222	2167
478.299	3257
478.377	2395
478.454	2202
478.532	2371
478.609	1599
478.687	2166
478.764	2450
478.842	2624
478.919	2060
478.997	2395
479.074	2161
479.152	2655
479.229	2969
479.307	1294
479.384	1706
479.461	1677
479.539	1635
479.616	2551
479.694	1215
479.771	2038
479.848	2273
479.926	3594
480.003	4181
480.080	1684
480.157	1565
480.235	1665
480.312	1788
480.389	1967
480.467	4291
480.544	5676
480.621	2954
480.698	2724
480.775	2569
480.853	3798
480.930	2902
481.007	3274
481.084	2999
481.161	2937
481.238	3159
481.315	2252
481.392	1320
481.470	2444
481.547	1712
481.624	2172
481.701	929
481.778	1888
481.855	2221
481.932	3633
482.009	6708
482.086	5779
482.163	1756
482.240	1771
482.317	2659
482.393	2570
482.470	1345
482.547	1821
482.624	1346
482.701	1858
482.778	1867
482.855	1250
482.932	1757
483.009	1556
483.085	1911
483.162	2912
483.239	2246
483.316	2087
483.393	1767
483.469	1715
483.546	1681
483.623	3239
483.699	1116
483.776	2513
483.853	1809
483.930	3880
484.006	10956
484.083	22817
484.160	10312
484.236	13035
484.313	10870
484.389	7826
484.466	6946
484.543	6467
484.619	5931
484.696	6806
484.772	6985
484.849	7978
484.925	5712
485.002	6691
485.078	6553
485.155	6624
485.231	5580
485.308	5411
485.384	6487
485.461	7347
485.537	11164
485.614	15903
485.690	6665
485.766	5469
485.843	5740
485.919	6328
485.995	6391
486.072	4535
486.148	4707
486.224	4740
486.301	5379
486.377	6919
486.453	4702
486.530	5648
486.606	8262
486.682	8887
486.758	9771
486.835	12447
486.911	8427
486.987	13991
487.063	12943
487.139	12358
487.215	9269
487.292	6247
487.368	5252
487.444	5288
487.520	6729
487.596	5792
487.672	6412
487.748	9974
487.824	13351
487.900	7486
487.976	5068
488.052	5823
488.128	6862
488.204	5404
488.280	5937
488.356	6562
488.432	12923
488.508	23046
488.584	7244
488.660	4077
488.736	3756
488.812	4740
488.888	5670
488.964	6751
489.039	9744
489.115	14348
489.191	10438
489.267	5519
489.343	4046
489.418	4442
489.494	3787
489.570	3119
489.646	3838
489.722	4497
489.797	4786
489.873	6511
489.949	15074
490.024	15253
490.100	4189
490.176	3900
490.251	4924
490.327	5209
490.403	3452
490.478	3311
490.554	2319
490.629	3898
490.705	3200
490.781	3417
490.856	3647
490.932	3492
491.007	3094
491.083	3589
491.158	3150
491.234	4976
491.309	11356
491.385	13253
491.460	3571
491.536	4112
491.611	3207
491.686	3212
491.762	3784
491.837	6139
491.913	10679
491.988	14607
492.063	19080
492.139	7068
492.214	6284
492.289	3059
492.365	1955
492.440	3183
492.515	3397
492.590	3669
492.666	2479
492.741	3865
492.816	7356
492.891	3905
492.967	3131
493.042	2618
493.117	2333
493.192	3305
493.267	5402
493.342	20374
493.418	35250
493.493	6235
493.568	2057
493.643	2838
493.718	2955
493.793	5146
493.868	4857
493.943	3232
494.018	2227
494.093	2886
494.168	2366
494.243	2201
494.318	988
494.393	2303
494.468	1653
494.543	2077
494.618	1652
494.693	2209
494.768	2086
494.842	1937
494.917	1338
494.992	1344
495.067	1955
495.142	1780
495.217	1347
495.292	1495
495.366	2034
495.441	2422
495.516	3237
495.591	4814
495.665	10533
495.740	27874
495.815	13410
495.890	3911
495.964	2516
496.039	3888
496.114	2476
496.188	3660
496.263	2869
496.338	3113
496.412	3937
496.487	4432
496.561	2787
496.636	4311
496.710	4398
496.785	4039
496.860	4849
496.934	3641
497.009	2934
497.083	3768
497.158	3414
497.232	5401
497.307	5239
497.381	4634
497.455	5854
497.530	8627
497.604	5998
497.679	6029
497.753	10177
497.827	13821
497.902	12819
497.976	15670
498.050	26191
498.125	104830
498.199	135952
498.273	21423
498.348	14522
498.422	12055
498.496	9756
498.570	8316
498.645	7929
498.719	6760
498.793	8615
498.867	11328
498.941	16053
499.016	36373
499.090	126413
499.164	56287
499.238	6270
499.312	3394
499.386	3712
499.460	4414
499.534	3520
499.609	5090
499.683	8880
499.757	9406
499.831	15486
499.905	72079
499.979	89072
500.053	12550
500.127	9905
500.201	5243
500.275	2978
500.349	3637
500.422	4499
500.496	5820
500.570	9993
500.644	33061
500.718	86809
500.792	23433
500.866	4143
500.940	5764
501.013	5325
501.087	4661
501.161	6610
501.235	8949
501.309	21400
501.382	66333
501.456	73150
501.530	12690
501.603	22406
501.677	10627
501.751	2516
501.825	4072
501.898	7748
501.972	26051
502.046	21692
502.119	4297
502.193	9286
502.266	28737
502.340	17481
502.413	10821
502.487	26216
502.561	16550
502.634	4450
502.708	2609
502.781	2134
502.855	2043
502.928	1107
503.002	1536
503.075	497
503.149	2879
503.222	2287
503.295	3268
503.369	3488
503.442	5371
503.516	15917
503.589	51856
503.662	39482
503.736	9488
503.809	21761
503.882	21294
503.956	24192
504.029	28216
504.102	7411
504.175	7734
504.249	3265
504.322	3022
504.395	3174
504.468	2352
504.542	1892
504.615	1703
504.688	1324
504.761	837
504.834	1859
504.907	2224
504.980	3299
505.053	1171
505.127	1007
505.200	4271
505.273	4433
505.346	2692
505.419	1023
505.492	1955
505.565	884
505.638	1022
505.711	437
505.784	719
505.857	11
505.930	2572
506.003	264
506.076	1958
506.149	2384
506.221	2932
506.294	2522
506.367	8078
506.440	35310
506.513	24365
506.586	3658
506.659	1903
506.731	1103
506.804	1527
506.877	1878
506.950	2332
507.022	1768
507.095	1599
507.168	2732
507.241	1450
507.313	524
507.386	126
507.459	1667
507.531	716
507.604	1315
507.677	2300
507.749	-250
507.822	1063
507.894	3160
507.967	4291
508.040	2946
508.112	2862
508.185	2878
508.257	1364
508.330	2752
508.402	1956
508.475	2169
508.547	2390
508.620	2001
508.692	4192
508.765	2338
508.837	1407
508.909	995
508.982	1447
509.054	1355
509.127	2885
509.199	643
509.271	1432
509.344	1762
509.416	1261
509.488	1120
509.560	1360
509.633	581
509.705	1175
509.777	451
509.849	2521
509.922	1154
509.994	1731
510.066	2023
510.138	1855
510.210	4447
510.283	4388
510.355	2296
510.427	2689
510.499	1655
510.571	2482
510.643	896
510.715	3871
510.787	2576
510.859	2580
510.931	2361
511.003	2635
511.076	2708
511.148	2515
511.219	1546
511.291	4208
511.363	6027
511.435	1681
511.507	1693
511.579	2389
511.651	2568
511.723	2212
511.795	904
511.867	2288
511.939	2069
512.010	6309
512.082	4259
512.154	2639
512.226	2035
512.298	2583
512.369	4534
512.441	3257
512.513	3606
512.585	2074
512.656	2908
512.728	2959
512.800	2121
512.871	1839
512.943	1566
513.015	2012
513.086	2151
513.158	2081
513.230	1301
513.301	2448
513.373	2573
513.444	2693
513.516	1381
513.588	2392
513.659	1391
513.731	2555
513.802	1628
513.874	3881
513.945	6011
514.016	2659
514.088	1091
514.159	1571
514.231	2273
514.302	3474
514.374	2651
514.445	2160
514.516	7471
514.588	5642
514.659	2078
514.730	5364
514.802	5425
514.873	2276
514.944	5670
515.016	3249
515.087	2695
515.158	3930
515.229	7746
515.301	4113
515.372	5930
515.443	3569
515.514	3062
515.585	1990
515.656	1740
515.728	1469
515.799	2116
515.870	1816
515.941	1400
516.012	1208
516.083	2229
516.154	2516
516.225	3152
516.296	2466
516.367	2559
516.438	2475
516.509	2128
516.580	3937
516.651	9017
516.722	32751
516.793	19957
516.864	4517
516.935	5070
517.006	5116
517.077	7519
517.148	13337
517.219	31025
517.289	63704
517.360	39154
517.431	19939
517.502	3303
517.573	3161
517.643	2839
517.714	3599
517.785	2938
517.856	2306
517.926	3953
517.997	4526
518.068	3926
518.138	6369
518.209	8256
518.280	19038
518.350	86902
518.421	41489
518.492	5437
518.562	3608
518.633	3718
518.703	2802
518.774	3951
518.845	6588
518.915	8539
518.986	4625
519.056	4353
519.127	6736
519.197	10008
519.268	33059
519.338	32605
519.408	5354
519.479	4718
519.549	2841
519.620	3168
519.690	1899
519.760	1746
519.831	1697
519.901	2799
519.971	1806
520.042	2051
520.112	2639
520.182	2201
520.253	2986
520.323	1733
520.393	3367
520.463	3851
520.534	1939
520.604	7741
520.674	4700
520.744	3033
520.814	6767
520.885	8061
520.955	10479
521.025	45245
521.095	25993
521.165	3694
521.235	2576
521.305	1213
521.375	2236
521.445	1594
521.515	1953
521.585	2556
521.655	1363
521.725	2149
521.795	2866
521.865	-300
521.935	3711
522.005	3315
522.075	1319
522.145	1408
522.215	2524
522.285	3768
522.355	5471
522.424	10605
522.494	9809
522.564	3394
522.634	4241
522.704	12463
522.774	6558
522.843	2270
522.913	1093
522.983	1728
523.053	1377
523.122	1848
523.192	1520
523.262	5256
523.331	6655
523.401	2107
523.471	279
523.540	1231
523.610	538
523.680	1425
523.749	2024
523.819	1187
523.888	1318
523.958	1751
524.027	1406
524.097	913
524.166	535
524.236	898
524.305	1917
524.375	885
524.444	895
524.514	2944
524.583	1274
524.653	1481
524.722	3295
524.791	1065
524.861	1212
524.930	381
524.999	900
525.069	1370
525.138	1830
525.207	1720
525.277	1906
525.346	675
525.415	1598
525.484	1031
525.554	1600
525.623	1683
525.692	1047
525.761	1132
525.830	1015
525.900	1178
525.969	2248
526.038	2765
526.107	2912
526.176	10258
526.245	8828
526.314	4555
526.383	7084
526.452	7212
526.522	13248
526.591	18628
526.660	7588
526.729	2852
526.797	4569
526.867	6683
526.935	33133
527.004	46257
527.073	25498
527.142	3519
527.211	2441
527.280	1788
527.349	1335
527.418	805
527.487	1379
527.555	-62
527.624	929
527.693	-436
527.762	1336
527.831	-519
527.899	1259
527.968	1386
528.037	12
528.106	1000
528.174	2159
528.243	1864
528.312	2640
528.380	4233
528.449	800
528.518	968
528.586	-924
528.655	986
528.723	257
528.792	174
528.861	-557
528.929	-384
528.998	1934
529.066	-559
529.135	927
529.203	-153
529.272	-443
529.340	1104
529.409	1518
529.477	-806
529.545	200
529.614	1687
529.682	316
529.751	1594
529.819	2843
529.887	1456
529.956	165
530.024	-310
530.092	-670
530.161	526
530.229	1532
530.297	612
530.365	834
530.434	147
530.502	-55
530.570	638
530.638	-606
530.707	567
530.775	771
530.843	481
530.911	560
530.979	305
531.047	433
531.115	207
531.183	-233
531.252	614
531.320	391
531.388	-508
531.456	1356
531.524	-1433
531.592	231
531.660	1199
531.728	-341
531.796	866
531.864	779
531.932	793
532.000	-674
532.067	-24
532.135	384
532.203	996
532.271	334
532.339	1457
532.407	4650
532.475	2722
532.542	1447
532.610	1531
532.678	997
532.746	7569
532.814	25437
532.881	7327
532.949	1441
533.017	740
533.084	1172
533.152	217
533.220	219
533.287	-593
533.355	125
533.423	998
533.490	203
533.558	415
533.625	1026
533.693	370
533.761	-201
533.828	1021
533.896	35
533.963	1572
534.031	2767
534.098	2887
534.166	2192
534.233	612
534.300	1623
534.368	60
534.435	767
534.503	1031
534.570	896
534.637	560
534.705	942
534.772	13
534.840	455
534.907	3893
534.974	7137
535.041	1562
535.109	2137
535.176	-61
535.243	1019
535.310	579
535.378	-278
535.445	617
535.512	551
535.579	-172
535.646	-221
535.714	387
535.781	697
535.848	1314
535.915	1676
535.982	1458
536.049	719
536.116	1679
536.183	554
536.250	371
536.317	760
536.384	389
536.451	1851
536.518	511
536.585	493
536.652	2038
536.719	1628
536.786	1692
536.853	578
536.920	1856
536.987	4415
537.053	1740
537.120	10799
537.187	11814
537.254	910
537.321	-45
537.388	2094
537.454	425
537.521	662
537.588	57
537.654	1521
537.721	1008
537.788	1350
537.855	91
537.921	1307
537.988	295
538.055	1271
538.121	445
538.188	1054
538.254	833
538.321	2067
538.388	1746
538.454	724
538.521	372
538.587	694
538.654	-15
538.720	41
538.787	90
538.853	681
538.920	911
538.986	742
539.053	1549
539.119	769
539.185	996
539.252	1532
539.318	846
539.385	2018
539.451	403
539.517	2099
539.583	982
539.650	2418
539.716	9434
539.782	2889
539.849	628
539.915	1400
539.981	167
540.047	1125
540.114	603
540.180	1052
540.246	-216
540.312	1003
540.378	1542
540.444	2959
540.510	3102
540.576	9869
540.643	3554
540.709	-286
540.775	185
540.841	967
540.907	1969
540.973	3780
541.039	1980
541.105	2364
541.171	133
541.237	602
541.303	1842
541.369	2263
541.435	1810
541.500	2464
541.566	831
541.632	202
541.698	413
541.764	779
541.830	684
541.896	416
541.961	709
542.027	1078
542.093	821
542.159	807
542.224	1036
542.290	1820
542.356	2491
542.421	3966
542.487	2203
542.553	1774
542.618	1083
542.684	197
542.750	1056
542.815	1571
542.881	674
542.947	7143
543.012	6996
543.078	1041
543.143	-37
543.209	1119
543.274	742
543.340	2156
543.405	2022
543.471	4293
543.536	1043
543.602	1293
543.667	56
543.732	2128
543.798	-106
543.863	755
543.928	203
543.994	680
544.059	253
544.124	367
544.190	494
544.255	1407
544.320	349
544.386	684
544.451	1403
544.516	1454
544.581	1210
544.646	3672
544.712	9729
544.777	2156
544.842	1195
544.907	1580
544.972	1109
545.037	1244
545.102	1345
545.168	826
545.233	2575
545.298	1450
545.363	1489
545.428	2367
545.493	3704
545.558	6677
545.623	3488
545.688	1703
545.753	1776
545.818	2557
545.883	2124
545.947	1516
546.012	2170
546.077	1440
546.142	1201
546.207	1265
546.272	1919
546.337	1740
546.401	2479
546.466	2554
546.531	1213
546.596	1980
546.661	1451
546.725	2784
546.790	1321
546.855	2483
546.919	770
546.984	2345
547.049	1103
547.113	3324
547.178	551
547.243	2640
547.307	2721
547.372	3679
547.436	3021
547.501	2929
547.565	2855
547.630	2920
547.695	2523
547.759	4338
547.823	3596
547.888	2434
547.952	1827
548.017	2900
548.081	1815
548.146	4342
548.210	3623
548.274	1583
548.339	2532
548.403	2981
548.468	2298
548.532	667
548.596	1460
548.660	1974
548.725	2635
548.789	3893
548.853	4745
548.917	3289
548.982	2606
549.046	5130
549.110	2224
549.174	2436
549.238	2020
549.303	1218
549.367	3859
549.431	2081
549.495	1897
549.559	2096
549.623	3223
549.687	2643
549.751	3410
549.815	2287
549.879	3353
549.943	1768
550.007	3473
550.071	3191
550.135	3788
550.199	2652
550.263	2633
550.327	3889
550.391	4213
550.455	3532
550.519	2653
550.582	4217
550.646	3512
550.710	3639
550.774	4333
550.838	3550
550.901	3083
550.965	4482
551.029	4410
551.093	5023
551.156	6066
551.220	10837
551.284	15280
551.347	7831
551.411	11466
551.475	18167
551.538	5052
551.602	4140
551.666	3700
551.729	2262
551.793	3021
551.856	3826
551.920	2648
551.983	3855
552.047	1864
552.110	3663
552.174	3026
552.237	3137
552.301	2526
552.364	3150
552.428	2706
552.491	2631
552.554	2824
552.618	3362
552.681	3539
552.745	2954
552.808	3931
552.871	4596
552.934	3849
552.998	2883
553.061	3527
553.124	4049
553.187	2793
553.251	3745
553.314	4246
553.377	3881
553.440	6358
553.503	14460
553.567	33175
553.630	9456
553.693	3081
553.756	3949
553.819	3653
553.882	3622
553.945	2888
554.008	2949
554.071	2496
554.134	3223
554.197	2977
554.260	2906
554.323	3941
554.386	3209
554.449	2287
554.512	3357
554.575	2456
554.638	3461
554.701	2555
554.764	2497
554.827	2723
554.889	3191
554.952	2182
555.015	2557
555.078	2281
555.141	2947
555.203	2145
555.266	2550
555.329	1921
555.391	2431
555.454	2118
555.517	2998
555.580	1998
555.642	2477
555.705	1894
555.768	2177
555.830	2531
555.893	1467
555.955	2275
556.018	2517
556.080	2066
556.143	2498
556.206	1608
556.268	2217
556.330	2503
556.393	2569
556.455	1228
556.518	2988
556.580	3696
556.643	2304
556.705	2878
556.767	75
556.830	2098
556.892	1960
556.955	1745
557.017	3388
557.079	2060
557.142	1706
557.204	1100
557.266	3440
557.328	2584
557.391	1903
557.453	2197
557.515	2172
557.577	1841
557.639	1902
557.701	1285
557.764	734
557.826	549
557.888	2644
557.950	1825
558.012	2969
558.074	1596
558.136	3814
558.198	8646
558.260	6283
558.322	1288
558.384	1585
558.446	2596
558.508	2898
558.570	4184
558.632	5639
558.694	7848
558.756	8326
558.818	16565
558.880	54909
558.942	23524
559.003	10622
559.065	7049
559.127	3728
559.189	2349
559.251	3178
559.312	4047
559.374	8387
559.436	28874
559.498	22210
559.559	3417
559.621	3132
559.683	4098
559.744	5728
559.806	13129
559.868	25509
559.929	7143
559.991	4162
560.052	4108
560.114	9247
560.176	7862
560.237	6630
560.299	9032
560.360	3900
560.422	2492
560.483	2727
560.545	2223
560.606	2356
560.667	2017
560.729	2123
560.790	1110
560.852	2188
560.913	2224
560.974	2173
561.036	1558
561.097	2002
561.158	1839
561.220	2736
561.281	1883
561.342	1536
561.403	3045
561.465	1731
561.526	4836
561.587	8087
561.648	2383
561.709	1859
561.771	1220
561.832	2558
561.893	1777
561.954	2261
562.015	1766
562.076	2149
562.137	2188
562.198	1786
562.259	1631
562.320	1944
562.381	2382
562.442	3135
562.503	3092
562.564	2727
562.625	1797
562.686	2416
562.747	2049
562.808	2875
562.869	2006
562.930	3545
562.991	3500
563.051	3370
563.112	2445
563.173	2658
563.234	1504
563.294	2204
563.355	1964
563.416	2015
563.477	2123
563.537	3123
563.598	3050
563.659	2885
563.720	2050
563.780	3337
563.841	2962
563.901	3280
563.962	2252
564.023	3739
564.083	3092
564.144	3279
564.204	2492
564.265	3555
564.325	3151
564.386	6271
564.446	7564
564.507	3763
564.567	3010
564.628	3774
564.688	2332
564.749	3338
564.809	3339
564.869	4540
564.930	2391
564.990	4577
565.050	2841
565.111	4016
565.171	2329
565.231	3251
565.292	3749
565.352	2212
565.412	3492
565.472	3046
565.532	2941
565.593	3328
565.653	3452
565.713	2976
565.773	4095
565.833	3687
565.893	4555
565.953	3183
566.013	3341
566.074	4991
566.134	5451
566.194	7853
566.254	8289
566.314	6415
566.374	5639
566.434	5162
566.494	5772
566.554	5451
566.614	5787
566.673	5856
566.733	6617
566.793	6848
566.853	7547
566.913	7719
566.973	7876
567.033	8694
567.092	8161
567.152	7620
567.212	8943
567.272	9203
567.331	9062
567.391	9909
567.451	10508
567.511	11877
567.570	12536
567.630	9699
567.690	8786
567.749	9830
567.809	10507
567.868	12295
567.928	13317
567.988	15253
568.047	17684
568.107	21520
568.166	28561
568.226	39873
568.285	57664
568.345	55436
568.404	47936
568.464	42683
568.523	40367
568.582	41259
568.642	43928
568.701	52739
568.761	67789
568.820	95962
568.879	106937
568.939	87258
568.998	70665
569.057	55643
569.116	45566
569.176	38574
569.235	32231
569.294	26969
569.353	23737
569.413	21244
569.472	18540
569.531	16836
569.590	14512
569.649	13666
569.708	12691
569.767	11404
569.827	10773
569.886	10454
569.945	9563
570.004	8725
570.063	7762
570.122	8653
570.181	7830
570.240	7362
570.299	7271
570.358	7135
570.417	6652
570.475	7020
570.534	6244
570.593	6172
570.652	5603
570.711	6182
570.770	5399
570.829	5892
570.887	4528
570.946	5359
571.005	5515
571.064	4809
571.122	4949
571.181	5058
571.240	4675
571.299	5309
571.357	4286
571.416	5537
571.475	4245
571.533	5227
571.592	4696
571.650	5240
571.709	4100
571.768	4764
571.826	4075
571.885	3775
571.943	3889
572.002	3785
572.060	3737
572.119	3592
572.177	3372
572.236	3705
572.294	3765
572.352	4086
572.411	3848
572.469	4270
572.528	3684
572.586	3641
572.644	3744
572.703	4617
572.761	3784
572.819	3740
572.877	3271
572.936	3550
572.994	4131
573.052	3853
573.110	3179
573.169	3396
573.227	2553
573.285	3527
573.343	3678
573.401	2838
573.459	3215
573.517	2957
573.576	3005
573.634	4531
573.692	3569
573.750	3940
573.808	3574
573.866	4056
573.924	4334
573.982	5550
574.040	4451
574.098	4139
574.155	3274
574.213	3917
574.271	3651
574.329	4017
574.387	2777
574.445	2874
574.503	2788
574.560	2755
574.618	2848
574.676	3476
574.734	3482
574.792	3402
574.849	3605
574.907	3403
574.965	2492
575.022	3688
575.080	3177
575.138	3672
575.195	3488
575.253	3279
575.311	3283
575.368	3996
575.426	3086
575.483	4219
575.541	2720
575.598	3606
575.656	3000
575.713	3910
575.771	3275
575.828	3397
575.886	3132
575.943	4427
576.001	3575
576.058	3495
576.115	4299
576.173	4164
576.230	5072
576.287	5136
576.345	4352
576.402	4427
576.459	4250
576.517	4625
576.574	4691
576.631	5323
576.688	4917
576.746	4549
576.803	4204
576.860	4805
576.917	4113
576.974	3839
577.031	4187
577.089	4060
577.146	4242
577.203	4445
577.260	5048
577.317	4772
577.374	4882
577.431	5276
577.488	4571
577.545	4548
577.602	4636
577.659	4914
577.716	5282
577.773	5918
577.830	4494
577.886	4340
577.943	4796
578.000	4675
578.057	4401
578.114	6319
578.171	5554
578.227	6400
578.284	5828
578.341	6448
578.398	5669
578.454	5329
578.511	5784
578.568	6947
578.625	5239
578.681	5363
578.738	5125
578.794	5119
578.851	4520
578.908	4836
578.964	4942
579.021	6351
579.077	4138
579.134	5399
579.190	4450
579.247	4768
579.303	5333
579.360	4402
579.416	4423
579.473	4800
579.529	4681
579.586	5723
579.642	4883
579.698	4524
579.755	5780
579.811	6329
579.867	5562
579.924	5996
579.980	6574
580.036	7731
580.093	6927
580.149	8706
580.205	10651
580.261	9752
580.317	8936
580.374	8844
580.430	8753
580.486	7615
580.542	7022
580.598	7587
580.619	7285
580.654	6751
580.692	6900
580.710	6966
580.765	6651
580.767	6632
580.823	6412
580.838	6402
580.879	6339
580.911	6543
580.935	6689
580.984	5936
580.991	5824
581.047	7199
581.057	7164
581.103	6955
581.130	7319
581.159	7695
581.203	7852
581.215	7853
581.270	8595
581.276	8552
581.326	8162
581.349	8149
581.382	8052
581.422	7785
581.438	7674
581.494	8678
581.494	8689
581.550	8731
581.567	8800
581.606	9008
581.640	8545
581.661	8216
581.713	9158
581.717	9228
581.773	8267
581.786	8229
581.829	7996
581.859	8588
581.885	9149
581.932	8704
581.940	8610
581.996	9597
582.004	9495
582.052	8635
582.077	8921
582.107	9312
582.150	9507
582.163	9587
582.219	10104
582.223	10180
582.274	10828
582.296	10491
582.330	10045
582.368	10804
582.386	11079
582.441	10971
582.441	10962
582.497	11369
582.514	11278
582.552	11155
582.587	11253
582.608	11255
582.659	11139
582.663	11106
582.719	11644
582.732	11754
582.774	12304
582.805	12245
582.830	12194
582.877	12634
582.885	12703
582.941	12397
582.950	12590
582.996	13537
583.023	13859
583.052	14383
583.095	14868
583.107	15018
583.162	17196
583.168	17302
583.218	17937
583.240	17993
583.273	17700
583.313	17138
583.328	16947
583.384	17501
583.385	17471
583.439	16842
583.458	16764
583.494	16572
583.531	16803
583.549	16977
583.603	16929
583.605	16938
583.660	17942
583.676	17911
583.715	17599
583.748	17847
583.770	18144
583.820	18907
583.825	18986
583.881	18715
583.893	18998
583.936	19976
583.965	20034
583.991	20033
584.038	20424
584.046	20544
584.101	20263
584.110	20456
584.156	21382
584.183	21443
584.211	21565
584.255	22049
584.266	22194
584.321	22172
584.328	22272
584.376	23360
584.400	23223
584.431	23126
584.472	23794
584.486	24034
584.541	25294
584.545	25292
584.596	25451
584.617	25592
584.651	26357
584.689	27175
584.706	27511
584.761	27768
584.762	27751
584.816	29485
584.834	29384
584.871	29383
584.906	29870
584.926	30195
584.978	30557
584.980	30636
585.035	32521
585.051	32977
585.090	33939
585.123	34588
585.145	35263
585.195	35872
585.200	35989
585.254	37736
585.267	38066
585.309	39986
585.340	41226
585.364	41810
585.412	43172
585.419	43375
585.473	43547
585.484	43621
585.528	45771
585.556	47305
585.583	49954
585.628	54650
585.637	57287
585.692	74721
585.700	77718
585.747	96144
585.772	102403
585.801	89967
585.845	66260
585.856	63371
585.910	55130
585.917	54086
585.965	54041
585.989	53988
586.019	54699
586.061	55629
586.074	56212
586.128	58711
586.133	58774
586.183	60648
586.205	61221
586.237	62839
586.277	64506
586.292	65158
586.346	67393
586.349	67352
586.401	69798
586.421	70653
586.455	72777
586.493	74990
586.509	77372
586.564	84907
586.565	84923
586.618	100857
586.637	105784
586.672	103848
586.709	98151
586.727	95865
586.781	91296
586.781	91525
586.835	94404
586.853	95356
586.889	97553
586.925	98545
586.944	100318
586.996	105801
586.998	106226
587.052	111767
587.068	113034
587.106	117060
587.140	120318
587.161	123119
587.212	129016
587.215	129694
587.269	136736
587.284	138607
587.323	144533
587.356	148293
587.377	151979
587.427	160501
587.431	161625
587.485	170956
587.499	173086
587.539	182662
587.571	189580
587.593	195390
587.643	206826
587.648	208721
587.702	224222
587.715	227381
587.755	241791
587.786	252236
587.810	262132
587.858	280458
587.864	283729
587.917	308844
587.930	314087
587.971	340755
588.001	358260
588.025	374183
588.073	404542
588.079	410686
588.133	456123
588.145	465192
588.187	508685
588.217	537331
588.241	569728
588.288	629912
588.295	641605
588.348	725021
588.360	741225
588.402	829631
588.431	887379
588.456	953198
588.503	1074697
588.510	1100998
588.564	1287144
588.575	1322388
588.617	1523285
588.646	1653670
588.671	1800593
588.718	2063635
588.725	2107730
588.778	2396993
588.789	2445697
588.832	2435155
588.861	2405905
588.886	2138018
588.932	1596198
588.939	1548942
588.993	1132213
589.004	1055165
589.047	1592394
589.075	1950958
589.100	2231822
589.147	2723176
589.154	2725612
589.207	2651564
589.218	2625934
589.261	2485237
589.290	2376116
589.314	2382979
589.361	2375464
589.368	2400989
589.421	2546294
589.433	2567120
589.475	2488400
589.504	2411650
589.528	2119751
589.576	1502849
589.582	1536262
589.635	1816196
589.647	1874794
589.689	2339164
589.718	2643224
589.742	2522663
589.790	2239302
589.795	2206056
589.849	1806839
589.861	1708180
589.902	1500379
589.932	1336252
589.955	1249953
590.004	1055465
590.009	1046351
590.062	906092
590.075	868638
590.115	794047
590.146	730946
590.168	702117
590.218	630336
590.222	627934
590.275	567066
590.289	549140
590.328	518521
590.360	490044
590.381	475927
590.431	437126
590.435	436878
590.488	405026
590.503	394574
590.541	376864
590.574	358958
590.594	351705
590.645	328553
590.647	329062
590.700	309417
590.716	302299
590.753	291985
590.787	280228
590.806	276247
590.859	261445
590.859	262277
590.912	250752
590.930	246024
590.965	239632
591.001	231263
591.018	229044
591.071	219822
591.072	218857
591.124	212376
591.143	208920
591.177	204774
591.214	198593
591.230	197611
591.283	191685
591.285	190675
591.336	185878
591.356	182908
591.389	180202
591.427	175291
591.442	174053
591.495	166955
591.498	165747
591.547	162892
591.569	160700
591.600	158677
591.640	154311
591.653	154164
591.706	151048
591.711	150091
591.759	148541
591.782	146814
591.811	147969
591.853	148136
591.864	147322
591.917	140127
591.924	138490
591.969	135753
591.995	133311
592.022	132951
592.066	130824
592.075	131244
592.127	130485
592.137	129790
592.180	134139
592.208	136075
592.233	132942
592.279	125230
592.285	125113
592.338	119694
592.350	117944
592.390	116520
592.421	114619
592.443	114651
592.491	113103
592.495	113522
592.548	112615
592.562	111881
592.600	110878
592.633	109118
592.653	108763
592.704	106016
592.705	106589
592.775	104400
592.846	100864
592.916	100736
592.987	99732
593.058	96806
593.128	95969
593.199	92575
593.270	90372
593.341	89904
593.411	87686
593.482	86855
593.553	85547
593.623	82579
593.694	83076
593.764	84327
593.835	81757
593.906	78819
593.976	77817
594.047	78431
594.117	82538
594.188	86459
594.258	75629
594.329	72190
594.399	71877
594.470	70000
594.540	69129
594.611	68847
594.681	69008
594.751	68672
594.822	68923
594.892	69306
594.963	70758
595.033	68526
595.103	69270
595.174	69856
595.244	77178
595.314	98517
595.384	72297
595.455	63968
595.525	66157
595.595	65323
595.665	64924
595.736	63921
595.806	63025
595.876	63045
595.946	63091
596.016	61134
596.087	61650
596.157	60547
596.227	61151
596.297	61644
596.367	63557
596.437	65525
596.507	72505
596.577	90060
596.647	69457
596.717	61949
596.787	61267
596.857	59916
596.927	60654
596.997	60373
597.067	61459
597.137	64779
597.207	65399
597.277	60341
597.347	61537
597.417	59590
597.487	60243
597.557	60220
597.626	60154
597.696	60835
597.766	67702
597.836	80489
597.906	67723
597.975	56493
598.045	56792
598.115	56862
598.185	57325
598.254	58729
598.324	60438
598.394	59472
598.464	60324
598.533	58803
598.603	56306
598.672	55594
598.742	57379
598.812	56455
598.881	56645
598.951	56166
599.020	55705
599.090	55150
599.159	57749
599.229	55673
599.299	54931
599.368	54620
599.437	54479
599.507	53060
599.576	55280
599.646	55952
599.715	58377
599.785	53618
599.854	54959
599.924	58136
599.993	57622
600.062	53460
600.132	54087
600.201	53251
600.270	55607
600.340	56364
600.409	56392
600.478	57124
600.547	56771
600.617	57098
600.686	53912
600.755	51197
600.824	50936
600.894	50938
600.963	49863
601.032	49642
601.101	50201
601.170	48768
601.239	49354
601.308	49601
601.378	50276
601.447	49190
601.516	49107
601.585	49326
601.654	50674
601.723	51470
601.792	50174
601.861	53486
601.930	56268
601.999	56606
602.068	51690
602.137	51451
602.206	53405
602.275	51815
602.343	53911
602.412	54579
602.481	52477
602.550	51387
602.619	51552
602.688	52020
602.756	53423
602.825	52687
602.894	51333
602.963	53935
603.032	53925
603.100	54567
603.169	52713
603.238	53156
603.307	53413
603.375	52645
603.444	53151
603.513	52297
603.581	51967
603.650	53722
603.719	50658
603.787	48278
603.856	49227
603.924	49445
603.993	51959
604.061	49997
604.130	52678
604.198	53424
604.267	53487
604.335	53386
604.404	54138
604.472	53047
604.541	54883
604.609	54893
604.678	56603
604.746	55858
604.815	57511
604.883	56013
604.951	55370
605.020	56145
605.088	56045
605.156	55810
605.225	55938
605.293	54848
605.361	54356
605.429	55532
605.498	55354
605.566	55819
605.634	56568
605.702	58762
605.771	58411
605.839	59565
605.907	58383
605.975	56879
606.043	57526
606.111	54756
606.180	56843
606.248	59904
606.316	64653
606.384	60133
606.452	62319
606.520	55495
606.588	53915
606.656	50049
606.724	49244
606.792	47686
606.860	46525
606.928	41515
606.996	41837
607.064	40134
607.132	42005
607.200	42633
607.267	44535
607.335	42992
607.403	43976
607.471	44367
607.539	43232
607.607	42644
607.674	40897
607.742	40673
607.810	41960
607.878	40597
607.946	39510
608.013	40645
608.081	43397
608.149	42241
608.216	41614
608.284	43522
608.352	42907
608.419	45366
608.487	53110
608.555	50554
608.622	42559
608.690	42727
608.757	44148
608.825	46336
608.893	45564
608.960	46297
609.028	50923
609.095	57245
609.163	49835
609.230	42154
609.298	41133
609.365	38963
609.432	40636
609.500	41520
609.567	47135
609.635	50030
609.702	53748
609.769	53410
609.837	50805
609.904	44615
609.971	42559
610.039	44924
610.106	53584
610.173	85598
610.241	185317
610.308	226350
610.375	125282
610.442	60890
610.509	45246
610.577	42154
610.644	41381
610.711	42286
610.778	42417
610.845	43397
610.912	45825
610.980	48692
611.047	59827
611.114	57327
611.181	44549
611.248	43344
611.315	44382
611.382	45134
611.449	46840
611.516	47000
611.583	46982
611.650	46966
611.717	46312
611.784	47681
611.851	50615
611.918	52086
611.984	59623
612.051	76283
612.118	138996
612.185	338169
612.252	401272
612.319	100063
612.386	61004
612.452	55128
612.519	55741
612.586	63433
612.653	63578
612.719	51844
612.786	50126
612.853	48174
612.919	47411
612.986	47085
613.053	44615
613.120	42985
613.186	42195
613.253	43074
613.319	42032
613.386	41685
613.453	43497
613.519	45133
613.586	46765
613.652	54233
613.719	50410
613.785	48632
613.852	44806
613.918	43537
613.985	44915
614.051	49698
614.118	70501
614.184	88422
614.250	50484
614.317	43669
614.383	42042
614.449	43212
614.516	43380
614.582	44069
614.648	44505
614.715	42264
614.781	43196
614.847	43781
614.914	46148
614.980	46606
615.046	45689
615.112	46785
615.179	49000
615.245	56622
615.311	74482
615.377	126904
615.443	197918
615.509	130947
615.575	76627
615.642	62230
615.708	58299
615.774	62015
615.840	70007
615.906	88929
615.972	136402
616.038	273180
616.104	465142
616.170	575595
616.236	716246
616.302	195903
616.368	96583
616.434	76559
616.500	64725
616.565	63052
616.631	69229
616.697	66294
616.763	61200
616.829	71437
616.895	108279
616.961	132962
617.026	84248
617.092	55595
617.158	50499
617.224	49651
617.289	47380
617.355	45395
617.421	47454
617.487	47416
617.552	44812
617.618	43140
617.684	43099
617.749	44176
617.815	41303
617.880	40224
617.946	41161
618.012	41458
618.077	42299
618.143	41538
618.208	42389
618.274	42903
618.339	45910
618.405	42075
618.470	40372
618.536	41411
618.601	44942
618.667	45706
618.732	41018
618.798	40077
618.863	39244
618.928	38769
618.994	40736
619.059	42637
619.124	47436
619.190	45253
619.255	39700
619.320	39858
619.386	40016
619.451	38008
619.516	39180
619.581	37634
619.647	39734
619.712	39563
619.777	38533
619.842	37975
619.907	39410
619.972	39250
620.038	40826
620.103	39255
620.168	37774
620.233	37624
620.298	38315
620.363	37590
620.428	38070
620.493	39200
620.558	39368
620.623	38256
620.688	38692
620.753	37903
620.818	39414
620.883	39185
620.948	39317
621.013	38183
621.078	40439
621.143	39566
621.207	43114
621.272	40528
621.337	44314
621.402	44502
621.467	51406
621.532	58748
621.596	49301
621.661	45327
621.726	43399
621.791	42607
621.855	42935
621.920	44008
621.985	46297
622.049	51845
622.114	50673
622.179	48886
622.243	50471
622.308	48766
622.373	48431
622.437	49402
622.502	46685
622.566	45368
622.631	46778
622.695	47084
622.760	47401
622.824	45929
622.889	46665
622.953	47077
623.018	52402
623.082	56884
623.147	47158
623.211	44913
623.276	45433
623.340	44070
623.404	42885
623.469	44303
623.533	43432
623.597	43034
623.662	43141
623.726	42174
623.790	40536
623.854	41296
623.919	42438
623.983	41028
624.047	42191
624.111	40570
624.176	41524
624.240	43464
624.304	47408
624.368	41837
624.432	41820
624.496	41966
624.560	42736
624.625	46236
624.689	42660
624.753	41849
624.817	41981
624.881	40523
624.945	39015
625.009	38950
625.073	38981
625.137	40049
625.201	43809
625.265	44832
625.329	40297
625.393	41419
625.456	40972
625.520	39915
625.584	43335
625.648	48038
625.712	64575
625.776	126422
625.839	181979
625.903	106095
625.967	46626
626.031	57555
626.095	102871
626.158	60144
626.222	35894
626.286	33688
626.349	33415
626.413	32580
626.477	34699
626.540	32463
626.604	32596
626.668	32382
626.731	31985
626.795	33443
626.858	35097
626.922	33055
626.986	31709
627.049	30825
627.113	31955
627.176	30080
627.240	29952
627.303	30285
627.366	30653
627.430	30461
627.493	31237
627.557	32951
627.620	32472
627.684	31286
627.747	32062
627.810	30971
627.874	30646
627.937	27889
628.000	31003
628.064	31024
628.127	28233
628.190	27882
628.253	27814
628.317	28571
628.380	27891
628.443	26697
628.506	27653
628.569	27084
628.632	26704
628.696	25493
628.759	25914
628.822	25158
628.885	25201
628.948	24959
629.011	26328
629.074	24826
629.137	24334
629.200	24590
629.263	26917
629.326	24476
629.389	24325
629.452	24793
629.515	25641
629.578	24762
629.641	25815
629.704	24919
629.767	26032
629.830	24078
629.892	23681
629.955	23100
630.018	25596
630.081	23605
630.144	27113
630.207	24807
630.269	26527
630.332	26016
630.395	27301
630.458	22492
630.520	23104
630.583	23809
630.646	21808
630.708	21533
630.771	21894
630.834	22459
630.896	21842
630.959	20928
631.021	21121
631.084	23007
631.146	23023
631.209	27124
631.272	23357
631.334	21083
631.397	21127
631.459	21427
631.522	20796
631.584	21288
631.646	22225
631.709	21866
631.771	24365
631.834	23786
631.896	21957
631.958	19783
632.021	20213
632.083	19742
632.145	21532
632.208	20128
632.270	20462
632.332	20153
632.395	19263
632.457	21474
632.519	20700
632.581	20328
632.643	19301
632.706	20617
632.768	19740
632.830	19237
632.892	18376
632.954	20114
633.016	21013
633.078	18985
633.141	18738
633.203	19300
633.265	19326
633.327	18675
633.389	19062
633.451	19430
633.513	22060
633.575	22376
633.637	21989
633.698	20198
633.760	19898
633.822	18803
633.884	19434
633.946	19046
634.008	19538
634.070	20324
634.132	23243
634.193	22661
634.255	19408
634.317	18849
634.379	20317
634.441	18930
634.502	19131
634.564	17440
634.626	17740
634.687	17728
634.749	17571
634.811	17923
634.873	16870
634.934	16771
634.996	17538
635.057	17401
635.119	17427
635.181	17567
635.242	17419
635.304	16491
635.365	18866
635.427	16915
635.488	17228
635.550	16690
635.611	18057
635.673	16251
635.734	19793
635.796	18459
635.857	19317
635.918	17528
635.980	18701
636.041	18566
636.102	18312
636.164	18580
636.225	18541
636.286	16901
636.348	18208
636.409	17652
636.470	16629
636.531	16254
636.593	19047
636.654	19271
636.715	16188
636.776	14693
636.838	15146
636.899	15877
636.960	16391
637.021	14864
637.082	15260
637.143	16103
637.204	15669
637.265	14072
637.326	16109
637.387	15134
637.448	13725
637.509	14512
637.570	15070
637.631	15276
637.692	14079
637.753	13546
637.814	15079
637.875	14191
637.936	14498
637.997	13049
638.058	14921
638.119	15601
638.179	14768
638.240	13658
638.301	14561
638.362	13403
638.423	16052
638.483	14469
638.544	13458
638.605	14405
638.666	13657
638.726	15134
638.787	13966
638.848	14336
638.908	14449
638.969	12872
639.030	15206
639.090	12973
639.151	13262
639.211	12927
639.272	15649
639.332	18559
639.393	17709
639.453	13078
639.514	13672
639.574	13176
639.635	13367
639.695	12740
639.756	12921
639.816	12713
639.877	12894
639.937	16260
639.997	20839
640.058	14689
640.118	13124
640.178	12404
640.239	12254
640.299	11803
640.359	13371
640.420	12245
640.480	12591
640.540	13282
640.600	12891
640.661	12552
640.721	12499
640.781	15400
640.841	14686
640.901	14154
640.961	13646
641.021	12129
641.082	13430
641.142	14809
641.202	14467
641.262	10732
641.322	13389
641.382	11508
641.442	12699
641.502	12066
641.562	11946
641.622	11344
641.682	12244
641.742	12206
641.802	12351
641.861	13220
641.921	12427
641.981	12896
642.041	12716
642.101	14072
642.161	13275
642.221	11374
642.280	10635
642.340	12090
642.400	11245
642.460	11558
642.519	11555
642.579	11201
642.639	12701
642.698	10762
642.758	13056
642.818	11772
642.877	11109
642.937	12422
642.997	12847
643.056	13839
643.116	13890
643.175	12391
643.235	12062
643.294	12318
643.354	12247
643.414	11832
643.473	13578
643.532	14805
643.592	16806
643.651	21048
643.711	33640
643.770	56718
643.830	118864
643.889	355935
643.948	186670
644.008	26506
644.067	17002
644.126	13096
644.186	13472
644.245	11705
644.304	10428
644.363	12443
644.423	10903
644.482	11043
644.541	11520
644.600	9617
644.659	11931
644.719	11095
644.778	15405
644.837	18135
644.896	28501
644.955	64193
645.014	48346
645.073	17501
645.132	13111
645.191	12580
645.250	11023
645.309	11851
645.368	12150
645.427	12663
645.486	13237
645.545	20140
645.604	14193
645.663	10856
645.722	10687
645.781	10896
645.840	10902
645.898	12767
645.957	15813
646.016	18210
646.075	29537
646.134	48177
646.192	107615
646.251	273111
646.310	82876
646.369	17655
646.427	13851
646.486	12067
646.545	11465
646.603	11437
646.662	10237
646.721	9559
646.779	9681
646.838	8581
646.896	11379
646.955	11130
647.014	13538
647.072	18380
647.131	37761
647.189	37969
647.248	11060
647.306	9299
647.365	9281
647.423	8455
647.481	9984
647.540	7591
647.598	9404
647.657	8255
647.715	9319
647.773	8694
647.832	9413
647.890	8497
647.948	10119
648.007	9569
648.065	9407
648.123	8491
648.181	11763
648.240	11100
648.298	13110
648.356	9364
648.414	10202
648.472	9326
648.531	9743
648.589	9191
648.647	9421
648.705	9370
648.763	8828
648.821	9049
648.879	9196
648.937	9864
648.995	10391
649.053	9847
649.111	12257
649.169	15451
649.227	22600
649.285	37813
649.343	101909
649.401	111097
649.459	26085
649.516	22130
649.574	14648
649.632	21378
649.690	35943
649.748	19293
649.806	18194
649.863	31722
649.921	31068
649.979	33770
650.037	11756
650.094	7907
650.152	9393
650.210	8301
650.268	8521
650.325	7942
650.383	8838
650.440	7591
650.498	8850
650.556	8279
650.613	8281
650.671	7718
650.728	8577
650.786	8480
650.843	8404
650.901	6684
650.958	8304
651.016	6986
651.073	7761
651.131	8234
651.188	7198
651.246	8187
651.303	7465
651.360	7584
651.418	6614
651.475	7876
651.532	7139
651.590	7358
651.647	7066
651.704	7167
651.762	6953
651.819	7454
651.876	7393
651.933	7195
651.990	7583
652.048	6204
652.105	7189
652.162	7066
652.219	6713
652.276	7413
652.333	7640
652.390	6473
652.448	7069
652.505	6879
652.562	8566
652.619	8203
652.676	11130
652.733	15886
652.790	8414
652.847	5967
652.904	7721
652.961	5577
653.017	6666
653.074	7665
653.131	7371
653.188	5681
653.245	6140
653.302	6550
653.359	6463
653.415	6944
653.472	7180
653.529	6493
653.586	5845
653.642	6183
653.699	7111
653.756	6376
653.813	6394
653.869	6855
653.926	6374
653.983	5811
654.039	6718
654.096	6304
654.152	7446
654.209	5954
654.266	6884
654.322	6585
654.379	7689
654.435	7918
654.492	8270
654.548	9046
654.605	14367
654.661	10821
654.717	7217
654.774	7477
654.830	7371
654.887	7312
654.943	7215
655.000	7104
655.056	7428
655.112	6779
655.168	7251
655.225	7022
655.281	7668
655.337	8575
655.394	15050
655.450	13619
655.506	10391
655.562	12644
655.618	17258
655.675	7479
655.731	7264
655.787	6016
655.843	7584
655.899	6108
655.955	7556
656.011	6965
656.067	5414
656.123	5802
656.179	6867
656.235	6991
656.291	5793
656.347	6939
656.403	6926
656.459	7567
656.515	7692
656.571	8681
656.627	7521
656.683	6138
656.739	7879
656.795	5899
656.850	6830
656.906	7645
656.962	7415
657.018	5553
657.074	5852
657.129	7245
657.185	6891
657.241	8028
657.297	8821
657.352	7731
657.408	5949
657.464	7668
657.519	7264
657.575	5755
657.630	6456
657.686	6133
657.742	6136
657.797	6130
657.853	6725
657.908	8293
657.964	6323
658.019	5961
658.075	6567
658.130	7305
658.186	5481
658.241	6314
658.297	5670
658.352	6089
658.407	7063
658.463	6103
658.518	6551
658.573	5921
658.629	5660
658.684	5986
658.739	6838
658.795	4995
658.850	6061
658.905	5464
658.960	6840
659.016	5469
659.071	5431
659.126	6512
659.181	6476
659.236	7805
659.291	10015
659.346	7577
659.401	8065
659.457	8284
659.512	11678
659.567	9145
659.622	6822
659.677	6048
659.732	5997
659.787	5935
659.842	7692
659.897	9712
659.952	8146
660.007	6620
660.061	6440
660.116	5909
660.171	6114
660.226	6763
660.281	6826
660.336	4895
660.391	6508
660.445	5377
660.500	6444
660.555	6230
660.610	5289
660.664	6588
660.719	5622
660.774	5993
660.828	6311
660.883	5373
660.938	6307
660.992	5466
661.047	6647
661.101	5654
661.156	5732
661.211	5857
661.265	6147
661.320	5456
661.374	6005
661.429	5920
661.483	6522
661.538	6244
661.592	5584
661.647	5822
661.701	7092
661.755	6589
661.810	6575
661.864	5531
661.919	5329
661.973	6725
662.027	5396
662.081	5634
662.136	5919
662.190	6200
662.244	7533
662.299	5820
662.353	6707
662.407	5891
662.461	6350
662.515	6973
662.569	5919
662.624	7594
662.678	6775
662.732	5980
662.786	5435
662.840	6373
662.894	7117
662.948	5922
663.002	5946
663.056	5962
663.110	5557
663.164	6265
663.218	6902
663.272	5380
663.326	6497
663.380	5987
663.434	6870
663.488	5466
663.542	6634
663.595	5953
663.649	6285
663.703	6785
663.757	5915
663.811	5687
663.864	6499
663.918	6076
663.972	6416
664.026	5949
664.079	5768
664.133	6088
664.187	6652
664.240	5124
664.294	5412
664.348	5362
664.401	6223
664.455	5590
664.508	5481
664.562	6752
664.615	6593
664.669	4848
664.722	4888
664.776	5772
664.829	5918
664.883	5896
664.936	5679
664.990	6115
665.043	7521
665.097	5928
665.150	7922
665.203	6043
665.257	6683
665.310	6915
665.363	6104
665.417	6011
665.470	7357
665.523	5825
665.576	7364
665.630	6099
665.683	6584
665.736	6628
665.789	7056
665.842	5388
665.895	6935
665.949	6508
666.002	5839
666.055	5849
666.108	7298
666.161	6468
666.214	6312
666.267	6822
666.320	6518
666.373	6783
666.426	7062
666.479	5490
666.532	6710
666.585	7513
666.638	8265
666.691	7232
666.744	8142
666.796	7133
666.849	8262
666.902	7509
666.955	6498
667.008	6029
667.060	5498
667.113	5953
667.166	6352
667.219	5719
667.271	6581
667.324	6326
667.377	7270
667.430	6287
667.482	7139
667.535	8058
667.587	6747
667.640	5815
667.693	6654
667.745	7990
667.798	10246
667.850	6869
667.903	7212
667.955	6463
668.008	6449
668.060	7736
668.113	8158
668.165	7276
668.218	7120
668.270	6444
668.322	6568
668.375	6454
668.427	7187
668.479	6189
668.532	7198
668.584	6625
668.636	7164
668.689	6793
668.741	7083
668.793	7235
668.845	6385
668.898	7128
668.950	7210
669.002	6326
669.054	6837
669.106	6176
669.158	7719
669.211	7137
669.263	7116
669.315	7848
669.367	9259
669.419	8005
669.471	8609
669.523	7305
669.575	9058
669.627	9614
669.679	7131
669.731	7391
669.783	7352
669.835	8014
669.886	7651
669.938	7212
669.990	6981
670.042	6454
670.094	7634
670.146	7070
670.197	7734
670.249	8325
670.301	10002
670.353	12367
670.404	15463
670.456	21104
670.508	32361
670.560	56080
670.611	98054
670.663	176117
670.715	347036
670.766	784862
670.818	427229
670.869	66316
670.921	28371
670.972	19644
671.024	15553
671.075	12189
671.127	11108
671.178	8132
671.230	9171
671.281	8860
671.333	7787
671.384	7638
671.436	8915
671.487	8670
671.538	8935
671.590	8855
671.641	11781
671.692	11924
671.744	18057
671.795	21303
671.846	12783
671.897	8309
671.949	9117
672.000	8109
672.051	7324
672.102	8322
672.153	6430
672.204	6907
672.256	7293
672.307	5566
672.358	6665
672.409	7195
672.460	7520
672.511	5960
672.562	6138
672.613	6340
672.664	6176
672.715	5887
672.766	6688
672.817	6458
672.868	6441
672.919	6447
672.970	6074
673.021	6581
673.071	5437
673.122	5845
673.173	5670
673.224	4872
673.275	6456
673.326	5384
673.376	6272
673.427	5023
673.478	6557
673.528	6811
673.579	6381
673.630	5766
673.680	5888
673.731	5555
673.782	5413
673.832	5086
673.883	5925
673.934	5153
673.984	6209
674.035	5296
674.085	6729
674.136	5655
674.186	6591
674.237	7224
674.287	10416
674.338	8096
674.388	6176
674.438	5503
674.489	5979
674.539	5644
674.589	7058
674.640	6320
674.690	6077
674.740	6010
674.791	6364
674.841	5571
674.891	6770
674.942	5701
674.992	5983
675.042	4755
675.092	5226
675.142	4788
675.193	5045
675.243	4537
675.293	5650
675.343	5508
675.393	6200
675.443	6142
675.493	5379
675.543	3594
675.593	5442
675.643	5819
675.693	6016
675.743	6086
675.793	6370
675.843	4565
675.893	5709
675.943	5131
675.993	5335
676.043	5470
676.093	5935
676.142	3886
676.192	4944
676.242	4786
676.292	5741
676.341	5210
676.391	5521
676.441	5244
676.491	4702
676.540	3983
676.590	4988
676.640	5177
676.689	5229
676.739	4367
676.789	5095
676.838	4119
676.888	5394
676.937	4418
676.987	5186
677.037	4538
677.086	4235
677.136	4426
677.185	4145
677.235	3516
677.284	4065
677.333	3882
677.383	4796
677.432	3387
677.482	3980
677.531	4270
677.580	5253
677.630	4175
677.679	4313
677.728	4332
677.778	5387
677.827	3898
677.876	3999
677.925	3217
677.975	4184
678.024	4300
678.073	4218
678.122	4843
678.171	4898
678.220	3871
678.269	5358
678.319	4896
678.368	4310
678.417	3852
678.466	5165
678.515	4043
678.564	5265
678.613	4309
678.662	5237
678.711	4978
678.760	5028
678.809	4710
678.857	4971
678.906	5046
678.955	3968
679.004	4587
679.053	4933
679.102	4018
679.151	5092
679.199	4722
679.248	5085
679.297	4514
679.346	5024
679.394	4463
679.443	5050
679.492	4185
679.540	5070
679.589	4206
679.638	4716
679.686	2867
679.735	4059
679.784	4684
679.832	5188
679.881	3718
679.929	3876
679.978	4153
680.026	4133
680.075	4429
680.123	4212
680.172	4313
680.220	4096
680.268	3356
680.317	4124
680.365	3447
680.414	3661
680.462	3609
680.510	3927
680.559	3450
680.607	3518
680.655	4631
680.703	4456
680.752	3960
680.800	3776
680.848	2691
680.896	3578
680.945	3172
680.993	4147
681.041	3734
681.089	3740
681.137	3190
681.185	3168
681.233	3245
681.258	3555
681.281	3809
681.329	3765
681.377	4851
681.380	4813
681.425	3384
681.473	4084
681.502	4462
681.521	4653
681.569	4917
681.617	3792
681.624	3985
681.665	4909
681.713	4764
681.745	4632
681.761	4515
681.809	4230
681.857	5468
681.867	5322
681.904	4641
681.952	5428
681.989	5238
682.000	5134
682.048	5946
682.096	4419
682.111	4579
682.143	4784
682.191	4765
682.233	5674
682.239	5771
682.286	5389
682.334	5651
682.354	5061
682.382	4195
682.430	5522
682.476	5333
682.477	5294
682.525	5459
682.572	5066
682.598	5512
682.620	5816
682.667	5585
682.715	6947
682.720	6889
682.763	6047
682.810	6006
682.841	5750
682.857	5560
682.905	5574
682.952	6200
682.963	6374
683.000	6854
683.047	6473
683.085	6930
683.095	7019
683.142	6016
683.190	6564
683.206	6570
683.237	6462
683.284	6873
683.328	6714
683.332	6675
683.379	6406
683.426	6465
683.449	6367
683.473	6212
683.521	6281
683.568	7562
683.571	7501
683.615	6301
683.662	7102
683.693	7003
683.709	6910
683.757	6928
683.804	7272
683.814	7312
683.851	7379
683.898	6997
683.936	7306
683.945	7345
683.992	7872
684.039	8714
684.057	8338
684.086	7643
684.133	8126
684.179	7099
684.180	7045
684.227	7695
684.274	8212
684.300	8267
684.321	8207
684.368	6723
684.415	7782
684.422	7794
684.462	7873
684.509	7524
684.543	7654
684.556	7641
684.603	8662
684.649	8354
684.665	8287
684.696	8165
684.743	8180
684.786	9251
684.790	9332
684.837	8594
684.883	9244
684.908	9494
684.930	9717
684.977	10483
685.023	10448
685.029	10489
685.070	10203
685.117	9087
685.150	9315
685.164	9495
685.210	10222
685.257	11189
685.272	11158
685.303	10983
685.350	10885
685.393	10369
685.396	10298
685.443	10885
685.490	11002
685.514	10959
685.536	10996
685.583	10630
685.629	10766
685.636	10745
685.675	10312
685.722	11175
685.757	10583
685.768	10465
685.815	10850
685.861	10838
685.878	11216
685.908	11665
685.954	11097
686.000	11720
686.000	11723
686.047	11187
686.093	12520
686.121	12651
686.139	12662
686.185	12416
686.232	12183
686.242	12203
686.278	12135
686.324	12223
686.363	12028
686.370	11970
686.416	11475
686.463	11571
686.484	11443
686.509	11470
686.555	11627
686.601	11162
686.606	11261
686.647	11969
686.693	11846
686.727	11947
686.739	11988
686.785	11638
686.831	11880
686.848	12011
686.877	12190
686.923	11722
686.969	11593
686.969	11590
687.015	11961
687.061	12007
687.090	12254
687.107	12401
687.153	12006
687.199	12377
687.211	12316
687.245	12144
687.291	12072
687.332	12471
687.336	12518
687.382	12949
687.428	12747
687.453	12928
687.474	12949
687.520	12200
687.565	12974
687.574	12916
687.611	12780
687.657	12578
687.695	12435
687.702	12467
687.748	13011
687.794	13205
687.816	13520
687.839	13698
687.885	13070
687.931	13256
687.937	13259
687.976	13138
688.022	13538
688.058	12922
688.067	12848
688.113	13400
688.158	13024
688.179	13079
688.204	13111
688.249	13223
688.295	14020
688.300	13949
688.340	13649
688.386	14650
688.421	14624
688.431	14527
688.477	13717
688.522	14271
688.542	14076
688.567	13966
688.613	14018
688.658	14014
688.663	14005
688.703	14110
688.749	13868
688.784	13944
688.794	13977
688.839	14137
688.884	14174
688.905	14104
688.930	13985
688.975	13502
689.020	14373
689.026	14361
689.065	14493
689.110	14183
689.146	14378
689.155	14462
689.201	14893
689.246	14652
689.267	15067
689.291	15293
689.336	14867
689.381	14443
689.388	14392
689.426	14668
689.471	15027
689.509	14819
689.516	14688
689.561	14809
689.606	13906
689.630	13913
689.651	14316
689.696	14621
689.741	14742
689.750	14764
689.785	14612
689.830	14972
689.871	15049
689.875	15079
689.920	14951
689.965	14940
689.992	14796
690.010	14713
690.054	14567
690.099	14911
690.112	14820
690.144	14825
690.189	15353
690.233	14858
690.233	14874
690.278	14925
690.323	15049
690.354	15301
690.367	15549
690.412	15760
690.457	16213
690.474	16392
690.501	16580
690.546	17042
690.590	16970
690.595	16935
690.635	17269
690.680	18158
690.716	18584
690.724	18858
690.769	20525
690.813	22156
690.836	22986
690.857	24673
690.902	27985
690.946	31807
690.957	32794
690.991	42097
691.035	54874
691.077	68296
691.080	69251
691.124	81697
691.168	93139
691.198	100945
691.213	95461
691.257	79746
691.301	64165
691.318	57886
691.346	51787
691.390	42571
691.434	32719
691.439	31556
691.478	28684
691.522	26512
691.559	23617
691.567	23420
691.611	22633
691.655	21215
691.680	20731
691.699	20650
691.743	20197
691.787	19867
691.800	19604
691.831	19372
691.875	19645
691.919	19434
691.921	19399
691.964	19284
692.008	19108
692.041	18957
692.052	18992
692.096	18846
692.139	19297
692.162	19061
692.183	18720
692.227	18767
692.271	18346
692.282	18253
692.315	18755
692.359	19104
692.402	20079
692.403	20114
692.447	19466
692.490	18801
692.523	18816
692.534	19000
692.578	19100
692.622	19079
692.643	19098
692.666	19003
692.709	18850
692.753	18539
692.763	18442
692.797	18592
692.840	18703
692.884	19105
692.884	19146
692.928	19577
692.971	19894
693.004	20186
693.015	20259
693.059	20349
693.102	20704
693.124	20495
693.146	20422
693.189	20900
693.233	21131
693.245	21188
693.276	22048
693.320	23149
693.363	24485
693.365	24456
693.407	25382
693.450	26919
693.485	28167
693.493	28890
693.537	32271
693.580	35571
693.605	37708
693.624	41568
693.667	50479
693.710	59619
693.725	62709
693.753	80616
693.797	109191
693.840	139702
693.845	142849
693.883	168820
693.926	195186
693.966	219904
693.970	216698
694.013	179390
694.056	142484
694.086	116748
694.099	110027
694.142	88118
694.185	66018
694.206	55568
694.229	51990
694.272	44331
694.315	37387
694.326	35362
694.358	33301
694.401	30762
694.444	27942
694.446	27754
694.487	26985
694.530	26013
694.566	25052
694.573	24958
694.616	23983
694.659	23165
694.686	22629
694.702	22444
694.745	21736
694.787	20866
694.806	20607
694.830	20631
694.873	20058
694.916	19788
694.926	19641
694.959	19676
695.002	19945
695.044	20017
695.046	19981
695.087	19904
695.130	19544
695.166	19456
695.172	19614
695.215	20015
695.258	20582
695.286	20912
695.301	20755
695.343	20225
695.386	19476
695.406	19214
695.428	19409
695.471	19268
695.514	19581
695.526	19564
695.556	19379
695.599	19224
695.641	18738
695.646	18676
695.684	19066
695.726	19281
695.766	19522
695.769	19555
695.811	19284
695.854	18912
695.886	18821
695.896	18952
695.938	19095
695.981	19218
696.005	19195
696.023	19053
696.065	18940
696.108	18630
696.125	18444
696.150	18742
696.192	19221
696.235	19615
696.245	19718
696.277	19681
696.319	19198
696.361	19059
696.365	18988
696.404	19651
696.446	20405
696.485	20997
696.488	21042
696.530	20910
696.572	20924
696.604	20850
696.614	20899
696.656	20771
696.698	20717
696.724	20615
696.740	20469
696.783	20013
696.825	19663
696.844	19338
696.867	19411
696.909	19539
696.951	19726
696.964	19742
696.992	19600
697.034	19177
697.076	18814
697.083	18714
697.118	18743
697.160	18662
697.202	18664
697.203	18614
697.244	18652
697.286	18740
697.323	18660
697.327	18701
697.369	18663
697.411	18652
697.442	18633
697.453	18708
697.494	18732
697.536	18863
697.562	18832
697.578	18822
697.620	18742
697.661	18571
697.682	18487
697.703	18737
697.744	18988
697.786	19409
697.801	19480
697.828	19589
697.869	19731
697.911	19804
697.921	19790
697.952	19379
697.994	18719
698.035	18096
698.040	17961
698.077	18297
698.118	18772
698.160	19133
698.160	19085
698.201	18798
698.243	18471
698.279	18154
698.284	18276
698.325	18908
698.367	19617
698.399	20040
698.408	19966
698.449	19470
698.491	18921
698.518	18510
698.532	18607
698.573	18755
698.614	18921
698.638	18943
698.656	18952
698.697	18901
698.738	18809
698.757	18723
698.779	18939
698.820	19248
698.862	19582
698.877	19651
698.903	19638
698.944	19532
698.985	19430
698.996	19354
699.026	19552
699.067	19753
699.116	19944
699.235	19082
699.354	20174
699.474	18175
699.593	20775
699.713	20360
699.832	19000
699.951	19258
700.070	18825
700.190	18801
700.309	18701
700.428	18527
700.547	18797
700.667	17998
700.786	18153
700.905	17896
701.024	17586
701.143	18865
701.262	17537
701.381	16304
701.500	18041
701.619	17494
701.738	17446
701.857	17628
701.976	16209
702.095	15962
702.214	17591
702.333	16925
702.452	16489
702.571	16256
702.690	17569
702.809	16086
702.928	16123
703.047	16607
703.165	16542
703.284	15094
703.403	16164
703.522	16752
703.640	16760
703.759	15969
703.878	18925
703.997	16773
704.115	16136
704.234	15600
704.353	16386
704.471	15044
704.590	15533
704.708	14551
704.827	15103
704.946	14863
705.064	16303
705.183	14680
705.301	17894
705.420	24082
705.538	25781
705.656	21879
705.775	21374
705.893	27538
706.012	48681
706.130	24929
706.249	22296
706.367	20612
706.485	21847
706.604	20956
706.722	19995
706.840	20074
706.958	22135
707.077	21415
707.195	19759
707.313	19412
707.431	19353
707.549	19633
707.668	18690
707.786	19532
707.904	17933
708.022	17720
708.140	18331
708.258	18096
708.376	17918
708.494	17560
708.612	19492
708.730	23532
708.848	29528
708.966	23724
709.084	23188
709.202	20973
709.320	23517
709.438	23272
709.556	22741
709.674	22425
709.791	22867
709.909	21278
710.027	22056
710.145	21735
710.263	22796
710.380	20786
710.498	21786
710.616	20437
710.733	20951
710.851	21402
710.969	20848
711.086	21118
711.204	20088
711.322	20309
711.439	19984
711.557	19919
711.674	20462
711.792	19854
711.909	21057
712.027	23149
712.144	20400
712.262	19359
712.379	21269
712.497	25448
712.614	33169
712.732	27515
712.849	24710
712.966	23803
713.084	25881
713.201	25326
713.318	24811
713.436	24571
713.553	24867
713.670	24850
713.787	26158
713.905	26300
714.022	24812
714.139	22614
714.256	24735
714.373	23867
714.490	26306
714.608	31224
714.725	64156
714.842	145777
714.959	37326
715.076	23047
715.193	22002
715.310	21657
715.427	22194
715.544	20653
715.661	20738
715.778	20549
715.895	23282
716.011	22227
716.128	21865
716.245	21054
716.362	20771
716.479	21336
716.596	21268
716.713	20229
716.829	20043
716.946	20424
717.063	19562
717.180	19696
717.296	18897
717.413	20494
717.530	19080
717.646	18152
717.763	18917
717.880	17848
717.996	18279
718.113	18142
718.229	17651
718.346	17646
718.462	16865
718.579	17174
718.695	19520
718.812	19587
718.928	19260
719.045	19586
719.161	17358
719.277	17325
719.394	16399
719.510	17591
719.626	17817
719.743	18974
719.859	18991
719.975	18699
720.092	25962
720.208	58674
720.324	33405
720.440	18215
720.557	17619
720.673	17828
720.789	22195
720.905	34100
721.021	32307
721.137	16256
721.253	16716
721.369	15891
721.486	16872
721.602	17559
721.718	17123
721.834	14778
721.950	15081
722.066	14226
722.181	14552
722.297	15362
722.413	15600
722.529	14557
722.645	15670
722.761	13650
722.877	14240
722.993	14246
723.108	13971
723.224	13832
723.340	14792
723.456	14208
723.571	12911
723.687	13560
723.803	13966
723.918	13333
724.034	12456
724.150	13560
724.265	13208
724.381	16787
724.497	25986
724.612	14528
724.728	14162
724.843	12162
724.959	13344
725.074	15862
725.190	23746
725.305	13947
725.421	13569
725.536	11935
725.651	12157
725.767	12527
725.882	11712
725.997	11270
726.113	11379
726.228	11585
726.343	12158
726.459	11065
726.574	11094
726.689	11335
726.804	10959
726.920	11408
727.035	12100
727.150	10693
727.265	11197
727.380	11133
727.495	11798
727.610	10319
727.725	11382
727.841	11506
727.956	16019
728.071	22626
728.186	11590
728.301	9745
728.416	11143
728.531	10608
728.645	10334
728.760	9648
728.875	9824
728.990	9549
729.105	10361
729.220	10322
729.335	10692
729.449	10169
729.564	10193
729.679	9153
729.794	10419
729.908	9858
730.023	10617
730.138	9779
730.253	9291
730.367	9897
730.482	8898
730.596	9423
730.711	9660
730.826	9709
730.940	9563
731.055	9507
731.169	10019
731.284	8674
731.398	8842
731.513	9392
731.627	9853
731.742	8937
731.856	10885
731.970	8979
732.085	9343
732.199	9410
732.313	9550
732.428	12170
732.542	21600
732.656	25187
732.771	11307
732.885	8915
732.999	9113
733.113	9489
733.227	9531
733.342	8548
733.456	9282
733.570	8984
733.684	8344
733.798	8358
733.912	8699
734.026	7624
734.140	8363
734.254	8450
734.368	9979
734.482	14503
734.596	9168
734.710	8036
734.824	8591
734.938	7294
735.052	7886
735.166	8238
735.280	9389
735.393	7784
735.507	7882
735.621	8813
735.735	11784
735.849	10956
735.962	8047
736.076	7758
736.190	8424
736.303	8995
736.417	11053
736.531	8099
736.644	8591
736.758	7934
736.872	8029
736.985	7257
737.099	7140
737.212	7260
737.326	7496
737.439	7047
737.553	8476
737.666	7344
737.780	7153
737.893	6735
738.007	7396
738.120	7145
738.233	6776
738.347	7033
738.460	7114
738.573	6627
738.687	7170
738.800	6661
738.913	7109
739.026	7726
739.140	7800
739.253	7698
739.366	7508
739.479	6839
739.592	7598
739.705	7104
739.818	6887
739.932	7040
740.045	6868
740.158	6767
740.271	7304
740.384	6342
740.497	7164
740.610	6539
740.723	6605
740.836	7122
740.949	7077
741.062	6768
741.174	7957
741.287	6268
741.400	6522
741.513	5851
741.626	7183
741.739	7472
741.851	7130
741.964	6712
742.077	6324
742.189	6005
742.302	6348
742.415	6305
742.527	7784
742.640	6019
742.753	7116
742.865	6153
742.978	5819
743.090	6182
743.203	6615
743.316	6181
743.428	6508
743.541	6684
743.653	6511
743.766	5640
743.878	6668
743.990	6757
744.103	7831
744.215	6113
744.327	6339
744.440	6714
744.552	6606
744.664	6572
744.777	6688
744.889	5990
745.001	6839
745.113	5112
745.226	6215
745.338	6658
745.450	5910
745.562	5957
745.674	6066
745.786	6361
745.898	6008
746.010	6092
746.122	6182
746.234	6289
746.347	5720
746.459	6399
746.570	6441
746.682	5578
746.794	6428
746.906	5538
747.018	6189
747.130	6402
747.242	6614
747.354	6271
747.466	7107
747.577	6279
747.689	5963
747.801	5944
747.913	5502
748.024	5617
748.136	5582
748.248	5844
748.359	6203
748.471	6395
748.583	6437
748.694	6170
748.806	7974
748.918	7182
749.029	7796
749.141	6353
749.252	6695
749.364	6262
749.475	7441
749.587	6829
749.698	6556
749.809	6479
749.921	6785
750.032	5174
750.144	6418
750.255	5334
750.366	6435
750.478	6247
750.589	6468
750.700	5709
750.811	6000
750.923	7474
751.034	7093
751.145	9158
751.256	6903
751.367	6950
751.479	6646
751.590	6620
751.701	6583
751.812	5437
751.923	7018
752.034	7139
752.145	6388
752.256	6623
752.367	6160
752.478	6233
752.589	6535
752.700	6246
752.811	5991
752.922	5778
753.032	6694
753.143	6137
753.254	6555
753.365	5851
753.476	6482
753.586	5639
753.697	5947
753.808	6114
753.919	6546
754.029	5250
754.140	6793
754.251	6368
754.361	6776
754.472	6355
754.582	5857
754.693	5946
754.804	6829
754.914	5816
755.025	7474
755.135	6407
755.246	6976
755.356	6874
755.466	6698
755.577	6245
755.687	6873
755.798	5516
755.908	7149
756.018	5857
756.129	5924
756.239	6537
756.349	6831
756.460	6478
756.570	6943
756.680	6187
756.790	7702
756.900	6885
757.011	7087
757.121	6699
757.231	7472
757.341	7364
757.451	7484
757.561	6951
757.671	7686
757.781	7093
757.891	7991
758.001	7422
758.111	8701
758.221	8029
758.331	7748
758.441	8117
758.551	7468
758.661	8635
758.771	8546
758.880	8655
758.990	9016
759.100	8625
759.210	9418
759.320	9087
759.429	9284
759.539	9608
759.649	9583
759.758	8898
759.868	10015
759.978	9548
760.087	10012
760.197	9884
760.307	10042
760.416	10137
760.526	11218
760.635	10959
760.745	11036
760.854	10773
760.964	11273
761.073	11768
761.182	12575
761.292	11968
761.401	12995
761.511	12688
761.620	12193
761.729	13224
761.839	13227
761.948	13899
762.057	15070
762.166	13599
762.276	14435
762.385	14810
762.494	15700
762.603	16628
762.712	17754
762.822	18356
762.931	18844
763.040	19252
763.149	20659
763.258	20142
763.367	22470
763.476	22711
763.585	23912
763.694	26074
763.803	26755
763.912	28546
764.021	30073
764.130	31714
764.238	34423
764.347	35201
764.456	39224
764.565	41031
764.674	44148
764.783	49503
764.891	55209
765.000	61458
765.109	69744
765.217	78159
765.326	88784
765.435	107041
765.543	127227
765.652	155085
765.761	195282
765.869	253723
765.978	342832
766.086	470595
766.195	663486
766.303	887855
766.412	868463
766.520	577326
766.629	849581
766.737	830477
766.846	612824
766.954	437377
767.062	318489
767.171	240818
767.279	186356
767.387	145835
767.496	121889
767.604	101637
767.712	89066
767.820	76868
767.928	70438
768.037	65138
768.145	60293
768.253	56945
768.361	55879
768.469	55394
768.577	55675
768.685	57824
768.793	62322
768.901	66037
769.009	74558
769.117	87931
769.225	109802
769.333	142249
769.441	201810
769.549	303303
769.657	489803
769.765	754713
769.873	740095
769.981	682500
770.088	714211
770.196	460946
770.304	295541
770.412	205201
770.519	152581
770.627	119000
770.735	97425
770.842	80026
770.950	68754
771.058	58420
771.165	53142
771.273	46981
771.380	42516
771.488	37960
771.595	36011
771.703	31300
771.810	30573
771.918	26986
772.025	27424
772.133	24650
772.240	23428
772.348	22554
772.455	21864
772.562	21072
772.670	19241
772.777	18421
772.884	17467
772.991	16550
773.099	16878
773.206	15802
773.313	15974
773.420	14710
773.528	14600
773.635	13896
773.742	13908
773.849	12945
773.956	12640
774.063	12663
774.170	12035
774.277	11286
774.384	11812
774.491	11594
774.598	11688
774.705	10963
774.812	11330
774.919	11143
775.026	11515
775.133	10818
775.239	10325
775.346	9244
775.453	10263
775.560	9720
775.667	9614
775.773	9329
775.880	10176
775.987	9091
776.093	8880
776.200	8720
776.307	8622
776.413	8358
776.520	8618
776.627	8729
776.733	8803
776.840	7872
776.946	8816
777.053	7832
777.159	7384
777.266	6444
777.372	8568
777.478	7903
777.585	8208
777.691	6890
777.798	7069
777.904	7564
778.010	7730
778.117	8271
778.223	7614
778.329	6780
778.435	7025
778.542	6399
778.648	6185
778.754	6161
778.860	7042
778.966	5964
779.072	7017
779.178	7167
779.284	7139
779.391	6088
779.497	7646
779.603	8959
779.708	12648
779.815	19364
779.920	52660
780.026	191131
780.132	108390
780.238	14503
780.344	9986
780.450	7517
780.556	7886
780.661	6493
780.767	6672
780.873	6452
780.979	5571
781.085	4865
781.190	5463
781.296	4872
781.402	5124
781.507	5082
781.613	5245
781.719	4976
781.824	5523
781.930	4685
782.035	5220
782.141	4739
782.246	5123
782.352	4648
782.457	5652
782.563	4808
782.668	5133
782.773	4082
782.879	4869
782.984	5368
783.090	5381
783.195	4777
783.300	4960
783.405	4716
783.511	4249
783.616	4596
783.721	4827
783.826	4374
783.932	4543
784.037	4451
784.142	4843
784.247	4171
784.352	4110
784.457	5259
784.562	4648
784.667	3065
784.772	3867
784.877	4694
784.982	4945
785.087	4367
785.192	4947
785.297	3320
785.402	4433
785.507	3893
785.611	4010
785.716	4018
785.821	3606
785.926	3967
786.031	3677
786.135	4520
786.240	3455
786.345	2625
786.450	4201
786.554	3339
786.659	3921
786.763	2901
786.868	4439
786.973	4690
787.077	4662
787.182	3639
787.286	3974
787.391	2997
787.495	4139
787.600	3090
787.704	3084
787.809	3531
787.913	4416
788.017	3388
788.122	3457
788.226	3372
788.330	3599
788.435	3351
788.539	3548
788.643	3025
788.747	2943
788.852	3127
788.956	2800
789.060	2575
789.164	4302
789.268	3020
789.372	3165
789.476	3505
789.580	3158
789.684	3382
789.788	3964
789.892	3465
789.996	4109
790.100	2973
790.204	3640
790.308	3249
790.412	3918
790.516	3955
790.620	3867
790.724	2941
790.828	3372
790.931	2713
791.035	4246
791.139	3600
791.242	3271
791.346	3951
791.450	3783
791.554	3105
791.657	2640
791.761	2764
791.864	3654
791.968	3002
792.072	3505
792.175	3232
792.279	3225
792.382	3292
792.486	2825
792.589	2615
792.693	2685
792.796	3106
792.899	3930
793.003	3292
793.106	2703
793.209	2459
793.313	3125
793.416	2649
793.519	3710
793.623	3260
793.726	3401
793.829	3297
793.932	3477
794.035	2964
794.138	3485
794.242	3417
794.345	3907
794.448	6213
794.551	9269
794.654	29284
794.757	103475
794.860	67469
794.963	9243
795.066	4604
795.169	4803
795.272	3050
795.375	3263
795.477	2462
795.580	3551
795.683	2135
795.786	3725
795.889	1682
795.991	2784
796.094	3266
796.197	3139
796.300	2502
796.402	2144
796.505	1855
796.608	2727
796.710	2575
796.813	2472
796.915	2528
797.018	2730
797.120	2133
797.223	2325
797.326	2558
797.428	2372
797.530	2766
797.633	2615
797.735	2792
797.838	3871
797.940	4611
798.042	2733
798.145	1628
798.247	2401
798.349	1422
798.452	2977
798.554	2091
798.656	1748
798.758	2003
798.860	2475
798.962	2224
799.065	2133
799.167	1270
799.269	2699
799.371	2198
799.473	2331
799.575	2075
799.677	2537
799.779	2628
799.881	2139
799.983	2753
800.085	2783
800.187	2243
800.289	2209
800.390	1524
800.492	2358
800.594	3262
800.696	1567
800.798	1593
800.899	2144
801.001	1919
801.103	2228
801.205	1833
801.306	2292
801.408	2082
801.509	2193
801.611	2398
801.713	2917
801.814	1179
801.916	2927
802.017	1528
802.119	1760
802.220	1885
802.322	1815
802.423	2941
802.525	2776
802.626	1878
802.727	2705
802.829	2570
802.930	1207
803.031	2546
803.133	1826
803.234	1147
803.335	2631
803.436	2482
803.538	1925
803.639	1127
803.740	2556
803.841	1947
803.942	1951
804.043	1897
804.144	1785
804.245	2114
804.346	1989
804.447	1747
804.548	2079
804.649	2354
804.750	2113
804.851	1078
804.952	2032
805.053	1285
805.154	1665
805.255	1846
805.355	2348
805.456	1589
805.557	3063
805.658	1483
805.758	2796
805.859	1937
805.960	1594
806.061	1467
806.161	1802
806.262	1604
806.362	1794
806.463	1742
806.564	2084
806.664	1807
806.765	2159
806.865	1882
806.966	2548
807.066	1474
807.166	2118
807.267	2085
807.367	2207
807.468	1569
807.568	1325
807.668	1911
807.769	2473
807.869	2118
807.969	1845
808.069	1889
808.170	3099
808.270	2164
808.370	2049
808.470	1189
808.570	2125
808.670	1105
808.770	2426
808.870	1896
808.970	2133
809.070	1295
809.170	1781
809.271	2074
809.370	1240
809.470	880
809.570	2269
809.670	2130
809.770	2164
809.870	1657
809.970	1928
810.070	982
810.169	1834
810.269	943
810.369	2405
810.469	1824
810.568	1340
810.668	1961
810.768	1653
810.867	1473
810.967	967
811.066	1266
811.166	2090
811.265	2428
811.365	893
811.464	1716
811.564	3341
811.663	1522
811.763	1827
811.862	2101
811.962	1542
812.061	1815
812.160	2370
812.260	1683
812.359	2087
812.458	2156
812.557	3523
812.657	5937
812.756	5511
812.855	2163
812.954	2493
813.053	2404
813.153	1604
813.252	1084
813.351	1963
813.450	2600
813.549	2145
813.648	2119
813.747	2567
813.846	1962
813.945	2023
814.044	2277
814.143	3052
814.242	2423
814.341	2083
814.439	2726
814.538	3030
814.637	3043
814.736	2944
814.835	3123
814.933	3131
815.032	2993
815.131	3450
815.229	3246
815.328	4013
815.427	3782
815.525	3955
815.624	3655
815.722	4477
815.821	3807
815.919	4743
816.018	4626
816.116	5488
816.215	4925
816.313	5922
816.412	5487
816.510	5732
816.609	7653
816.707	7101
816.805	7485
816.904	8240
817.002	9600
817.100	10688
817.198	11578
817.296	13357
817.395	15136
817.493	17872
817.591	21145
817.689	27605
817.787	34811
817.885	50607
817.983	76879
818.081	128332
818.179	231220
818.277	421951
818.375	530473
818.473	393030
818.571	220954
818.669	132873
818.767	99020
818.865	86360
818.963	88994
819.061	108711
819.158	147648
819.256	227445
819.354	365039
819.452	539731
819.549	547529
819.647	437482
819.745	285561
819.842	177833
819.940	118154
820.038	83514
820.135	63065
820.233	49561
820.330	38602
820.428	32404
820.525	27720
820.623	23176
820.720	19450
820.818	18214
820.915	15687
821.012	15300
821.110	12826
821.207	12075
821.304	10073
821.402	9653
821.499	9715
821.596	8547
821.693	7493
821.791	8073
821.888	6677
821.985	7052
822.082	6689
822.179	6323
822.276	5845
822.373	5041
822.470	4489
822.567	5225
822.664	4278
822.761	4744
822.858	3215
822.955	4208
823.052	3704
823.149	3346
823.246	3679
823.343	3512
823.440	3576
823.536	3225
823.633	2543
823.730	3570
823.827	3387
823.923	2464
824.020	3289
824.117	2989
824.213	2405
824.310	3674
824.407	2784
824.503	2130
824.600	2001
824.696	1950
824.793	2284
824.889	1787
824.986	1667
825.082	1998
825.179	1779
825.275	2519
825.371	1794
825.468	2428
825.564	1885
825.660	2304
825.757	2716
825.853	1910
825.949	1707
826.045	2445
826.142	1104
826.238	1866
826.334	1566
826.430	1183
826.526	1608
826.622	1207
826.718	1422
826.814	2116
826.910	1617
827.006	1518
827.102	1142
827.198	1446
827.294	749
827.390	1934
827.486	1767
827.582	1785
827.678	-461
827.774	2494
827.869	795
827.965	2137
828.061	466
828.157	839
828.252	1147
828.348	439
828.444	1584
828.539	1261
828.635	939
828.731	1071
828.826	390
828.922	586
829.017	659
829.113	760
829.208	983
829.304	731
829.399	1438
829.495	1182
829.590	730
829.685	1356
829.781	572
829.876	689
829.971	635
830.066	618
830.162	781
830.257	1180
830.352	809
830.447	1329
830.543	1222
830.638	246
830.733	1481
830.828	943
830.923	1120
831.018	1069
831.113	827
831.208	858
831.303	438
831.398	716
831.493	805
831.588	1401
831.683	-26
831.778	1098
831.873	693
831.967	809
832.062	238
832.157	350
832.252	1529
832.346	1295
832.441	662
832.536	1470
832.631	1483
832.725	2763
832.820	1687
832.914	1057
833.009	787
833.104	862
833.198	939
833.293	748
833.387	1510
833.482	1431
833.576	1102
833.670	1163
833.765	885
833.859	683
833.954	1097
834.048	421
834.142	91
834.237	1315
834.331	427
834.425	793
834.519	545
834.613	1209
834.708	-287
834.802	323
834.896	-934
834.990	1274
835.084	533
835.178	113
835.272	87
835.366	55
835.460	605
835.554	1104
835.648	127
835.742	-215
835.836	555
835.930	597
836.024	785
836.117	638
836.211	1317
836.305	1472
836.399	1555
836.493	1128
836.586	1055
836.680	472
836.774	-31
836.867	1296
836.961	342
837.055	749
837.148	-253
837.242	651
837.335	312
837.429	944
837.522	17
837.616	637
837.709	905
837.803	2458
837.896	518
837.989	662
838.083	1257
838.176	1457
838.269	1845
838.363	1385
838.456	816
838.549	949
838.642	710
838.735	2427
838.829	1688
838.922	417
839.015	593
839.108	-126
839.201	1210
839.294	575
839.387	470
839.480	527
839.573	751
839.666	1653
839.759	248
839.852	229
839.945	62
840.038	447
840.131	258
840.223	649
840.316	1038
840.409	570
840.502	440
840.594	1036
840.687	430
840.780	303
840.873	218
840.965	335
841.058	1059
841.150	1672
841.243	1672
841.336	1352
841.428	197
841.521	529
841.613	-519
841.706	685
841.798	-366
841.890	512
841.983	168
842.075	1337
842.167	-102
842.260	573
842.352	1322
842.444	1416
842.537	1300
842.629	3562
842.721	2005
842.813	1097
842.905	443
842.997	845
843.090	1005
843.182	1406
843.274	1890
843.366	4421
843.458	8820
843.550	11401
843.642	2966
843.734	1316
843.826	384
843.918	1433
844.009	-226
844.101	391
844.193	229
844.285	345
844.377	394
844.469	1262
844.560	346
844.652	466
844.744	620
844.835	1047
844.927	-30
845.019	1328
845.110	813
845.202	9
845.293	446
845.385	502
845.476	109
845.568	695
845.659	848
845.751	1334
845.842	706
845.934	551
846.025	393
846.116	1351
846.208	39
846.299	389
846.390	314
846.482	1107
846.573	878
846.664	976
846.755	547
846.846	1305
846.937	129
847.029	750
847.120	43
847.211	725
847.302	1661
847.393	567
847.484	77
847.575	817
847.666	391
847.757	367
847.847	114
847.938	605
848.029	592
848.120	541
848.211	947
848.302	724
848.392	584
848.483	952
848.574	-574
848.664	1454
848.755	437
848.846	461
848.936	26
849.027	437
849.118	-481
849.208	590
849.299	290
849.389	296
849.480	439
849.570	944
849.661	1811
849.751	1076
849.841	1472
849.932	1280
850.022	-104
850.112	657
850.203	-345
850.293	230
850.383	216
850.474	491
850.564	363
850.654	1046
850.744	-478
850.834	-235
850.924	-443
851.014	432
851.104	291
851.194	-396
851.284	600
851.374	1325
851.464	670
851.554	126
851.644	-52
851.734	1083
851.824	1649
851.914	2501
852.004	2445
852.094	6381
852.183	2756
852.273	1470
852.363	198
852.452	266
852.542	28
852.632	438
852.721	-508
852.811	346
852.901	694
852.990	204
853.080	-51
853.169	141
853.259	597
853.348	590
853.438	-277
853.527	674
853.617	454
853.706	795
853.795	-188
853.885	1969
853.974	2587
854.063	5366
854.152	9032
854.242	9181
854.331	1924
854.420	584
854.509	619
854.598	1422
854.687	-131
854.777	668
854.866	-265
854.955	652
855.044	68
855.133	535
855.222	158
855.311	-367
855.400	191
855.488	345
855.577	-245
855.666	274
855.755	759
855.844	835
855.933	383
856.021	1882
856.110	866
856.199	452
856.288	291
856.376	-6
856.465	141
856.554	1066
856.642	186
856.731	-29
856.819	-292
856.908	-281
856.996	-137
857.085	-260
857.173	-47
857.262	-123
857.350	-63
857.438	577
857.527	-29
857.615	213
857.703	191
857.792	194
857.880	-110
857.968	235
858.056	-164
858.145	325
858.233	700
858.321	-28
858.409	40
858.497	-65
858.585	-553
858.673	1140
858.761	-709
858.849	-49
858.937	-515
859.025	288
859.113	125
859.201	-512
859.289	364
859.377	338
859.465	1
859.552	386
859.640	-519
859.728	673
859.816	-830
859.903	200
859.991	-403
860.079	139
860.166	-198
860.254	272
860.342	54
860.429	-29
860.517	-1102
860.604	296
860.692	-265
860.779	50
860.867	-64
860.954	209
861.042	-851
861.129	203
861.216	137
861.304	117
861.391	260
861.478	238
861.565	-786
861.653	748
861.740	-1067
861.827	-35
861.914	29
862.001	-3
862.089	179
862.176	693
862.263	-124
862.350	371
862.437	-717
862.524	268
862.611	-107
862.698	378
862.785	-467
862.871	-246
862.958	-848
863.045	217
863.132	-709
863.219	486
863.306	-1126
863.392	221
863.479	-168
863.566	64
863.652	-588
863.739	-139
863.826	570
863.912	294
863.999	-73
864.086	672
864.172	-444
864.259	740
864.345	-273
864.432	-826
864.518	-541
864.604	-307
864.691	-68
864.777	243
864.863	187
864.950	646
865.036	-728
865.122	998
865.209	416
865.295	642
865.381	-517
865.467	404
865.553	230
865.639	227
865.726	-9
865.812	1014
865.898	1701
865.984	2726
866.070	3573
866.156	6635
866.242	3056
866.328	824
866.414	-278
866.499	62
866.585	-377
866.671	-58
866.757	5
866.843	374
866.928	-802
867.014	-221
867.100	15
867.186	92
867.271	96
867.357	738
867.442	-283
867.528	628
867.614	-176
867.699	-86
867.785	161
867.870	-341
867.956	-252
868.041	-276
868.127	235
868.212	519
868.297	450
868.383	422
868.468	510
868.553	500
868.639	116
868.724	1537
868.809	2375
868.894	1078
868.979	-332
869.065	60
869.150	-580
869.235	13
869.320	-6
869.405	220
869.490	-919
869.575	575
869.660	-244
869.745	-53
869.830	-493
869.915	-1
870.000	-873
870.085	217
870.169	-741
870.254	261
870.339	-750
870.424	22
870.509	-589
870.593	549
870.678	514
870.763	-250
870.847	-306
870.932	-911
871.016	399
871.101	15
871.186	-853
871.270	-464
871.355	-913
871.439	-115
871.523	-581
871.608	-298
871.692	171
871.777	-251
871.861	-625
871.945	-624
872.030	517
872.114	72
872.198	-302
872.282	-17
872.367	-299
872.451	337
872.535	-411
872.619	39
872.703	-648
872.787	-65
872.871	-462
872.955	407
873.039	-309
873.123	129
873.207	101
873.291	-380
873.375	-740
873.459	15
873.543	53
873.627	-398
873.711	-910
873.794	-695
873.878	-1073
873.962	-423
874.045	-331
874.129	-334
874.137	-353
874.213	-546
874.245	-427
874.296	-235
874.352	-452
874.380	-558
874.460	-429
874.464	-425
874.547	-96
874.568	-162
874.631	-322
874.676	-391
874.714	-484
874.784	381
874.798	562
874.881	259
874.892	230
874.965	-5
874.999	-109
875.048	-232
875.107	-431
875.131	-532
875.215	-363
875.215	-364
875.298	-649
875.323	-720
875.381	-937
875.430	-287
875.465	184
875.538	-693
875.548	-808
875.631	-232
875.646	-248
875.714	-297
875.753	-120
875.798	7
875.861	-138
875.881	-172
875.964	537
875.968	482
876.047	-526
876.076	-507
876.130	-386
876.183	-228
876.213	-200
876.291	235
876.296	273
876.379	-595
876.398	-475
876.462	-124
876.506	-294
876.545	-448
876.613	-779
876.628	-859
876.711	-396
876.721	-350
876.794	38
876.828	-204
876.877	-582
876.935	-487
876.960	-399
877.043	54
877.043	53
877.125	-350
877.150	-464
877.208	-657
877.258	-288
877.291	6
877.365	-330
877.374	-375
877.456	449
877.472	329
877.539	-293
877.579	-49
877.622	238
877.687	-293
877.704	-419
877.787	270
877.794	175
877.869	-935
877.901	-627
877.952	-122
878.008	-264
878.034	-302
878.115	-72
878.117	-69
878.199	-904
878.222	-622
878.282	209
878.329	215
878.364	158
878.437	346
878.447	358
878.529	-1336
878.544	-1170
878.611	-204
878.651	-107
878.694	-58
878.758	92
878.776	157
878.858	-585
878.865	-552
878.941	-295
878.972	-451
879.023	-620
879.078	-342
879.105	-195
879.185	-542
879.187	-551
879.269	116
879.292	-50
879.351	-436
879.399	-517
879.433	-545
879.506	-68
879.516	-3
879.598	-276
879.613	-262
879.680	-236
879.720	-245
879.762	-285
879.827	-620
879.844	-710
879.926	-183
879.933	-189
880.007	-95
880.040	-280
880.089	-592
880.147	-8
880.171	283
880.253	51
880.254	49
880.335	-457
880.360	-318
880.417	185
880.467	-23
880.499	-83
880.574	389
880.580	418
880.662	-127
880.680	-118
880.744	49
880.787	84
880.825	-73
880.893	63
880.907	138
880.989	84
881.000	109
881.070	307
881.106	169
881.152	-181
881.213	-263
881.233	-307
881.315	-590
881.319	-639
881.396	-1065
881.426	-927
881.478	-552
881.532	-98
881.559	-69
881.639	-477
881.641	-477
881.722	54
881.745	-62
881.803	-580
881.852	-541
881.885	-500
881.958	-948
881.966	-944
882.047	-249
882.064	-203
882.129	-317
882.171	-170
882.210	-31
882.277	-32
882.291	-31
882.372	-44
882.383	-57
882.454	-127
882.489	-71
882.535	147
882.596	101
882.616	-82
882.697	-553
882.702	-579
882.778	-48
882.808	186
882.859	28
882.914	-420
882.940	-508
883.020	-411
883.021	-408
883.102	23
883.127	-48
883.183	-140
883.233	-178
883.264	-341
883.339	-625
883.345	-605
883.426	-554
883.445	-420
883.507	229
883.551	457
883.587	234
883.657	200
883.668	225
883.749	-444
883.763	-407
883.830	-21
883.869	-90
883.910	-137
883.975	88
883.991	126
884.072	-183
884.081	-172
884.152	-81
884.187	-175
884.233	19
884.292	588
884.314	445
884.394	-434
884.398	-474
884.475	-442
884.504	-454
884.555	-392
884.610	-357
884.636	-325
884.716	-29
884.716	-28
884.797	-335
884.821	-452
884.877	136
884.927	632
884.958	451
885.033	-268
885.038	-296
885.118	-312
885.139	-403
885.199	-376
885.244	-168
885.279	7
885.350	-73
885.359	-124
885.439	-128
885.456	-180
885.520	-391
885.561	-423
885.600	-157
885.667	-86
885.680	-178
885.760	-408
885.773	-457
885.840	-203
885.878	-87
885.920	-166
885.984	-77
886.000	-114
886.080	-613
886.089	-648
886.160	-681
886.195	-712
886.240	-458
886.300	-296
886.320	-285
886.400	156
886.406	162
886.480	-10
886.511	-76
886.560	-210
886.616	-291
886.640	-319
886.720	-426
886.722	-430
886.800	10
886.827	197
886.879	410
886.932	475
886.959	458
887.038	517
887.039	516
887.119	158
887.143	126
887.198	185
887.248	15
887.278	4
887.354	134
887.358	144
887.437	250
887.459	312
887.517	137
887.564	-119
887.596	-140
887.669	6
887.676	10
887.755	-95
887.774	-110
887.835	-401
887.880	-614
887.914	-426
887.985	19
887.994	33
888.073	37
888.090	52
888.153	-87
888.195	-226
888.232	-255
888.300	-210
888.311	-159
888.391	173
888.405	221
888.470	29
888.510	-87
888.549	35
888.615	385
888.628	336
888.708	-158
888.720	-226
888.787	-237
888.825	-249
888.866	-372
888.930	-490
888.945	-361
889.024	200
889.035	290
889.103	361
889.140	374
889.182	-16
889.245	-560
889.261	-408
889.340	281
889.349	367
889.419	593
889.454	682
889.498	620
889.559	559
889.577	386
889.656	-393
889.664	-466
889.735	-244
889.768	-139
889.814	105
889.873	432
889.978	-383
890.083	87
890.187	-209
890.292	-142
890.397	475
890.501	155
890.606	70
890.710	221
890.815	289
890.919	220
891.024	414
891.128	-376
891.233	39
891.337	-248
891.442	47
891.546	258
891.650	234
891.755	-840
891.859	152
891.963	-1047
892.068	31
892.172	-215
892.276	708
892.380	-377
892.484	-944
892.589	-192
892.693	199
892.797	-769
892.901	-471
893.005	-273
893.109	-429
893.213	163
893.317	292
893.421	-436
893.525	-784
893.629	151
893.733	162
893.837	-206
893.941	-833
894.045	454
894.148	117
894.252	-416
894.356	100
894.460	720
894.564	-466
894.667	-163
894.771	-826
894.875	-279
894.978	-203
895.082	-124
895.186	62
895.289	673
895.393	-107
895.496	-417
895.600	-264
895.703	-402
895.807	448
895.910	328
896.014	-329
896.117	-167
896.221	-479
896.324	-305
896.427	-172
896.531	206
896.634	87
896.737	472
896.840	-531
896.944	-394
897.047	267
897.150	380
897.253	59
897.356	473
897.460	-280
897.563	-121
897.666	-182
897.769	-596
897.872	502
897.975	808
898.078	-14
898.181	-687
898.284	-194
898.387	-286
898.490	494
898.593	355
898.695	-576
898.798	218
898.901	-217
899.004	193
899.107	-48
899.209	-112
899.312	684
899.415	312
899.518	-390
899.620	-371
899.723	83
899.826	407
899.928	-254
900.031	191
900.133	-954
900.236	-811
900.338	1127
900.441	6
900.543	-435
900.646	71
900.748	-186
900.851	338
900.953	-29
901.055	425
901.158	-61
901.260	-34
901.362	247
901.465	-88
901.567	480
901.669	535
901.771	5
901.873	182
901.976	-78
902.078	-284
902.180	-520
902.282	7
902.384	-808
902.486	-46
902.588	653
902.690	-287
902.792	137
902.894	-75
902.996	-781
903.098	-694
903.200	549
903.302	382
903.404	104
903.505	-190
903.607	293
903.709	-182
903.811	249
903.913	185
904.014	-252
904.116	-115
904.218	-264
904.319	-176
904.421	231
904.523	-90
904.624	-397
904.726	-111
904.827	-69
904.929	-228
905.030	-850
905.132	-255
905.233	43
905.335	-92
905.436	193
905.537	206
905.639	-505
905.740	550
905.841	-534
905.943	19
906.044	-470
906.145	153
906.247	-261
906.348	11
906.449	-540
906.550	-623
906.651	69
906.752	17
906.854	-484
906.955	-933
907.056	-346
907.157	-204
907.258	400
907.359	-333
907.460	56
907.561	161
907.662	-13
907.762	-240
907.863	306
907.964	-494
908.065	-473
908.166	-771
908.267	-181
908.367	-372
908.468	-791
908.569	76
908.670	438
908.770	-89
908.871	-143
908.971	-788
909.072	26
909.173	-1051
909.273	536
909.374	-381
909.474	170
909.575	304
909.675	35
909.776	-764
909.876	-37
909.977	-219
910.077	198
910.177	-338
910.278	-134
910.378	-488
910.478	66
910.579	-332
910.679	139
910.779	-722
910.879	31
910.980	-243
911.080	-470
911.180	-211
911.280	118
911.380	-163
911.480	-301
911.580	-198
911.680	0
911.780	401
911.880	-255
911.980	77
912.080	-100
912.180	-49
912.280	-357
912.380	-62
912.480	-744
912.580	-569
912.679	-527
912.779	-189
912.879	-586
912.979	-1045
913.078	-442
913.178	175
913.278	-79
913.377	-481
913.477	-388
913.577	-304
913.676	769
913.776	-37
913.875	-166
913.975	851
914.074	-40
914.174	-92
914.273	318
914.373	-49
914.472	41
914.572	-293
914.671	-502
914.770	63
914.870	-442
914.969	238
915.068	-452
915.167	-71
915.267	-572
915.366	-210
915.465	-119
915.564	56
915.663	-552
915.763	-616
915.862	-579
915.961	-184
916.060	-389
916.159	-139
916.258	-190
916.357	-637
916.456	-558
916.555	-572
916.654	-92
916.752	-382
916.851	-1556
916.950	-77
917.049	-372
917.148	-177
917.247	-716
917.345	-72
917.444	-425
917.543	-751
917.642	-77
917.740	-945
917.839	-805
917.937	-442
918.036	706
918.135	-567
918.233	-514
918.332	-507
918.430	-301
918.529	95
918.627	-580
918.726	-93
918.824	-170
918.923	-169
919.021	-711
919.119	-824
919.218	-1197
919.316	-444
919.414	-540
919.512	-891
919.611	-251
919.709	-130
919.807	-384
919.905	-139
920.003	589
920.102	-408
920.200	-318
920.298	-583
920.396	-669
920.494	-550
920.592	165
920.690	-678
920.788	-1370
920.886	119
920.984	-172
921.082	-990
921.180	121
921.277	-893
921.375	-791
921.473	-52
921.571	-411
921.669	-781
921.766	-44
921.864	165
921.962	-496
922.060	-133
922.157	170
922.255	-575
922.352	-420
922.450	-511
922.548	-456
922.645	-445
922.743	-325
922.840	-12
922.938	-805
923.035	-565
923.133	-1147
923.230	-1273
923.327	-1241
923.425	-424
923.522	-350
923.619	-742
923.717	-685
923.814	189
923.911	-227
924.008	-575
924.106	-1176
924.203	-572
924.300	-1042
924.397	-672
924.494	-408
924.591	-224
924.688	-366
924.786	-656
924.883	175
924.979	-871
925.077	-1251
925.173	-789
925.270	-142
925.367	-141
925.464	-797
925.561	-348
925.658	-1134
925.755	-642
925.852	-60
925.948	-180
926.045	-452
926.142	-767
926.239	-76
926.335	-712
926.432	-80
926.529	-831
926.625	-173
926.722	-837
926.818	-311
926.915	-325
927.011	-250
927.108	-1470
927.204	-556
927.301	299
927.397	-748
927.494	-525
927.590	-533
927.687	-397
927.783	358
927.879	-1734
927.976	-857
928.072	-359
928.168	-1561
928.264	-234
928.361	-265
928.457	-495
928.553	-472
928.649	-48
928.745	-736
928.841	-1308
928.937	-557
929.033	-267
929.129	-690
929.225	-1286
929.321	-512
929.417	-618
929.513	-1277
929.609	-986
929.705	-1073
929.801	-726
929.897	-806
929.993	-724
930.089	-753
930.184	-146
930.280	-874
930.376	-474
930.471	-587
930.567	-317
930.663	-1027
930.758	-872
930.854	-1312
930.950	-1269
931.045	-808
931.141	-1212
931.236	-559
931.332	-1000
931.427	-980
931.523	-979
931.618	-870
931.714	-1207
931.809	-698
931.905	-394
932.000	-851
932.095	-920
932.191	-1256
932.286	-939
932.381	-947
932.476	-1074
932.572	-902
932.667	-1268
932.762	-1168
932.857	-486
932.952	-708
933.047	-871
933.142	-387
933.237	-1557
933.332	-669
933.427	-753
933.522	-967
933.617	-597
933.712	-1237
933.807	-798
933.902	-1220
933.997	-547
934.092	-1535
934.187	-971
934.282	-979
934.376	-111
934.471	-804
934.566	-1791
934.661	-620
934.755	-384
934.850	-709
934.945	-375
935.039	-765
935.134	-522
935.228	-564
935.323	-1234
935.417	163
935.512	-329
935.606	-1403
935.701	-1399
935.795	-1361
935.890	-924
935.984	-962
936.079	-1487
936.173	-736
936.267	-1226
936.362	-317
936.456	-559
936.550	-814
936.644	-1551
936.738	-1060
936.833	-1123
936.927	-1239
937.021	-396
937.115	-470
937.209	-1142
937.303	-1286
937.397	-1198
937.491	-1136
937.585	-542
937.679	-910
937.773	-661
937.867	-793
937.961	-1942
938.055	-1202
938.149	-983
938.243	-445
938.337	-1967
938.430	-921
938.524	-1420
938.618	-791
938.712	-1077
938.805	-1066
938.899	-422
938.993	-1223
939.086	-813
939.180	-1068
939.274	-1136
939.367	-2215
939.461	-1443
939.554	-1299
939.648	-1563
939.741	-1593
939.835	-1186
939.928	-742
940.022	-327
940.115	-1738
940.208	-661
940.302	-498
940.395	-1540
940.488	-1657
940.582	-1010
940.675	-1033
940.768	-323
940.861	-1077
940.954	-518
941.048	-1231
941.141	-1000
941.234	-1057
941.327	-1200
941.420	-1373
941.513	-1376
941.606	-612
941.699	-1421
941.792	-639
941.885	-1324
941.978	-770
942.071	-1525
942.164	-1103
942.257	-1248
942.349	-738
942.442	-1023
942.535	-1913
942.628	-801
942.721	-1572
942.813	-1393
942.906	-770
942.999	-902
943.091	-2099
943.184	-1006
943.277	-552
943.369	-418
943.462	-714
943.554	-1028
943.647	-447
943.739	-1021
943.832	-1206
943.924	-771
944.017	-1604
944.109	-1139
944.201	-1320
944.294	-1775
944.386	-714
944.478	-991
944.571	-1110
944.663	-1752
944.755	-684
944.847	-1119
944.940	-988
945.032	-1397
945.124	-1059
945.216	323
945.308	-259
945.400	-1264
945.492	-1147
945.584	-837
945.676	-1062
945.768	-1438
945.860	-555
945.952	-571
946.044	-1504
946.136	-744
946.228	-1132
946.320	-1066
946.412	-630
946.503	-1136
946.595	-1552
946.687	-1365
946.779	-640
946.870	-806
946.962	-1015
947.054	-1226
947.145	-1111
947.237	-636
947.329	-1703
947.420	-1726
947.512	-1371
947.603	-1627
947.695	-865
947.786	-1548
947.878	-1243
947.969	-956
948.061	-1527
948.152	-934
948.243	-352
948.335	-1767
948.426	-1345
948.517	-1557
948.609	-191
948.700	-1220
948.791	-657
948.882	-1193
948.973	-1347
949.065	-1039
949.156	-1278
949.247	-1020
949.338	-1472
949.429	-1492
949.520	-568
949.611	-1513
949.702	-676
949.793	-554
949.884	-611
949.975	-1176
950.066	-1360
950.157	-1244
950.247	-1137
950.338	-1393
950.429	-1124
950.520	-1510
950.611	-563
950.701	-1342
950.792	-1315
950.883	-1169
950.973	-2116
951.064	-983
951.155	-1066
951.245	-956
951.336	-1040
951.427	-789
951.517	-791
951.608	-312
951.698	-1773
951.788	-1439
951.879	-1097
951.969	-941
952.060	-1653
952.150	-860
952.240	-792
952.331	-2290
952.421	-771
952.511	-1500
952.602	-1113
952.692	-951
952.782	-1420
952.872	-1275
952.962	-879
953.052	-1755
953.143	-1734
953.233	-1477
953.323	-526
953.413	-1516
953.503	-512
953.593	-833
953.683	-1337
953.773	-1697
953.863	-1268
953.953	-731
954.042	-1417
954.132	-1024
954.222	-1050
954.312	-702
954.402	-1488
954.492	-1215
954.581	-1018
954.671	-1511
954.761	-235
954.850	-297
954.940	-1081
955.030	-862
955.119	-546
955.209	-1087
955.298	-1120
955.388	-1307
955.477	-1170
955.567	-1588
955.656	-1110
955.746	-958
955.835	-910
955.925	-1235
956.014	-1213
956.103	-1511
956.193	-1062
956.282	-2046
956.371	-1733
956.461	-992
956.550	-1231
956.639	-1464
956.728	-1627
956.817	-526
956.906	-1257
956.995	-1172
957.085	-1536
957.174	-1769
957.263	-1441
957.352	-1430
957.441	-1246
957.530	-983
957.619	-782
957.708	-1915
957.796	-873
957.885	-1142
957.974	-1820
958.063	-1430
958.152	-480
958.241	-1848
958.329	-991
958.418	-1323
958.507	-1802
958.596	-1492
958.684	-1824
958.773	-1064
958.861	-1066
958.950	-1792
959.039	-1473
959.127	-1547
959.216	-962
959.304	-971
959.393	-780
959.481	-1043
959.570	-461
959.658	-1890
959.746	-733
959.835	-997
959.923	-1054
960.011	-544
960.100	-751
960.188	-973
960.276	-1132
960.365	-1388
960.453	-1373
960.541	-1010
960.629	-1820
960.717	-1017
960.805	-1787
960.893	-1491
960.981	-1066
961.069	-1770
961.158	-655
961.245	-757
961.333	-966
961.421	-2172
961.509	-623
961.597	-2041
961.685	-1637
961.773	-1555
961.861	-1341
961.949	-842
962.036	-1593
962.124	-856
962.212	-1175
962.299	-1530
962.387	-1535
962.475	-1363
962.562	-1141
962.650	-1609
962.738	-1000
962.825	-1006
962.913	-890
963.000	-1196
963.088	-1619
963.175	-1230
963.263	-1303
963.350	-1352
963.438	-1583
963.525	-1636
963.612	-648
963.700	-1307
963.787	-545
963.874	-584
963.962	-867
964.049	-1620
964.136	-1298
964.223	-1694
964.310	-1076
964.398	-833
964.485	-966
964.572	-1005
964.659	-1278
964.746	-858
964.833	-1168
964.920	-923
965.007	-606
965.094	-1485
965.181	-2018
965.268	-1156
965.355	-1284
965.441	-814
965.528	-1325
965.615	-1099
965.702	-1896
965.789	-489
965.875	-1277
965.962	-1590
966.049	-1569
966.136	-1254
966.222	-1379
966.309	-880
966.395	-1717
966.482	-1894
966.569	-1668
966.655	-1885
966.742	-1042
966.828	-1088
966.915	-2193
967.001	-1470
967.087	-1200
967.174	-1325
967.260	-814
967.347	-1713
967.433	-1866
967.519	-428
967.605	-319
967.692	-1187
967.778	-535
967.864	-1147
967.950	-1677
968.036	-1034
968.123	-654
968.209	-1404
968.295	-1908
968.381	-1442
968.467	-901
968.553	-1907
968.639	-963
968.725	-1623
968.811	-1491
968.897	-633
968.983	-1181
969.069	-2261
969.154	-1337
969.240	-1584
969.326	-1876
969.412	-1555
969.497	-1175
969.583	-1790
969.669	-1594
969.755	-1421
969.840	-2235
969.926	-950
970.012	-1494
970.097	-960
970.183	-1263
970.268	-1363
970.354	-126
970.439	-1682
970.525	-778
970.610	-1695
970.696	-1403
970.781	-1125
970.866	-2049
970.952	-1387
971.037	-1395
971.122	-396
971.208	-1092
971.293	-1221
971.378	-1764
971.463	-1641
971.549	-1560
971.634	-2145
971.719	-1006
971.804	-667
971.889	-1088
971.974	-1316
972.059	-948
972.144	-818
972.229	-801
972.314	-1342
972.399	-1158
972.484	-1560
972.569	-1058
972.654	-1690
972.739	-795
972.824	-1029
972.908	-829
972.993	-1190
973.078	-1372
973.163	-973
973.247	-1035
973.332	-2322
973.417	-396
973.501	-1438
973.586	-1126
973.671	-1244
973.755	-1086
973.840	-1035
973.924	-608
974.009	-2051
974.093	-1430
974.178	-937
974.262	-1451
974.346	-888
974.431	-1131
974.515	-1011
974.600	-1988
974.684	-1226
974.768	-1396
974.852	-1392
974.937	-1146
975.021	-1729
975.105	-1410
975.189	-1709
975.273	-1512
975.358	-1684
975.442	-965
975.526	-1473
975.610	-1947
975.694	-1094
975.778	-1583
975.862	-910
975.946	-2252
976.030	-948
976.114	-1511
976.198	-1335
976.281	-1725
976.365	-1465
976.449	-1817
976.533	-2114
976.617	-1348
976.700	-595
976.784	-1677
976.868	-838
976.951	-1787
977.035	-1048
977.119	-1474
977.202	-1737
977.286	-1465
977.369	-1388
977.453	-1416
977.536	-1862
977.620	-1145
977.703	-1258
977.787	-2761
977.870	-976
977.953	-1446
978.037	-2288
978.120	-1016
978.203	-1689
978.287	-1113
978.370	-1440
978.453	-1476
978.536	-1957
978.620	-754
978.703	-1473
978.786	-1153
978.869	-2340
978.952	-1869
979.035	-721
979.118	-1964
979.201	-1957
979.284	-1108
979.367	-1422
979.450	-1658
979.533	-1817
979.616	-1134
979.699	-1176
979.782	-1599
979.865	-596
979.948	-1507
980.030	-1000
980.113	-666
980.196	-1759
980.279	-620
980.361	-1267
980.444	-1155
980.526	-1240
980.609	-1829
980.692	-1415
980.774	-2323
980.857	-1879
980.939	-1371
981.022	-1539
981.104	-1984
981.187	-1839
981.269	-1434
981.352	-1234
981.434	-1519
981.516	-1911
981.599	-1077
981.681	-1685
981.763	-1170
981.846	-1854
981.928	-1229
982.010	-1153
982.092	-1185
982.174	-762
982.256	-1465
982.339	-1419
982.421	-1943
982.503	-989
982.585	-1160
982.667	-1761
982.749	-1523
982.831	-713
982.913	-2124
982.995	-573
983.077	-1968
983.158	-875
983.240	-1517
983.322	-1344
983.404	-1490
983.486	-1743
983.568	-1214
983.649	-1442
983.731	-1843
983.813	-1748
983.894	-1524
983.976	-1304
984.058	-1715
984.139	-1433
984.221	-1628
984.302	-1347
984.384	-1616
984.465	-869
984.547	-1065
984.628	-1556
984.710	-1074
984.791	-1743
984.872	-1644
984.954	-2088
985.035	-1145
985.116	-1169
985.198	-1800
985.279	-1477
985.360	-1909
985.441	-1585
985.522	-785
985.604	-1421
985.685	-2089
985.766	-516
985.847	-1306
985.928	-586
986.009	-685
986.090	-1661
986.171	-1280
986.252	-2106
986.333	-1811
986.414	-1325
986.495	-1358
986.576	-1199
986.656	-1809
986.737	-1787
986.818	-925
986.899	-926
986.980	-927
987.060	-1729
987.141	-547
987.222	-2226
987.302	-1363
987.383	-1109
987.464	-845
987.544	-1678
987.625	-998
987.705	-710
987.786	-2350
987.866	-1050
987.947	-851
988.027	-1306
988.108	-1553
988.188	-1352
988.268	-1401
988.349	-1663
988.429	-1709
988.509	-1334
988.589	-1429
988.670	-2516
988.750	-1231
988.830	-1749
988.910	-1396
988.990	-1474
989.070	-1953
989.151	-1979
989.231	-2216
989.311	-1748
989.391	-1434
989.471	-2302
989.551	-1203
989.631	-1679
989.711	-804
989.791	-2641
989.870	-1550
989.950	-1228
990.030	-1100
990.110	-1295
990.190	-2140
990.269	-1002
990.349	-2399
990.429	-1868
990.509	-1008
990.588	-1313
990.668	-1317
990.747	-1774
990.827	-1289
990.907	-1968
990.986	-1179
991.066	-1720
991.145	-1278
991.225	-1655
991.304	-1642
991.383	-1706
991.463	-1387
991.542	-1901
991.622	-1512
991.701	-1913
991.780	-1744
991.859	-1830
991.939	-1727
992.018	-1673
992.097	-1457
992.176	-1529
992.256	-2471
992.335	-2547
992.414	-1496
992.493	-1701
992.572	-1527
992.651	-1746
992.730	-1906
992.809	-1778
992.888	-1893
992.967	-2035
993.046	-1231
993.125	-1845
993.203	-2235
993.282	-736
993.361	-1799
993.440	-1657
993.519	-2260
993.597	-929
993.676	-2443
993.755	-996
993.834	-2408
993.912	-1901
993.991	-1441
994.069	-2239
994.148	-1580
994.226	-2001
994.305	-1351
994.384	-2339
994.462	-1078
994.540	-2136
994.619	-1860
994.697	-1678
994.776	-2608
994.854	-1565
994.932	-2615
995.011	-1402
995.089	-1655
995.167	-1603
995.245	-1043
995.324	-2385
995.402	-1383
995.480	-2135
995.558	-1374
995.636	-2265
995.714	-2322
995.792	-1150
995.870	-1866
995.948	-1445
996.026	-2045
996.104	-1798
996.182	-1272
996.260	-1608
996.338	-1448
996.416	-2191
996.494	-1057
996.572	-1100
996.649	-2116
996.727	-1855
996.805	-1305
996.883	-2179
996.960	-2276
997.038	-1435
997.116	-2177
997.193	-1857
997.271	-1558
997.348	-1857
997.426	-1832
997.504	-2257
997.581	-1396
997.658	-1014
997.736	-2510
997.813	-2069
997.891	-1552
997.968	-1342
998.046	-1117
998.123	-2228
998.200	-1852
998.277	-2353
998.355	-926
998.432	-2845
998.509	-1360
998.586	-2002
998.663	-1776
998.741	-1853
998.818	-2645
998.895	-1908
998.972	-1300
999.049	-2749
999.126	-2340
999.203	-1256
999.280	-2474
999.357	-2177
999.434	-1096
999.511	-2022
999.587	-945
999.664	-1595
999.741	-1073
999.818	-1521
999.895	-1931
999.971	-3075
1000.048	-1565
1000.125	-1836
1000.202	-2908
1000.278	-1681
1000.355	-2228
1000.431	-2446
1000.508	-2356
1000.584	-2415
1000.661	-1770
1000.738	-1465
1000.814	-1797
1000.890	-1335
1000.967	-2308
1001.043	-1376
1001.120	-1835
1001.196	-2423
1001.272	-2025
1001.349	-1950
1001.425	-1622
1001.501	-1257
1001.577	-2257
1001.654	-1671
1001.730	-2207
1001.806	-2556
1001.882	-2776
1001.958	-1323
1002.034	-1835
1002.110	-1331
1002.186	-1894
1002.262	-2104
1002.338	-1745
1002.414	-1618
1002.490	-1471
1002.566	-1810
1002.642	-1990
1002.718	-1994
1002.794	-2321
1002.870	-1906
1002.945	-1722
1003.021	-1962
1003.097	-1842
1003.173	-2495
1003.248	-2842
1003.324	-1406
1003.400	-2043
1003.475	-2092
1003.551	-2402
1003.626	-1939
1003.702	-2264
1003.777	-1622
1003.853	-1930
1003.928	-2316
1004.004	-2133
1004.079	-1675
1004.155	-1718
1004.230	-2774
1004.305	-1707
1004.381	-1562
1004.456	-2232
1004.531	-2559
1004.607	-2677
1004.682	-2396
1004.757	-1843
1004.832	-2296
1004.907	-1679
1004.982	-1667
1005.057	-2277
1005.133	-3477
1005.208	-1969
1005.283	-2343
1005.358	-1339
1005.433	-2309
1005.508	-1220
1005.583	-2917
1005.657	-2746
1005.732	-1520
1005.807	-2157
1005.882	-1832
1005.957	-1201
1006.032	-2165
1006.106	-2143
1006.181	-1987
1006.256	-1384
1006.331	-1913
1006.405	-1291
1006.480	-1900
1006.554	-2136
1006.629	-1651
1006.704	-1834
1006.778	-1573
1006.853	-1967
1006.927	-2843
1007.002	-1609
1007.076	-2115
1007.150	-2092
1007.225	-1507
1007.299	-1974
1007.373	-2193
1007.448	-1559
1007.522	-969
1007.596	-1880
1007.671	-2559
1007.745	-1680
1007.819	-2663
1007.893	-2422
1007.967	-2055
1008.041	-2525
1008.115	-1545
1008.190	-2346
1008.264	-2161
1008.338	-2301
1008.412	-1986
1008.486	-2199
1008.560	-2356
1008.633	-1755
1008.707	-2453
1008.781	-1216
1008.855	-2485
1008.929	-2906
1009.003	-2212
1009.076	-2255
1009.150	-1484
1009.224	-2410
1009.298	-1571
1009.371	-2248
1009.445	-2012
1009.519	-1716
1009.592	-2694
1009.666	-2093
1009.739	-1990
1009.813	-3090
1009.886	-1625
1009.960	-2971
1010.033	-1027
1010.107	-1879
1010.180	-2810
1010.253	-1698
1010.327	-1681
1010.400	-2547
1010.473	-2123
1010.547	-1440
1010.620	-1955
1010.693	-1875
1010.766	-3055
1010.840	-1319
1010.913	-1531
1010.986	-2423
1011.059	-2741
1011.132	-2412
1011.205	-1843
1011.278	-1834
1011.351	-2229
1011.424	-1853
1011.497	-2119
1011.570	-914
1011.643	-2414
1011.716	-2317
1011.789	-2366
1011.862	-1936
1011.934	-1921
1012.007	-3348
1012.080	-1596
1012.153	-1052
1012.225	-1081
1012.298	-1829
1012.371	-1272
1012.443	-1789
1012.516	-2469
1012.588	-1559
1012.661	-1425
1012.733	-2340
1012.806	-1679
1012.879	-1872
1012.951	-1440
1013.023	-1159
1013.096	-2294
1013.168	-2078
1013.241	-1576
1013.313	-1259
1013.385	-1721
1013.458	-1715
1013.530	-1437
1013.602	-1991
1013.674	-1803
1013.746	-1976
1013.819	-1908
1013.891	-1020
1013.963	-2035
1014.035	-1483
1014.107	-1971
1014.179	-2088
1014.251	-2047
1014.323	-1968
1014.395	-2013
1014.467	-1478
1014.539	-1829
1014.611	-2105
1014.683	-2077
1014.754	-1959
1014.826	-2348
1014.898	-1956
1014.970	-2490
1015.042	-1088
1015.113	-2345
1015.185	-1859
1015.257	-2399
1015.328	-1604
1015.400	-1626
1015.471	-704
1015.543	-2580
1015.615	-1370
1015.686	-1566
1015.757	-1978
1015.829	-2179
1015.901	-2082
1015.972	-1576
1016.043	-1564
1016.115	-1566
1016.186	-1961
1016.257	-2338
1016.328	-2057
1016.400	-1778
1016.471	-1982
1016.542	-2412
1016.613	-1423
1016.685	-1840
1016.756	-1768
1016.827	-1288
1016.898	-2158
1016.969	-1074
1017.040	-1852
1017.111	-2587
1017.182	-1617
1017.253	-2375
1017.324	-2407
1017.395	-1384
1017.466	-1417
1017.537	-1381
1017.608	-1416
1017.678	-1721
1017.749	-1930
1017.820	-2097
1017.891	-1938
1017.961	-1770
1018.032	-2099
1018.103	-2404
1018.173	-1286
1018.244	-1893
1018.315	-2059
1018.385	-1686
1018.456	-2209
1018.526	-1991
1018.597	-1421
1018.667	-1062
1018.738	-2432
1018.808	-1982
1018.878	-2133
1018.949	-1054
1019.019	-1915
1019.089	-889
1019.160	-1413
1019.230	-2191
1019.300	-1296
1019.371	-2284
1019.441	-1170
1019.511	-1607
1019.581	-2027
1019.651	-1729
1019.721	-1901
1019.791	-2697
1019.861	-1452
1019.931	-1383
1020.001	-1887
1020.071	-1297
1020.141	-1070
1020.211	-1526
1020.281	-1366
1020.351	-2606
1020.421	-1756
1020.491	-1479
1020.560	-1498
1020.630	-2243
1020.700	-1972
1020.770	-1551
1020.839	-1234
1020.909	-1826
1020.979	-1536
1021.048	-2208
1021.118	-2014
1021.187	-2162
1021.257	-1367
1021.326	-1563
1021.396	-2430
1021.465	-1481
1021.535	-2223
1021.604	-2672
1021.674	-1340
1021.743	-1906
1021.812	-2546
1021.882	-1623
1021.951	-1073
1022.020	-1072
1022.089	-1147
1022.159	-1440
1022.228	-2082
1022.297	-1906
1022.366	-1368
1022.435	-1533
1022.504	-1314
1022.573	-1819
1022.642	-2583
1022.711	-2325
1022.781	-1366
1022.849	-984
1022.918	-2001
1022.987	-787
1023.056	-1867
1023.125	-2375
1023.194	-1898
1023.263	-1712
1023.331	-1341
1023.400	-2010
1023.469	-1874
1023.538	-1519
1023.606	-1485
1023.675	-2066
1023.744	-1841
1023.812	-2108
1023.881	-1309
1023.949	-2042
1024.018	-1583
1024.086	-1538
1024.155	-1381
1024.223	-2286
1024.292	-2064
1024.360	-1268
1024.429	-1911
1024.497	-1692
1024.565	-1584
1024.634	-1653
1024.702	-1382
1024.770	-1312
1024.838	-1675
1024.907	-1341
1024.975	-1307
1025.043	-1199
1025.111	-1328
1025.179	-1679
1025.247	-1263
1025.315	-1556
1025.383	-1718
1025.451	-1272
1025.519	-2082
1025.587	-1906
1025.655	-1554
1025.723	-1364
1025.791	-1921
1025.859	-1760
1025.927	-846
1025.995	-1783
1026.062	-1631
1026.130	-2067
1026.198	-1929
1026.266	-2393
1026.333	-1469
1026.401	-638
1026.469	-1842
1026.536	-1431
1026.604	-890
1026.671	-1761
1026.739	-1855
1026.806	-1253
1026.874	-1748
1026.941	-1782
1027.009	-2255
1027.076	-1551
1027.144	-1191
1027.211	-2069
1027.278	-1762
1027.345	-1863
1027.413	-1409
1027.480	-1613
1027.547	-1716
1027.614	-1662
1027.682	-1483
1027.749	-1569
1027.816	-1565
1027.883	-1856
1027.950	-1554
1028.017	-1671
1028.084	-1557
1028.151	-2670
1028.218	-1381
1028.285	-1714
1028.352	-1580
1028.419	-2198
1028.486	-1549
1028.553	-796
1028.619	-2188
1028.686	-947
1028.753	-2354
1028.820	-2313
1028.886	-1433
1028.953	-1296
1029.020	-2104
1029.086	-1300
1029.153	-1477
1029.220	-1644
1029.286	-1260
1029.353	-1892
1029.419	-1852
1029.486	-2379
1029.552	-1608
1029.619	-1603
1029.685	-1661
1029.751	-1764
1029.818	-1291
1029.884	-1696
1029.951	-996
1030.017	-1653
1030.083	-1929
1030.149	-1639
1030.216	-1575
1030.282	-1618
1030.348	-1947
1030.414	-1799
1030.480	-2096
1030.546	-1966
1030.612	-1714
1030.678	-2473
1030.744	-2487
1030.810	-1632
1030.876	-2269
1030.942	-2230
1031.008	-1483
1031.074	-1758
1031.140	-2223
1031.206	-1227
1031.272	-1581
1031.337	-1820
1031.403	-1071
1031.469	-2127
1031.534	-952
1031.600	-1290
1031.666	-1415
1031.731	-2506
1031.797	-1629
1031.863	-2063
1031.928	-1763
1031.994	-2114
1032.059	-1722
1032.125	-1968
1032.190	-2178
1032.256	-2023
1032.321	-2187
1032.386	-1898
1032.452	-2286
1032.517	-616
1032.582	-1874
1032.647	-2585
1032.713	-1790
1032.778	-1410
1032.843	-1715
1032.908	-2111
1032.974	-1753
1033.039	-1508
1033.104	-1277
1033.169	-1701
1033.234	-2142
1033.299	-1103
1033.364	-1640
1033.429	-2458
1033.494	-2230
1033.559	-2572
1033.624	-1815
1033.688	-1370
1033.753	-2184
1033.818	-1665
1033.883	-1592
1033.948	-2248
1034.013	-2433
1034.077	-1848
1034.142	-1797
1034.207	-2097
1034.271	-2163
1034.336	-1276
1034.400	-2132
1034.465	-1594
1034.530	-1783
1034.594	-1627
1034.658	-1793
1034.723	-2081
1034.787	-1198
1034.852	-2017
1034.916	-2308
1034.981	-1561
1035.045	-2190
1035.109	-1807
1035.173	-1989
1035.238	-1813
1035.302	-1999
1035.366	-1821
1035.430	-2045
1035.495	-2583
1035.559	-1344
1035.623	-2009
1035.687	-2008
1035.751	-2006
1035.815	-2618
1035.879	-1672
1035.943	-2104
1036.007	-2178
1036.071	-3108
1036.135	-2327
1036.198	-1864
1036.262	-1881
1036.326	-1676
1036.390	-2486
1036.454	-2040
1036.517	-2272
1036.581	-2239
1036.645	-1882
1036.709	-1311
1036.772	-1537
1036.836	-2221
1036.900	-1893
1036.963	-2434
1037.026	-1941
1037.090	-1996
1037.154	-2513
1037.217	-2214
1037.280	-2219
1037.344	-1891
1037.407	-2563
1037.471	-1763
1037.534	-2242
1037.597	-2561
1037.661	-2536
1037.724	-1984
1037.787	-2785
1037.850	-2954
1037.913	-2319
1037.977	-1964
1038.040	-2661
1038.103	-1960
1038.166	-2293
1038.229	-1994
1038.292	-2515
1038.355	-2598
1038.418	-1967
1038.481	-2458
1038.544	-1660
1038.607	-2484
1038.670	-2656
1038.732	-2357
1038.795	-2246
1038.858	-2495
1038.921	-1762
1038.984	-2471
1039.046	-2484
1039.109	-2485
1039.172	-1473
1039.234	-1935
1039.297	-2256
1039.360	-2392
1039.422	-2818
1039.485	-1456
1039.547	-2904
1039.610	-1704
1039.672	-1722
1039.734	-2298
1039.797	-2620
1039.859	-1660
1039.922	-2331
1039.984	-1924
1040.046	-1927
1040.109	-2966
1040.171	-2461
1040.233	-2102
1040.295	-1570
1040.358	-2340
1040.420	-2630
1040.482	-2612
1040.544	-1265
1040.606	-2138
1040.668	-1844
1040.730	-2180
1040.792	-1950
1040.854	-2129
1040.916	-1873
1040.978	-2207
1041.040	-1483
1041.102	-2485
1041.164	-2477
1041.225	-2271
1041.287	-1666
1041.349	-3013
1041.411	-2042
1041.472	-2672
1041.534	-2542
1041.596	-2414
1041.657	-1729
1041.719	-2234
1041.781	-1911
1041.842	-1177
1041.904	-2366
1041.965	-2117
1042.027	-1515
1042.088	-2138
1042.150	-1893
1042.211	-2406
1042.272	-1790
1042.334	-2008
1042.395	-1557
1042.456	-3543
1042.518	-1725
1042.579	-1949
1042.640	-1816
1042.701	-2539
1042.763	-1962
1042.824	-2353
1042.885	-2764
1042.946	-2407
1043.007	-2002
1043.068	-2723
1043.129	-1840
1043.190	-2517
1043.251	-2647
1043.312	-2151
1043.373	-1711
1043.434	-2213
1043.495	-1687
1043.556	-1026
1043.616	-2763
1043.677	-2788
1043.738	-1840
1043.799	-2458
1043.859	-1904
1043.920	-2711
1043.981	-1768
1044.041	-2107
1044.102	-1990
1044.162	-2644
1044.223	-2584
1044.284	-1812
1044.344	-2122
1044.405	-1548
1044.465	-2354
1044.525	-1172
1044.586	-1977
1044.646	-2184
1044.707	-1961
1044.767	-2427
1044.827	-2395
1044.887	-1832
1044.948	-2369
1045.008	-2250
1045.068	-2159
1045.128	-1778
1045.188	-2045
1045.249	-1676
1045.309	-2187
1045.369	-2064
1045.429	-1486
1045.489	-1515
1045.549	-2440
1045.609	-1765
1045.669	-1703
1045.729	-1375
1045.789	-1853
1045.848	-1891
1045.908	-2432
1045.968	-1741
1046.028	-1816
1046.088	-1591
1046.147	-1814
1046.207	-1768
1046.267	-1857
1046.326	-1510
1046.386	-2498
1046.446	-1416
1046.505	-1770
1046.565	-2494
1046.624	-1260
1046.684	-1220
1046.743	-1283
1046.803	-1085
1046.862	-885
1046.922	0
