'Start Wavelength	183.907
'End Wavelength	1046.922
'Gate Delay	5.000
'Gate Width (ms)	1.050
'Laser Output Level	0.000
'X Position	0.000
'Y Position	0.000
'Z Position	0.000
'Grid Point Number	1.000
'Shot Number	101.000
183.907	302.000
183.977	787.000
184.047	155
184.116	648
184.186	527
184.256	417
184.325	60
184.395	-459
184.465	1690
184.534	481
184.604	-206
184.674	680
184.743	-153
184.813	463
184.883	433
184.952	61
185.022	389
185.092	1007
185.161	269
185.231	907
185.301	785
185.370	1102
185.440	-152
185.509	639
185.579	469
185.649	353
185.718	480
185.788	1565
185.857	-506
185.927	397
185.996	221
186.066	780
186.136	199
186.205	-213
186.275	594
186.344	202
186.414	-29
186.483	173
186.553	1456
186.622	1707
186.692	-262
186.761	147
186.831	366
186.900	140
186.970	1187
187.039	933
187.109	1025
187.178	1044
187.248	-7
187.317	1229
187.387	-805
187.456	1170
187.526	938
187.595	1287
187.664	220
187.734	183
187.803	1552
187.873	1006
187.942	1674
188.012	550
188.081	30
188.150	583
188.220	1187
188.289	1536
188.358	423
188.428	1189
188.497	700
188.567	862
188.636	669
188.705	800
188.775	62
188.844	-51
188.913	1659
188.983	606
189.052	919
189.121	673
189.191	908
189.260	2160
189.329	939
189.399	2075
189.468	1331
189.537	699
189.606	972
189.676	1304
189.745	777
189.814	1733
189.883	458
189.953	985
190.022	2330
190.091	5744
190.161	8292
190.230	3291
190.299	1120
190.368	1705
190.437	1271
190.507	1423
190.576	670
190.645	521
190.714	1132
190.783	1282
190.853	1370
190.922	938
190.991	1625
191.060	1271
191.129	567
191.198	1420
191.268	498
191.337	1564
191.406	882
191.475	1519
191.544	585
191.613	1241
191.682	801
191.752	1084
191.821	264
191.890	1524
191.959	574
192.028	954
192.097	1415
192.166	2205
192.235	789
192.304	1113
192.373	319
192.442	813
192.511	21
192.580	1234
192.650	867
192.719	630
192.788	723
192.857	1448
192.926	356
192.995	670
193.064	3529
193.133	3474
193.202	3514
193.271	3658
193.340	2377
193.409	2466
193.478	2710
193.547	3943
193.615	4747
193.684	4726
193.753	3143
193.822	2809
193.891	1052
193.960	1007
194.029	618
194.098	2208
194.167	1094
194.236	2196
194.305	785
194.374	1512
194.443	438
194.512	1862
194.580	1225
194.649	2397
194.718	1764
194.787	844
194.856	1107
194.925	2033
194.994	1488
195.062	2067
195.131	1391
195.200	1551
195.269	3174
195.338	1327
195.407	1654
195.475	953
195.544	1961
195.613	2911
195.682	1833
195.751	2073
195.819	1243
195.888	1643
195.957	2718
196.026	2298
196.094	2699
196.163	2524
196.232	1800
196.301	2138
196.369	2050
196.438	2250
196.507	2058
196.576	1535
196.644	1676
196.713	1166
196.782	1391
196.850	2009
196.919	883
196.988	1408
197.056	1110
197.125	1742
197.194	1588
197.262	1829
197.331	966
197.400	1799
197.468	1415
197.537	1628
197.606	1516
197.674	4403
197.743	8434
197.812	3968
197.880	8874
197.949	6225
198.017	6964
198.086	5758
198.155	2646
198.223	3541
198.292	10428
198.360	5378
198.429	2451
198.497	2092
198.566	5163
198.635	10654
198.703	4198
198.772	3702
198.840	11368
198.909	14226
198.977	3696
199.046	4107
199.114	2385
199.183	3451
199.251	2102
199.320	2379
199.388	1023
199.457	1742
199.525	1840
199.594	2605
199.662	1753
199.731	2628
199.799	1534
199.867	2585
199.936	1990
200.004	2127
200.073	1363
200.141	1910
200.210	1330
200.278	1116
200.346	1794
200.415	2769
200.483	2400
200.552	2142
200.620	1341
200.688	2704
200.757	1451
200.825	1725
200.893	1272
200.962	1473
201.030	1531
201.098	1515
201.167	1523
201.235	1897
201.303	1243
201.372	2079
201.440	1384
201.508	1870
201.577	1936
201.645	2839
201.713	2041
201.781	1232
201.850	2092
201.918	2502
201.986	2052
202.055	3123
202.123	1746
202.191	1877
202.259	1321
202.327	2067
202.396	1764
202.464	2673
202.532	3178
202.600	8068
202.669	4516
202.737	2749
202.805	1574
202.873	2251
202.941	2165
203.009	2080
203.078	1533
203.146	2846
203.214	1631
203.282	2419
203.350	1973
203.418	1650
203.487	1426
203.555	1808
203.623	2786
203.691	1884
203.759	1226
203.827	1904
203.895	2071
203.963	1981
204.031	2265
204.099	2105
204.168	2667
204.236	2594
204.304	2450
204.372	2704
204.440	2876
204.508	2381
204.576	1674
204.644	2488
204.712	1961
204.780	2633
204.848	2635
204.916	1986
204.984	1931
205.052	2974
205.120	2540
205.188	3221
205.256	2046
205.324	2033
205.392	2289
205.460	2842
205.528	3501
205.596	3145
205.664	2560
205.732	3164
205.799	9635
205.867	19560
205.935	4892
206.003	4802
206.071	2836
206.139	3555
206.207	3132
206.275	2720
206.343	2295
206.411	3454
206.478	2704
206.546	2870
206.614	2816
206.682	2781
206.750	2768
206.818	3666
206.885	3078
206.953	1221
207.021	2938
207.089	2783
207.157	1556
207.225	2770
207.292	3080
207.360	2675
207.428	2840
207.496	1990
207.563	2624
207.631	3678
207.699	2076
207.767	2397
207.834	2878
207.902	3093
207.970	2368
208.038	2736
208.105	2242
208.173	4028
208.241	4690
208.309	4481
208.376	3193
208.444	7530
208.512	4392
208.579	2788
208.647	3441
208.715	4573
208.782	2959
208.850	3512
208.918	2774
208.985	3185
209.053	3293
209.120	3209
209.188	2246
209.256	3292
209.323	2928
209.391	5326
209.459	4443
209.526	3367
209.594	3891
209.661	3839
209.729	3080
209.796	3178
209.864	3153
209.932	2601
209.999	3995
210.067	4102
210.134	3821
210.202	3496
210.269	4783
210.337	4542
210.404	3837
210.472	3299
210.539	3555
210.607	4054
210.674	3965
210.742	3740
210.809	2935
210.877	3957
210.944	5307
211.012	4066
211.079	5089
211.146	3677
211.214	3685
211.281	4536
211.349	4848
211.416	4778
211.484	4393
211.551	4450
211.618	4178
211.686	4038
211.753	3089
211.821	5288
211.888	4199
211.955	4399
212.023	4323
212.090	4928
212.157	5940
212.225	6894
212.292	11881
212.359	22929
212.427	66393
212.494	31566
212.561	10926
212.629	7057
212.696	6017
212.763	5788
212.831	5067
212.898	5806
212.965	4591
213.032	4635
213.100	4444
213.167	5288
213.234	6051
213.301	4689
213.369	4537
213.436	4019
213.503	4365
213.570	4864
213.638	5497
213.705	5158
213.772	4423
213.839	5854
213.906	7107
213.973	5034
214.041	4847
214.108	5229
214.175	4345
214.242	5145
214.309	4464
214.376	4760
214.444	4171
214.511	5321
214.578	4490
214.645	5320
214.712	5020
214.779	4750
214.846	4077
214.913	5667
214.980	5792
215.048	5636
215.115	6154
215.182	5118
215.249	4893
215.316	4572
215.383	5355
215.450	5032
215.517	4307
215.584	4301
215.651	4269
215.718	4495
215.785	5883
215.852	5268
215.919	5582
215.986	4486
216.053	4284
216.120	4136
216.187	5177
216.254	5725
216.321	5155
216.388	5632
216.455	5294
216.522	6318
216.589	7201
216.656	11867
216.722	13473
216.789	7717
216.856	7335
216.923	6822
216.990	5889
217.057	6793
217.124	7681
217.191	7353
217.258	8374
217.324	10072
217.391	8391
217.458	7388
217.525	6598
217.592	6185
217.659	5075
217.725	7154
217.792	9883
217.859	9404
217.926	5385
217.993	4476
218.059	5005
218.126	4800
218.193	4383
218.260	4463
218.327	3580
218.393	5558
218.460	4560
218.527	3935
218.594	4719
218.660	9649
218.727	9861
218.794	5180
218.860	4716
218.927	3451
218.994	4026
219.061	4623
219.127	4837
219.194	10477
219.261	5300
219.327	3808
219.394	4507
219.461	3066
219.527	3349
219.594	8060
219.661	5411
219.727	3493
219.794	4474
219.860	4188
219.927	5457
219.994	6076
220.060	10965
220.127	8232
220.193	6984
220.260	7136
220.326	10305
220.393	11339
220.460	14402
220.526	11262
220.593	8990
220.659	10922
220.726	11005
220.792	28606
220.859	22216
220.925	21027
220.992	24837
221.058	29970
221.125	39629
221.191	30371
221.258	12286
221.324	8778
221.391	8010
221.457	7249
221.524	7155
221.590	9646
221.657	37536
221.723	28068
221.789	20859
221.856	20344
221.922	9754
221.989	6490
222.055	6133
222.121	5061
222.188	7505
222.254	6399
222.321	4828
222.387	4643
222.453	3769
222.520	4253
222.586	3804
222.652	4539
222.719	3418
222.785	4954
222.851	3585
222.918	3554
222.984	3979
223.050	4783
223.116	3061
223.183	4682
223.249	3153
223.315	3295
223.382	3880
223.448	3260
223.514	3071
223.580	3134
223.647	2823
223.713	3535
223.779	2779
223.845	4299
223.911	3456
223.978	2698
224.044	2887
224.110	3147
224.176	3587
224.242	3183
224.309	2290
224.375	3355
224.441	2125
224.507	3105
224.573	2557
224.639	3932
224.705	2478
224.772	3471
224.838	2748
224.904	3952
224.970	3334
225.036	3009
225.102	2943
225.168	4181
225.234	3429
225.300	3859
225.366	2909
225.432	3086
225.499	3202
225.565	3960
225.631	4311
225.697	4861
225.763	5757
225.829	6135
225.895	6018
225.961	10710
226.027	9150
226.093	9368
226.159	11177
226.225	14261
226.291	27476
226.357	39901
226.423	23757
226.489	15574
226.554	11661
226.620	11476
226.686	13212
226.752	20421
226.818	28688
226.884	53756
226.950	48153
227.016	23008
227.082	13747
227.148	11136
227.214	11059
227.279	8673
227.345	7387
227.411	6870
227.477	6889
227.543	9981
227.609	11405
227.674	8648
227.740	6026
227.806	6945
227.872	6192
227.938	5919
228.003	9712
228.069	5880
228.135	3914
228.201	4641
228.267	4180
228.332	5063
228.398	6350
228.464	6037
228.530	3773
228.595	4762
228.661	3231
228.727	6623
228.792	7473
228.858	5052
228.924	3966
228.990	7809
229.055	4157
229.121	6818
229.187	3415
229.252	4915
229.318	3864
229.384	4736
229.449	5413
229.515	2931
229.581	2417
229.646	5218
229.712	3662
229.777	12740
229.843	14177
229.909	8890
229.974	8958
230.040	9395
230.105	6776
230.171	7627
230.236	9913
230.302	14750
230.368	10979
230.433	7797
230.499	7059
230.564	7459
230.630	4930
230.695	5737
230.761	5694
230.826	2900
230.892	8526
230.957	5686
231.023	4435
231.088	4988
231.154	4023
231.219	5308
231.284	6043
231.350	8643
231.415	4478
231.481	5473
231.546	3652
231.612	4096
231.677	3182
231.742	3291
231.808	5480
231.873	3775
231.939	1905
232.004	8955
232.069	8035
232.135	4845
232.200	4109
232.265	4429
232.331	3897
232.396	3749
232.461	2561
232.527	3295
232.592	2999
232.657	4674
232.723	8745
232.788	7805
232.853	4264
232.918	4723
232.984	2829
233.049	4353
233.114	8505
233.179	9114
233.245	12992
233.310	19004
233.375	5036
233.440	4350
233.506	4168
233.571	4081
233.636	3944
233.701	4871
233.766	10006
233.832	15061
233.897	6198
233.962	3983
234.027	5906
234.092	5492
234.157	5108
234.222	6187
234.288	9710
234.353	38909
234.418	30824
234.483	14912
234.548	9482
234.613	8360
234.678	7689
234.743	8466
234.808	34112
234.873	24501
234.938	8830
235.004	7770
235.069	6470
235.134	6918
235.199	6047
235.264	5528
235.329	4225
235.394	6336
235.459	9107
235.524	7435
235.589	6501
235.654	5386
235.719	4732
235.784	5646
235.849	7147
235.913	18155
235.978	18553
236.043	23969
236.108	9257
236.173	7729
236.238	8648
236.303	6511
236.368	6820
236.433	13117
236.498	25021
236.563	16137
236.627	25213
236.692	75685
236.757	70165
236.822	31888
236.887	23669
236.952	18513
237.017	14373
237.081	18582
237.146	21243
237.211	39196
237.276	79215
237.341	132372
237.405	73421
237.470	31365
237.535	22916
237.600	15005
237.664	12507
237.729	10227
237.794	12255
237.859	21616
237.923	19660
237.988	12580
238.053	16196
238.118	18719
238.182	53460
238.247	51370
238.312	20314
238.376	13829
238.441	10249
238.506	10760
238.570	5518
238.635	8260
238.700	6509
238.764	6908
238.829	19629
238.893	27891
238.958	10938
239.023	9925
239.087	6268
239.152	7810
239.216	5468
239.281	6250
239.346	6639
239.410	7110
239.475	8798
239.539	47830
239.604	45222
239.668	12191
239.733	7445
239.797	8892
239.862	15621
239.926	37819
239.991	15755
240.055	7848
240.120	7057
240.184	6381
240.249	4899
240.313	6915
240.378	7378
240.442	24457
240.507	50835
240.571	15217
240.635	19995
240.700	27301
240.764	8555
240.829	6721
240.893	4898
240.957	7318
241.022	24064
241.086	47102
241.151	22125
241.215	7937
241.279	10336
241.344	23225
241.408	10671
241.472	7240
241.537	8894
241.601	7277
241.665	5963
241.730	6389
241.794	8493
241.858	7623
241.922	6932
241.987	6684
242.051	5444
242.115	5713
242.179	6164
242.244	5971
242.308	7499
242.372	7960
242.436	11757
242.501	7777
242.565	5497
242.629	5264
242.693	6058
242.757	5521
242.822	6846
242.886	8445
242.950	7725
243.014	8017
243.078	7937
243.142	8174
243.206	8956
243.271	12031
243.335	11195
243.399	19454
243.463	60779
243.527	161824
243.591	54350
243.655	19186
243.719	11554
243.783	11979
243.847	17842
243.911	26405
243.975	24849
244.040	18704
244.104	11179
244.168	7869
244.232	10890
244.296	16360
244.360	20524
244.424	12486
244.488	11146
244.552	10724
244.615	6627
244.679	7853
244.743	8143
244.807	9779
244.871	6470
244.935	6392
244.999	4782
245.063	6118
245.127	7484
245.191	13778
245.255	14656
245.319	10438
245.383	8628
245.446	8487
245.510	5356
245.574	6589
245.638	7176
245.702	6046
245.766	18367
245.829	11837
245.893	9650
245.957	8989
246.021	9957
246.085	9180
246.149	12363
246.212	25217
246.276	45349
246.340	18758
246.404	12441
246.467	12661
246.531	19860
246.595	13159
246.659	11358
246.722	9959
246.786	11340
246.850	13106
246.913	16206
246.977	9224
247.041	9593
247.104	10997
247.168	10394
247.232	22716
247.295	58796
247.359	28753
247.423	12522
247.486	20435
247.550	14276
247.614	9729
247.677	12353
247.741	10000
247.804	9122
247.868	14529
247.932	22504
247.995	56815
248.059	21533
248.122	11144
248.186	16375
248.249	24717
248.313	93763
248.376	97083
248.440	61795
248.503	22566
248.567	17134
248.630	23164
248.694	30825
248.757	40082
248.821	104646
248.884	57940
248.948	49537
249.011	73450
249.075	117064
249.138	100301
249.202	35323
249.265	22975
249.328	36256
249.392	23610
249.455	17354
249.519	14431
249.582	16494
249.645	24207
249.709	21653
249.772	19595
249.835	16964
249.899	21672
249.962	16055
250.025	14414
250.089	33939
250.152	48153
250.215	22434
250.279	17780
250.342	19193
250.405	19507
250.468	18456
250.532	25643
250.595	38787
250.658	148410
250.721	267837
250.785	89312
250.848	41865
250.911	26430
250.974	22758
251.038	31746
251.101	64904
251.164	38342
251.227	35361
251.290	36542
251.354	53402
251.417	215207
251.480	230523
251.543	143697
251.606	394298
251.669	315044
251.732	116516
251.795	99166
251.859	101614
251.922	249055
251.985	151686
252.048	55273
252.111	39884
252.174	37122
252.237	57923
252.300	131818
252.363	135744
252.426	312418
252.489	135670
252.552	66155
252.615	47419
252.678	46487
252.741	99928
252.804	138691
252.867	326969
252.930	180686
252.993	86887
253.056	46360
253.119	36309
253.182	29411
253.245	49402
253.308	39604
253.371	34714
253.434	31972
253.497	28853
253.559	50893
253.622	36508
253.685	40587
253.748	37536
253.811	22186
253.874	30990
253.937	31800
254.000	19373
254.062	33242
254.125	57205
254.188	43551
254.251	38894
254.314	20347
254.376	32668
254.439	35004
254.502	28339
254.565	33951
254.628	61958
254.690	32512
254.753	18351
254.816	16243
254.878	20143
254.941	39090
255.004	44270
255.067	18953
255.129	15751
255.192	10127
255.255	9461
255.317	11267
255.380	9083
255.443	6967
255.505	6883
255.568	7459
255.631	7784
255.693	9005
255.756	6019
255.819	7777
255.881	6614
255.944	8018
256.006	7770
256.069	7822
256.132	7296
256.194	12120
256.257	37991
256.319	27450
256.382	24783
256.444	12657
256.507	10137
256.569	10232
256.632	12020
256.694	21531
256.757	39864
256.819	121331
256.882	59528
256.944	22921
257.007	17027
257.069	17555
257.132	14258
257.194	12452
257.257	11865
257.319	13960
257.381	16949
257.444	36593
257.506	136808
257.569	166295
257.631	107731
257.693	47007
257.756	23785
257.818	20451
257.880	13015
257.943	12838
258.005	9553
258.067	10807
258.130	9698
258.192	12198
258.254	22657
258.317	17318
258.379	12198
258.441	30516
258.503	28897
258.566	45048
258.628	62238
258.690	15531
258.753	12209
258.815	19121
258.877	12892
258.939	10765
259.001	10038
259.064	9752
259.126	13856
259.188	19319
259.250	13286
259.312	19310
259.375	55618
259.437	33003
259.499	12946
259.561	10678
259.623	12812
259.685	12873
259.747	14344
259.809	44044
259.872	85451
259.934	126793
259.996	110090
260.058	27119
260.120	13601
260.182	10060
260.244	10281
260.306	8665
260.368	10549
260.430	10285
260.492	20083
260.554	50382
260.616	41954
260.678	51433
260.740	83071
260.802	20602
260.864	14166
260.926	12033
260.988	12791
261.050	13482
261.112	28686
261.174	83727
261.236	71944
261.298	20786
261.359	34144
261.421	52031
261.483	14926
261.545	12079
261.607	7492
261.669	10261
261.731	19455
261.793	49897
261.854	20426
261.916	13044
261.978	11371
262.040	14241
262.102	11021
262.164	19295
262.225	15359
262.287	8957
262.349	22021
262.411	19115
262.472	11013
262.534	22371
262.596	52004
262.658	16815
262.719	10099
262.781	15052
262.843	48104
262.904	23356
262.966	18499
263.028	22402
263.090	95144
263.151	252104
263.213	79737
263.275	34838
263.336	16184
263.398	11896
263.459	8817
263.521	9969
263.583	19412
263.644	16499
263.706	7142
263.767	6281
263.829	6308
263.891	6401
263.952	5633
264.014	6245
264.075	10230
264.137	29245
264.198	13731
264.260	7884
264.321	5865
264.383	16729
264.444	43476
264.506	15722
264.567	9389
264.629	17107
264.690	37616
264.752	14952
264.813	8597
264.875	7098
264.936	7104
264.998	6757
265.059	6555
265.120	7568
265.182	11755
265.243	51816
265.305	62380
265.366	18464
265.427	9369
265.489	8163
265.550	5586
265.611	7623
265.673	8054
265.734	7553
265.795	6584
265.857	7384
265.918	8226
265.979	17828
266.040	89566
266.102	90172
266.163	25722
266.224	18001
266.286	10652
266.347	7241
266.408	7587
266.469	10835
266.530	8076
266.592	6168
266.653	12366
266.714	21994
266.775	9189
266.836	5058
266.898	5196
266.959	9919
267.020	7593
267.081	6864
267.142	3859
267.203	5297
267.264	4379
267.326	6625
267.387	5264
267.448	3975
267.509	5004
267.570	5120
267.631	4642
267.692	4090
267.753	5454
267.814	5610
267.875	10915
267.936	28446
267.997	17163
268.058	13265
268.119	7895
268.180	6841
268.241	5014
268.302	6051
268.363	4529
268.424	6053
268.485	7028
268.546	5839
268.607	3727
268.668	4601
268.729	4079
268.790	5615
268.851	6503
268.912	15641
268.972	18919
269.033	10409
269.094	5726
269.155	5193
269.216	4783
269.277	7829
269.338	5915
269.398	5181
269.459	6903
269.520	9181
269.581	10729
269.642	11107
269.702	9338
269.763	8308
269.824	6917
269.885	8421
269.945	12380
270.006	6760
270.067	4832
270.128	4863
270.188	5988
270.249	5651
270.310	4104
270.370	6039
270.431	6661
270.492	5349
270.553	5734
270.613	13032
270.674	25036
270.734	13023
270.795	6538
270.856	10415
270.916	8582
270.977	6837
271.038	8453
271.098	8198
271.159	12264
271.219	13592
271.280	7222
271.340	6642
271.401	7889
271.462	24684
271.522	11866
271.583	8058
271.643	8763
271.704	8058
271.764	9892
271.825	20450
271.885	72751
271.946	114896
272.006	33165
272.066	44208
272.127	87168
272.187	25296
272.248	14551
272.308	14706
272.369	54342
272.429	32271
272.489	20015
272.550	21734
272.610	18186
272.671	16319
272.731	17807
272.791	31041
272.852	15684
272.912	12558
272.972	8165
273.033	8133
273.093	14050
273.153	14198
273.214	9943
273.274	11399
273.334	36477
273.394	76982
273.455	28008
273.515	25200
273.575	60211
273.635	26613
273.696	34496
273.756	76253
273.816	30923
273.876	17907
273.936	44481
273.997	87753
274.057	23999
274.117	16688
274.177	20431
274.237	86298
274.297	87322
274.358	61850
274.418	57548
274.478	42650
274.538	19052
274.598	17616
274.658	67687
274.718	90252
274.778	34317
274.838	19416
274.898	37843
274.958	122288
275.018	89636
275.078	53785
275.138	22334
275.198	14224
275.258	10480
275.318	15257
275.378	23530
275.438	22846
275.498	16634
275.558	53984
275.618	107584
275.678	55332
275.738	28800
275.798	23571
275.858	14172
275.918	8871
275.978	9809
276.038	10325
276.098	7999
276.157	15242
276.217	41867
276.277	21322
276.337	14128
276.397	8809
276.457	10236
276.517	9119
276.576	6437
276.636	7116
276.696	11374
276.756	27047
276.815	23269
276.875	9607
276.935	11552
276.995	10421
277.055	6904
277.114	7044
277.174	9390
277.234	34842
277.293	15948
277.353	9642
277.413	7426
277.472	8458
277.532	8262
277.592	8878
277.651	24628
277.711	48711
277.771	18012
277.830	55432
277.890	48104
277.950	36157
278.009	110183
278.069	42085
278.128	31817
278.188	47298
278.248	21495
278.307	47607
278.367	34511
278.426	14413
278.486	9739
278.545	8989
278.605	8208
278.664	7971
278.724	10152
278.783	25837
278.843	75856
278.902	24541
278.962	13904
279.021	16102
279.081	25570
279.140	25611
279.199	17985
279.259	18368
279.318	21079
279.378	28728
279.437	47906
279.496	162226
279.556	448400
279.615	368007
279.675	91707
279.734	50783
279.793	75838
279.853	145715
279.912	57195
279.971	31057
280.031	28859
280.090	52756
280.149	98235
280.208	64534
280.268	290695
280.327	320663
280.386	71853
280.445	45300
280.505	40267
280.564	21699
280.623	18312
280.682	23766
280.742	34488
280.801	14588
280.860	11080
280.919	10256
280.978	9403
281.037	9596
281.097	7865
281.156	8661
281.215	7950
281.274	10518
281.333	43610
281.392	37082
281.451	9236
281.510	8206
281.569	6457
281.628	7787
281.688	7101
281.747	7818
281.806	8840
281.865	6901
281.924	6000
281.983	6124
282.042	4441
282.101	6127
282.160	5526
282.219	5965
282.278	6421
282.337	20833
282.396	16093
282.454	7965
282.513	8534
282.572	31690
282.631	20585
282.690	7833
282.749	6120
282.808	8869
282.867	8265
282.926	8808
282.985	5399
283.043	4502
283.102	5195
283.161	8125
283.220	18188
283.279	40585
283.338	14232
283.396	8406
283.455	6940
283.514	7163
283.573	11814
283.631	11036
283.690	7318
283.749	6405
283.808	14273
283.866	17350
283.925	6474
283.984	7224
284.043	9794
284.101	12441
284.160	7926
284.219	12865
284.277	10078
284.336	12046
284.395	43275
284.453	40469
284.512	13370
284.570	15971
284.629	14751
284.688	11837
284.746	12433
284.805	14958
284.863	18366
284.922	24313
284.981	30939
285.039	44212
285.098	69907
285.156	162817
285.215	466977
285.273	463250
285.332	204240
285.390	99514
285.449	59662
285.507	38574
285.566	29033
285.624	25367
285.683	20954
285.741	16916
285.799	14098
285.858	13537
285.916	12368
285.975	9694
286.033	8858
286.091	7738
286.150	6835
286.208	8449
286.267	10155
286.325	9407
286.383	12716
286.442	11339
286.500	7375
286.558	6662
286.616	6227
286.675	8822
286.733	7826
286.791	8703
286.850	8403
286.908	11730
286.966	18220
287.024	10134
287.083	7099
287.141	6416
287.199	7480
287.257	10951
287.315	8663
287.374	10319
287.432	20747
287.490	15502
287.548	9981
287.606	9335
287.664	9145
287.723	13499
287.781	19502
287.839	15633
287.897	19930
287.955	29086
288.013	42868
288.071	78229
288.129	266655
288.187	724063
288.245	380507
288.303	125226
288.361	66489
288.419	47159
288.477	32754
288.535	24015
288.593	19351
288.651	15642
288.709	12810
288.767	12692
288.825	9992
288.883	9627
288.941	9233
288.999	8505
289.057	8245
289.115	7127
289.173	7629
289.231	7037
289.289	7759
289.346	6696
289.404	7883
289.462	12076
289.520	11952
289.578	6968
289.636	4740
289.694	5445
289.751	4396
289.809	4877
289.867	5548
289.925	6461
289.983	8057
290.040	5298
290.098	4634
290.156	6320
290.214	6167
290.271	5286
290.329	4060
290.387	4183
290.444	3610
290.502	3847
290.560	4238
290.617	5204
290.675	4540
290.733	4818
290.790	5650
290.848	5088
290.906	5524
290.963	5786
291.021	5016
291.078	5122
291.136	5987
291.194	18362
291.251	43790
291.309	14933
291.366	5847
291.424	5882
291.481	5477
291.539	5721
291.596	5196
291.654	4295
291.711	3620
291.769	5402
291.826	10503
291.884	8153
291.941	3527
291.999	4481
292.056	4954
292.114	5765
292.171	4016
292.228	5909
292.286	6168
292.343	11375
292.401	15139
292.458	9839
292.515	7394
292.573	8535
292.630	7945
292.687	9459
292.745	7558
292.802	10389
292.859	26216
292.917	42711
292.974	24979
293.031	10133
293.089	6642
293.146	5806
293.203	5733
293.260	5913
293.318	11299
293.375	16121
293.432	9265
293.489	6800
293.546	7369
293.604	10720
293.661	28522
293.718	80712
293.775	39867
293.832	17385
293.889	14028
293.947	21030
294.004	14925
294.061	11587
294.118	18681
294.175	40486
294.232	56360
294.289	24610
294.346	12667
294.403	12324
294.460	10958
294.517	8980
294.574	8135
294.631	8669
294.688	10196
294.745	22364
294.802	88528
294.859	99876
294.916	44768
294.973	29218
295.030	15585
295.087	12700
295.144	9392
295.201	8594
295.258	8756
295.315	10806
295.372	29301
295.429	65172
295.486	28741
295.542	16342
295.599	37477
295.656	68991
295.713	43576
295.770	56454
295.827	23861
295.883	12326
295.940	10424
295.997	15964
296.054	15181
296.111	9275
296.167	7612
296.224	5883
296.281	5695
296.338	7253
296.394	6956
296.451	9666
296.508	24448
296.564	48887
296.621	32513
296.678	68703
296.734	110581
296.791	41606
296.848	19675
296.904	18195
296.961	33324
297.018	63000
297.074	52206
297.131	22599
297.187	16338
297.244	19020
297.301	63427
297.357	127262
297.414	45806
297.470	18387
297.527	12792
297.583	10432
297.640	9765
297.696	7966
297.753	7127
297.809	6504
297.866	5377
297.922	6666
297.979	6422
298.035	7144
298.092	11912
298.148	35579
298.204	35892
298.261	18282
298.317	29181
298.374	89696
298.430	54442
298.486	25299
298.543	20212
298.599	16789
298.656	17508
298.712	25685
298.768	74328
298.824	64517
298.881	21984
298.937	12183
298.993	9959
299.050	12184
299.106	10641
299.162	10224
299.218	11110
299.275	9688
299.331	9906
299.387	17762
299.443	71120
299.500	79091
299.556	27960
299.612	14741
299.668	12662
299.724	12989
299.780	12416
299.837	11146
299.893	15275
299.949	52090
300.005	62379
300.061	52022
300.117	102047
300.173	52600
300.229	22628
300.285	22203
300.341	24854
300.397	15188
300.453	9658
300.510	9178
300.566	9416
300.622	10933
300.678	21430
300.734	45454
300.790	51576
300.845	71118
300.901	38973
300.957	48208
301.013	41913
301.069	16801
301.125	11930
301.181	13845
301.237	10513
301.293	7928
301.349	7457
301.405	7816
301.461	8090
301.516	11881
301.572	11020
301.628	17283
301.684	16231
301.740	24461
301.796	41056
301.851	29410
301.907	42372
301.963	44139
302.019	68883
302.074	213843
302.130	220729
302.186	98929
302.242	39069
302.297	26277
302.353	22518
302.409	38771
302.464	36284
302.520	27795
302.576	68020
302.631	81254
302.687	43986
302.743	19609
302.798	12280
302.854	9894
302.910	10490
302.965	12642
303.021	21785
303.076	19658
303.132	23943
303.187	27810
303.243	15921
303.299	9180
303.354	8198
303.410	8457
303.465	8098
303.521	8011
303.576	8375
303.632	10023
303.687	18609
303.743	66324
303.798	57993
303.853	23201
303.909	12863
303.964	11624
304.020	13642
304.075	21453
304.130	18069
304.186	32667
304.241	34655
304.297	28751
304.352	16519
304.358	16001
304.407	11807
304.449	12311
304.463	12488
304.518	13445
304.539	12755
304.573	11696
304.629	12173
304.630	12282
304.684	17999
304.720	38289
304.739	48153
304.794	79920
304.811	67974
304.850	39897
304.902	18157
304.905	16769
304.960	11432
304.992	12204
305.015	12722
305.071	12248
305.083	11454
305.126	8624
305.173	6975
305.181	6721
305.236	6331
305.264	6778
305.292	7264
305.347	9646
305.354	9746
305.402	10486
305.445	12728
305.457	13274
305.512	16166
305.535	15628
305.567	15331
305.622	15679
305.626	16102
305.678	27169
305.716	57587
305.733	68090
305.788	78994
305.807	67405
305.843	49028
305.897	65855
305.898	65981
305.953	68215
305.988	44433
306.008	32133
306.063	19236
306.078	17285
306.118	12866
306.168	9985
306.173	9743
306.228	7879
306.259	7856
306.283	7987
306.338	7821
306.349	8205
306.393	9716
306.440	11081
306.448	11403
306.503	12862
306.530	13561
306.558	17342
306.613	38016
306.620	40443
306.668	50857
306.711	60771
306.723	61546
306.778	46756
306.801	35250
306.833	23309
306.888	12451
306.892	12128
306.943	9756
306.982	9178
306.997	9053
307.052	9978
307.072	9973
307.107	11642
307.162	16866
307.163	16957
307.217	27218
307.253	33340
307.272	33907
307.327	34665
307.343	31105
307.381	25624
307.434	22654
307.436	23142
307.491	43687
307.524	64120
307.546	67096
307.600	56503
307.614	48534
307.655	30838
307.704	19529
307.710	19514
307.765	26106
307.795	34231
307.819	40180
307.874	64339
307.885	64569
307.929	51583
307.975	36282
307.984	36794
308.038	49962
308.065	60675
308.093	105878
308.148	220535
308.156	247418
308.202	340659
308.246	392246
308.257	386591
308.312	215968
308.336	149654
308.366	107507
308.421	64210
308.426	61051
308.475	40334
308.517	29360
308.530	26870
308.585	23658
308.607	22675
308.639	24328
308.694	30057
308.697	30555
308.748	58282
308.787	89444
308.803	87946
308.857	60936
308.877	48431
308.912	39742
308.967	35378
308.967	35421
309.021	47440
309.058	57159
309.076	73905
309.130	134225
309.148	158485
309.185	296055
309.238	539829
309.239	540094
309.293	524961
309.328	436385
309.348	378893
309.402	181264
309.418	134815
309.457	91262
309.508	55333
309.511	53928
309.566	44174
309.598	40947
309.620	42080
309.674	49363
309.688	51798
309.729	47736
309.778	39144
309.783	38508
309.837	31287
309.868	27799
309.892	34974
309.946	55621
309.959	62211
310.001	72289
310.049	79379
310.055	77015
310.109	45610
310.139	27821
310.163	22074
310.218	14522
310.229	13471
310.272	12374
310.319	12109
310.326	11990
310.381	11756
310.409	11524
310.435	11266
310.489	10731
310.499	10716
310.543	11980
310.589	13309
310.598	13041
310.652	11827
310.679	10755
310.706	9099
310.760	5768
310.769	5291
310.814	4893
310.859	4912
310.868	4954
310.923	5062
310.948	5229
310.977	6412
311.031	8840
311.038	9177
311.085	8030
311.128	6671
311.139	6601
311.193	6470
311.218	6331
311.247	6039
311.301	5559
311.308	5521
311.356	5517
311.398	5607
311.410	5459
311.464	4609
311.488	4257
311.518	4715
311.572	5532
311.578	5655
311.626	7334
311.668	8827
311.680	9206
311.734	10699
311.758	11395
311.788	10781
311.842	9651
311.847	9532
311.896	13875
311.937	17822
311.950	17022
312.004	13322
312.027	11672
312.058	9657
312.112	6146
312.117	5814
312.165	6071
312.207	6331
312.297	9438
312.386	6086
312.476	7952
312.566	13650
312.656	7104
312.745	4789
312.835	6065
312.925	7081
313.015	9976
313.104	8955
313.194	6051
313.284	4610
313.374	7433
313.463	5159
313.553	4418
313.643	4256
313.732	3675
313.822	3815
313.912	5623
314.001	5295
314.091	7470
314.180	8741
314.270	8973
314.360	11230
314.449	8323
314.539	4617
314.628	4884
314.718	7104
314.808	11009
314.897	3832
314.987	4731
315.076	6937
315.166	11318
315.255	11565
315.345	10856
315.434	10831
315.524	10782
315.613	9744
315.703	11426
315.792	18300
315.881	46973
315.971	17059
316.060	26215
316.150	48077
316.239	48556
316.328	12397
316.418	6112
316.507	6271
316.597	8452
316.686	8730
316.775	27014
316.865	49571
316.954	7455
317.043	4945
317.133	4718
317.222	3845
317.311	4255
317.400	3632
317.490	9547
317.579	7449
317.668	6971
317.757	11323
317.847	31397
317.936	84932
318.025	32615
318.114	18489
318.203	11693
318.293	15305
318.382	22123
318.471	19810
318.560	42379
318.649	73475
318.738	13941
318.828	11972
318.917	11575
319.006	23580
319.095	65539
319.184	102677
319.273	42872
319.362	19807
319.451	8946
319.540	8739
319.629	23475
319.718	26375
319.807	15672
319.896	48014
319.985	122924
320.074	31071
320.163	15889
320.252	32547
320.341	18100
320.430	12174
320.519	16416
320.608	7683
320.697	7827
320.786	7352
320.875	10778
320.964	13766
321.053	21875
321.142	32773
321.230	28952
321.319	30855
321.408	56143
321.497	21264
321.586	25408
321.675	47510
321.764	34687
321.852	24046
321.941	33061
322.030	18242
322.119	29905
322.207	67168
322.296	62523
322.385	28266
322.474	31723
322.562	70748
322.651	31251
322.740	35333
322.829	57207
322.917	68734
323.006	27301
323.095	21202
323.183	24578
323.272	32903
323.361	84038
323.449	227885
323.538	67433
323.626	174626
323.715	77697
323.804	43483
323.892	145579
323.981	52894
324.069	23367
324.158	91470
324.246	55459
324.335	17400
324.424	20201
324.512	7740
324.601	11825
324.689	27449
324.778	43607
324.866	53666
324.954	11710
325.043	11690
325.131	32338
325.220	58169
325.308	62310
325.397	43572
325.485	19248
325.574	7431
325.662	6476
325.750	5543
325.839	6895
325.927	5694
326.015	10978
326.104	32492
326.192	36595
326.280	6134
326.369	6793
326.457	9796
326.545	15677
326.634	5061
326.722	3993
326.810	4984
326.898	4239
326.987	6298
327.075	18954
327.163	25524
327.251	12990
327.340	16419
327.428	13323
327.516	5434
327.604	7616
327.692	8706
327.781	15252
327.869	26235
327.957	12265
328.045	7974
328.133	6271
328.221	12889
328.309	6155
328.397	5348
328.485	7453
328.574	13505
328.662	39093
328.750	30002
328.838	13236
328.926	5540
329.014	4124
329.102	9872
329.190	24992
329.278	10734
329.366	4479
329.454	3513
329.542	4803
329.630	3992
329.718	5010
329.806	6504
329.893	8123
329.981	9709
330.069	20902
330.157	96299
330.245	192301
330.333	74402
330.421	15402
330.509	16461
330.597	46231
330.684	23530
330.772	12281
330.860	19808
330.948	20812
331.036	7103
331.123	3722
331.211	5035
331.299	7969
331.387	22148
331.475	28261
331.562	10594
331.650	5433
331.738	8940
331.825	11587
331.913	4194
332.001	5058
332.089	11607
332.176	29638
332.264	81379
332.352	42813
332.439	9485
332.527	6765
332.614	9147
332.702	12022
332.790	8640
332.877	36814
332.965	56239
333.052	9858
333.140	14836
333.228	25162
333.315	6675
333.403	11642
333.490	43590
333.578	25265
333.665	17470
333.753	9639
333.840	6720
333.928	13036
334.015	45265
334.103	76246
334.190	169256
334.278	30328
334.365	15082
334.452	8156
334.540	6749
334.627	14225
334.715	20254
334.802	60777
334.889	323346
334.977	212206
335.064	20089
335.151	11129
335.239	9466
335.326	18018
335.413	83865
335.501	70064
335.588	9403
335.675	6987
335.762	11022
335.850	16652
335.937	15501
336.024	73200
336.111	256887
336.199	64363
336.286	11237
336.373	6090
336.460	3966
336.547	5601
336.635	8589
336.722	5594
336.809	6988
336.896	14176
336.983	47863
337.070	107947
337.157	140145
337.245	182083
337.332	95751
337.419	11786
337.506	6984
337.593	10080
337.680	42685
337.767	77793
337.854	22945
337.941	31314
338.028	48736
338.115	14696
338.202	18512
338.289	57449
338.376	164982
338.463	39352
338.550	63114
338.637	43928
338.724	33854
338.811	44161
338.898	8010
338.984	5119
339.071	6896
339.158	11438
339.245	22699
339.332	13365
339.419	37176
339.506	24451
339.593	3044
339.679	4297
339.766	4308
339.853	7659
339.940	13230
340.027	4555
340.113	5005
340.200	8445
340.287	5941
340.374	8630
340.460	11768
340.547	4992
340.634	14055
340.720	45229
340.807	17791
340.894	4809
340.980	5286
341.067	3848
341.154	5889
341.240	11001
341.327	17621
341.414	6426
341.500	5486
341.587	4955
341.674	5456
341.760	14131
341.847	13228
341.933	3755
342.020	1671
342.106	1829
342.193	6347
342.279	9865
342.366	8112
342.452	12963
342.539	7338
342.625	22891
342.712	41582
342.798	15906
342.885	6380
342.971	2685
343.058	2575
343.144	2965
343.230	2634
343.317	4547
343.403	3294
343.490	2370
343.576	3177
343.662	4345
343.749	6182
343.835	11209
343.921	26103
344.008	166297
344.094	232243
344.180	40708
344.267	21724
344.353	71928
344.439	58710
344.525	21703
344.612	8516
344.698	8054
344.784	4210
344.870	3415
344.957	3978
345.043	7825
345.129	5806
345.215	13054
345.301	6198
345.387	3710
345.474	2655
345.560	5251
345.646	7277
345.732	4944
345.818	5553
345.904	5155
345.990	6669
346.076	11507
346.162	18584
346.249	5681
346.335	3985
346.421	7527
346.507	39639
346.593	80664
346.679	13516
346.765	4911
346.851	3647
346.937	3825
347.023	3998
347.108	5086
347.194	3878
347.280	4446
347.366	8520
347.452	40997
347.538	112108
347.624	69925
347.710	49271
347.796	8816
347.882	4546
347.967	3968
348.053	6838
348.139	5336
348.225	4083
348.311	4793
348.397	2677
348.482	6199
348.568	5844
348.654	2570
348.740	2500
348.825	4761
348.911	15082
348.997	71079
349.083	89232
349.168	12816
349.254	5677
349.340	4273
349.425	3081
349.511	6347
349.597	9229
349.682	21298
349.768	50860
349.854	17231
349.939	4889
350.025	3770
350.110	3480
350.196	2143
350.282	1346
350.367	4660
350.453	17782
350.538	15965
350.624	6820
350.709	6055
350.795	3407
350.880	3463
350.966	6424
351.051	16632
351.137	10727
351.222	5993
351.308	20506
351.393	36990
351.479	7441
351.564	3475
351.649	3468
351.735	2876
351.820	2444
351.906	4608
351.991	9984
352.076	35700
352.162	33381
352.247	7320
352.332	5696
352.418	10457
352.503	18355
352.588	64589
352.673	37373
352.759	9731
352.844	4608
352.929	6697
353.014	7531
353.100	8759
353.185	19357
353.270	18729
353.355	13727
353.441	5773
353.526	9953
353.611	17995
353.696	13088
353.781	9356
353.866	3521
353.952	6904
354.037	16292
354.122	32292
354.207	25751
354.292	9162
354.377	4650
354.462	4605
354.547	6189
354.632	7614
354.717	14986
354.802	20682
354.887	6255
354.972	3931
355.057	2375
355.142	3112
355.227	5655
355.312	11182
355.397	24391
355.482	50490
355.567	20504
355.652	20009
355.737	23991
355.822	71818
355.907	38059
355.991	7685
356.076	3720
356.161	4964
356.246	3327
356.331	7204
356.416	29248
356.501	148670
356.585	99156
356.670	13125
356.755	11958
356.840	24013
356.924	138988
357.009	309897
357.094	80193
357.179	18801
357.263	12766
357.348	13603
357.433	11777
357.517	10866
357.602	8488
357.687	8672
357.771	20189
357.856	38362
357.941	25299
358.025	111355
358.110	321191
358.195	102730
358.279	15157
358.364	15807
358.448	56621
358.533	112715
358.617	78833
358.702	76993
358.787	23648
358.871	15689
358.956	10865
359.040	4645
359.125	2738
359.209	5422
359.294	19735
359.378	23990
359.462	11778
359.547	9347
359.631	6870
359.716	3026
359.800	4782
359.885	8196
359.969	3900
360.053	4719
360.138	5369
360.222	8388
360.306	14408
360.391	12050
360.475	27267
360.559	44122
360.644	46712
360.728	33998
360.812	98283
360.896	178621
360.981	61580
361.065	26625
361.149	7393
361.233	7838
361.318	6529
361.402	8178
361.486	7889
361.570	5516
361.654	9520
361.739	34640
361.823	154241
361.907	162329
361.991	23102
362.075	17200
362.159	30816
362.243	18163
362.327	13972
362.411	15208
362.495	11133
362.580	5819
362.664	3654
362.748	3035
362.832	5121
362.916	8832
363.000	35789
363.084	149574
363.168	189031
363.252	35183
363.336	14928
363.420	30155
363.503	109305
363.587	84975
363.671	12956
363.755	10629
363.839	14513
363.923	7191
364.007	17270
364.091	22283
364.175	54569
364.258	146632
364.342	59517
364.426	33715
364.510	17633
364.594	20242
364.677	50973
364.761	177854
364.845	87181
364.929	28377
365.013	20488
365.096	20776
365.180	22617
365.264	62664
365.347	148333
365.431	46659
365.515	11004
365.598	5810
365.682	6873
365.766	14775
365.849	12484
365.933	9592
366.017	12903
366.100	7422
366.184	4731
366.267	6068
366.351	4064
366.435	2883
366.518	1897
366.602	3179
366.685	3994
366.769	5796
366.852	12577
366.936	17573
367.019	9473
367.103	11430
367.186	15010
367.270	4428
367.353	1867
367.436	3705
367.520	2555
367.603	6109
367.687	10233
367.770	16687
367.853	13221
367.937	51114
368.020	55628
368.104	12213
368.187	15049
368.270	17774
368.353	17376
368.437	49963
368.520	114050
368.603	48935
368.687	57537
368.770	74973
368.853	16886
368.936	21219
369.020	15786
369.103	5991
369.186	4256
369.269	4687
369.352	13806
369.436	16518
369.519	9683
369.602	2898
369.685	6663
369.768	6617
369.851	5258
369.934	4416
370.018	7544
370.101	15018
370.184	12324
370.267	8744
370.350	14147
370.433	31455
370.516	87861
370.599	78331
370.682	24968
370.765	44054
370.848	68500
370.931	106287
371.014	32522
371.097	7021
371.180	4870
371.263	3598
371.346	1591
371.429	3892
371.511	3946
371.594	9952
371.677	16955
371.760	18947
371.843	27418
371.926	150102
372.009	228675
372.091	56606
372.174	59416
372.257	106177
372.340	31748
372.423	29746
372.505	28606
372.588	13977
372.671	46328
372.754	107023
372.836	43715
372.919	52227
373.002	71160
373.085	18382
373.167	19703
373.250	56998
373.332	110699
373.415	204555
373.498	320566
373.580	106451
373.663	188741
373.746	183783
373.828	33261
373.911	16238
373.993	28787
374.076	91362
374.159	66551
374.241	40580
374.324	87790
374.406	56761
374.489	135711
374.571	252051
374.654	76831
374.736	68751
374.819	185048
374.901	262597
374.983	209801
375.066	29876
375.148	21418
375.231	88070
375.313	111993
375.395	33658
375.478	7681
375.560	8345
375.643	14919
375.725	80029
375.807	234235
375.890	174509
375.972	86846
376.054	52587
376.136	88689
376.219	36182
376.301	84740
376.383	163895
376.465	50887
376.548	35306
376.630	61708
376.712	136732
376.794	45309
376.877	6558
376.959	3532
377.041	7259
377.123	16756
377.205	14890
377.287	2732
377.369	4242
377.452	4708
377.534	4032
377.616	5175
377.698	2720
377.780	2372
377.862	4528
377.944	4667
378.026	1986
378.108	3240
378.190	3442
378.272	3234
378.354	3038
378.436	2682
378.518	12347
378.600	32360
378.682	30754
378.764	61461
378.846	36500
378.928	13251
379.010	15276
379.091	8310
379.173	4632
379.255	4121
379.337	9478
379.419	41092
379.501	81710
379.583	25297
379.664	9569
379.746	25936
379.828	63444
379.910	77335
379.991	56591
380.073	9205
380.155	7142
380.237	5083
380.318	3199
380.400	5591
380.482	15176
380.564	20725
380.645	25266
380.727	18262
380.809	10039
380.890	6635
380.972	5525
381.053	4814
381.135	8678
381.217	26329
381.298	55777
381.380	25004
381.461	46441
381.543	166633
381.624	145007
381.706	22925
381.787	12989
381.869	20534
381.951	105693
382.032	268817
382.113	121462
382.195	21782
382.276	22185
382.358	63959
382.439	130541
382.521	170319
382.602	221218
382.684	100028
382.765	171603
382.846	135420
382.928	131937
383.009	65197
383.090	77657
383.172	249507
383.253	284618
383.334	137277
383.416	187995
383.497	74383
383.578	33212
383.659	71128
383.741	262304
383.822	492001
383.903	208816
383.984	132904
384.066	209408
384.147	103596
384.228	22255
384.309	16069
384.390	11539
384.471	8532
384.553	10798
384.634	15601
384.715	14321
384.796	8087
384.877	18533
384.958	59397
385.039	54271
385.120	16433
385.201	10152
385.282	12900
385.363	14203
385.444	12190
385.525	36247
385.606	105724
385.687	66362
385.768	18071
385.849	37143
385.930	149345
386.011	184739
386.092	37154
386.173	11157
386.254	9688
386.335	10047
386.416	12767
386.496	41517
386.577	50384
386.658	19166
386.739	13441
386.820	13468
386.901	9915
386.981	9271
387.062	8052
387.143	22124
387.224	59933
387.304	42977
387.385	15694
387.466	10332
387.547	13187
387.627	9139
387.708	35718
387.789	121848
387.869	114730
387.950	25802
388.031	6736
388.111	9741
388.192	25917
388.273	32873
388.353	16176
388.434	11109
388.514	41121
388.595	138420
388.676	124596
388.756	50590
388.837	50385
388.917	24563
388.998	5717
389.078	6581
389.159	5953
389.239	4907
389.320	10783
389.400	9843
389.480	30903
389.561	59145
389.641	22658
389.722	11150
389.802	16325
389.883	37881
389.963	78684
390.043	48067
390.124	17766
390.204	28854
390.284	64719
390.365	42076
390.445	94394
390.525	232661
390.605	164416
390.686	32319
390.766	10578
390.846	7310
390.927	4671
391.007	5240
391.087	7223
391.167	6788
391.247	6745
391.328	18168
391.408	19740
391.488	11467
391.568	3493
391.648	7705
391.728	9667
391.808	11364
391.888	14076
391.969	38248
392.049	45587
392.129	21762
392.209	36405
392.289	67646
392.369	33253
392.449	32167
392.529	17120
392.609	15478
392.689	29751
392.769	73494
392.849	49262
392.929	52039
393.009	101694
393.089	59065
393.169	57001
393.248	271664
393.328	936098
393.408	782899
393.488	143291
393.568	37271
393.648	20028
393.728	14137
393.807	10200
393.887	10918
393.967	10572
394.047	13739
394.127	19778
394.206	43434
394.286	220609
394.366	697431
394.446	550909
394.525	106384
394.605	28275
394.685	27880
394.764	57843
394.844	83937
394.924	46321
395.003	14492
395.083	11698
395.163	9876
395.242	9356
395.322	10161
395.402	6742
395.481	15308
395.561	47098
395.640	89558
395.720	70176
395.799	111671
395.879	73163
395.958	68512
396.038	313521
396.117	916697
396.197	753158
396.276	184703
396.356	60219
396.435	41039
396.515	26302
396.594	30212
396.673	63700
396.753	312135
396.832	804482
396.912	457521
396.991	83493
397.070	23109
397.150	13047
397.229	9528
397.308	10472
397.388	11550
397.467	8287
397.546	6037
397.625	4048
397.705	9286
397.784	8035
397.863	4344
397.942	4451
398.022	8670
398.101	44533
398.180	87137
398.259	34516
398.338	8817
398.417	6262
398.497	4487
398.576	5067
398.655	3447
398.734	4289
398.813	7951
398.892	45957
398.971	100313
399.050	34902
399.129	4787
399.208	3166
399.287	3415
399.366	2617
399.445	3583
399.524	3509
399.603	3360
399.682	11848
399.761	46469
399.840	116992
399.919	64538
399.998	7967
400.077	2712
400.156	2138
400.235	6355
400.313	4185
400.392	8841
400.471	34527
400.550	41794
400.629	8875
400.708	6248
400.786	8326
400.865	20842
400.944	17254
401.023	8201
401.102	1719
401.180	2793
401.259	3595
401.338	4755
401.416	6020
401.495	5574
401.574	4853
401.652	4592
401.731	6959
401.810	7210
401.888	2647
401.967	1862
402.046	2812
402.124	7119
402.203	6725
402.281	5075
402.360	9817
402.438	24909
402.517	13133
402.596	6785
402.674	5237
402.753	3719
402.831	4412
402.910	9919
402.988	53999
403.066	121992
403.145	52814
403.223	49755
403.302	99519
403.380	69876
403.459	64624
403.537	21183
403.615	7396
403.694	1507
403.772	2919
403.850	1364
403.929	1758
404.007	3815
404.085	14875
404.164	15156
404.242	5159
404.320	15302
404.398	35183
404.477	75674
404.555	203028
404.633	131536
404.711	27693
404.789	11342
404.868	7788
404.946	2868
405.024	1918
405.102	1586
405.180	1608
405.258	1280
405.336	2777
405.415	3815
405.493	10961
405.571	10228
405.649	1964
405.727	2492
405.805	5378
405.883	7252
405.961	6913
406.039	6837
406.117	2324
406.195	10771
406.273	61491
406.351	148855
406.429	65696
406.507	10844
406.585	2877
406.663	4757
406.740	5137
406.818	4186
406.896	2707
406.974	4802
407.052	22448
407.130	96349
407.208	96866
407.285	16345
407.363	2246
407.441	3191
407.519	2537
407.596	5440
407.674	18628
407.752	47969
407.830	39945
407.907	14402
407.985	6159
408.063	3367
408.141	2532
408.218	7883
408.296	8135
408.373	6393
408.451	4762
408.529	3601
408.606	567
408.684	1717
408.762	731
408.839	812
408.917	315
408.994	1517
409.072	684
409.149	1197
409.227	2867
409.304	2912
409.382	1092
409.459	1644
409.537	3216
409.614	2670
409.692	1701
409.769	2372
409.846	3307
409.924	5778
410.001	2377
410.079	3099
410.156	3398
410.233	2706
410.311	3209
410.388	2349
410.465	2407
410.543	1609
410.620	1975
410.697	2746
410.775	2719
410.852	624
410.929	3789
411.006	4460
411.083	2692
411.161	6965
411.238	7043
411.315	4460
411.392	1686
411.469	3714
411.547	3118
411.624	1065
411.701	596
411.778	3396
411.855	8923
411.932	3475
412.009	1821
412.086	2819
412.163	3286
412.240	4474
412.317	5785
412.394	4365
412.471	1667
412.548	1389
412.625	2224
412.702	4863
412.779	6621
412.856	3904
412.933	952
413.010	3140
413.087	8578
413.164	31295
413.241	30659
413.318	6545
413.395	5209
413.471	7322
413.548	2473
413.625	3293
413.702	4052
413.779	2114
413.855	918
413.932	697
414.009	-387
414.086	565
414.162	1472
414.239	8324
414.316	36032
414.393	56014
414.469	14191
414.546	2020
414.623	484
414.699	1817
414.776	2311
414.853	1613
414.929	2114
415.006	2685
415.082	3365
415.159	2881
415.236	1925
415.312	3130
415.389	6137
415.465	8625
415.542	2734
415.618	2815
415.695	5354
415.771	2985
415.848	2732
415.924	2813
416.000	1898
416.077	2154
416.153	10
416.230	-472
416.306	1189
416.383	2670
416.459	1870
416.535	711
416.612	446
416.688	1092
416.764	1271
416.841	823
416.917	1669
416.993	1879
417.069	3109
417.146	5064
417.222	6065
417.298	3680
417.374	682
417.451	2319
417.527	3462
417.603	3927
417.679	2502
417.755	2032
417.831	-488
417.908	1158
417.984	546
418.060	1796
418.136	8367
418.212	8122
418.288	2831
418.364	1288
418.440	1225
418.516	5359
418.592	8970
418.668	14248
418.744	17155
418.820	10209
418.896	1793
418.972	545
419.048	2887
419.124	8150
419.200	3679
419.276	1227
419.352	20
419.428	1318
419.504	2672
419.579	2570
419.655	1697
419.731	2878
419.807	12908
419.883	22138
419.959	11514
420.034	4653
420.110	13694
420.186	38236
420.262	20935
420.337	5347
420.413	2699
420.489	523
420.565	1656
420.640	1004
420.716	1327
420.792	475
420.867	1701
420.943	1848
421.019	4423
421.094	2621
421.170	1828
421.245	1266
421.321	1310
421.397	2410
421.472	9745
421.548	22089
421.623	10929
421.699	3021
421.774	2821
421.850	2858
421.925	6777
422.001	5031
422.076	2356
422.152	4186
422.227	7470
422.302	7721
422.378	10743
422.453	21873
422.529	74806
422.604	302619
422.679	472679
422.755	180466
422.830	38851
422.905	13921
422.981	7528
423.056	4702
423.131	3970
423.207	4093
423.282	5732
423.357	10416
423.432	5447
423.508	10197
423.583	17883
423.658	10058
423.733	3299
423.808	5135
423.883	5614
423.959	3611
424.034	2184
424.109	2405
424.184	1110
424.259	1346
424.334	893
424.409	876
424.484	1249
424.559	1990
424.634	853
424.709	4193
424.784	4544
424.859	2831
424.934	8469
425.009	29372
425.084	38711
425.159	11131
425.234	1340
425.309	1439
425.384	9673
425.459	11838
425.534	3779
425.609	1768
425.683	1286
425.758	1901
425.833	2342
425.908	5142
425.983	20837
426.058	41872
426.132	13796
426.207	4493
426.282	7166
426.357	5340
426.431	1689
426.506	1858
426.581	2237
426.655	2408
426.730	1261
426.805	514
426.879	1789
426.954	2936
427.029	11847
427.103	63218
427.178	113521
427.253	37021
427.327	4449
427.402	10250
427.476	17149
427.551	6528
427.625	3357
427.700	3084
427.774	1699
427.849	2670
427.923	237
427.998	1854
428.072	2317
428.147	9200
428.221	29612
428.296	52519
428.370	17544
428.444	5705
428.519	10210
428.593	19227
428.667	14906
428.742	18821
428.816	18460
428.890	49220
428.965	52318
429.039	25137
429.113	19597
429.188	5077
429.262	1790
429.336	8653
429.410	19592
429.485	12671
429.559	16404
429.633	9255
429.707	4300
429.781	16609
429.855	60905
429.930	67034
430.004	64141
430.078	95217
430.152	73244
430.226	96419
430.300	68532
430.374	9637
430.448	8946
430.522	44784
430.596	91944
430.670	51149
430.744	109526
430.818	120293
430.892	20960
430.966	3794
431.040	1804
431.114	871
431.188	-88
431.262	1953
431.336	3050
431.410	11945
431.484	23877
431.557	11774
431.631	1845
431.705	2782
431.779	14539
431.853	44920
431.927	22668
432.000	2895
432.074	2194
432.148	3422
432.222	2730
432.295	1639
432.369	2217
432.443	11381
432.516	65324
432.590	113778
432.664	31380
432.737	3837
432.811	33
432.885	-107
432.958	898
433.032	-285
433.106	283
433.179	-314
433.253	497
433.326	335
433.400	-598
433.473	1013
433.547	-637
433.620	1376
433.694	3459
433.767	3986
433.841	2000
433.914	773
433.988	10
434.061	47
434.134	96
434.208	237
434.281	-192
434.355	311
434.428	810
434.501	145
434.575	-570
434.648	164
434.721	-187
434.795	562
434.868	-745
434.941	-396
435.014	51
435.088	1156
435.161	2175
435.234	3818
435.307	3351
435.381	1621
435.454	243
435.527	1746
435.600	967
435.673	1319
435.746	570
435.819	945
435.892	90
435.966	717
436.039	386
436.112	1453
436.185	-776
436.258	-100
436.331	-707
436.404	-440
436.477	-514
436.550	153
436.623	-216
436.696	1021
436.769	688
436.842	1261
436.915	1132
436.987	3070
437.060	22
437.133	-399
437.206	-839
437.279	870
437.352	-285
437.425	580
437.498	1584
437.570	3335
437.643	2354
437.716	133
437.789	590
437.861	3382
437.934	7277
438.007	3494
438.080	-181
438.152	2648
438.225	14331
438.298	98327
438.370	173346
438.443	51047
438.516	8866
438.588	1990
438.661	370
438.734	995
438.806	1310
438.879	2050
438.951	2625
439.024	3639
439.096	937
439.169	634
439.241	-873
439.314	935
439.386	3488
439.459	7842
439.531	9173
439.604	2524
439.676	1224
439.749	117
439.821	-472
439.893	1478
439.966	853
440.038	1324
440.110	1204
440.183	1720
440.255	1388
440.327	5413
440.400	37909
440.472	105796
440.544	46905
440.617	5915
440.689	3860
440.761	6095
440.833	6841
440.905	4630
440.978	599
441.050	-129
441.122	165
441.194	276
441.266	-193
441.338	594
441.411	5843
441.483	32268
441.555	33425
441.627	7032
441.699	5487
441.771	4985
441.843	1009
441.915	481
441.987	452
442.059	658
442.131	1717
442.203	4522
442.275	4271
442.347	2768
442.419	4911
442.491	19756
442.563	35689
442.635	19292
442.706	22568
442.778	13185
442.850	1267
442.922	457
442.994	1918
443.066	3867
443.137	2058
443.209	1429
443.281	3358
443.353	9102
443.425	33230
443.496	81472
443.568	59764
443.640	19777
443.711	5063
443.783	1698
443.855	1048
443.926	-657
443.998	960
444.070	4009
444.141	2170
444.213	4141
444.285	4487
444.356	6912
444.428	5848
444.499	741
444.571	2
444.642	996
444.714	1754
444.785	2891
444.857	7938
444.928	16542
445.000	8122
445.071	11738
445.143	11877
445.214	6591
445.285	12210
445.357	33866
445.428	82492
445.500	137678
445.571	76665
445.642	32413
445.714	25916
445.785	25187
445.856	7055
445.928	5486
445.999	3444
446.070	4224
446.141	4475
446.213	4876
446.284	2332
446.355	3215
446.426	1679
446.497	2684
446.569	5414
446.640	7534
446.711	3640
446.782	2375
446.853	5925
446.924	4575
446.995	1894
447.066	3484
447.138	5640
447.209	2355
447.280	-187
447.351	534
447.422	-349
447.493	2084
447.564	3292
447.635	3619
447.706	1374
447.777	370
447.847	755
447.918	568
447.989	2718
448.060	5388
448.131	11232
448.202	9215
448.273	4715
448.344	1829
448.414	1004
448.485	1311
448.556	506
448.627	663
448.698	548
448.768	-515
448.839	1730
448.910	5288
448.981	3515
449.051	1513
449.122	287
449.193	658
449.263	447
449.334	1544
449.405	2909
449.475	5932
449.546	4179
449.616	6719
449.687	4481
449.758	1249
449.828	1392
449.899	1867
449.969	272
450.040	1288
450.110	4602
450.181	4089
450.251	1404
450.322	971
450.392	1180
450.463	1450
450.533	267
450.604	981
450.674	200
450.744	1509
450.815	795
450.885	695
450.955	174
451.026	1227
451.096	648
451.166	2700
451.237	9492
451.307	17496
451.377	5492
451.447	534
451.518	1120
451.588	714
451.658	1254
451.728	5795
451.799	21551
451.869	18393
451.939	4240
452.009	950
452.079	759
452.149	1985
452.219	7293
452.289	23768
452.360	13153
452.430	2451
452.500	1542
452.570	2588
452.640	4290
452.710	14952
452.780	18874
452.850	13852
452.920	8953
452.990	4022
453.060	2835
453.129	3378
453.199	6893
453.269	41693
453.339	63207
453.409	84773
453.479	98746
453.549	131221
453.619	120275
453.688	41481
453.758	6694
453.828	3439
453.898	2341
453.968	1432
454.037	1209
454.087	1068
454.107	977
454.168	1175
454.177	1170
454.247	1525
454.249	1553
454.316	1085
454.330	1638
454.386	3229
454.411	7541
454.456	14167
454.492	14601
454.525	15018
454.574	7479
454.595	4286
454.655	2581
454.665	2346
454.734	3703
454.736	3989
454.804	9450
454.817	12889
454.873	24786
454.898	24832
454.943	24592
454.979	16841
455.013	10406
455.060	6770
455.082	5578
455.141	7985
455.152	8346
455.221	24256
455.222	24693
455.291	36276
455.303	38301
455.360	44987
455.384	54509
455.430	64677
455.465	46085
455.499	30695
455.546	25235
455.569	22190
455.627	12861
455.638	11443
455.707	2799
455.708	2831
455.777	2529
455.789	2485
455.846	1959
455.869	1945
455.916	1876
455.950	2134
455.985	2322
456.031	2603
456.054	2655
456.112	1945
456.124	1884
456.193	2622
456.193	2583
456.262	3200
456.274	3548
456.332	4728
456.355	5292
456.401	5563
456.436	4384
456.470	3369
456.516	1780
456.540	1181
456.597	1547
456.609	1544
456.678	2144
456.678	2122
456.747	1224
456.759	1306
456.817	1822
456.840	1943
456.886	1947
456.920	2033
456.955	2427
457.001	2715
457.024	3115
457.082	4802
457.093	4998
457.162	8959
457.163	9015
457.232	8870
457.243	8094
457.301	4247
457.324	3275
457.370	2612
457.405	2901
457.439	2945
457.485	3040
457.508	3227
457.566	3470
457.577	3505
457.646	4385
457.647	4427
457.715	6162
457.727	6326
457.784	7638
457.808	8958
457.853	10633
457.889	11228
457.922	10591
457.969	9269
457.991	9747
458.050	11822
458.060	12128
458.129	16100
458.130	16221
458.198	12617
458.211	11556
458.267	8313
458.292	6929
458.336	6316
458.372	6386
458.405	7703
458.453	10198
458.474	11962
458.533	18916
458.543	19313
458.611	24778
458.614	24878
458.680	14796
458.694	12066
458.749	7829
458.775	6595
458.818	5221
458.855	4554
458.887	4313
458.936	4187
458.955	4006
459.016	4265
459.024	4373
459.093	5418
459.097	5436
459.162	5181
459.177	5415
459.230	6377
459.257	6777
459.299	7027
459.338	7033
459.368	6983
459.418	7277
459.437	6994
459.499	5742
459.505	5724
459.574	5611
459.579	5600
459.643	5022
459.659	4841
459.711	5282
459.740	6050
459.780	6820
459.820	7004
459.849	6883
459.900	7473
459.917	7510
459.981	6872
459.986	6805
460.054	6507
460.061	6439
460.123	6625
460.141	6887
460.191	8302
460.222	9103
460.260	9508
460.302	10384
460.328	9866
460.382	7382
460.397	7415
460.462	8677
460.465	9037
460.534	17412
460.543	18581
460.602	39853
460.623	47966
460.671	71723
460.703	92627
460.739	74936
460.783	45029
460.808	37931
460.864	12644
460.876	10585
460.944	7479
460.945	7435
461.013	7281
461.024	7223
461.081	7242
461.104	7601
461.150	7547
461.184	6930
461.218	6785
461.264	6864
461.286	7022
461.345	7278
461.355	7265
461.423	7664
461.425	7660
461.491	9195
461.505	9737
461.559	20781
461.585	25697
461.628	36451
461.665	48016
461.696	49155
461.745	51955
461.764	44779
461.825	12735
461.832	12244
461.901	9219
461.905	9250
461.969	7875
461.985	7537
462.037	8567
462.065	9009
462.105	11269
462.145	13737
462.173	17913
462.225	26203
462.241	28347
462.305	38547
462.310	37385
462.378	17351
462.385	14715
462.446	10227
462.465	9422
462.514	9303
462.545	9727
462.582	9486
462.625	9007
462.650	9052
462.705	9231
462.718	9696
462.785	12112
462.786	12193
462.854	16323
462.865	17202
462.922	19570
462.945	20405
462.990	14984
463.025	9770
463.058	8790
463.104	7862
463.126	7860
463.184	8635
463.194	8796
463.262	9177
463.264	9208
463.330	10564
463.344	10778
463.398	11916
463.424	12406
463.466	11668
463.504	11149
463.533	11415
463.583	11554
463.601	11844
463.663	12722
463.669	13116
463.737	18193
463.743	18634
463.805	30303
463.823	33680
463.873	48624
463.903	58274
463.940	57097
463.982	55948
464.008	44221
464.062	16007
464.076	15126
464.142	10976
464.144	10928
464.211	10145
464.221	10144
464.279	11203
464.301	11498
464.347	12856
464.381	13987
464.414	15495
464.461	17438
464.482	17619
464.540	18191
464.550	17862
464.617	15125
464.620	15007
464.685	16323
464.699	16603
464.753	19722
464.779	21338
464.820	22507
464.859	23450
464.888	23085
464.938	22320
464.956	22370
465.018	22651
465.023	22484
465.091	19506
465.098	19163
465.158	18867
465.177	18827
465.226	18933
465.257	18931
465.293	19941
465.336	21104
465.361	22433
465.416	25142
465.428	27363
465.495	39481
465.496	39668
465.563	58786
465.575	62149
465.631	68756
465.654	71461
465.698	46053
465.734	23900
465.765	22439
465.813	20325
465.833	20403
465.893	21346
465.900	21320
465.968	20823
465.972	20740
466.035	22364
466.052	22797
466.102	23450
466.131	23711
466.170	24436
466.210	25135
466.237	25947
466.290	27450
466.304	27774
466.369	28855
466.372	28954
466.439	30363
466.449	30507
466.506	34187
466.528	35507
466.573	47812
466.607	56921
466.641	73382
466.687	96099
466.708	100564
466.766	112756
466.775	105138
466.842	45692
466.845	42789
466.909	38463
466.925	37459
466.977	36220
467.004	35515
467.044	37109
467.083	38596
467.111	40494
467.163	43815
467.178	43795
467.242	43266
467.245	43201
467.312	40083
467.321	39590
467.379	39326
467.400	39110
467.446	40852
467.480	41965
467.559	35459
467.638	32615
467.717	32842
467.796	34084
467.875	34810
467.955	34497
468.034	56666
468.113	101442
468.192	129319
468.271	32417
468.350	27513
468.429	26320
468.508	25029
468.588	25309
468.667	26752
468.746	30553
468.825	26757
468.904	23594
468.983	29626
469.062	41648
469.141	44267
469.220	22700
469.299	22527
469.378	24581
469.456	30055
469.535	25570
469.614	25509
469.693	27476
469.772	34518
469.851	45971
469.930	27466
470.009	23162
470.088	21739
470.166	23858
470.245	26966
470.324	29769
470.403	25482
470.482	22677
470.560	21092
470.639	23205
470.718	26073
470.797	22412
470.875	30083
470.954	39397
471.033	37627
471.111	18859
471.190	18331
471.269	18074
471.347	17690
471.426	20180
471.505	23482
471.583	23093
471.662	22316
471.740	19927
471.819	20028
471.898	19445
471.976	19338
472.055	19409
472.133	22814
472.212	30332
472.290	28713
472.369	19488
472.447	18492
472.526	17045
472.604	20040
472.683	21417
472.761	20861
472.839	20129
472.918	18748
472.996	20170
473.075	23193
473.153	20858
473.231	19268
473.310	22948
473.388	19892
473.466	21096
473.545	22811
473.623	28740
473.701	26433
473.780	19172
473.858	20491
473.936	22635
474.014	19402
474.093	23401
474.171	34564
474.249	45529
474.327	25358
474.405	16960
474.484	17328
474.562	18818
474.640	19133
474.718	22354
474.796	22516
474.874	22617
474.952	19886
475.030	20756
475.108	23832
475.187	29187
475.265	33179
475.343	43093
475.421	42953
475.499	22262
475.577	22153
475.655	30919
475.733	59546
475.811	96363
475.889	82705
475.966	43178
476.044	21807
476.122	30469
476.200	38229
476.278	24537
476.356	17565
476.434	21173
476.512	27186
476.590	35581
476.667	26120
476.745	15979
476.823	16619
476.901	16864
476.979	18125
477.056	17126
477.134	18838
477.212	19904
477.290	17098
477.367	15435
477.445	14642
477.523	15429
477.601	14676
477.678	16981
477.756	20566
477.834	22159
477.911	15403
477.989	17049
478.066	15804
478.144	21635
478.222	28307
478.299	46409
478.377	33843
478.454	16240
478.532	14322
478.609	15275
478.687	16754
478.764	14008
478.842	15806
478.919	17150
478.997	16220
479.074	15332
479.152	20158
479.229	24658
479.307	15219
479.384	12732
479.461	14127
479.539	15598
479.616	18536
479.694	15354
479.771	17005
479.848	20019
479.926	26090
480.003	26088
480.080	14262
480.157	13062
480.235	12997
480.312	14443
480.389	18360
480.467	32217
480.544	36641
480.621	16837
480.698	16610
480.775	19121
480.853	19424
480.930	16091
481.007	17151
481.084	20861
481.161	21381
481.238	18634
481.315	13756
481.392	13430
481.470	15297
481.547	16232
481.624	14860
481.701	14022
481.778	15407
481.855	18687
481.932	31201
482.009	48732
482.086	25924
482.163	17833
482.240	33406
482.317	58916
482.393	34331
482.470	15299
482.547	15759
482.624	15110
482.701	15370
482.778	14184
482.855	13046
482.932	11896
483.009	12721
483.085	15368
483.162	18265
483.239	16711
483.316	12240
483.393	13900
483.469	13207
483.546	18774
483.623	18441
483.699	14972
483.776	15735
483.853	18719
483.930	33060
484.006	81815
484.083	124520
484.160	60036
484.236	82225
484.313	57958
484.389	45079
484.466	41520
484.543	40222
484.619	40575
484.696	43209
484.772	44933
484.849	46611
484.925	38541
485.002	38218
485.078	41124
485.155	40500
485.231	37055
485.308	37167
485.384	38826
485.461	52087
485.537	84923
485.614	84308
485.690	36941
485.766	35487
485.843	38579
485.919	48124
485.995	45671
486.072	32225
486.148	32052
486.224	33160
486.301	34545
486.377	39359
486.453	39088
486.530	40078
486.606	53093
486.682	57051
486.758	70460
486.835	77359
486.911	66976
486.987	104435
487.063	91343
487.139	103558
487.215	72069
487.292	40692
487.368	36263
487.444	40062
487.520	46836
487.596	40697
487.672	52153
487.748	90500
487.824	110615
487.900	52001
487.976	39363
488.052	41453
488.128	45685
488.204	37375
488.280	35567
488.356	49869
488.432	101661
488.508	129524
488.584	40296
488.660	31925
488.736	32481
488.812	35038
488.888	41731
488.964	56303
489.039	109688
489.115	145035
489.191	74811
489.267	33924
489.343	32564
489.418	26122
489.494	28627
489.570	26104
489.646	28554
489.722	29036
489.797	30815
489.873	56520
489.949	111445
490.024	73092
490.100	26877
490.176	28605
490.251	33424
490.327	38930
490.403	25396
490.478	25480
490.554	21683
490.629	23500
490.705	22731
490.781	26184
490.856	25203
490.932	29810
491.007	28364
491.083	28275
491.158	27046
491.234	43860
491.309	85229
491.385	69917
491.460	26870
491.536	29044
491.611	24816
491.686	27705
491.762	37332
491.837	71124
491.913	113201
491.988	159351
492.063	166218
492.139	56588
492.214	37014
492.289	21004
492.365	22326
492.440	26213
492.515	25998
492.590	25265
492.666	20489
492.741	33680
492.816	45169
492.891	25616
492.967	21875
493.042	21675
493.117	22709
493.192	26955
493.267	68546
493.342	194677
493.418	204669
493.493	29646
493.568	18093
493.643	21431
493.718	27021
493.793	38471
493.868	36634
493.943	23146
494.018	20083
494.093	18565
494.168	19417
494.243	16719
494.318	16007
494.393	17398
494.468	16541
494.543	16567
494.618	20216
494.693	18424
494.768	18312
494.842	18372
494.917	16842
494.992	19204
495.067	16723
495.142	17670
495.217	20079
495.292	19274
495.366	23796
495.441	25914
495.516	31500
495.591	51625
495.665	160875
495.740	302565
495.815	94696
495.890	28846
495.964	23795
496.039	27401
496.114	25023
496.188	29238
496.263	27997
496.338	25347
496.412	30344
496.487	33920
496.561	34901
496.636	35274
496.710	31622
496.785	35670
496.860	40646
496.934	32877
497.009	34917
497.083	35785
497.158	38461
497.232	46041
497.307	55120
497.381	52309
497.455	63266
497.530	75947
497.604	63343
497.679	73107
497.753	100570
497.827	118559
497.902	115639
497.976	134600
498.050	309227
498.125	845189
498.199	618657
498.273	148802
498.348	132807
498.422	117987
498.496	111147
498.570	94739
498.645	83390
498.719	77127
498.793	80303
498.867	99540
498.941	133662
499.016	392182
499.090	775988
499.164	178251
499.238	45317
499.312	42395
499.386	46384
499.460	40850
499.534	39363
499.609	45978
499.683	61263
499.757	61540
499.831	182822
499.905	564641
499.979	363669
500.053	69424
500.127	65058
500.201	46242
500.275	32566
500.349	32032
500.422	36089
500.496	52810
500.570	116796
500.644	324375
500.718	473919
500.792	71445
500.866	32884
500.940	40843
501.013	32350
501.087	32985
501.161	50971
501.235	69148
501.309	198088
501.382	482707
501.456	291383
501.530	88416
501.603	135854
501.677	41128
501.751	23144
501.825	32869
501.898	77245
501.972	183564
502.046	78496
502.119	33310
502.193	93205
502.266	187148
502.340	69560
502.413	96403
502.487	153864
502.561	77802
502.634	26636
502.708	21673
502.781	19703
502.855	17084
502.928	15880
503.002	17102
503.075	17362
503.149	17926
503.222	19338
503.295	20611
503.369	25901
503.442	44891
503.516	163126
503.589	335498
503.662	168490
503.736	68447
503.809	156706
503.882	109994
503.956	181043
504.029	116192
504.102	58667
504.175	56174
504.249	26940
504.322	25933
504.395	21768
504.468	16568
504.542	16432
504.615	12413
504.688	13521
504.761	12320
504.834	18437
504.907	21399
504.980	29560
505.053	17101
505.127	19954
505.200	25341
505.273	27100
505.346	15723
505.419	12859
505.492	12714
505.565	11557
505.638	12274
505.711	12658
505.784	11649
505.857	11585
505.930	14662
506.003	11495
506.076	15698
506.149	20996
506.221	22563
506.294	25394
506.367	88898
506.440	235659
506.513	80810
506.586	25199
506.659	14612
506.731	12964
506.804	17377
506.877	22846
506.950	15957
507.022	12999
507.095	19208
507.168	20249
507.241	12767
507.313	10843
507.386	13542
507.459	18586
507.531	11856
507.604	10739
507.677	11259
507.749	9475
507.822	18308
507.894	33905
507.967	32274
508.040	18743
508.112	17300
508.185	16868
508.257	15963
508.330	23713
508.402	15710
508.475	17357
508.547	17335
508.620	20617
508.692	29414
508.765	16741
508.837	13030
508.909	12266
508.982	13959
509.054	16446
509.127	13467
509.199	12360
509.271	11243
509.344	12106
509.416	12285
509.488	13407
509.560	13679
509.633	14746
509.705	16495
509.777	18341
509.849	22828
509.922	16260
509.994	14702
510.066	15233
510.138	17420
510.210	32918
510.283	25041
510.355	22155
510.427	19099
510.499	18747
510.571	17466
510.643	18869
510.715	26803
510.787	21160
510.859	19695
510.931	23438
511.003	26983
511.076	21793
511.148	16951
511.219	19532
511.291	33756
511.363	32523
511.435	17130
511.507	15146
511.579	15949
511.651	16872
511.723	15188
511.795	14851
511.867	16430
511.939	24080
512.010	48083
512.082	29507
512.154	15679
512.226	17827
512.298	27496
512.369	33007
512.441	25504
512.513	25624
512.585	19679
512.656	21529
512.728	22037
512.800	17276
512.871	19399
512.943	18763
513.015	14728
513.086	17565
513.158	18966
513.230	20115
513.301	28268
513.373	27681
513.444	18194
513.516	15821
513.588	16220
513.659	19658
513.731	21841
513.802	20459
513.874	43751
513.945	57989
514.016	20091
514.088	17441
514.159	18954
514.231	27048
514.302	30199
514.374	23840
514.445	26732
514.516	54373
514.588	31206
514.659	27845
514.730	47049
514.802	36308
514.873	39679
514.944	39454
515.016	31421
515.087	30014
515.158	40269
515.229	49751
515.301	48226
515.372	64568
515.443	39789
515.514	29227
515.585	20104
515.656	20169
515.728	18777
515.799	16920
515.870	17982
515.941	18321
516.012	19262
516.083	25333
516.154	26438
516.225	31202
516.296	29562
516.367	24745
516.438	26870
516.509	31008
516.580	47945
516.651	155066
516.722	400401
516.793	130387
516.864	44838
516.935	42440
517.006	44492
517.077	63740
517.148	154784
517.219	516705
517.289	579140
517.360	246669
517.431	64683
517.502	26959
517.573	26608
517.643	26302
517.714	29149
517.785	29885
517.856	29533
517.926	34114
517.997	37110
518.068	41209
518.138	51212
518.209	94583
518.280	409843
518.350	1055123
518.421	271744
518.492	45518
518.562	34137
518.633	34385
518.703	30136
518.774	45370
518.845	73864
518.915	57492
518.986	33240
519.056	36388
519.127	63807
519.197	112296
519.268	257592
519.338	108160
519.408	34739
519.479	36646
519.549	25287
519.620	20583
519.690	16518
519.760	17206
519.831	18842
519.901	16652
519.971	15227
520.042	18940
520.112	22600
520.182	23420
520.253	24312
520.323	20084
520.393	32837
520.463	39769
520.534	36786
520.604	60331
520.674	25241
520.744	34489
520.814	74326
520.885	51992
520.955	109929
521.025	289135
521.095	66405
521.165	21207
521.235	18246
521.305	15228
521.375	15527
521.445	18157
521.515	21151
521.585	25859
521.655	19520
521.725	20936
521.795	18070
521.865	14441
521.935	28145
522.005	19020
522.075	13490
522.145	17557
522.215	20078
522.285	28398
522.355	43953
522.424	78524
522.494	54072
522.564	28510
522.634	64299
522.704	133227
522.774	34877
522.843	16460
522.913	16118
522.983	19484
523.053	15939
523.122	17279
523.192	26513
523.262	85654
523.331	56591
523.401	16142
523.471	12639
523.540	13705
523.610	9957
523.680	12035
523.749	12508
523.819	19269
523.888	14592
523.958	11711
524.027	12394
524.097	13664
524.166	11553
524.236	14002
524.305	13717
524.375	12430
524.444	11519
524.514	15126
524.583	13643
524.653	18018
524.722	20427
524.791	11474
524.861	12260
524.930	10816
524.999	12531
525.069	18665
525.138	16215
525.207	18567
525.277	12255
525.346	12961
525.415	12545
525.484	15526
525.554	17387
525.623	14885
525.692	13914
525.761	14319
525.830	14233
525.900	15432
525.969	23435
526.038	29062
526.107	55923
526.176	122250
526.245	78247
526.314	48036
526.383	82166
526.452	84300
526.522	175433
526.591	138730
526.660	68339
526.729	33413
526.797	41584
526.867	122591
526.935	422528
527.004	423666
527.073	139376
527.142	23537
527.211	17278
527.280	19617
527.349	16592
527.418	11229
527.487	12626
527.555	11136
527.624	9033
527.693	8892
527.762	10277
527.831	8286
527.899	10590
527.968	9588
528.037	9919
528.106	15847
528.174	24711
528.243	20989
528.312	36298
528.380	34531
528.449	11873
528.518	11549
528.586	6317
528.655	9950
528.723	8544
528.792	9046
528.861	9869
528.929	8222
528.998	8971
529.066	8223
529.135	9104
529.203	8393
529.272	7471
529.340	10052
529.409	10420
529.477	8600
529.545	14783
529.614	16814
529.682	20207
529.751	20091
529.819	22391
529.887	12877
529.956	10242
530.024	11694
530.092	9380
530.161	13406
530.229	19175
530.297	10466
530.365	9733
530.434	8977
530.502	7003
530.570	9697
530.638	7386
530.707	9851
530.775	10948
530.843	8531
530.911	8477
530.979	9124
531.047	8997
531.115	9507
531.183	9105
531.252	9553
531.320	9355
531.388	8621
531.456	10235
531.524	8010
531.592	10801
531.660	13025
531.728	9893
531.796	8737
531.864	10785
531.932	10483
532.000	10233
532.067	11341
532.135	12659
532.203	14361
532.271	15365
532.339	31518
532.407	63222
532.475	28363
532.542	16588
532.610	18359
532.678	30539
532.746	146215
532.814	215378
532.881	40237
532.949	14368
533.017	13156
533.084	10944
533.152	10365
533.220	10945
533.287	10975
533.355	10550
533.423	10327
533.490	9034
533.558	10817
533.625	12986
533.693	13489
533.761	12876
533.828	12258
533.896	13385
533.963	29135
534.031	31596
534.098	38300
534.166	17842
534.233	11436
534.300	14351
534.368	13013
534.435	12203
534.503	12819
534.570	14479
534.637	12562
534.705	11277
534.772	13108
534.840	21455
534.907	70681
534.974	51993
535.041	15502
535.109	16561
535.176	10072
535.243	11255
535.310	11351
535.378	8942
535.445	9100
535.512	9152
535.579	10436
535.646	9693
535.714	11267
535.781	13239
535.848	12818
535.915	14401
535.982	14845
536.049	13924
536.116	15040
536.183	12010
536.250	12344
536.317	12741
536.384	15639
536.451	22423
536.518	20726
536.585	15150
536.652	22612
536.719	27703
536.786	18507
536.853	16980
536.920	28166
536.987	37905
537.053	41775
537.120	146575
537.187	69498
537.254	12449
537.321	10942
537.388	11836
537.454	9395
537.521	9798
537.588	10002
537.654	13895
537.721	14921
537.788	13561
537.855	10680
537.921	12595
537.988	11316
538.055	11919
538.121	12054
538.188	13421
538.254	23708
538.321	39174
538.388	20584
538.454	12336
538.521	11730
538.587	9217
538.654	10420
538.720	10124
538.787	11012
538.853	12352
538.920	14917
538.986	15614
539.053	12137
539.119	13624
539.185	12220
539.252	16001
539.318	22070
539.385	17968
539.451	15654
539.517	14147
539.583	19200
539.650	52867
539.716	81242
539.782	18554
539.849	12348
539.915	13976
539.981	14511
540.047	15275
540.114	14153
540.180	15476
540.246	14394
540.312	22578
540.378	41390
540.444	34274
540.510	52510
540.576	93287
540.643	21343
540.709	12376
540.775	12499
540.841	12926
540.907	22266
540.973	30667
541.039	23829
541.105	20685
541.171	13644
541.237	12116
541.303	14962
541.369	17916
541.435	23470
541.500	32851
541.566	17634
541.632	11957
541.698	10600
541.764	11589
541.830	11351
541.896	10040
541.961	13587
542.027	12395
542.093	11674
542.159	12686
542.224	15813
542.290	23395
542.356	37615
542.421	33878
542.487	18090
542.553	14177
542.618	15384
542.684	12465
542.750	13038
542.815	16180
542.881	34683
542.947	99055
543.012	41423
543.078	11863
543.143	11470
543.209	14139
543.274	13113
543.340	16256
543.405	42711
543.471	41452
543.536	13403
543.602	12019
543.667	11671
543.732	12715
543.798	11600
543.863	11491
543.928	10068
543.994	9180
544.059	11679
544.124	10805
544.190	10268
544.255	11304
544.320	11605
544.386	12137
544.451	18934
544.516	18636
544.581	24106
544.646	71666
544.712	66473
544.777	16970
544.842	16007
544.907	15645
544.972	13484
545.037	13696
545.102	16342
545.168	14730
545.233	16062
545.298	16980
545.363	21022
545.428	21864
545.493	44463
545.558	66847
545.623	22919
545.688	15413
545.753	15383
545.818	13749
545.883	16491
545.947	13621
546.012	16662
546.077	16952
546.142	15808
546.207	16286
546.272	21442
546.337	19246
546.401	16819
546.466	15631
546.531	13950
546.596	17636
546.661	16055
546.725	15128
546.790	14501
546.855	14726
546.919	15040
546.984	16021
547.049	18558
547.113	21014
547.178	17773
547.243	19830
547.307	22525
547.372	27744
547.436	25778
547.501	20583
547.565	22204
547.630	26286
547.695	26111
547.759	30180
547.823	23490
547.888	19849
547.952	19991
548.017	21519
548.081	28475
548.146	35242
548.210	26668
548.274	20099
548.339	19075
548.403	18632
548.468	18471
548.532	18280
548.596	20191
548.660	19570
548.725	22886
548.789	27685
548.853	26363
548.917	23700
548.982	34803
549.046	27584
549.110	19007
549.174	18704
549.238	19751
549.303	19418
549.367	21376
549.431	19803
549.495	18527
549.559	19567
549.623	22296
549.687	25694
549.751	31852
549.815	25176
549.879	24489
549.943	23027
550.007	25212
550.071	25229
550.135	29685
550.199	23242
550.263	23790
550.327	28410
550.391	34723
550.455	24839
550.519	24970
550.582	27581
550.646	34534
550.710	31453
550.774	28083
550.838	27426
550.901	28222
550.965	29573
551.029	30818
551.093	36303
551.156	49070
551.220	89756
551.284	71252
551.347	48761
551.411	106553
551.475	77250
551.538	30441
551.602	26060
551.666	25768
551.729	22919
551.793	25054
551.856	23863
551.920	24533
551.983	24294
552.047	23772
552.110	22857
552.174	23249
552.237	22006
552.301	21822
552.364	21644
552.428	21987
552.491	21493
552.554	22964
552.618	23102
552.681	24536
552.745	26427
552.808	37086
552.871	40166
552.934	28593
552.998	24905
553.061	26413
553.124	24280
553.187	24511
553.251	26821
553.314	26539
553.377	29398
553.440	50868
553.503	154562
553.567	137912
553.630	29682
553.693	24044
553.756	24177
553.819	21986
553.882	21683
553.945	21209
554.008	19801
554.071	19746
554.134	20019
554.197	18569
554.260	19018
554.323	22337
554.386	21215
554.449	21068
554.512	20321
554.575	20601
554.638	21216
554.701	20662
554.764	19079
554.827	19694
554.889	17459
554.952	17037
555.015	16924
555.078	18181
555.141	18231
555.203	17949
555.266	17001
555.329	18623
555.391	17095
555.454	19252
555.517	17412
555.580	16419
555.642	16864
555.705	16579
555.768	17038
555.830	17323
555.893	15672
555.955	15477
556.018	15830
556.080	16500
556.143	16336
556.206	16115
556.268	16771
556.330	17923
556.393	16542
556.455	19937
556.518	29970
556.580	23832
556.643	15590
556.705	14959
556.767	14512
556.830	16628
556.892	19189
556.955	26711
557.017	18142
557.079	15350
557.142	15559
557.204	20066
557.266	36905
557.328	24364
557.391	13919
557.453	13409
557.515	13823
557.577	19432
557.639	16785
557.701	14280
557.764	13177
557.826	15285
557.888	17101
557.950	15629
558.012	16345
558.074	22110
558.136	49048
558.198	74493
558.260	25852
558.322	18874
558.384	21130
558.446	22570
558.508	25030
558.570	32707
558.632	54923
558.694	66024
558.756	79551
558.818	268625
558.880	400009
558.942	93222
559.003	83126
559.065	34260
559.127	22197
559.189	23353
559.251	26593
559.312	41795
559.374	119540
559.436	266624
559.498	77633
559.559	23099
559.621	21928
559.683	29423
559.744	54463
559.806	155993
559.868	134894
559.929	28386
559.991	26335
560.052	42805
560.114	80646
560.176	43165
560.237	63219
560.299	64966
560.360	19721
560.422	16314
560.483	14831
560.545	15674
560.606	14125
560.667	14075
560.729	12035
560.790	13282
560.852	12738
560.913	13056
560.974	13556
561.036	13087
561.097	13180
561.158	14626
561.220	14413
561.281	14256
561.342	15092
561.403	17704
561.465	25128
561.526	58089
561.587	51630
561.648	17743
561.709	14392
561.771	13956
561.832	13221
561.893	13412
561.954	13087
562.015	13043
562.076	13443
562.137	14102
562.198	13727
562.259	14844
562.320	14756
562.381	16684
562.442	22228
562.503	16253
562.564	14268
562.625	13689
562.686	13814
562.747	15116
562.808	13954
562.869	15508
562.930	17486
562.991	16698
563.051	15387
563.112	13741
563.173	14272
563.234	13693
563.294	14089
563.355	14265
563.416	13863
563.477	15752
563.537	14640
563.598	16336
563.659	15190
563.720	15488
563.780	15678
563.841	15154
563.901	14716
563.962	15024
564.023	14861
564.083	15437
564.144	16205
564.204	14679
564.265	16300
564.325	23505
564.386	44177
564.446	26594
564.507	15624
564.567	15421
564.628	15826
564.688	15864
564.749	15682
564.809	19670
564.869	20643
564.930	16388
564.990	16588
565.050	15165
565.111	15512
565.171	15697
565.231	14916
565.292	15541
565.352	15905
565.412	16880
565.472	18201
565.532	17805
565.593	16983
565.653	17353
565.713	18586
565.773	19535
565.833	22975
565.893	25723
565.953	18988
566.013	19739
566.074	22649
566.134	30695
566.194	43115
566.254	38539
566.314	27904
566.374	24781
566.434	24654
566.494	25612
566.554	26621
566.614	29060
566.673	29250
566.733	31989
566.793	33616
566.853	35243
566.913	37005
566.973	35807
567.033	36369
567.092	35417
567.152	35956
567.212	38352
567.272	38365
567.331	42427
567.391	43428
567.451	48436
567.511	56698
567.570	50923
567.630	40491
567.690	41517
567.749	42775
567.809	46749
567.868	53774
567.928	61157
567.988	71780
568.047	85369
568.107	108792
568.166	155646
568.226	236886
568.285	289682
568.345	258466
568.404	217285
568.464	189231
568.523	177400
568.582	178996
568.642	200856
568.701	254616
568.761	369726
568.820	509945
568.879	478836
568.939	383577
568.998	290360
569.057	225250
569.116	179635
569.176	145499
569.235	121787
569.294	101667
569.353	88024
569.413	77111
569.472	68415
569.531	58815
569.590	53055
569.649	49254
569.708	44502
569.767	42993
569.827	41745
569.886	35599
569.945	31806
570.004	31318
570.063	30313
570.122	30997
570.181	29649
570.240	29545
570.299	28834
570.358	26404
570.417	22635
570.475	22011
570.534	23554
570.593	22268
570.652	23070
570.711	22108
570.770	22691
570.829	24307
570.887	21465
570.946	21131
571.005	18828
571.064	18400
571.122	21454
571.181	20821
571.240	17980
571.299	17503
571.357	19525
571.416	18555
571.475	21950
571.533	19892
571.592	17296
571.650	17807
571.709	15539
571.768	15469
571.826	14967
571.885	14453
571.943	13772
572.002	15368
572.060	14846
572.119	14015
572.177	13198
572.236	12350
572.294	13434
572.352	13727
572.411	12924
572.469	12953
572.528	13179
572.586	13581
572.644	15853
572.703	16615
572.761	13780
572.819	11951
572.877	12746
572.936	12387
572.994	11988
573.052	12941
573.110	13365
573.169	12210
573.227	12402
573.285	12423
573.343	12962
573.401	11455
573.459	11931
573.517	12808
573.576	12140
573.634	12607
573.692	13601
573.750	11993
573.808	12665
573.866	14259
573.924	19055
573.982	16100
574.040	12096
574.098	13000
574.155	12200
574.213	11621
574.271	11878
574.329	11459
574.387	11659
574.445	10414
574.503	11552
574.560	10728
574.618	10909
574.676	10587
574.734	10667
574.792	10570
574.849	10698
574.907	9966
574.965	9742
575.022	11003
575.080	10181
575.138	10588
575.195	12089
575.253	12013
575.311	12950
575.368	11333
575.426	11293
575.483	10535
575.541	10929
575.598	11429
575.656	11501
575.713	11360
575.771	10966
575.828	12081
575.886	11570
575.943	12029
576.001	11980
576.058	12201
576.115	13856
576.173	15523
576.230	16845
576.287	17663
576.345	14030
576.402	12134
576.459	12479
576.517	12544
576.574	14767
576.631	14614
576.688	13215
576.746	12601
576.803	13279
576.860	12604
576.917	12725
576.974	12021
577.031	12636
577.089	12288
577.146	13103
577.203	12803
577.260	15094
577.317	14519
577.374	16582
577.431	15021
577.488	13217
577.545	12275
577.602	13632
577.659	13503
577.716	14663
577.773	13656
577.830	12854
577.886	12445
577.943	12894
578.000	12842
578.057	14852
578.114	14279
578.171	16173
578.227	18410
578.284	17161
578.341	15987
578.398	15469
578.454	14779
578.511	16963
578.568	17876
578.625	14416
578.681	12567
578.738	12985
578.794	12987
578.851	12810
578.908	13112
578.964	14821
579.021	14138
579.077	13916
579.134	12754
579.190	11899
579.247	12620
579.303	12778
579.360	12033
579.416	12374
579.473	12640
579.529	11947
579.586	13674
579.642	13442
579.698	13684
579.755	14529
579.811	14867
579.867	14188
579.924	14764
579.980	16032
580.036	16789
580.093	20428
580.149	25921
580.205	25303
580.261	21076
580.317	19921
580.374	18231
580.430	20004
580.486	17824
580.542	16625
580.598	15278
580.619	15489
580.654	15875
580.692	15121
580.710	14780
580.765	15831
580.767	15886
580.823	15900
580.838	15584
580.879	14824
580.911	14511
580.935	14304
580.984	15232
580.991	15388
581.047	15261
581.057	15189
581.103	14901
581.130	16269
581.159	17766
581.203	16811
581.215	16576
581.270	16591
581.276	16510
581.326	15963
581.349	15909
581.382	15848
581.422	15962
581.438	16029
581.494	15192
581.494	15177
581.550	15111
581.567	15385
581.606	16044
581.640	15916
581.661	15827
581.713	15918
581.717	15951
581.773	15377
581.786	15392
581.829	15354
581.859	15567
581.885	15843
581.932	15488
581.940	15420
581.996	16204
582.004	16024
582.052	15166
582.077	15134
582.107	15079
582.150	14936
582.163	14912
582.219	16182
582.223	16118
582.274	15545
582.296	16271
582.330	17403
582.368	17008
582.386	16842
582.441	15773
582.441	15779
582.497	15744
582.514	16223
582.552	17289
582.587	17622
582.608	17862
582.659	16642
582.663	16542
582.719	15696
582.732	15963
582.774	16990
582.805	17142
582.830	17196
582.877	17022
582.885	17015
582.941	16291
582.950	16570
582.996	17826
583.023	17875
583.052	18199
583.095	18785
583.107	18867
583.162	21798
583.168	21767
583.218	21565
583.240	20923
583.273	19800
583.313	19008
583.328	18854
583.384	18169
583.385	18164
583.439	17502
583.458	17486
583.494	17624
583.531	17730
583.549	17836
583.603	17962
583.605	17959
583.660	16956
583.676	17287
583.715	18099
583.748	18553
583.770	18930
583.820	18247
583.825	18127
583.881	17951
583.893	17946
583.936	18512
583.965	18778
583.991	18757
584.038	18133
584.046	18086
584.101	19558
584.110	19498
584.156	18653
584.183	18579
584.211	18663
584.255	18543
584.266	18471
584.321	18611
584.328	18776
584.376	20141
584.400	19914
584.431	19618
584.472	19487
584.486	19316
584.541	19897
584.545	19866
584.596	19512
584.617	19851
584.651	20789
584.689	21739
584.706	21715
584.761	20962
584.762	20974
584.816	21710
584.834	22037
584.871	22081
584.906	21499
584.926	21506
584.978	22744
584.980	22744
585.035	22771
585.051	22858
585.090	23425
585.123	24411
585.145	24844
585.195	24893
585.200	24962
585.254	27626
585.267	28521
585.309	31155
585.340	31934
585.364	32018
585.412	30139
585.419	29801
585.473	30063
585.484	30290
585.528	32218
585.556	35293
585.583	39080
585.628	50217
585.637	53218
585.692	85081
585.700	88388
585.747	100260
585.772	83179
585.801	57340
585.845	38430
585.856	35483
585.910	31605
585.917	31455
585.965	32156
585.989	32029
586.019	31460
586.061	31439
586.074	31475
586.128	32080
586.133	32172
586.183	33035
586.205	33827
586.237	34743
586.277	35225
586.292	35184
586.346	35330
586.349	35420
586.401	36725
586.421	37657
586.455	38654
586.493	40037
586.509	41639
586.564	50008
586.565	50406
586.618	64805
586.637	62684
586.672	52341
586.709	45802
586.727	43746
586.781	43648
586.781	43574
586.835	43838
586.853	44502
586.889	45112
586.925	45332
586.944	45658
586.996	48368
586.998	48325
587.052	50235
587.068	50356
587.106	51153
587.140	53199
587.161	53878
587.212	56100
587.215	56126
587.269	58391
587.284	59282
587.323	60836
587.356	62999
587.377	64419
587.427	67485
587.431	67547
587.485	72715
587.499	73817
587.539	76317
587.571	79252
587.593	80968
587.643	85491
587.648	85771
587.702	92157
587.715	94251
587.755	99489
587.786	103892
587.810	107102
587.858	115318
587.864	115931
587.917	127037
587.930	130084
587.971	139811
588.001	148262
588.025	154223
588.073	168068
588.079	169464
588.133	188633
588.145	193846
588.187	210597
588.217	225254
588.241	237180
588.288	265388
588.295	268503
588.348	306087
588.360	315880
588.402	351780
588.431	381940
588.456	407331
588.503	467117
588.510	475013
588.564	563654
588.575	586514
588.617	676293
588.646	752234
588.671	828768
588.718	998042
588.725	1029462
588.778	1300638
588.789	1352242
588.832	1629289
588.861	1783436
588.886	1863055
588.932	1930723
588.939	1909754
588.993	1847594
589.004	1865622
589.047	1908050
589.075	1857831
589.100	1691431
589.147	1305119
589.154	1268670
589.207	1022622
589.218	983775
589.261	909934
589.290	887660
589.314	900970
589.361	968468
589.368	990540
589.421	1231588
589.433	1282621
589.475	1586966
589.504	1756707
589.528	1784984
589.576	1830852
589.582	1805896
589.635	1711567
589.647	1659131
589.689	1275033
589.718	980199
589.742	840151
589.790	597936
589.795	578441
589.849	445457
589.861	420531
589.902	358101
589.932	318353
589.955	291145
590.004	245002
590.009	240195
590.062	205955
590.075	199234
590.115	179217
590.146	166751
590.168	158206
590.218	142787
590.222	140857
590.275	126413
590.289	123406
590.328	114547
590.360	108983
590.381	105082
590.431	97832
590.435	96813
590.488	88155
590.503	86343
590.541	82399
590.574	79912
590.594	77178
590.645	71780
590.647	71224
590.700	66399
590.716	65102
590.753	61415
590.787	59206
590.806	58146
590.859	56473
590.859	56137
590.912	52384
590.930	51481
590.965	49819
591.001	48931
591.018	47989
591.071	45380
591.072	45587
591.124	43914
591.143	43600
591.177	42064
591.214	40924
591.230	40612
591.283	40442
591.285	40619
591.336	38800
591.356	38566
591.389	37975
591.427	37362
591.442	36332
591.495	33104
591.498	33060
591.547	32547
591.569	32610
591.600	31630
591.640	30584
591.653	30493
591.706	30928
591.711	31132
591.759	30289
591.782	30155
591.811	30018
591.853	29979
591.864	29459
591.917	27648
591.924	27540
591.969	27008
591.995	26945
592.022	26126
592.066	25156
592.075	25289
592.127	27064
592.137	27551
592.180	28445
592.208	29051
592.233	27130
592.279	23956
592.285	23658
592.338	22254
592.350	22069
592.390	21836
592.421	21869
592.443	21675
592.491	21621
592.495	21445
592.548	20639
592.562	20541
592.600	20064
592.633	19870
592.653	19577
592.704	19027
592.705	19131
592.775	19054
592.846	18832
592.916	18570
592.987	19898
593.058	17756
593.128	18606
593.199	17100
593.270	17705
593.341	15504
593.411	16708
593.482	16520
593.553	17198
593.623	15257
593.694	15931
593.764	16389
593.835	15824
593.906	14777
593.976	15474
594.047	14824
594.117	18677
594.188	17987
594.258	15326
594.329	13691
594.399	13847
594.470	13056
594.540	14016
594.611	13384
594.681	14080
594.751	12982
594.822	16333
594.892	17228
594.963	15404
595.033	14571
595.103	13806
595.174	15161
595.244	21827
595.314	26747
595.384	15119
595.455	12940
595.525	13869
595.595	13386
595.665	13876
595.736	12981
595.806	13608
595.876	11568
595.946	13342
596.016	11988
596.087	13153
596.157	11885
596.227	13200
596.297	12822
596.367	14253
596.437	15406
596.507	21016
596.577	24084
596.647	14786
596.717	12223
596.787	13816
596.857	12795
596.927	12580
596.997	11665
597.067	14106
597.137	14511
597.207	13884
597.277	12840
597.347	12756
597.417	12674
597.487	14193
597.557	12452
597.626	12665
597.696	14117
597.766	17694
597.836	21205
597.906	15502
597.975	12160
598.045	12622
598.115	12359
598.185	12550
598.254	13173
598.324	14616
598.394	13857
598.464	13973
598.533	12697
598.603	12905
598.672	12855
598.742	13011
598.812	12314
598.881	13071
598.951	12368
599.020	12291
599.090	11728
599.159	12601
599.229	11634
599.299	11452
599.368	11716
599.437	12611
599.507	12180
599.576	12043
599.646	13305
599.715	13246
599.785	12291
599.854	13013
599.924	13393
599.993	12512
600.062	11661
600.132	11620
600.201	11158
600.270	13436
600.340	12519
600.409	12730
600.478	11633
600.547	12213
600.617	12011
600.686	12025
600.755	10485
600.824	11134
600.894	11155
600.963	11459
601.032	9770
601.101	10081
601.170	10166
601.239	10806
601.308	12466
601.378	11952
601.447	10647
601.516	10633
601.585	12622
601.654	14451
601.723	10556
601.792	11075
601.861	11331
601.930	13332
601.999	12469
602.068	12560
602.137	16061
602.206	14978
602.275	11192
602.343	13471
602.412	13330
602.481	10924
602.550	9892
602.619	11254
602.688	11143
602.756	10368
602.825	9645
602.894	10710
602.963	9961
603.032	11621
603.100	9926
603.169	10354
603.238	9853
603.307	10935
603.375	10306
603.444	10980
603.513	10422
603.581	10843
603.650	10417
603.719	9881
603.787	9926
603.856	10814
603.924	10618
603.993	10944
604.061	9957
604.130	11466
604.198	9827
604.267	10722
604.335	10701
604.404	10371
604.472	10929
604.541	11184
604.609	11442
604.678	12111
604.746	10970
604.815	11637
604.883	10792
604.951	12393
605.020	10355
605.088	12287
605.156	11469
605.225	12757
605.293	11037
605.361	11591
605.429	11675
605.498	12958
605.566	12251
605.634	13338
605.702	12825
605.771	12961
605.839	12279
605.907	12650
605.975	11137
606.043	12433
606.111	11425
606.180	12762
606.248	13310
606.316	14385
606.384	12213
606.452	16059
606.520	14688
606.588	12935
606.656	10832
606.724	11834
606.792	11550
606.860	10302
606.928	9584
606.996	9887
607.064	8976
607.132	9797
607.200	9355
607.267	10732
607.335	9173
607.403	10949
607.471	8808
607.539	9980
607.607	10275
607.674	9721
607.742	9643
607.810	10666
607.878	10083
607.946	8993
608.013	8885
608.081	10486
608.149	9985
608.216	9768
608.284	10517
608.352	11024
608.419	10126
608.487	17179
608.555	10960
608.622	10419
608.690	10360
608.757	10806
608.825	10574
608.893	11048
608.960	12528
609.028	14215
609.095	16414
609.163	11375
609.230	10525
609.298	10093
609.365	8238
609.432	9944
609.500	10357
609.567	12497
609.635	11720
609.702	13409
609.769	12753
609.837	13065
609.904	10880
609.971	10194
610.039	13826
610.106	19357
610.173	34823
610.241	86410
610.308	64197
610.375	32420
610.442	12664
610.509	10923
610.577	10708
610.644	10513
610.711	10222
610.778	11519
610.845	9835
610.912	10963
610.980	12602
611.047	16113
611.114	12234
611.181	11810
611.248	8410
611.315	11935
611.382	9317
611.449	11239
611.516	11529
611.583	12055
611.650	11799
611.717	11980
611.784	11356
611.851	14499
611.918	14698
611.984	18580
612.051	30484
612.118	71147
612.185	181113
612.252	104535
612.319	19822
612.386	16095
612.452	13539
612.519	14624
612.586	18241
612.653	15328
612.719	12725
612.786	12591
612.853	11879
612.919	10965
612.986	12140
613.053	10412
613.120	9586
613.186	10327
613.253	11191
613.319	10634
613.386	10562
613.453	11330
613.519	11895
613.586	14649
613.652	20959
613.719	16645
613.785	14649
613.852	12420
613.918	11060
613.985	15138
614.051	21692
614.118	46221
614.184	40149
614.250	13768
614.317	11339
614.383	11232
614.449	9949
614.516	11513
614.582	11313
614.648	10833
614.715	10389
614.781	10458
614.847	10883
614.914	11529
614.980	10009
615.046	12817
615.112	11539
615.179	12648
615.245	14658
615.311	22285
615.377	41929
615.443	46155
615.509	24176
615.575	18293
615.642	14291
615.708	16638
615.774	16972
615.840	20961
615.906	28271
615.972	51686
616.038	106323
616.104	157580
616.170	267360
616.236	205037
616.302	43102
616.368	26132
616.434	19005
616.500	17480
616.565	18310
616.631	21127
616.697	16079
616.763	18050
616.829	26835
616.895	48173
616.961	44025
617.026	20962
617.092	12126
617.158	12284
617.224	11519
617.289	11130
617.355	10591
617.421	10216
617.487	11332
617.552	10471
617.618	8632
617.684	9200
617.749	12052
617.815	10806
617.880	9552
617.946	10524
618.012	9456
618.077	9758
618.143	8975
618.208	10902
618.274	9494
618.339	10004
618.405	7309
618.470	10303
618.536	8997
618.601	10795
618.667	9729
618.732	9838
618.798	8079
618.863	9937
618.928	9078
618.994	10746
619.059	11220
619.124	15902
619.190	10701
619.255	8986
619.320	9296
619.386	9150
619.451	7854
619.516	8724
619.581	9125
619.647	8842
619.712	8664
619.777	8773
619.842	7993
619.907	9525
619.972	7903
620.038	8850
620.103	8160
620.168	7691
620.233	8962
620.298	8154
620.363	7670
620.428	9565
620.493	8985
620.558	8092
620.623	7663
620.688	8952
620.753	8598
620.818	8245
620.883	8572
620.948	8724
621.013	8013
621.078	8870
621.143	6958
621.207	11332
621.272	9509
621.337	10005
621.402	11440
621.467	13655
621.532	14185
621.596	11650
621.661	10008
621.726	9176
621.791	10387
621.855	10717
621.920	11297
621.985	11936
622.049	14108
622.114	13301
622.179	10750
622.243	11428
622.308	9792
622.373	12328
622.437	10860
622.502	9510
622.566	9628
622.631	9729
622.695	10579
622.760	10535
622.824	10168
622.889	10996
622.953	10612
623.018	18852
623.082	15695
623.147	11951
623.211	10323
623.276	9891
623.340	7867
623.404	10277
623.469	9107
623.533	10218
623.597	9248
623.662	10176
623.726	7639
623.790	9148
623.854	7904
623.919	9482
623.983	8688
624.047	10103
624.111	8265
624.176	10165
624.240	8719
624.304	11467
624.368	8159
624.432	9888
624.496	9873
624.560	11097
624.625	10257
624.689	10490
624.753	8810
624.817	9562
624.881	6800
624.945	9183
625.009	8395
625.073	9315
625.137	9397
625.201	12448
625.265	11944
625.329	9175
625.393	8744
625.456	9913
625.520	10205
625.584	11671
625.648	14148
625.712	23688
625.776	53952
625.839	60849
625.903	21026
625.967	12292
626.031	21681
626.095	33043
626.158	10761
626.222	6873
626.286	8260
626.349	7183
626.413	5769
626.477	9033
626.540	6404
626.604	6385
626.668	7423
626.731	6296
626.795	6308
626.858	7337
626.922	5910
626.986	7479
627.049	5003
627.113	8087
627.176	6345
627.240	7171
627.303	6312
627.366	7056
627.430	5656
627.493	6275
627.557	5367
627.620	7716
627.684	5919
627.747	7412
627.810	4160
627.874	6923
627.937	5373
628.000	8662
628.064	5982
628.127	3934
628.190	5853
628.253	5598
628.317	4346
628.380	5847
628.443	5244
628.506	5601
628.569	5492
628.632	4832
628.696	5151
628.759	5303
628.822	4275
628.885	4813
628.948	4715
629.011	5214
629.074	4636
629.137	4775
629.200	3944
629.263	6030
629.326	4099
629.389	4588
629.452	4353
629.515	5467
629.578	4761
629.641	7284
629.704	4528
629.767	5290
629.830	5098
629.892	5359
629.955	2905
630.018	6258
630.081	5166
630.144	7935
630.207	4445
630.269	6708
630.332	6342
630.395	5239
630.458	4439
630.520	4300
630.583	5582
630.646	5122
630.708	3452
630.771	2998
630.834	4679
630.896	4478
630.959	3583
631.021	4275
631.084	3497
631.146	5403
631.209	7032
631.272	4449
631.334	4259
631.397	4890
631.459	2809
631.522	5096
631.584	4001
631.646	4976
631.709	5423
631.771	6422
631.834	5355
631.896	4194
631.958	3345
632.021	4807
632.083	2800
632.145	4708
632.208	2795
632.270	4804
632.332	2117
632.395	3178
632.457	4035
632.519	3898
632.581	4899
632.643	3202
632.706	4196
632.768	3492
632.830	3740
632.892	3811
632.954	3459
633.016	4999
633.078	2855
633.141	3965
633.203	3443
633.265	4013
633.327	3733
633.389	3312
633.451	4702
633.513	6091
633.575	5536
633.637	6150
633.698	3999
633.760	3997
633.822	3163
633.884	4249
633.946	3465
634.008	5073
634.070	3812
634.132	5095
634.193	3954
634.255	4745
634.317	3769
634.379	5415
634.441	3912
634.502	4236
634.564	3810
634.626	5816
634.687	6354
634.749	4593
634.811	3729
634.873	3542
634.934	2702
634.996	4418
635.057	2192
635.119	2761
635.181	2233
635.242	3892
635.304	1756
635.365	5570
635.427	2987
635.488	3868
635.550	1977
635.611	3965
635.673	1472
635.734	4895
635.796	2529
635.857	5685
635.918	2673
635.980	5328
636.041	3246
636.102	5889
636.164	3921
636.225	5716
636.286	2121
636.348	5203
636.409	2854
636.470	3099
636.531	3677
636.593	4722
636.654	3331
636.715	3865
636.776	2665
636.838	2416
636.899	3635
636.960	3090
637.021	2446
637.082	3546
637.143	3854
637.204	2469
637.265	1706
637.326	3181
637.387	2779
637.448	1678
637.509	2669
637.570	2720
637.631	3180
637.692	2262
637.753	270
637.814	2896
637.875	2212
637.936	3998
637.997	1728
638.058	3098
638.119	3349
638.179	3147
638.240	1144
638.301	1607
638.362	1262
638.423	3041
638.483	3494
638.544	1175
638.605	2094
638.666	1947
638.726	2222
638.787	3616
638.848	1598
638.908	3437
638.969	1864
639.030	2709
639.090	1198
639.151	1758
639.211	2444
639.272	3826
639.332	7538
639.393	4132
639.453	845
639.514	2519
639.574	2728
639.635	2432
639.695	2031
639.756	1917
639.816	2715
639.877	4379
639.937	7399
639.997	9433
640.058	1085
640.118	1512
640.178	3083
640.239	1925
640.299	1426
640.359	2951
640.420	1983
640.480	3566
640.540	1939
640.600	2350
640.661	2358
640.721	2106
640.781	5203
640.841	1637
640.901	2208
640.961	2449
641.021	3162
641.082	2901
641.142	5619
641.202	4818
641.262	368
641.322	3602
641.382	706
641.442	3169
641.502	1888
641.562	2958
641.622	1506
641.682	2408
641.742	1944
641.802	2456
641.861	2704
641.921	3083
641.981	3420
642.041	4145
642.101	3783
642.161	2143
642.221	918
642.280	2498
642.340	727
642.400	1643
642.460	1836
642.519	1722
642.579	1691
642.639	3311
642.698	-1216
642.758	4183
642.818	1128
642.877	1716
642.937	1949
642.997	4066
643.056	3814
643.116	1208
643.175	3156
643.235	1817
643.294	2332
643.354	2311
643.414	2554
643.473	3887
643.532	2477
643.592	3881
643.651	8978
643.711	18657
643.770	34686
643.830	86733
643.889	179298
643.948	37607
644.008	5692
644.067	3836
644.126	1257
644.186	2568
644.245	2588
644.304	622
644.363	2704
644.423	509
644.482	2494
644.541	2083
644.600	-568
644.659	2499
644.719	1507
644.778	4139
644.837	5786
644.896	13869
644.955	29833
645.014	10376
645.073	2949
645.132	2519
645.191	1909
645.250	2055
645.309	2443
645.368	2766
645.427	2576
645.486	3076
645.545	6044
645.604	2133
645.663	2182
645.722	789
645.781	2222
645.840	2409
645.898	3005
645.957	6115
646.016	6404
646.075	14737
646.134	28663
646.192	81148
646.251	112728
646.310	14700
646.369	2844
646.427	3212
646.486	1305
646.545	2824
646.603	1290
646.662	3149
646.721	2045
646.779	1511
646.838	-874
646.896	2725
646.955	1626
647.014	4771
647.072	6569
647.131	18685
647.189	7488
647.248	2121
647.306	1067
647.365	1858
647.423	-1020
647.481	3162
647.540	183
647.598	1527
647.657	234
647.715	2078
647.773	-201
647.832	2794
647.890	-114
647.948	1074
648.007	925
648.065	85
648.123	499
648.181	2860
648.240	2673
648.298	1157
648.356	270
648.414	2779
648.472	1143
648.531	2270
648.589	1052
648.647	852
648.705	625
648.763	1639
648.821	1813
648.879	1151
648.937	566
648.995	2179
649.053	1542
649.111	4132
649.169	5696
649.227	10441
649.285	20697
649.343	61463
649.401	29257
649.459	13803
649.516	9352
649.574	6454
649.632	16210
649.690	19872
649.748	4894
649.806	5466
649.863	9231
649.921	14685
649.979	7161
650.037	1449
650.094	-625
650.152	1584
650.210	835
650.268	2504
650.325	1357
650.383	1880
650.440	501
650.498	2023
650.556	555
650.613	833
650.671	642
650.728	2518
650.786	549
650.843	1801
650.901	-935
650.958	1276
651.016	448
651.073	1186
651.131	217
651.188	111
651.246	589
651.303	602
651.360	984
651.418	507
651.475	84
651.532	785
651.590	33
651.647	275
651.704	103
651.762	124
651.819	149
651.876	850
651.933	497
651.990	1815
652.048	-32
652.105	199
652.162	1399
652.219	457
652.276	1253
652.333	1587
652.390	-95
652.448	1831
652.505	343
652.562	435
652.619	331
652.676	3308
652.733	2764
652.790	817
652.847	-638
652.904	1061
652.961	-1404
653.017	215
653.074	1030
653.131	1167
653.188	-401
653.245	728
653.302	422
653.359	-116
653.415	610
653.472	1185
653.529	730
653.586	66
653.642	-714
653.699	1240
653.756	-472
653.813	170
653.869	860
653.926	-171
653.983	61
654.039	1816
654.096	52
654.152	1729
654.209	-345
654.266	1733
654.322	-269
654.379	821
654.435	1154
654.492	1502
654.548	2417
654.605	4803
654.661	1544
654.717	847
654.774	622
654.830	592
654.887	567
654.943	1532
655.000	690
655.056	896
655.112	436
655.168	411
655.225	-83
655.281	1326
655.337	1377
655.394	4414
655.450	2793
655.506	2663
655.562	4554
655.618	4630
655.675	-995
655.731	601
655.787	260
655.843	2069
655.899	-424
655.955	1450
656.011	645
656.067	362
656.123	1442
656.179	1894
656.235	2934
656.291	857
656.347	1954
656.403	2121
656.459	77
656.515	2436
656.571	994
656.627	1183
656.683	131
656.739	1278
656.795	1124
656.850	1545
656.906	540
656.962	1305
657.018	-778
657.074	206
657.129	897
657.185	1272
657.241	1182
657.297	698
657.352	638
657.408	967
657.464	474
657.519	863
657.575	-88
657.630	443
657.686	228
657.742	-372
657.797	17
657.853	762
657.908	191
657.964	384
658.019	-39
658.075	742
658.130	346
658.186	-461
658.241	283
658.297	-870
658.352	196
658.407	1196
658.463	-564
658.518	-129
658.573	730
658.629	-29
658.684	868
658.739	1759
658.795	221
658.850	501
658.905	-575
658.960	1104
659.016	-586
659.071	732
659.126	267
659.181	1689
659.236	2427
659.291	3241
659.346	644
659.401	1646
659.457	1497
659.512	1660
659.567	1069
659.622	1523
659.677	-768
659.732	287
659.787	382
659.842	443
659.897	995
659.952	935
660.007	254
660.061	1105
660.116	-696
660.171	415
660.226	-783
660.281	1805
660.336	-739
660.391	887
660.445	-699
660.500	702
660.555	77
660.610	501
660.664	-166
660.719	-126
660.774	129
660.828	854
660.883	378
660.938	1408
660.992	-1711
661.047	437
661.101	-892
661.156	123
661.211	-493
661.265	4
661.320	-253
661.374	657
661.429	-542
661.483	1203
661.538	-900
661.592	226
661.647	278
661.701	1689
661.755	-624
661.810	-200
661.864	-480
661.919	-151
661.973	-112
662.027	-106
662.081	-538
662.136	-221
662.190	265
662.244	665
662.299	-1064
662.353	1456
662.407	-996
662.461	-206
662.515	34
662.569	510
662.624	1042
662.678	138
662.732	-679
662.786	312
662.840	99
662.894	403
662.948	44
663.002	-498
663.056	-305
663.110	497
663.164	-24
663.218	832
663.272	-145
663.326	1433
663.380	105
663.434	463
663.488	-615
663.542	989
663.595	65
663.649	540
663.703	408
663.757	296
663.811	-580
663.864	492
663.918	135
663.972	582
664.026	-373
664.079	424
664.133	-8
664.187	153
664.240	-508
664.294	115
664.348	-244
664.401	587
664.455	84
664.508	379
664.562	-293
664.615	70
664.669	-610
664.722	184
664.776	-1026
664.829	783
664.883	-559
664.936	55
664.990	-758
665.043	872
665.097	225
665.150	1846
665.203	-647
665.257	253
665.310	254
665.363	554
665.417	-466
665.470	481
665.523	-75
665.576	879
665.630	-65
665.683	555
665.736	812
665.789	238
665.842	-373
665.895	585
665.949	-456
666.002	423
666.055	-211
666.108	489
666.161	261
666.214	731
666.267	734
666.320	1752
666.373	227
666.426	1360
666.479	130
666.532	693
666.585	413
666.638	951
666.691	829
666.744	2541
666.796	586
666.849	920
666.902	895
666.955	557
667.008	136
667.060	391
667.113	-774
667.166	306
667.219	748
667.271	831
667.324	-584
667.377	1224
667.430	597
667.482	757
667.535	294
667.587	1018
667.640	696
667.693	1650
667.745	2899
667.798	3915
667.850	410
667.903	800
667.955	555
668.008	1411
668.060	366
668.113	639
668.165	742
668.218	384
668.270	347
668.322	954
668.375	-257
668.427	1695
668.479	-606
668.532	850
668.584	518
668.636	699
668.689	502
668.741	1521
668.793	461
668.845	448
668.898	91
668.950	763
669.002	28
669.054	603
669.106	696
669.158	1521
669.211	-404
669.263	570
669.315	431
669.367	1920
669.419	58
669.471	1788
669.523	1719
669.575	3626
669.627	1406
669.679	943
669.731	979
669.783	1445
669.835	1810
669.886	1539
669.938	608
669.990	1944
670.042	280
670.094	1712
670.146	734
670.197	2286
670.249	1599
670.301	2631
670.353	3859
670.404	7286
670.456	9202
670.508	16936
670.560	26848
670.611	47845
670.663	86541
670.715	221196
670.766	348028
670.818	102666
670.869	16175
670.921	8143
670.972	5051
671.024	3930
671.075	2811
671.127	2608
671.178	1739
671.230	1732
671.281	1792
671.333	1028
671.384	1579
671.436	1699
671.487	1661
671.538	2327
671.590	2357
671.641	4161
671.692	3978
671.744	9283
671.795	6183
671.846	2674
671.897	781
671.949	1047
672.000	659
672.051	1111
672.102	917
672.153	713
672.204	18
672.256	593
672.307	1323
672.358	1487
672.409	452
672.460	673
672.511	-895
672.562	691
672.613	-427
672.664	920
672.715	428
672.766	664
672.817	353
672.868	1054
672.919	764
672.970	1300
673.021	118
673.071	258
673.122	387
673.173	662
673.224	-76
673.275	404
673.326	-551
673.376	460
673.427	-786
673.478	1279
673.528	-191
673.579	688
673.630	-36
673.680	1863
673.731	178
673.782	-85
673.832	191
673.883	719
673.934	-411
673.984	826
674.035	-70
674.085	993
674.136	162
674.186	1476
674.237	1313
674.287	2720
674.338	594
674.388	699
674.438	-1117
674.489	708
674.539	142
674.589	290
674.640	553
674.690	370
674.740	-453
674.791	1576
674.841	-78
674.891	1005
674.942	320
674.992	453
675.042	-216
675.092	823
675.142	-325
675.193	94
675.243	-152
675.293	1054
675.343	-118
675.393	224
675.443	352
675.493	1002
675.543	-939
675.593	368
675.643	213
675.693	1017
675.743	87
675.793	894
675.843	197
675.893	603
675.943	-358
675.993	306
676.043	82
676.093	1095
676.142	-509
676.192	-27
676.242	-272
676.292	-52
676.341	-477
676.391	1035
676.441	2
676.491	828
676.540	-940
676.590	454
676.640	-423
676.689	706
676.739	-485
676.789	242
676.838	-273
676.888	753
676.937	-502
676.987	574
677.037	-542
677.086	-393
677.136	215
677.185	711
677.235	-587
677.284	223
677.333	-945
677.383	511
677.432	-580
677.482	-155
677.531	-46
677.580	429
677.630	-1079
677.679	314
677.728	-293
677.778	1120
677.827	171
677.876	1013
677.925	-101
677.975	340
678.024	-732
678.073	311
678.122	191
678.171	461
678.220	-279
678.269	581
678.319	802
678.368	-188
678.417	176
678.466	-396
678.515	293
678.564	908
678.613	-697
678.662	-41
678.711	-374
678.760	296
678.809	-1024
678.857	-179
678.906	-1117
678.955	-354
679.004	-565
679.053	327
679.102	-273
679.151	-124
679.199	-747
679.248	143
679.297	-138
679.346	-60
679.394	-1019
679.443	841
679.492	-99
679.540	-240
679.589	-651
679.638	890
679.686	-223
679.735	902
679.784	-574
679.832	859
679.881	-613
679.929	397
679.978	247
680.026	-388
680.075	-128
680.123	210
680.172	147
680.220	-665
680.268	448
680.317	36
680.365	-460
680.414	-197
680.462	64
680.510	243
680.559	-609
680.607	-29
680.655	-760
680.703	-859
680.752	-887
680.800	227
680.848	-824
680.896	-138
680.945	-1189
680.993	573
681.041	-498
681.089	189
681.137	-679
681.185	35
681.233	-97
681.258	151
681.281	363
681.329	-466
681.377	19
681.380	25
681.425	-296
681.473	1011
681.502	171
681.521	-458
681.569	327
681.617	-188
681.624	-83
681.665	443
681.713	-198
681.745	686
681.761	1069
681.809	-126
681.857	577
681.867	339
681.904	-577
681.952	1010
681.989	416
682.000	213
682.048	409
682.096	-35
682.111	337
682.143	1063
682.191	277
682.233	1217
682.239	1330
682.286	-125
682.334	868
682.354	453
682.382	-108
682.430	1610
682.476	503
682.477	457
682.525	1107
682.572	-191
682.598	360
682.620	850
682.667	388
682.715	1870
682.720	1823
682.763	1068
682.810	2093
682.841	1473
682.857	1169
682.905	1423
682.952	494
682.963	696
683.000	1261
683.047	1177
683.085	2115
683.095	2350
683.142	1185
683.190	1187
683.206	850
683.237	196
683.284	2574
683.328	668
683.332	488
683.379	1920
683.426	1244
683.449	1422
683.473	1584
683.521	1557
683.568	1590
683.571	1603
683.615	1486
683.662	2332
683.693	1487
683.709	1034
683.757	1527
683.804	1493
683.814	1639
683.851	2061
683.898	1727
683.936	2044
683.945	2108
683.992	1417
684.039	2534
684.057	2596
684.086	2683
684.133	3113
684.179	2191
684.180	2143
684.227	2902
684.274	2930
684.300	2906
684.321	2917
684.368	2091
684.415	3168
684.422	3068
684.462	2264
684.509	2836
684.543	2335
684.556	2185
684.603	3042
684.649	1928
684.665	2288
684.696	2943
684.743	3043
684.786	3071
684.790	3080
684.837	2726
684.883	3690
684.908	3733
684.930	3600
684.977	4008
685.023	3136
685.029	3209
685.070	3798
685.117	2729
685.150	3733
685.164	4102
685.210	3353
685.257	4188
685.272	4116
685.303	3928
685.350	3727
685.393	3543
685.396	3527
685.443	4067
685.490	4048
685.514	4122
685.536	4066
685.583	3475
685.629	3729
685.636	3646
685.675	3291
685.722	4117
685.757	4201
685.768	4195
685.815	4177
685.861	3610
685.878	3950
685.908	4580
685.954	4803
686.000	5423
686.000	5431
686.047	4927
686.093	6347
686.121	6236
686.139	5888
686.185	5600
686.232	4490
686.242	4636
686.278	5260
686.324	4305
686.363	4729
686.370	4814
686.416	3804
686.463	4947
686.484	4525
686.509	4063
686.555	4394
686.601	4156
686.606	4233
686.647	4920
686.693	3958
686.727	4467
686.739	4645
686.785	4874
686.831	4970
686.848	4755
686.877	4375
686.923	4542
686.969	4562
686.969	4562
687.015	4629
687.061	4898
687.090	5374
687.107	5596
687.153	4823
687.199	5315
687.211	5085
687.245	4560
687.291	5456
687.332	5489
687.336	5474
687.382	5262
687.428	5213
687.453	5224
687.474	5228
687.520	4672
687.565	4937
687.574	4865
687.611	4814
687.657	5584
687.695	4972
687.702	4865
687.748	6600
687.794	6015
687.816	6124
687.839	6001
687.885	5284
687.931	5124
687.937	5142
687.976	5483
688.022	5701
688.058	5630
688.067	5629
688.113	5460
688.158	4887
688.179	5279
688.204	5760
688.249	5424
688.295	6297
688.300	6199
688.340	5508
688.386	6209
688.421	5994
688.431	5919
688.477	6057
688.522	5854
688.542	6151
688.567	6553
688.613	5793
688.658	6155
688.663	6081
688.703	5678
688.749	6248
688.784	6428
688.794	6419
688.839	6461
688.884	5926
688.905	6143
688.930	6573
688.975	6126
689.020	6450
689.026	6388
689.065	5860
689.110	6370
689.146	6180
689.155	6155
689.201	6245
689.246	6106
689.267	6219
689.291	6306
689.336	6237
689.381	6593
689.388	6474
689.426	5964
689.471	6233
689.509	6123
689.516	6113
689.561	6545
689.606	6065
689.630	6042
689.651	6155
689.696	6293
689.741	7030
689.750	7047
689.785	6925
689.830	7147
689.871	6456
689.875	6396
689.920	6392
689.965	6352
689.992	6514
690.010	6708
690.054	6433
690.099	6926
690.112	6958
690.144	6966
690.189	6748
690.233	6534
690.233	6544
690.278	6976
690.323	6270
690.354	6620
690.367	6886
690.412	6542
690.457	7089
690.474	7358
690.501	7584
690.546	7733
690.590	7238
690.595	7214
690.635	7718
690.680	8193
690.716	8676
690.724	8801
690.769	9734
690.813	10395
690.836	10357
690.857	11160
690.902	14148
690.946	15823
690.957	16479
690.991	21908
691.035	28983
691.077	36144
691.080	36213
691.124	34177
691.168	33194
691.198	31912
691.213	29758
691.257	24658
691.301	18198
691.318	16274
691.346	15667
691.390	12858
691.434	11533
691.439	11277
691.478	10460
691.522	9956
691.559	9221
691.567	9181
691.611	9263
691.655	8449
691.680	8659
691.699	8978
691.743	8709
691.787	9137
691.800	8878
691.831	8283
691.875	9024
691.919	8787
691.921	8775
691.964	8982
692.008	8870
692.041	8826
692.052	8852
692.096	8588
692.139	9196
692.162	9006
692.183	8722
692.227	8749
692.271	8173
692.282	8173
692.315	8460
692.359	8256
692.402	8699
692.403	8722
692.447	8610
692.490	8967
692.523	8700
692.534	8681
692.578	9290
692.622	8840
692.643	9252
692.666	9544
692.709	9158
692.753	9074
692.763	9024
692.797	9131
692.840	9505
692.884	8908
692.884	8925
692.928	9377
692.971	9071
693.004	9446
693.015	9568
693.059	9310
693.102	9763
693.124	9367
693.146	9207
693.189	9814
693.233	10169
693.245	10244
693.276	10604
693.320	10832
693.363	11400
693.365	11381
693.407	11819
693.450	12793
693.485	13235
693.493	13722
693.537	16440
693.580	18603
693.605	20144
693.624	22392
693.667	27176
693.710	32517
693.725	34216
693.753	44352
693.797	60838
693.840	77071
693.845	78817
693.883	75814
693.926	71419
693.966	68207
693.970	67059
694.013	53261
694.056	40071
694.086	30443
694.099	28954
694.142	24532
694.185	19883
694.206	17730
694.229	17366
694.272	16468
694.315	15464
694.326	15194
694.358	14508
694.401	13507
694.444	12240
694.446	12181
694.487	12254
694.530	11230
694.566	11229
694.573	11264
694.616	10685
694.659	10227
694.686	9960
694.702	9977
694.745	9928
694.787	9558
694.806	9646
694.830	9793
694.873	9494
694.916	9659
694.926	9519
694.959	9150
695.002	9191
695.044	8996
695.046	8968
695.087	9190
695.130	8997
695.166	9495
695.172	9635
695.215	9483
695.258	10089
695.286	10142
695.301	10044
695.343	10030
695.386	9804
695.406	9649
695.428	9551
695.471	9237
695.514	9136
695.526	9038
695.556	8876
695.599	8887
695.641	8541
695.646	8502
695.684	8705
695.726	8658
695.766	8904
695.769	8948
695.811	9139
695.854	9246
695.886	9283
695.896	9314
695.938	9385
695.981	9339
696.005	9384
696.023	9506
696.065	9601
696.108	9898
696.125	9825
696.150	9740
696.192	10068
696.235	9996
696.245	10014
696.277	9928
696.319	9570
696.361	9449
696.365	9390
696.404	9472
696.446	9682
696.485	9740
696.488	9768
696.530	9972
696.572	9861
696.604	10060
696.614	10120
696.656	9885
696.698	9810
696.724	9712
696.740	9673
696.783	9728
696.825	9412
696.844	9311
696.867	9434
696.909	9671
696.951	9731
696.964	9798
696.992	9891
697.034	9799
697.076	9756
697.083	9730
697.118	9671
697.160	9513
697.202	9284
697.203	9252
697.244	9154
697.286	9066
697.323	8832
697.327	8897
697.369	9370
697.411	9681
697.442	10037
697.453	10032
697.494	9689
697.536	9645
697.562	9387
697.578	9447
697.620	9700
697.661	9919
697.682	10000
697.703	10127
697.744	10271
697.786	10529
697.801	10549
697.828	10817
697.869	11357
697.911	11618
697.921	11703
697.952	11185
697.994	10349
698.035	9577
698.040	9447
698.077	9445
698.118	9448
698.160	9459
698.160	9430
698.201	9852
698.243	10181
698.279	10473
698.284	10511
698.325	10577
698.367	10651
698.399	10615
698.408	10515
698.449	9993
698.491	9405
698.518	9011
698.532	9200
698.573	9673
698.614	10183
698.638	10397
698.656	10326
698.697	10160
698.738	9959
698.757	9842
698.779	9957
698.820	10102
698.862	10266
698.877	10293
698.903	10424
698.944	10587
698.985	10744
698.996	10759
699.026	10938
699.067	11135
699.116	11342
699.235	10277
699.354	10505
699.474	10266
699.593	11919
699.713	10760
699.832	10742
699.951	10363
700.070	10461
700.190	10073
700.309	10582
700.428	10409
700.547	10313
700.667	11403
700.786	11433
700.905	10341
701.024	10022
701.143	10154
701.262	9465
701.381	8884
701.500	10091
701.619	9533
701.738	8844
701.857	9424
701.976	8276
702.095	9269
702.214	10804
702.333	8812
702.452	9856
702.571	8341
702.690	9143
702.809	9084
702.928	9011
703.047	9353
703.165	9464
703.284	7980
703.403	9208
703.522	9037
703.640	10331
703.759	11040
703.878	14796
703.997	9055
704.115	8479
704.234	8061
704.353	8808
704.471	8194
704.590	8829
704.708	7702
704.827	8586
704.946	9211
705.064	9051
705.183	8130
705.301	10021
705.420	13519
705.538	12764
705.656	10871
705.775	11160
705.893	22176
706.012	26237
706.130	10692
706.249	11503
706.367	10777
706.485	12505
706.604	11057
706.722	10915
706.840	12500
706.958	14617
707.077	11154
707.195	10158
707.313	10107
707.431	9636
707.549	9859
707.668	10227
707.786	9299
707.904	9864
708.022	9253
708.140	10330
708.258	9337
708.376	10515
708.494	10331
708.612	10344
708.730	14625
708.848	13735
708.966	12489
709.084	11487
709.202	11263
709.320	11928
709.438	11930
709.556	12502
709.674	11896
709.791	12166
709.909	10717
710.027	11406
710.145	10402
710.263	11672
710.380	11088
710.498	11169
710.616	11909
710.733	11225
710.851	10864
710.969	11382
711.086	11154
711.204	11141
711.322	10839
711.439	11536
711.557	10588
711.674	11158
711.792	10655
711.909	12061
712.027	12158
712.144	10287
712.262	10013
712.379	12438
712.497	15414
712.614	14918
712.732	13369
712.849	12441
712.966	13697
713.084	15267
713.201	13594
713.318	12953
713.436	12842
713.553	13015
713.670	13364
713.787	13863
713.905	13412
714.022	12948
714.139	12202
714.256	12517
714.373	14036
714.490	19215
714.608	35017
714.725	125492
714.842	120203
714.959	16044
715.076	11794
715.193	11403
715.310	10550
715.427	11441
715.544	10844
715.661	11422
715.778	10248
715.895	11394
716.011	11480
716.128	11551
716.245	10946
716.362	12551
716.479	12004
716.596	10418
716.713	10790
716.829	11391
716.946	10107
717.063	10027
717.180	9343
717.296	10150
717.413	9089
717.530	10503
717.646	9415
717.763	10002
717.880	9445
717.996	9105
718.113	9684
718.229	9262
718.346	9036
718.462	9944
718.579	11109
718.695	16037
718.812	13637
718.928	13769
719.045	10312
719.161	8804
719.277	8954
719.394	9543
719.510	9288
719.626	9209
719.743	10509
719.859	10635
719.975	12963
720.092	34138
720.208	67454
720.324	14919
720.440	9995
720.557	10736
720.673	14791
720.789	20835
720.905	43400
721.021	14810
721.137	8822
721.253	9207
721.369	8890
721.486	9902
721.602	13492
721.718	9463
721.834	7092
721.950	8883
722.066	7907
722.181	7369
722.297	7769
722.413	8325
722.529	8623
722.645	7339
722.761	7572
722.877	7120
722.993	7074
723.108	7668
723.224	7227
723.340	8416
723.456	7309
723.571	7541
723.687	6888
723.803	7371
723.918	6685
724.034	7590
724.150	7412
724.265	8871
724.381	17079
724.497	20259
724.612	6527
724.728	6669
724.843	7131
724.959	9774
725.074	16541
725.190	18116
725.305	7232
725.421	6521
725.536	5602
725.651	6764
725.767	5408
725.882	6088
725.997	5854
726.113	6090
726.228	5569
726.343	6166
726.459	5683
726.574	7432
726.689	5148
726.804	6248
726.920	5846
727.035	6589
727.150	6557
727.265	4928
727.380	6265
727.495	6847
727.610	5725
727.725	5999
727.841	6101
727.956	12758
728.071	10927
728.186	5794
728.301	5056
728.416	7070
728.531	4993
728.645	6322
728.760	6582
728.875	6948
728.990	6094
729.105	5937
729.220	5923
729.335	6143
729.449	5481
729.564	5291
729.679	4930
729.794	5112
729.908	6049
730.023	5696
730.138	5296
730.253	5616
730.367	4139
730.482	4789
730.596	4935
730.711	5429
730.826	5247
730.940	5299
731.055	4522
731.169	5214
731.284	3971
731.398	4721
731.513	5599
731.627	5555
731.742	7464
731.856	6259
731.970	4175
732.085	5210
732.199	5780
732.313	7943
732.428	13675
732.542	30660
732.656	18127
732.771	6813
732.885	4630
732.999	5189
733.113	5872
733.227	5848
733.342	4255
733.456	4390
733.570	4732
733.684	4843
733.798	4479
733.912	4175
734.026	3654
734.140	4794
734.254	4996
734.368	8840
734.482	10345
734.596	4710
734.710	3374
734.824	4462
734.938	4486
735.052	4826
735.166	4039
735.280	4824
735.393	3555
735.507	5148
735.621	5674
735.735	10550
735.849	5281
735.962	5504
736.076	3753
736.190	5296
736.303	7102
736.417	8511
736.531	4918
736.644	4707
736.758	3706
736.872	3360
736.985	4262
737.099	3852
737.212	2887
737.326	4513
737.439	4085
737.553	4166
737.666	3402
737.780	3544
737.893	3470
738.007	3543
738.120	3287
738.233	4063
738.347	3002
738.460	4256
738.573	3420
738.687	3663
738.800	4085
738.913	5110
739.026	3543
739.140	3595
739.253	3284
739.366	4584
739.479	3260
739.592	3288
739.705	2906
739.818	3499
739.932	3442
740.045	3599
740.158	3844
740.271	5153
740.384	3787
740.497	4527
740.610	3622
740.723	4543
740.836	4492
740.949	4515
741.062	4714
741.174	5257
741.287	4048
741.400	3582
741.513	3927
741.626	5222
741.739	3695
741.851	4137
741.964	3292
742.077	4472
742.189	4187
742.302	6683
742.415	4715
742.527	4783
742.640	2958
742.753	4349
742.865	3363
742.978	3439
743.090	2868
743.203	3452
743.316	3532
743.428	2761
743.541	3496
743.653	3505
743.766	2862
743.878	3810
743.990	4583
744.103	6600
744.215	5274
744.327	3484
744.440	4183
744.552	5889
744.664	2965
744.777	3213
744.889	1932
745.001	3814
745.113	2842
745.226	3170
745.338	3195
745.450	3343
745.562	3060
745.674	3699
745.786	2678
745.898	3547
746.010	3653
746.122	2609
746.234	2688
746.347	3274
746.459	3003
746.570	3640
746.682	4597
746.794	7215
746.906	2988
747.018	2997
747.130	3484
747.242	3368
747.354	3010
747.466	3571
747.577	2474
747.689	3554
747.801	2286
747.913	3377
748.024	1477
748.136	2712
748.248	3032
748.359	2721
748.471	3153
748.583	3385
748.694	2754
748.806	4713
748.918	4385
749.029	3246
749.141	3814
749.252	3510
749.364	3749
749.475	5996
749.587	4306
749.698	2696
749.809	2676
749.921	3505
750.032	3081
750.144	3274
750.255	2436
750.366	2873
750.478	2570
750.589	3218
750.700	2706
750.811	4118
750.923	4108
751.034	6749
751.145	5884
751.256	3430
751.367	2431
751.479	3622
751.590	2080
751.701	3269
751.812	2162
751.923	3140
752.034	2363
752.145	3105
752.256	2345
752.367	3589
752.478	3156
752.589	2940
752.700	2260
752.811	2286
752.922	1951
753.032	2824
753.143	2226
753.254	2918
753.365	2385
753.476	3151
753.586	3225
753.697	3018
753.808	3159
753.919	2134
754.029	2227
754.140	3652
754.251	3191
754.361	3252
754.472	2731
754.582	3445
754.693	2718
754.804	3058
754.914	2476
755.025	2999
755.135	2768
755.246	2730
755.356	2744
755.466	2638
755.577	2743
755.687	3059
755.798	2488
755.908	3113
756.018	2582
756.129	2797
756.239	2501
756.349	2595
756.460	2050
756.570	2883
756.680	3162
756.790	3137
756.900	2302
757.011	3314
757.121	2559
757.231	2789
757.341	3132
757.451	2689
757.561	2153
757.671	3022
757.781	2010
757.891	3936
758.001	3226
758.111	3053
758.221	2957
758.331	3042
758.441	3404
758.551	4023
758.661	3941
758.771	3515
758.880	3116
758.990	2810
759.100	3426
759.210	3637
759.320	3442
759.429	3786
759.539	3067
759.649	3743
759.758	3099
759.868	4170
759.978	3427
760.087	4302
760.197	3908
760.307	3529
760.416	4365
760.526	4593
760.635	4644
760.745	4688
760.854	3850
760.964	5616
761.073	4018
761.182	4409
761.292	4736
761.401	5109
761.511	4716
761.620	5073
761.729	4921
761.839	5178
761.948	5399
762.057	5331
762.166	4558
762.276	4611
762.385	6333
762.494	5393
762.603	5189
762.712	6498
762.822	5430
762.931	7009
763.040	6128
763.149	6573
763.258	6138
763.367	7128
763.476	6605
763.585	8161
763.694	8939
763.803	8903
763.912	9096
764.021	10535
764.130	9439
764.238	10424
764.347	10905
764.456	12016
764.565	12319
764.674	12642
764.783	14637
764.891	15773
765.000	17323
765.109	21101
765.217	22938
765.326	28428
765.435	33007
765.543	39717
765.652	48334
765.761	65814
765.869	91703
765.978	132731
766.086	210526
766.195	355700
766.303	618404
766.412	818108
766.520	723133
766.629	554940
766.737	309569
766.846	184171
766.954	121870
767.062	86177
767.171	67816
767.279	51830
767.387	38962
767.496	33948
767.604	29296
767.712	25685
767.820	22863
767.928	21525
768.037	19279
768.145	19137
768.253	18829
768.361	16601
768.469	16725
768.577	17371
768.685	18662
768.793	20286
768.901	21040
769.009	25834
769.117	29472
769.225	38774
769.333	53401
769.441	82544
769.549	142304
769.657	280918
769.765	571366
769.873	686498
769.981	513669
770.088	241191
770.196	123110
770.304	78607
770.412	54291
770.519	40340
770.627	31717
770.735	25916
770.842	21607
770.950	19984
771.058	15878
771.165	15301
771.273	13988
771.380	12666
771.488	11343
771.595	9844
771.703	9348
771.810	10024
771.918	8661
772.025	8911
772.133	7685
772.240	7418
772.348	7366
772.455	6963
772.562	7057
772.670	7014
772.777	6259
772.884	5898
772.991	6471
773.099	5033
773.206	5082
773.313	5543
773.420	4791
773.528	4782
773.635	5323
773.742	4958
773.849	4919
773.956	4458
774.063	4069
774.170	3563
774.277	4536
774.384	3899
774.491	3868
774.598	4599
774.705	3734
774.812	4634
774.919	4498
775.026	5056
775.133	3255
775.239	4363
775.346	4046
775.453	4088
775.560	3645
775.667	4276
775.773	3507
775.880	3804
775.987	2999
776.093	4883
776.200	3620
776.307	3087
776.413	3702
776.520	2730
776.627	3443
776.733	4424
776.840	1966
776.946	5371
777.053	7168
777.159	12236
777.266	5496
777.372	11260
777.478	7894
777.585	4773
777.691	3221
777.798	2605
777.904	3559
778.010	4732
778.117	3430
778.223	2943
778.329	2314
778.435	2858
778.542	3411
778.648	2120
778.754	2590
778.860	2748
778.966	2287
779.072	3048
779.178	1897
779.284	2938
779.391	2279
779.497	2472
779.603	4936
779.708	4618
779.815	10829
779.920	39891
780.026	82196
780.132	13269
780.238	3197
780.344	3207
780.450	4326
780.556	2164
780.661	947
780.767	2402
780.873	1573
780.979	3008
781.085	1511
781.190	2351
781.296	1432
781.402	928
781.507	1608
781.613	2783
781.719	996
781.824	2345
781.930	2805
782.035	2335
782.141	1198
782.246	2543
782.352	2199
782.457	820
782.563	1797
782.668	2229
782.773	2058
782.879	1195
782.984	2125
783.090	3458
783.195	3350
783.300	2045
783.405	2372
783.511	2310
783.616	1671
783.721	2553
783.826	1378
783.932	2281
784.037	1393
784.142	1993
784.247	1947
784.352	1769
784.457	2418
784.562	1938
784.667	1915
784.772	2646
784.877	1169
784.982	2492
785.087	1413
785.192	2330
785.297	1177
785.402	1996
785.507	1864
785.611	1958
785.716	1799
785.821	1372
785.926	1587
786.031	1431
786.135	2143
786.240	1578
786.345	803
786.450	1643
786.554	1301
786.659	1276
786.763	238
786.868	1721
786.973	1711
787.077	2062
787.182	1530
787.286	1917
787.391	708
787.495	851
787.600	674
787.704	1519
787.809	1347
787.913	1449
788.017	1488
788.122	1402
788.226	1456
788.330	1002
788.435	756
788.539	1253
788.643	995
788.747	1740
788.852	1570
788.956	605
789.060	1580
789.164	1214
789.268	50
789.372	1734
789.476	736
789.580	934
789.684	283
789.788	2295
789.892	548
789.996	1851
790.100	299
790.204	633
790.308	1160
790.412	1693
790.516	1648
790.620	1648
790.724	1605
790.828	1539
790.931	48
791.035	2912
791.139	1026
791.242	146
791.346	1153
791.450	968
791.554	198
791.657	948
791.761	1735
791.864	2482
791.968	1030
792.072	1483
792.175	1041
792.279	1058
792.382	589
792.486	1325
792.589	840
792.693	1880
792.796	50
792.899	2502
793.003	1363
793.106	-233
793.209	-27
793.313	3089
793.416	134
793.519	2132
793.623	2468
793.726	2318
793.829	1235
793.932	2479
794.035	512
794.138	2888
794.242	2339
794.345	2222
794.448	3422
794.551	6738
794.654	21561
794.757	45474
794.860	8209
794.963	2287
795.066	588
795.169	2416
795.272	510
795.375	1211
795.477	-32
795.580	2086
795.683	112
795.786	-129
795.889	-328
795.991	2298
796.094	1708
796.197	471
796.300	1119
796.402	33
796.505	1017
796.608	764
796.710	635
796.813	1021
796.915	-216
797.018	932
797.120	614
797.223	-828
797.326	1867
797.428	537
797.530	1064
797.633	1247
797.735	2451
797.838	2238
797.940	2172
798.042	243
798.145	349
798.247	1126
798.349	-1264
798.452	1775
798.554	-576
798.656	77
798.758	1763
798.860	551
798.962	621
799.065	-176
799.167	195
799.269	1933
799.371	890
799.473	796
799.575	818
799.677	1967
799.779	2891
799.881	392
799.983	1067
800.085	1078
800.187	692
800.289	224
800.390	100
800.492	1334
800.594	788
800.696	1254
800.798	1239
800.899	-169
801.001	247
801.103	563
801.205	399
801.306	933
801.408	-671
801.509	278
801.611	675
801.713	1117
801.814	-42
801.916	395
802.017	-548
802.119	602
802.220	59
802.322	-343
802.423	2943
802.525	873
802.626	301
802.727	926
802.829	769
802.930	-1784
803.031	1962
803.133	345
803.234	260
803.335	438
803.436	-963
803.538	706
803.639	-625
803.740	1207
803.841	-737
803.942	780
804.043	883
804.144	-126
804.245	720
804.346	256
804.447	-45
804.548	191
804.649	884
804.750	464
804.851	81
804.952	503
805.053	47
805.154	-669
805.255	2005
805.355	1038
805.456	-203
805.557	242
805.658	-505
805.758	1534
805.859	616
805.960	886
806.061	-720
806.161	227
806.262	361
806.362	1267
806.463	29
806.564	-159
806.664	650
806.765	977
806.865	431
806.966	315
807.066	-289
807.166	1075
807.267	898
807.367	-218
807.468	1075
807.568	-95
807.668	863
807.769	1041
807.869	856
807.969	427
808.069	533
808.170	579
808.270	-457
808.370	963
808.470	708
808.570	383
808.670	567
808.770	874
808.870	-408
808.970	1424
809.070	227
809.170	97
809.271	811
809.370	-298
809.470	86
809.570	333
809.670	-213
809.770	477
809.870	1386
809.970	888
810.070	566
810.169	1260
810.269	-1149
810.369	1765
810.469	-193
810.568	676
810.668	-260
810.768	506
810.867	423
810.967	198
811.066	626
811.166	-19
811.265	1130
811.365	403
811.464	-116
811.564	299
811.663	394
811.763	-398
811.862	924
811.962	1491
812.061	114
812.160	181
812.260	424
812.359	1326
812.458	402
812.557	3603
812.657	2674
812.756	1753
812.855	628
812.954	1155
813.053	404
813.153	826
813.252	529
813.351	990
813.450	655
813.549	769
813.648	334
813.747	1175
813.846	882
813.945	1304
814.044	150
814.143	1341
814.242	2017
814.341	909
814.439	862
814.538	1922
814.637	1248
814.736	217
814.835	1885
814.933	1225
815.032	1434
815.131	2095
815.229	1796
815.328	2504
815.427	1907
815.525	3054
815.624	2160
815.722	1992
815.821	2375
815.919	2628
816.018	1738
816.116	3662
816.215	1856
816.313	3125
816.412	2576
816.510	4463
816.609	4724
816.707	4615
816.805	4560
816.904	5377
817.002	5660
817.100	7261
817.198	7614
817.296	8198
817.395	9576
817.493	13598
817.591	14659
817.689	21748
817.787	28263
817.885	45531
817.983	75748
818.081	147566
818.179	312745
818.277	611779
818.375	552769
818.473	250571
818.571	119391
818.669	76473
818.767	62636
818.865	60353
818.963	70024
819.061	95477
819.158	148452
819.256	268999
819.354	520610
819.452	793114
819.549	620262
819.647	321588
819.745	162516
819.842	98946
819.940	65546
820.038	47760
820.135	36527
820.233	29763
820.330	22771
820.428	19073
820.525	16224
820.623	14190
820.720	11575
820.818	10902
820.915	9600
821.012	9504
821.110	7480
821.207	7913
821.304	5666
821.402	6609
821.499	7474
821.596	8376
821.693	4814
821.791	5476
821.888	4413
821.985	5838
822.082	4863
822.179	5402
822.276	3182
822.373	3615
822.470	2448
822.567	3372
822.664	1230
822.761	2751
822.858	1135
822.955	2862
823.052	1479
823.149	2515
823.246	1471
823.343	1599
823.440	1967
823.536	1605
823.633	950
823.730	2046
823.827	1104
823.923	1284
824.020	1766
824.117	1940
824.213	526
824.310	2331
824.407	417
824.503	1126
824.600	1725
824.696	1052
824.793	2054
824.889	1305
824.986	566
825.082	1158
825.179	1295
825.275	844
825.371	-106
825.468	1090
825.564	121
825.660	618
825.757	-124
825.853	1051
825.949	-380
826.045	580
826.142	-899
826.238	174
826.334	501
826.430	-519
826.526	616
826.622	512
826.718	-59
826.814	161
826.910	793
827.006	684
827.102	153
827.198	852
827.294	37
827.390	520
827.486	463
827.582	-1409
827.678	-912
827.774	700
827.869	-1047
827.965	1410
828.061	57
828.157	792
828.252	-115
828.348	-304
828.444	614
828.539	-606
828.635	-353
828.731	215
828.826	-759
828.922	1023
829.017	-226
829.113	703
829.208	-1001
829.304	-715
829.399	548
829.495	-1041
829.590	908
829.685	-744
829.781	-241
829.876	719
829.971	-87
830.066	16
830.162	-156
830.257	65
830.352	-322
830.447	501
830.543	-865
830.638	-1309
830.733	968
830.828	-233
830.923	464
831.018	156
831.113	-16
831.208	-590
831.303	-59
831.398	571
831.493	-192
831.588	270
831.683	-1034
831.778	12
831.873	-821
831.967	1487
832.062	-698
832.157	-791
832.252	990
832.346	-758
832.441	159
832.536	797
832.631	2629
832.725	1467
832.820	-690
832.914	-268
833.009	-356
833.104	280
833.198	904
833.293	-720
833.387	-750
833.482	159
833.576	-553
833.670	-255
833.765	-676
833.859	-810
833.954	-298
834.048	-231
834.142	-359
834.237	-30
834.331	-838
834.425	238
834.519	-2063
834.613	287
834.708	-430
834.802	204
834.896	-1088
834.990	-417
835.084	-250
835.178	126
835.272	-309
835.366	-510
835.460	-259
835.554	39
835.648	82
835.742	-331
835.836	-160
835.930	-733
836.024	-662
836.117	453
836.211	-72
836.305	470
836.399	1840
836.493	-805
836.586	88
836.680	-27
836.774	-797
836.867	873
836.961	-1094
837.055	-1213
837.148	-945
837.242	-146
837.335	-397
837.429	-196
837.522	-496
837.616	216
837.709	2499
837.803	698
837.896	236
837.989	225
838.083	944
838.176	2471
838.269	1804
838.363	480
838.456	-856
838.549	483
838.642	379
838.735	2615
838.829	419
838.922	-1003
839.015	-254
839.108	-254
839.201	187
839.294	508
839.387	277
839.480	-221
839.573	479
839.666	1035
839.759	-646
839.852	-792
839.945	-513
840.038	-1116
840.131	-789
840.223	-547
840.316	542
840.409	-470
840.502	-1204
840.594	771
840.687	-1020
840.780	471
840.873	-1435
840.965	-350
841.058	620
841.150	2025
841.243	363
841.336	-178
841.428	-508
841.521	-6
841.613	-1012
841.706	-4
841.798	-444
841.890	105
841.983	-1157
842.075	414
842.167	-894
842.260	444
842.352	793
842.444	1021
842.537	2250
842.629	3889
842.721	-45
842.813	-511
842.905	-795
842.997	1142
843.090	-1104
843.182	2252
843.274	2496
843.366	7612
843.458	14316
843.550	8963
843.642	197
843.734	520
843.826	-143
843.918	1275
844.009	-326
844.101	-124
844.193	-1214
844.285	7
844.377	140
844.469	1731
844.560	1161
844.652	780
844.744	413
844.835	-331
844.927	-789
845.019	563
845.110	-576
845.202	131
845.293	-815
845.385	-378
845.476	79
845.568	123
845.659	-456
845.751	146
845.842	-809
845.934	-1834
846.025	-1277
846.116	-607
846.208	-616
846.299	-537
846.390	-5
846.482	-409
846.573	-315
846.664	170
846.755	-291
846.846	-262
846.937	-1972
847.029	-906
847.120	-1424
847.211	-928
847.302	-439
847.393	-1172
847.484	459
847.575	-176
847.666	-1385
847.757	-459
847.847	-859
847.938	1046
848.029	-1862
848.120	-580
848.211	-493
848.302	-810
848.392	-1421
848.483	83
848.574	-1223
848.664	-147
848.755	-743
848.846	-523
848.936	-1469
849.027	-459
849.118	-1075
849.208	-1344
849.299	-86
849.389	1148
849.480	1022
849.570	2263
849.661	4422
849.751	6632
849.841	1322
849.932	115
850.022	-1356
850.112	-147
850.203	-934
850.293	-1116
850.383	-1772
850.474	174
850.564	-1416
850.654	-704
850.744	-1371
850.834	-704
850.924	-667
851.014	-362
851.104	-697
851.194	-351
851.284	-220
851.374	-271
851.464	-631
851.554	-565
851.644	-255
851.734	756
851.824	-272
851.914	-45
852.004	1003
852.094	-497
852.183	-396
852.273	-662
852.363	-688
852.452	-1204
852.542	-1213
852.632	-800
852.721	-454
852.811	-36
852.901	-800
852.990	-645
853.080	-1066
853.169	-396
853.259	-697
853.348	-936
853.438	-555
853.527	-453
853.617	59
853.706	2143
853.795	4040
853.885	11442
853.974	20454
854.063	42541
854.152	55192
854.242	15913
854.331	1414
854.420	176
854.509	154
854.598	420
854.687	-981
854.777	73
854.866	-1287
854.955	-47
855.044	-1315
855.133	-46
855.222	-909
855.311	-1018
855.400	-784
855.488	-434
855.577	-1084
855.666	-800
855.755	-694
855.844	215
855.933	-324
856.021	-131
856.110	-455
856.199	-1089
856.288	-2098
856.376	-358
856.465	-1214
856.554	-304
856.642	-1170
856.731	-917
856.819	-422
856.908	-702
856.996	-1521
857.085	-1339
857.173	-855
857.262	-493
857.350	-467
857.438	-409
857.527	127
857.615	-322
857.703	-1467
857.792	-493
857.880	-1627
857.968	-767
858.056	-767
858.145	-803
858.233	-688
858.321	-809
858.409	-718
858.497	-564
858.585	-2261
858.673	-941
858.761	-879
858.849	-816
858.937	-769
859.025	-189
859.113	-870
859.201	-464
859.289	-833
859.377	-520
859.465	-471
859.552	-481
859.640	-969
859.728	-412
859.816	-834
859.903	-194
859.991	-1609
860.079	-878
860.166	-824
860.254	-432
860.342	-576
860.429	-624
860.517	-1607
860.604	-479
860.692	-536
860.779	-783
860.867	-1211
860.954	-1020
861.042	-855
861.129	-467
861.216	-1323
861.304	-1054
861.391	-438
861.478	-1062
861.565	-374
861.653	383
861.740	-430
861.827	-1083
861.914	-472
862.001	-988
862.089	-409
862.176	-607
862.263	-1279
862.350	-600
862.437	-1182
862.524	-1301
862.611	-805
862.698	-224
862.785	-191
862.871	-282
862.958	-1753
863.045	-606
863.132	-1628
863.219	-845
863.306	-1678
863.392	-739
863.479	-1385
863.566	-669
863.652	-1067
863.739	-1655
863.826	-358
863.912	-688
863.999	-1239
864.086	-1333
864.172	-950
864.259	-587
864.345	-560
864.432	-154
864.518	-1572
864.604	-636
864.691	-1237
864.777	81
864.863	-718
864.950	-149
865.036	-1041
865.122	-778
865.209	-611
865.295	-853
865.381	-549
865.467	-147
865.553	-131
865.639	-220
865.726	1032
865.812	5117
865.898	9677
865.984	13869
866.070	27587
866.156	24210
866.242	4144
866.328	114
866.414	-874
866.499	-20
866.585	-688
866.671	177
866.757	-1501
866.843	-94
866.928	-1303
867.014	-1024
867.100	-935
867.186	-720
867.271	-798
867.357	-526
867.442	-469
867.528	887
867.614	-190
867.699	622
867.785	258
867.870	1501
867.956	1185
868.041	431
868.127	174
868.212	1861
868.297	231
868.383	-342
868.468	275
868.553	1895
868.639	1654
868.724	2896
868.809	2731
868.894	215
868.979	-590
869.065	-197
869.150	-1231
869.235	-1141
869.320	-1084
869.405	-431
869.490	-1319
869.575	-863
869.660	-1116
869.745	-201
869.830	-1242
869.915	-593
870.000	-568
870.085	-152
870.169	-407
870.254	12
870.339	-1225
870.424	-584
870.509	-247
870.593	-1469
870.678	-389
870.763	-305
870.847	-977
870.932	-308
871.016	-1283
871.101	-631
871.186	-948
871.270	-888
871.355	-1251
871.439	-277
871.523	-1512
871.608	-1324
871.692	-858
871.777	-559
871.861	-108
871.945	-1046
872.030	-1573
872.114	-864
872.198	-1552
872.282	-1005
872.367	-1228
872.451	-1000
872.535	-572
872.619	-1022
872.703	-1193
872.787	-527
872.871	-1627
872.955	-930
873.039	-1551
873.123	-1111
873.207	-559
873.291	-925
873.375	-1453
873.459	-695
873.543	-1034
873.627	-249
873.711	-1633
873.794	-460
873.878	-1013
873.962	-888
874.045	-1857
874.129	-1164
874.137	-1159
874.213	-1111
874.245	-822
874.296	-357
874.352	-1512
874.380	-2079
874.460	-1087
874.464	-1048
874.547	-1398
874.568	-1193
874.631	-589
874.676	-1155
874.714	-1631
874.784	-432
874.798	-192
874.881	67
874.892	-123
874.965	-1461
874.999	-1093
875.048	-540
875.107	-158
875.131	-43
875.215	-500
875.215	-499
875.298	-117
875.323	-415
875.381	-1074
875.430	-1060
875.465	-1030
875.538	-975
875.548	-985
875.631	-1479
875.646	-1504
875.714	-1617
875.753	-1182
875.798	-638
875.861	-757
875.881	-796
875.964	-436
875.968	-456
876.047	-1028
876.076	-791
876.130	-119
876.183	-860
876.213	-1360
876.291	-120
876.296	-24
876.379	-1279
876.398	-1026
876.462	-306
876.506	-487
876.545	-627
876.613	-573
876.628	-541
876.711	-744
876.721	-586
876.794	521
876.828	119
876.877	-450
876.935	-152
876.960	38
877.043	269
877.043	269
877.125	26
877.150	74
877.208	455
877.258	133
877.291	-158
877.365	-132
877.374	-119
877.456	15
877.472	6
877.539	-48
877.579	132
877.622	302
877.687	232
877.704	202
877.787	619
877.794	559
877.869	-55
877.901	-137
877.952	-244
878.008	-197
878.034	-142
878.115	-244
878.117	-246
878.199	-483
878.222	-316
878.282	167
878.329	-91
878.364	-333
878.437	569
878.447	694
878.529	-425
878.544	-467
878.611	-513
878.651	-703
878.694	-753
878.758	33
878.776	135
878.858	-172
878.865	-183
878.941	-108
878.972	-237
879.023	-423
879.078	-72
879.105	120
879.185	-206
879.187	-213
879.269	299
879.292	70
879.351	-341
879.399	-236
879.433	-190
879.506	140
879.516	186
879.598	-51
879.613	-122
879.680	-472
879.720	-365
879.762	-185
879.827	-204
879.844	-230
879.926	156
879.933	96
880.007	-410
880.040	-191
880.089	147
880.147	184
880.171	235
880.253	1001
880.254	998
880.335	1092
880.360	1399
880.417	2567
880.467	3757
880.499	4669
880.574	6206
880.580	6089
880.662	2137
880.680	1561
880.744	308
880.787	-128
880.825	-90
880.893	-223
880.907	-229
880.989	-171
881.000	-82
881.070	407
881.106	87
881.152	-268
881.213	271
881.233	437
881.315	209
881.319	209
881.396	367
881.426	106
881.478	-319
881.532	232
881.559	500
881.639	-160
881.641	-177
881.722	544
881.745	182
881.803	-586
881.852	-250
881.885	59
881.958	109
881.966	100
882.047	210
882.064	207
882.129	578
882.171	983
882.210	1375
882.277	1736
882.291	1692
882.372	983
882.383	939
882.454	556
882.489	277
882.535	265
882.596	327
882.616	300
882.697	165
882.702	164
882.778	564
882.808	647
882.859	486
882.914	97
882.940	6
883.020	20
883.021	25
883.102	-117
883.127	-77
883.183	284
883.233	296
883.264	197
883.339	529
883.345	573
883.426	330
883.445	432
883.507	656
883.551	682
883.587	698
883.657	512
883.668	526
883.749	452
883.763	522
883.830	533
883.869	399
883.910	516
883.975	1010
883.991	1120
884.072	871
884.081	895
884.152	1064
884.187	883
884.233	457
884.292	621
884.314	692
884.394	58
884.398	32
884.475	193
884.504	275
884.555	246
884.610	388
884.636	553
884.716	548
884.716	556
884.797	762
884.821	833
884.877	787
884.927	618
884.958	503
885.033	350
885.038	381
885.118	468
885.139	518
885.199	454
885.244	501
885.279	594
885.350	819
885.359	850
885.439	1002
885.456	935
885.520	679
885.561	736
885.600	621
885.667	229
885.680	354
885.760	1448
885.773	1530
885.840	1206
885.878	1238
885.920	1396
885.984	1133
886.000	962
886.080	785
886.089	688
886.160	747
886.195	957
886.240	1076
886.300	1035
886.320	1043
886.400	1422
886.406	1414
886.480	1101
886.511	983
886.560	1153
886.616	1387
886.640	1225
886.720	495
886.722	471
886.800	752
886.827	957
886.879	1006
886.932	757
886.959	915
887.038	1724
887.039	1733
887.119	1352
887.143	1379
887.198	1529
887.248	1477
887.278	1371
887.354	1080
887.358	1101
887.437	1312
887.459	1420
887.517	1613
887.564	1607
887.596	1461
887.669	1246
887.676	1266
887.755	1338
887.774	1355
887.835	1394
887.880	1474
887.914	1094
887.985	77
887.994	176
888.073	1217
888.090	1395
888.153	1145
888.195	994
888.232	1022
888.300	1129
888.311	1140
888.391	1058
888.405	1044
888.470	1338
888.510	1445
888.549	1407
888.615	1475
888.628	1480
888.708	1348
888.720	1326
888.787	1242
888.825	1172
888.866	1229
888.930	1286
888.945	1345
889.024	1658
889.035	1692
889.103	1476
889.140	1323
889.182	1513
889.245	1837
889.261	1866
889.340	1931
889.349	1932
889.419	1574
889.454	1385
889.498	1352
889.559	1308
889.577	1387
889.656	1709
889.664	1736
889.735	1725
889.768	1713
889.814	1892
889.873	2117
889.978	1993
890.083	2285
890.187	1552
890.292	1915
890.397	2471
890.501	1512
890.606	1997
890.710	2403
890.815	2086
890.919	2077
891.024	2482
891.128	2204
891.233	2425
891.337	1756
891.442	1992
891.546	1564
891.650	1875
891.755	1982
891.859	2650
891.963	949
892.068	2162
892.172	1174
892.276	1150
892.380	2548
892.484	2100
892.589	2117
892.693	1649
892.797	1585
892.901	1577
893.005	887
893.109	1519
893.213	1465
893.317	1650
893.421	2533
893.525	1663
893.629	1313
893.733	2255
893.837	716
893.941	1958
894.045	2707
894.148	1517
894.252	2345
894.356	3115
894.460	1339
894.564	2852
894.667	1229
894.771	1909
894.875	2316
894.978	2002
895.082	960
895.186	2021
895.289	1449
895.393	2089
895.496	595
895.600	1536
895.703	1929
895.807	2073
895.910	946
896.014	1313
896.117	1646
896.221	1706
896.324	1353
896.427	1214
896.531	2218
896.634	1177
896.737	2407
896.840	1306
896.944	1125
897.047	1619
897.150	1155
897.253	1656
897.356	1228
897.460	664
897.563	1524
897.666	2046
897.769	1739
897.872	612
897.975	1467
898.078	1015
898.181	1385
898.284	1439
898.387	1660
898.490	1357
898.593	1141
898.695	1635
898.798	1275
898.901	1893
899.004	2110
899.107	1325
899.209	1517
899.312	2143
899.415	1112
899.518	1788
899.620	1398
899.723	2060
899.826	2061
899.928	3415
900.031	1612
900.133	1515
900.236	2004
900.338	1075
900.441	1742
900.543	1887
900.646	984
900.748	1085
900.851	717
900.953	1474
901.055	1791
901.158	2531
901.260	1492
901.362	2321
901.465	1727
901.567	1964
901.669	1260
901.771	1566
901.873	1618
901.976	1025
902.078	996
902.180	1780
902.282	1151
902.384	1121
902.486	1024
902.588	2404
902.690	2448
902.792	2488
902.894	2004
902.996	1614
903.098	1555
903.200	1357
903.302	1401
903.404	1693
903.505	911
903.607	1787
903.709	1483
903.811	1357
903.913	1160
904.014	2234
904.116	1569
904.218	1310
904.319	2221
904.421	2615
904.523	1927
904.624	1746
904.726	1669
904.827	1372
904.929	1364
905.030	1127
905.132	1967
905.233	907
905.335	840
905.436	1654
905.537	830
905.639	1195
905.740	1807
905.841	1725
905.943	2333
906.044	1789
906.145	2858
906.247	1336
906.348	1005
906.449	1789
906.550	1584
906.651	1505
906.752	652
906.854	1502
906.955	877
907.056	1094
907.157	1161
907.258	1995
907.359	1270
907.460	1718
907.561	2096
907.662	1010
907.762	1068
907.863	1620
907.964	1482
908.065	2326
908.166	1321
908.267	2015
908.367	1082
908.468	1682
908.569	1179
908.670	1558
908.770	2703
908.871	1761
908.971	2212
909.072	2183
909.173	1819
909.273	1221
909.374	1104
909.474	1701
909.575	1565
909.675	1218
909.776	2094
909.876	687
909.977	1841
910.077	749
910.177	1613
910.278	1235
910.378	772
910.478	1118
910.579	1187
910.679	852
910.779	1573
910.879	1123
910.980	1410
911.080	595
911.180	639
911.280	407
911.380	1111
911.480	1318
911.580	1442
911.680	793
911.780	1757
911.880	1745
911.980	824
912.080	1099
912.180	1398
912.280	1694
912.380	1551
912.480	1179
912.580	1782
912.679	1412
912.779	1831
912.879	1765
912.979	922
913.078	1937
913.178	411
913.278	1885
913.377	1209
913.477	1448
913.577	1133
913.676	2278
913.776	962
913.875	1287
913.975	1484
914.074	1402
914.174	1422
914.273	1413
914.373	2282
914.472	1621
914.572	933
914.671	1188
914.770	1619
914.870	1702
914.969	1257
915.068	1702
915.167	2137
915.267	1387
915.366	761
915.465	1954
915.564	1469
915.663	1314
915.763	1473
915.862	1318
915.961	1795
916.060	1007
916.159	1091
916.258	163
916.357	2020
916.456	1712
916.555	869
916.654	1434
916.752	1057
916.851	1631
916.950	1431
917.049	658
917.148	650
917.247	1340
917.345	818
917.444	1503
917.543	734
917.642	1594
917.740	1073
917.839	1050
917.937	1632
918.036	1108
918.135	1400
918.233	973
918.332	612
918.430	1385
918.529	1058
918.627	1216
918.726	1345
918.824	1497
918.923	1550
919.021	849
919.119	574
919.218	1226
919.316	968
919.414	668
919.512	653
919.611	1200
919.709	1267
919.807	1303
919.905	1235
920.003	1491
920.102	1279
920.200	1448
920.298	1075
920.396	1334
920.494	1099
920.592	1466
920.690	2128
920.788	1549
920.886	935
920.984	1664
921.082	1431
921.180	1643
921.277	1494
921.375	1921
921.473	1338
921.571	1447
921.669	1386
921.766	2497
921.864	1182
921.962	1941
922.060	1420
922.157	1241
922.255	1221
922.352	1184
922.450	2127
922.548	1356
922.645	1560
922.743	1368
922.840	1365
922.938	1953
923.035	1814
923.133	2025
923.230	1797
923.327	2597
923.425	1391
923.522	2295
923.619	2492
923.717	1248
923.814	1876
923.911	636
924.008	2278
924.106	2302
924.203	868
924.300	1562
924.397	2009
924.494	2083
924.591	2667
924.688	1876
924.786	1685
924.883	1340
924.979	1902
925.077	1988
925.173	1659
925.270	1699
925.367	1677
925.464	1902
925.561	1165
925.658	2331
925.755	2782
925.852	2748
925.948	3394
926.045	2851
926.142	3649
926.239	3379
926.335	3101
926.432	4029
926.529	3824
926.625	4566
926.722	3398
926.818	2412
926.915	2763
927.011	1996
927.108	1703
927.204	1788
927.301	992
927.397	1876
927.494	2226
927.590	1608
927.687	1391
927.783	2003
927.879	1545
927.976	2162
928.072	1636
928.168	1888
928.264	1658
928.361	2388
928.457	1545
928.553	2195
928.649	1956
928.745	1738
928.841	1462
928.937	2047
929.033	1988
929.129	1669
929.225	1300
929.321	2232
929.417	1859
929.513	1478
929.609	1745
929.705	1481
929.801	1992
929.897	1656
929.993	1194
930.089	972
930.184	1406
930.280	1246
930.376	2417
930.471	2021
930.567	1580
930.663	1446
930.758	1683
930.854	1282
930.950	1582
931.045	1974
931.141	1939
931.236	2386
931.332	1560
931.427	1291
931.523	1941
931.618	1811
931.714	2236
931.809	2349
931.905	2115
932.000	1976
932.095	2010
932.191	2505
932.286	1563
932.381	1275
932.476	1434
932.572	1832
932.667	1181
932.762	1584
932.857	1639
932.952	1045
933.047	1503
933.142	1620
933.237	1808
933.332	1877
933.427	1223
933.522	2325
933.617	1588
933.712	1310
933.807	1476
933.902	1543
933.997	977
934.092	833
934.187	904
934.282	1225
934.376	938
934.471	1318
934.566	1848
934.661	1978
934.755	1793
934.850	1057
934.945	2262
935.039	1843
935.134	1494
935.228	1664
935.323	1740
935.417	961
935.512	894
935.606	1510
935.701	1550
935.795	1864
935.890	2634
935.984	1416
936.079	1996
936.173	1940
936.267	1262
936.362	1049
936.456	1742
936.550	1581
936.644	1222
936.738	1263
936.833	1246
936.927	2160
937.021	1965
937.115	1485
937.209	36
937.303	2185
937.397	946
937.491	1466
937.585	1437
937.679	1037
937.773	704
937.867	1339
937.961	975
938.055	1501
938.149	2127
938.243	1077
938.337	1749
938.430	1146
938.524	2209
938.618	3392
938.712	3664
938.805	1892
938.899	1442
938.993	2339
939.086	2791
939.180	4526
939.274	5705
939.367	3267
939.461	1886
939.554	1017
939.648	491
939.741	1780
939.835	1269
939.928	1171
940.022	2323
940.115	1226
940.208	1627
940.302	1823
940.395	1647
940.488	1326
940.582	2013
940.675	1586
940.768	625
940.861	1460
940.954	1937
941.048	1516
941.141	1602
941.234	1911
941.327	3393
941.420	4161
941.513	1711
941.606	1865
941.699	2195
941.792	1455
941.885	1159
941.978	1947
942.071	538
942.164	622
942.257	1581
942.349	1761
942.442	1510
942.535	860
942.628	1561
942.721	854
942.813	56
942.906	2398
942.999	488
943.091	814
943.184	367
943.277	897
943.369	1374
943.462	742
943.554	2037
943.647	321
943.739	1439
943.832	1475
943.924	259
944.017	1669
944.109	328
944.201	834
944.294	851
944.386	922
944.478	1675
944.571	1130
944.663	823
944.755	1377
944.847	975
944.940	1560
945.032	-277
945.124	243
945.216	1776
945.308	1014
945.400	917
945.492	1580
945.584	1537
945.676	1728
945.768	768
945.860	1451
945.952	1435
946.044	1621
946.136	90
946.228	822
946.320	1065
946.412	1343
946.503	1320
946.595	978
946.687	736
946.779	413
946.870	1618
946.962	90
947.054	1257
947.145	1605
947.237	1373
947.329	1046
947.420	761
947.512	1821
947.603	1172
947.695	1028
947.786	1713
947.878	981
947.969	804
948.061	682
948.152	790
948.243	858
948.335	887
948.426	764
948.517	1211
948.609	954
948.700	730
948.791	648
948.882	913
948.973	1117
949.065	857
949.156	1378
949.247	168
949.338	1134
949.429	1277
949.520	1253
949.611	-249
949.702	1080
949.793	615
949.884	928
949.975	-281
950.066	662
950.157	660
950.247	443
950.338	492
950.429	237
950.520	1356
950.611	916
950.701	1257
950.792	954
950.883	1882
950.973	1448
951.064	1118
951.155	608
951.245	1198
951.336	1068
951.427	-146
951.517	1764
951.608	386
951.698	578
951.788	757
951.879	372
951.969	1118
952.060	344
952.150	-385
952.240	1265
952.331	-503
952.421	1430
952.511	1164
952.602	941
952.692	1077
952.782	723
952.872	703
952.962	952
953.052	323
953.143	-185
953.233	815
953.323	1531
953.413	465
953.503	813
953.593	599
953.683	773
953.773	634
953.863	525
953.953	101
954.042	750
954.132	1420
954.222	1968
954.312	1022
954.402	1228
954.492	1142
954.581	3093
954.671	1574
954.761	-828
954.850	1733
954.940	418
955.030	891
955.119	427
955.209	340
955.298	1205
955.388	233
955.477	2045
955.567	-51
955.656	775
955.746	1100
955.835	597
955.925	643
956.014	585
956.103	1336
956.193	514
956.282	821
956.371	1493
956.461	383
956.550	160
956.639	629
956.728	469
956.817	75
956.906	701
956.995	862
957.085	-157
957.174	1003
957.263	1039
957.352	-127
957.441	692
957.530	525
957.619	1553
957.708	1046
957.796	463
957.885	667
957.974	100
958.063	1314
958.152	18
958.241	415
958.329	692
958.418	1158
958.507	94
958.596	1641
958.684	969
958.773	2026
958.861	1315
958.950	1454
959.039	1529
959.127	1615
959.216	2520
959.304	1545
959.393	540
959.481	1299
959.570	2113
959.658	909
959.746	1743
959.835	2569
959.923	3299
960.011	2288
960.100	1856
960.188	1094
960.276	599
960.365	763
960.453	848
960.541	1102
960.629	766
960.717	595
960.805	171
960.893	2422
960.981	1148
961.069	879
961.158	809
961.245	1019
961.333	1104
961.421	888
961.509	1095
961.597	894
961.685	901
961.773	165
961.861	251
961.949	62
962.036	618
962.124	1272
962.212	684
962.299	-1186
962.387	181
962.475	1494
962.562	722
962.650	1468
962.738	522
962.825	979
962.913	856
963.000	1555
963.088	868
963.175	886
963.263	460
963.350	1226
963.438	1245
963.525	599
963.612	3104
963.700	6695
963.787	14282
963.874	6592
963.962	1182
964.049	904
964.136	769
964.223	-81
964.310	400
964.398	889
964.485	921
964.572	1884
964.659	3133
964.746	2056
964.833	1077
964.920	24
965.007	1066
965.094	819
965.181	442
965.268	583
965.355	432
965.441	756
965.528	-331
965.615	769
965.702	1632
965.789	363
965.875	1066
965.962	1313
966.049	302
966.136	434
966.222	-243
966.309	1165
966.395	127
966.482	901
966.569	489
966.655	436
966.742	-1136
966.828	-314
966.915	-303
967.001	565
967.087	281
967.174	772
967.260	1372
967.347	2091
967.433	4831
967.519	9412
967.605	3173
967.692	53
967.778	258
967.864	72
967.950	542
968.036	-179
968.123	1229
968.209	-382
968.295	16
968.381	939
968.467	1641
968.553	-972
968.639	1272
968.725	140
968.811	1972
968.897	1664
968.983	-110
969.069	-534
969.154	134
969.240	893
969.326	214
969.412	647
969.497	431
969.583	-153
969.669	1149
969.755	1116
969.840	-678
969.926	826
970.012	442
970.097	1469
970.183	300
970.268	1113
970.354	1756
970.439	1973
970.525	6212
970.610	1642
970.696	1767
970.781	527
970.866	-281
970.952	99
971.037	9
971.122	1082
971.208	-35
971.293	210
971.378	-701
971.463	562
971.549	2169
971.634	228
971.719	934
971.804	1448
971.889	1829
971.974	186
972.059	373
972.144	34
972.229	932
972.314	78
972.399	938
972.484	235
972.569	933
972.654	316
972.739	3140
972.824	2781
972.908	833
972.993	546
973.078	-155
973.163	436
973.247	-374
973.332	-1220
973.417	1124
973.501	-1146
973.586	109
973.671	500
973.755	138
973.840	839
973.924	1014
974.009	-28
974.093	67
974.178	1926
974.262	2219
974.346	1352
974.431	1004
974.515	433
974.600	376
974.684	635
974.768	-10
974.852	1119
974.937	-189
975.021	420
975.105	-497
975.189	-320
975.273	1031
975.358	89
975.442	-370
975.526	609
975.610	-471
975.694	-141
975.778	1137
975.862	-271
975.946	-1245
976.030	1463
976.114	72
976.198	532
976.281	227
976.365	77
976.449	-337
976.533	570
976.617	-606
976.700	440
976.784	673
976.868	-81
976.951	1535
977.035	1016
977.119	1006
977.202	129
977.286	183
977.369	-115
977.453	1299
977.536	-1126
977.620	65
977.703	1291
977.787	361
977.870	1089
977.953	934
978.037	-682
978.120	1231
978.203	874
978.287	2166
978.370	1294
978.453	528
978.536	-62
978.620	2062
978.703	2046
978.786	344
978.869	-220
978.952	-74
979.035	1097
979.118	1048
979.201	-730
979.284	867
979.367	-308
979.450	107
979.533	251
979.616	-378
979.699	91
979.782	336
979.865	-54
979.948	-257
980.030	-1109
980.113	131
980.196	-1842
980.279	371
980.361	-81
980.444	-425
980.526	69
980.609	-389
980.692	-197
980.774	-119
980.857	-1096
980.939	645
981.022	109
981.104	-377
981.187	341
981.269	262
981.352	-651
981.434	-203
981.516	-911
981.599	1422
981.681	605
981.763	-1
981.846	348
981.928	584
982.010	90
982.092	83
982.174	547
982.256	100
982.339	-295
982.421	643
982.503	123
982.585	-315
982.667	82
982.749	-23
982.831	-199
982.913	-920
982.995	427
983.077	116
983.158	1563
983.240	-893
983.322	-512
983.404	186
983.486	-1111
983.568	323
983.649	395
983.731	-76
983.813	-668
983.894	128
983.976	-824
984.058	-321
984.139	1405
984.221	-809
984.302	956
984.384	359
984.465	-800
984.547	-495
984.628	-473
984.710	763
984.791	-81
984.872	-14
984.954	-358
985.035	-21
985.116	-791
985.198	-114
985.279	969
985.360	-18
985.441	-106
985.522	-118
985.604	-802
985.685	-1684
985.766	1117
985.847	1760
985.928	-1076
986.009	-586
986.090	144
986.171	1039
986.252	-346
986.333	84
986.414	-41
986.495	-152
986.576	-175
986.656	118
986.737	-334
986.818	-421
986.899	-638
986.980	277
987.060	-193
987.141	-360
987.222	43
987.302	684
987.383	-115
987.464	-1201
987.544	156
987.625	-293
987.705	195
987.786	-630
987.866	-41
987.947	-710
988.027	241
988.108	-293
988.188	-233
988.268	431
988.349	66
988.429	-938
988.509	287
988.589	-527
988.670	-1557
988.750	324
988.830	-661
988.910	-169
988.990	141
989.070	-118
989.151	-142
989.231	-1375
989.311	215
989.391	-427
989.471	-595
989.551	-567
989.631	-357
989.711	268
989.791	-934
989.870	-681
989.950	692
990.030	-111
990.110	946
990.190	-1352
990.269	-545
990.349	-552
990.429	-312
990.509	-126
990.588	-1505
990.668	361
990.747	-466
990.827	-832
990.907	-556
990.986	-617
991.066	-92
991.145	-462
991.225	-899
991.304	-991
991.383	-587
991.463	-186
991.542	248
991.622	-853
991.701	-1385
991.780	-664
991.859	-396
991.939	-561
992.018	243
992.097	-305
992.176	165
992.256	-866
992.335	-1382
992.414	-38
992.493	-529
992.572	-558
992.651	756
992.730	82
992.809	-317
992.888	-507
992.967	-331
993.046	-570
993.125	-716
993.203	-328
993.282	-122
993.361	-829
993.440	-152
993.519	-1203
993.597	-296
993.676	-1303
993.755	18
993.834	-250
993.912	-1009
993.991	672
994.069	-990
994.148	-528
994.226	-1680
994.305	-193
994.384	-1043
994.462	80
994.540	-806
994.619	-594
994.697	-456
994.776	-1470
994.854	-558
994.932	-376
995.011	161
995.089	-490
995.167	-899
995.245	-360
995.324	-802
995.402	274
995.480	-480
995.558	-193
995.636	-1191
995.714	-889
995.792	77
995.870	-1416
995.948	-713
996.026	-824
996.104	-1470
996.182	-101
996.260	-654
996.338	386
996.416	-1309
996.494	-853
996.572	267
996.649	-1333
996.727	-1292
996.805	-1349
996.883	-530
996.960	-1258
997.038	-277
997.116	-160
997.193	-1871
997.271	-220
997.348	-566
997.426	512
997.504	-1439
997.581	-836
997.658	257
997.736	-1100
997.813	-1319
997.891	559
997.968	-621
998.046	-631
998.123	-63
998.200	-168
998.277	-960
998.355	37
998.432	-2638
998.509	-931
998.586	288
998.663	-545
998.741	-759
998.818	-1245
998.895	-880
998.972	-740
999.049	-993
999.126	-896
999.203	-458
999.280	-915
999.357	-252
999.434	-546
999.511	-1174
999.587	-1025
999.664	-764
999.741	-793
999.818	-625
999.895	-522
999.971	-1552
1000.048	-465
1000.125	-429
1000.202	-744
1000.278	-1492
1000.355	-110
1000.431	-1421
1000.508	-1220
1000.584	-386
1000.661	-1116
1000.738	-1085
1000.814	-1035
1000.890	-223
1000.967	-829
1001.043	-1119
1001.120	-1915
1001.196	-834
1001.272	-2096
1001.349	-1335
1001.425	82
1001.501	-559
1001.577	-1929
1001.654	-256
1001.730	-1027
1001.806	-710
1001.882	-1375
1001.958	-1194
1002.034	-636
1002.110	-898
1002.186	-859
1002.262	-1163
1002.338	-1740
1002.414	-940
1002.490	-470
1002.566	-1008
1002.642	-1247
1002.718	-757
1002.794	-421
1002.870	-392
1002.945	-1044
1003.021	-1311
1003.097	-597
1003.173	80
1003.248	-1315
1003.324	-587
1003.400	-567
1003.475	-980
1003.551	-1424
1003.626	-812
1003.702	-843
1003.777	-872
1003.853	-646
1003.928	-1334
1004.004	-1533
1004.079	-1452
1004.155	-998
1004.230	-1907
1004.305	-162
1004.381	-1468
1004.456	-826
1004.531	-1184
1004.607	-708
1004.682	-407
1004.757	-666
1004.832	-773
1004.907	-957
1004.982	-1031
1005.057	-982
1005.133	-696
1005.208	-1194
1005.283	-1632
1005.358	-672
1005.433	-1195
1005.508	-5
1005.583	-1246
1005.657	-1136
1005.732	-239
1005.807	-603
1005.882	-1383
1005.957	-915
1006.032	-797
1006.106	-1054
1006.181	-383
1006.256	-1191
1006.331	-2296
1006.405	-963
1006.480	-932
1006.554	-453
1006.629	-478
1006.704	-642
1006.778	-1352
1006.853	-412
1006.927	-875
1007.002	-1857
1007.076	-562
1007.150	-1358
1007.225	-857
1007.299	-872
1007.373	-1449
1007.448	-496
1007.522	-708
1007.596	-325
1007.671	-1765
1007.745	-360
1007.819	-2067
1007.893	-1263
1007.967	-1177
1008.041	-2053
1008.115	-1086
1008.190	-1120
1008.264	-1296
1008.338	-1639
1008.412	-1188
1008.486	-481
1008.560	-1620
1008.633	-1598
1008.707	-1737
1008.781	-1142
1008.855	-1253
1008.929	-679
1009.003	-1600
1009.076	-1036
1009.150	-1203
1009.224	-1911
1009.298	-516
1009.371	-2189
1009.445	-623
1009.519	-669
1009.592	-1822
1009.666	-511
1009.739	-770
1009.813	-1852
1009.886	-290
1009.960	-1294
1010.033	-199
1010.107	-1008
1010.180	-1752
1010.253	-637
1010.327	-1089
1010.400	-1135
1010.473	-960
1010.547	375
1010.620	-1375
1010.693	-842
1010.766	-1761
1010.840	-1212
1010.913	-1127
1010.986	-935
1011.059	-1037
1011.132	-334
1011.205	38
1011.278	-735
1011.351	-974
1011.424	-707
1011.497	-798
1011.570	-335
1011.643	-1182
1011.716	-1375
1011.789	-1043
1011.862	-429
1011.934	-236
1012.007	-2430
1012.080	-628
1012.153	-1245
1012.225	-1031
1012.298	-869
1012.371	-1779
1012.443	-1096
1012.516	-1388
1012.588	-563
1012.661	-1276
1012.733	-1328
1012.806	-772
1012.879	-1419
1012.951	-1175
1013.023	-914
1013.096	-1314
1013.168	-2158
1013.241	-442
1013.313	-1524
1013.385	-1943
1013.458	-568
1013.530	-766
1013.602	-1944
1013.674	-566
1013.746	-2092
1013.819	-1620
1013.891	-362
1013.963	-1837
1014.035	-610
1014.107	-946
1014.179	-799
1014.251	-1473
1014.323	-1623
1014.395	-1420
1014.467	-814
1014.539	-1668
1014.611	-1723
1014.683	-1054
1014.754	-954
1014.826	-1871
1014.898	-327
1014.970	-2402
1015.042	-621
1015.113	-1677
1015.185	-1040
1015.257	-1889
1015.328	-249
1015.400	-2237
1015.471	-545
1015.543	-2202
1015.615	-1563
1015.686	-1249
1015.757	-1021
1015.829	-768
1015.901	-1102
1015.972	-1798
1016.043	-1348
1016.115	-1310
1016.186	-1646
1016.257	-1871
1016.328	-361
1016.400	45
1016.471	-1840
1016.542	-1221
1016.613	-817
1016.685	-1589
1016.756	-1437
1016.827	-619
1016.898	-1865
1016.969	-1804
1017.040	-1865
1017.111	-1630
1017.182	-1905
1017.253	-1183
1017.324	-1700
1017.395	-1772
1017.466	-1318
1017.537	-1150
1017.608	-1547
1017.678	-1265
1017.749	-1405
1017.820	-1174
1017.891	-1614
1017.961	-1618
1018.032	-892
1018.103	-1127
1018.173	-1799
1018.244	-2142
1018.315	-1151
1018.385	-1023
1018.456	-1385
1018.526	-1782
1018.597	-1525
1018.667	-1560
1018.738	-1876
1018.808	-1319
1018.878	-2263
1018.949	-1808
1019.019	-1644
1019.089	-1555
1019.160	-1474
1019.230	-1372
1019.300	-1614
1019.371	-2428
1019.441	-170
1019.511	-1828
1019.581	-1861
1019.651	-1952
1019.721	-838
1019.791	-1153
1019.861	-1301
1019.931	-1121
1020.001	-1548
1020.071	-1058
1020.141	-1087
1020.211	-2132
1020.281	-1211
1020.351	-1637
1020.421	-1282
1020.491	-1023
1020.560	-1792
1020.630	-1809
1020.700	-1771
1020.770	-2189
1020.839	-1948
1020.909	-1685
1020.979	-1465
1021.048	-2671
1021.118	-2058
1021.187	-1521
1021.257	-1221
1021.326	-1501
1021.396	-2062
1021.465	-1018
1021.535	-1790
1021.604	-2896
1021.674	-1223
1021.743	-1275
1021.812	-1990
1021.882	-1567
1021.951	-1653
1022.020	-1357
1022.089	-1858
1022.159	-2128
1022.228	-817
1022.297	-1548
1022.366	-1950
1022.435	-1871
1022.504	-1255
1022.573	-2144
1022.642	-1510
1022.711	-2463
1022.781	-1579
1022.849	-1102
1022.918	-1848
1022.987	-1448
1023.056	-1506
1023.125	-1615
1023.194	-844
1023.263	-1700
1023.331	-1661
1023.400	-2229
1023.469	-1801
1023.538	-1438
1023.606	-942
1023.675	-2602
1023.744	-1783
1023.812	-2167
1023.881	-1389
1023.949	-1803
1024.018	-2102
1024.086	-1997
1024.155	-812
1024.223	-1605
1024.292	-1614
1024.360	-1559
1024.429	-1162
1024.497	-2428
1024.565	-1335
1024.634	-2666
1024.702	-1641
1024.770	-729
1024.838	-2087
1024.907	-1618
1024.975	-1614
1025.043	-1418
1025.111	-1174
1025.179	-872
1025.247	-1542
1025.315	-2254
1025.383	-2106
1025.451	-1579
1025.519	-1830
1025.587	-2327
1025.655	-2292
1025.723	-1754
1025.791	-1914
1025.859	-2024
1025.927	-1452
1025.995	-2617
1026.062	-2137
1026.130	-1661
1026.198	-2142
1026.266	-1919
1026.333	-1306
1026.401	-936
1026.469	-1552
1026.536	-1320
1026.604	-2009
1026.671	-1857
1026.739	-2231
1026.806	-1461
1026.874	-1977
1026.941	-2000
1027.009	-1553
1027.076	-2462
1027.144	-1692
1027.211	-1485
1027.278	-2174
1027.345	-1899
1027.413	-1581
1027.480	-2502
1027.547	-1370
1027.614	-1584
1027.682	-1480
1027.749	-2371
1027.816	-1500
1027.883	-1083
1027.950	-1546
1028.017	-1967
1028.084	-1052
1028.151	-1998
1028.218	-1684
1028.285	-2007
1028.352	-1577
1028.419	-2380
1028.486	-1831
1028.553	-1676
1028.619	-1623
1028.686	-2093
1028.753	-1799
1028.820	-2354
1028.886	-2107
1028.953	-1863
1029.020	-1350
1029.086	-1940
1029.153	-1053
1029.220	-1536
1029.286	-1621
1029.353	-1672
1029.419	-1424
1029.486	-2356
1029.552	-1420
1029.619	-2275
1029.685	-2348
1029.751	-2364
1029.818	-1236
1029.884	-1903
1029.951	-849
1030.017	-2026
1030.083	-2292
1030.149	-1431
1030.216	-2288
1030.282	-2442
1030.348	-2313
1030.414	-1981
1030.480	-2253
1030.546	-2218
1030.612	-1625
1030.678	-1947
1030.744	-1838
1030.810	-1590
1030.876	-1453
1030.942	-2816
1031.008	-1663
1031.074	-2856
1031.140	-2271
1031.206	-1983
1031.272	-3192
1031.337	-1646
1031.403	-1334
1031.469	-2293
1031.534	-2692
1031.600	-1635
1031.666	-2213
1031.731	-1511
1031.797	-1443
1031.863	-2664
1031.928	-1902
1031.994	-1864
1032.059	-2333
1032.125	-1363
1032.190	-1793
1032.256	-2266
1032.321	-2467
1032.386	-1193
1032.452	-1532
1032.517	-1888
1032.582	-2170
1032.647	-1937
1032.713	-2429
1032.778	-1564
1032.843	-1146
1032.908	-2132
1032.974	-1705
1033.039	-2166
1033.104	-1267
1033.169	-2010
1033.234	-1467
1033.299	-854
1033.364	-2188
1033.429	-1392
1033.494	-1132
1033.559	-2080
1033.624	-2104
1033.688	-1632
1033.753	-2323
1033.818	-2623
1033.883	-1765
1033.948	-2070
1034.013	-2052
1034.077	-1954
1034.142	-774
1034.207	-2493
1034.271	-1358
1034.336	-1080
1034.400	-532
1034.465	-1263
1034.530	-986
1034.594	-1654
1034.658	-970
1034.723	-1798
1034.787	-1039
1034.852	-2530
1034.916	-2277
1034.981	-1909
1035.045	-2191
1035.109	-2085
1035.173	-1148
1035.238	-2450
1035.302	-1224
1035.366	-2564
1035.430	-2522
1035.495	-2376
1035.559	-2707
1035.623	-1598
1035.687	-2217
1035.751	-2333
1035.815	-1702
1035.879	-2104
1035.943	-1947
1036.007	-2421
1036.071	-1822
1036.135	-2617
1036.198	-1470
1036.262	-2029
1036.326	-1170
1036.390	-1989
1036.454	-1886
1036.517	-1743
1036.581	-1960
1036.645	-2216
1036.709	-774
1036.772	-2297
1036.836	-1303
1036.900	-1137
1036.963	-1860
1037.026	-1831
1037.090	-2416
1037.154	-1935
1037.217	-2117
1037.280	-2014
1037.344	-1783
1037.407	-1782
1037.471	-1939
1037.534	-1587
1037.597	-1458
1037.661	-2074
1037.724	-1938
1037.787	-2474
1037.850	-2438
1037.913	-1934
1037.977	-1530
1038.040	-1625
1038.103	-2206
1038.166	-1734
1038.229	-2436
1038.292	-2180
1038.355	-2104
1038.418	-1583
1038.481	-2178
1038.544	-2532
1038.607	-1417
1038.670	-1645
1038.732	-2087
1038.795	-2642
1038.858	-2348
1038.921	-2213
1038.984	-2313
1039.046	-2456
1039.109	-2294
1039.172	-2731
1039.234	-2163
1039.297	-2217
1039.360	-1775
1039.422	-1408
1039.485	-1891
1039.547	-1749
1039.610	-1738
1039.672	-1585
1039.734	-1619
1039.797	-1800
1039.859	-2075
1039.922	-2777
1039.984	-2427
1040.046	-1890
1040.109	-1722
1040.171	-1970
1040.233	-768
1040.295	-1623
1040.358	-1878
1040.420	-2379
1040.482	-1934
1040.544	-2163
1040.606	-1436
1040.668	-2002
1040.730	-1993
1040.792	-2398
1040.854	-2293
1040.916	-2363
1040.978	-1339
1041.040	-1707
1041.102	-2279
1041.164	-2291
1041.225	-1759
1041.287	-2473
1041.349	-1736
1041.411	-1876
1041.472	-2118
1041.534	-2094
1041.596	-1679
1041.657	-2494
1041.719	-1969
1041.781	-2514
1041.842	-1978
1041.904	-2010
1041.965	-2650
1042.027	-2101
1042.088	-1649
1042.150	-1983
1042.211	-2210
1042.272	-1781
1042.334	-2226
1042.395	-2075
1042.456	-1799
1042.518	-1751
1042.579	-1753
1042.640	-2103
1042.701	-2522
1042.763	-2072
1042.824	-2350
1042.885	-2581
1042.946	-2304
1043.007	-2411
1043.068	-2132
1043.129	-2260
1043.190	-2441
1043.251	-2324
1043.312	-2525
1043.373	-1666
1043.434	-2534
1043.495	-1806
1043.556	-1656
1043.616	-2181
1043.677	-2684
1043.738	-2526
1043.799	-1669
1043.859	-1468
1043.920	-1463
1043.981	-2433
1044.041	-1498
1044.102	-2026
1044.162	-2304
1044.223	-2484
1044.284	-1825
1044.344	-2450
1044.405	-1212
1044.465	-2375
1044.525	-1887
1044.586	-1221
1044.646	-1796
1044.707	-1390
1044.767	-2217
1044.827	-1932
1044.887	-1367
1044.948	-2292
1045.008	-1581
1045.068	-1611
1045.128	-1277
1045.188	-1697
1045.249	-1256
1045.309	-2121
1045.369	-741
1045.429	-2398
1045.489	-1758
1045.549	-2227
1045.609	-1790
1045.669	-1907
1045.729	-1309
1045.789	-2319
1045.848	-1626
1045.908	-1428
1045.968	-1690
1046.028	-2068
1046.088	-1583
1046.147	-973
1046.207	-1482
1046.267	-2214
1046.326	-1558
1046.386	-1617
1046.446	-844
1046.505	-1839
1046.565	-1060
1046.624	-1489
1046.684	-959
1046.743	-361
1046.803	-952
1046.862	-1065
1046.922	0
