'Start Wavelength	183.907
'End Wavelength	1046.922
'Gate Delay	5.000
'Gate Width (ms)	1.050
'Laser Output Level	0.000
'X Position	0.000
'Y Position	0.000
'Z Position	0.000
'Grid Point Number	1.000
'Shot Number	100.000
183.907	662.000
183.977	-183.000
184.047	41
184.116	687
184.186	964
184.256	352
184.325	-65
184.395	-780
184.465	1099
184.534	459
184.604	-52
184.674	193
184.743	162
184.813	1096
184.883	392
184.952	1339
185.022	328
185.092	538
185.161	758
185.231	516
185.301	154
185.370	592
185.440	-15
185.509	178
185.579	790
185.649	972
185.718	369
185.788	868
185.857	-20
185.927	437
185.996	493
186.066	331
186.136	178
186.205	327
186.275	691
186.344	643
186.414	-25
186.483	-406
186.553	806
186.622	1265
186.692	741
186.761	529
186.831	-172
186.900	-269
186.970	427
187.039	1177
187.109	1332
187.178	822
187.248	-71
187.317	1047
187.387	494
187.456	1565
187.526	1071
187.595	1562
187.664	1575
187.734	279
187.803	1034
187.873	1302
187.942	2120
188.012	688
188.081	915
188.150	321
188.220	271
188.289	712
188.358	1743
188.428	443
188.497	80
188.567	978
188.636	437
188.705	1316
188.775	328
188.844	188
188.913	1642
188.983	395
189.052	470
189.121	595
189.191	1516
189.260	1801
189.329	1590
189.399	778
189.468	861
189.537	1009
189.606	1053
189.676	1764
189.745	1321
189.814	1374
189.883	1022
189.953	475
190.022	1676
190.091	5746
190.161	6306
190.230	2505
190.299	896
190.368	900
190.437	416
190.507	1390
190.576	1988
190.645	1196
190.714	713
190.783	810
190.853	1665
190.922	1851
190.991	1650
191.060	2016
191.129	2267
191.198	1964
191.268	1284
191.337	1134
191.406	1576
191.475	447
191.544	516
191.613	1459
191.682	401
191.752	936
191.821	760
191.890	1525
191.959	1911
192.028	1899
192.097	664
192.166	1309
192.235	431
192.304	1197
192.373	75
192.442	941
192.511	848
192.580	1226
192.650	772
192.719	1813
192.788	1556
192.857	1108
192.926	1592
192.995	1804
193.064	2444
193.133	3564
193.202	3836
193.271	3633
193.340	2521
193.409	2881
193.478	3415
193.547	4234
193.615	5241
193.684	5263
193.753	3594
193.822	3126
193.891	1814
193.960	2167
194.029	1561
194.098	1798
194.167	743
194.236	1566
194.305	1188
194.374	1071
194.443	1307
194.512	1731
194.580	1464
194.649	1659
194.718	2104
194.787	1654
194.856	1349
194.925	1272
194.994	1058
195.062	1894
195.131	912
195.200	2219
195.269	2174
195.338	1618
195.407	1599
195.475	1836
195.544	2605
195.613	1417
195.682	990
195.751	1834
195.819	2204
195.888	2719
195.957	2113
196.026	2380
196.094	2567
196.163	2359
196.232	2331
196.301	1747
196.369	1946
196.438	1859
196.507	1556
196.576	1684
196.644	1668
196.713	1704
196.782	1104
196.850	2019
196.919	1554
196.988	1995
197.056	813
197.125	1889
197.194	2366
197.262	1472
197.331	1113
197.400	2044
197.468	1417
197.537	1711
197.606	1698
197.674	4517
197.743	7067
197.812	3459
197.880	7235
197.949	4497
198.017	7083
198.086	4027
198.155	2179
198.223	3015
198.292	7994
198.360	4862
198.429	2750
198.497	3092
198.566	5552
198.635	8810
198.703	2909
198.772	3654
198.840	10216
198.909	9829
198.977	3559
199.046	3451
199.114	3190
199.183	2327
199.251	1714
199.320	1556
199.388	1394
199.457	1513
199.525	2402
199.594	2057
199.662	1722
199.731	2293
199.799	2029
199.867	2280
199.936	1481
200.004	2131
200.073	2156
200.141	1595
200.210	1971
200.278	2141
200.346	1846
200.415	2357
200.483	2309
200.552	2908
200.620	1329
200.688	2013
200.757	1831
200.825	2423
200.893	2967
200.962	2772
201.030	1328
201.098	2960
201.167	2901
201.235	1820
201.303	1938
201.372	2765
201.440	2476
201.508	2467
201.577	2072
201.645	2613
201.713	2610
201.781	3048
201.850	2639
201.918	2561
201.986	2260
202.055	1715
202.123	1840
202.191	2991
202.259	2407
202.327	2867
202.396	1744
202.464	2538
202.532	3079
202.600	8220
202.669	4095
202.737	2607
202.805	2644
202.873	3239
202.941	2804
203.009	2692
203.078	2247
203.146	2140
203.214	3309
203.282	2145
203.350	3010
203.418	2242
203.487	2440
203.555	1867
203.623	2619
203.691	3694
203.759	2204
203.827	2220
203.895	3717
203.963	3374
204.031	2434
204.099	3101
204.168	3413
204.236	3077
204.304	3052
204.372	2773
204.440	2811
204.508	3381
204.576	2116
204.644	3497
204.712	1831
204.780	2763
204.848	2814
204.916	2314
204.984	2805
205.052	3304
205.120	3037
205.188	3341
205.256	3095
205.324	3304
205.392	3443
205.460	4099
205.528	3266
205.596	3629
205.664	4317
205.732	4412
205.799	10009
205.867	15569
205.935	5026
206.003	4218
206.071	3219
206.139	3689
206.207	4310
206.275	3648
206.343	3911
206.411	3640
206.478	3094
206.546	3577
206.614	3593
206.682	3669
206.750	2319
206.818	3252
206.885	3782
206.953	2385
207.021	3862
207.089	3609
207.157	2702
207.225	4555
207.292	3436
207.360	4013
207.428	3946
207.496	2758
207.563	3152
207.631	4138
207.699	2620
207.767	3600
207.834	3116
207.902	3069
207.970	2640
208.038	4299
208.105	4517
208.173	3966
208.241	5360
208.309	5030
208.376	4721
208.444	7259
208.512	4540
208.579	3690
208.647	3421
208.715	3664
208.782	3279
208.850	4522
208.918	4233
208.985	4119
209.053	3465
209.120	4007
209.188	3858
209.256	4005
209.323	3950
209.391	5858
209.459	4680
209.526	4460
209.594	4134
209.661	4071
209.729	4369
209.796	4642
209.864	4515
209.932	2830
209.999	4598
210.067	5060
210.134	3986
210.202	5237
210.269	5513
210.337	5150
210.404	4263
210.472	4577
210.539	5045
210.607	4587
210.674	5881
210.742	4549
210.809	4231
210.877	4591
210.944	5517
211.012	3415
211.079	5672
211.146	4112
211.214	4319
211.281	4829
211.349	4766
211.416	5148
211.484	5690
211.551	4870
211.618	5072
211.686	5162
211.753	4411
211.821	4679
211.888	4788
211.955	5037
212.023	5509
212.090	5017
212.157	5926
212.225	6843
212.292	10698
212.359	19659
212.427	50652
212.494	22157
212.561	9839
212.629	6840
212.696	6610
212.763	7100
212.831	4918
212.898	6972
212.965	5735
213.032	5603
213.100	5722
213.167	6675
213.234	6191
213.301	6218
213.369	5596
213.436	5979
213.503	5196
213.570	5972
213.638	5589
213.705	5167
213.772	5259
213.839	7128
213.906	6419
213.973	6442
214.041	5158
214.108	5185
214.175	5461
214.242	5516
214.309	5268
214.376	6483
214.444	5589
214.511	6162
214.578	6034
214.645	5753
214.712	7138
214.779	6997
214.846	5147
214.913	7731
214.980	7818
215.048	8139
215.115	7920
215.182	6076
215.249	6159
215.316	5302
215.383	5550
215.450	5676
215.517	5194
215.584	6121
215.651	5321
215.718	5351
215.785	5465
215.852	6157
215.919	7603
215.986	5807
216.053	5033
216.120	4747
216.187	6238
216.254	6456
216.321	6366
216.388	5688
216.455	6007
216.522	5799
216.589	6763
216.656	11111
216.722	11684
216.789	9093
216.856	9180
216.923	8406
216.990	8530
217.057	7432
217.124	9385
217.191	8544
217.258	9518
217.324	12301
217.391	11978
217.458	10597
217.525	8384
217.592	7885
217.659	7273
217.725	7314
217.792	10359
217.859	8737
217.926	5485
217.993	4532
218.059	5291
218.126	5069
218.193	5045
218.260	4543
218.327	4463
218.393	5083
218.460	4957
218.527	4893
218.594	5029
218.660	8917
218.727	8520
218.794	4953
218.860	5042
218.927	3838
218.994	4667
219.061	4974
219.127	5668
219.194	7269
219.261	5170
219.327	3939
219.394	4415
219.461	3650
219.527	3802
219.594	7145
219.661	4971
219.727	4363
219.794	4574
219.860	4153
219.927	5312
219.994	6007
220.060	9700
220.127	8317
220.193	7449
220.260	8075
220.326	11599
220.393	16891
220.460	19454
220.526	13073
220.593	10090
220.659	11519
220.726	11268
220.792	25748
220.859	23056
220.925	25595
220.992	30119
221.058	33889
221.125	32911
221.191	26084
221.258	11405
221.324	8411
221.391	7761
221.457	7412
221.524	7429
221.590	10452
221.657	29704
221.723	20928
221.789	19080
221.856	16405
221.922	8795
221.989	7655
222.055	5765
222.121	5254
222.188	7715
222.254	6127
222.321	5177
222.387	4124
222.453	4779
222.520	5540
222.586	3172
222.652	4986
222.719	5068
222.785	4825
222.851	3827
222.918	4096
222.984	5300
223.050	5758
223.116	4796
223.183	5356
223.249	3082
223.315	3100
223.382	3667
223.448	3512
223.514	3512
223.580	3928
223.647	3500
223.713	3239
223.779	3819
223.845	4768
223.911	4534
223.978	3290
224.044	3342
224.110	3552
224.176	4300
224.242	3282
224.309	2829
224.375	3205
224.441	2901
224.507	2888
224.573	2946
224.639	3921
224.705	2384
224.772	3637
224.838	2563
224.904	5471
224.970	3746
225.036	4750
225.102	3602
225.168	3684
225.234	3213
225.300	4209
225.366	3553
225.432	3802
225.499	4160
225.565	4241
225.631	4380
225.697	5327
225.763	5643
225.829	7336
225.895	6387
225.961	10336
226.027	9317
226.093	10017
226.159	12014
226.225	16354
226.291	33382
226.357	47920
226.423	27695
226.489	16660
226.554	11377
226.620	11401
226.686	13783
226.752	21626
226.818	34087
226.884	61252
226.950	52739
227.016	25041
227.082	15414
227.148	10800
227.214	11110
227.279	10429
227.345	9888
227.411	6974
227.477	5847
227.543	6987
227.609	8338
227.674	9550
227.740	6351
227.806	6241
227.872	5491
227.938	6067
228.003	11057
228.069	6517
228.135	4397
228.201	5456
228.267	4182
228.332	5308
228.398	6455
228.464	5291
228.530	4110
228.595	4884
228.661	3323
228.727	6638
228.792	6542
228.858	3809
228.924	3560
228.990	6818
229.055	4354
229.121	6154
229.187	4348
229.252	5248
229.318	3395
229.384	5345
229.449	5694
229.515	2451
229.581	2546
229.646	4430
229.712	4531
229.777	9846
229.843	10831
229.909	8312
229.974	9226
230.040	8778
230.105	6614
230.171	6475
230.236	10752
230.302	15243
230.368	9892
230.433	7185
230.499	6721
230.564	10345
230.630	5710
230.695	5533
230.761	5743
230.826	4382
230.892	7882
230.957	4421
231.023	4477
231.088	5329
231.154	4878
231.219	5101
231.284	6771
231.350	7364
231.415	3844
231.481	5580
231.546	4226
231.612	4582
231.677	3926
231.742	4128
231.808	5033
231.873	3938
231.939	2538
232.004	7888
232.069	7345
232.135	5157
232.200	5088
232.265	4211
232.331	3691
232.396	2839
232.461	3491
232.527	3756
232.592	3689
232.657	4239
232.723	7868
232.788	7033
232.853	5151
232.918	4266
232.984	3318
233.049	3951
233.114	8008
233.179	7275
233.245	11991
233.310	14391
233.375	4284
233.440	5164
233.506	5345
233.571	4524
233.636	3960
233.701	4735
233.766	9240
233.832	11210
233.897	4906
233.962	4438
234.027	6204
234.092	6605
234.157	4800
234.222	5319
234.288	9446
234.353	29659
234.418	23073
234.483	12843
234.548	9594
234.613	7422
234.678	7924
234.743	8166
234.808	28613
234.873	18902
234.938	8998
235.004	6831
235.069	5862
235.134	5835
235.199	6354
235.264	5779
235.329	4863
235.394	6143
235.459	8022
235.524	7476
235.589	6142
235.654	5216
235.719	4407
235.784	6152
235.849	7626
235.913	15224
235.978	16585
236.043	18154
236.108	8167
236.173	8419
236.238	9313
236.303	6807
236.368	7004
236.433	12353
236.498	20864
236.563	15494
236.627	29683
236.692	83914
236.757	68780
236.822	30966
236.887	22989
236.952	17638
237.017	14981
237.081	16805
237.146	21049
237.211	44315
237.276	87178
237.341	129982
237.405	67277
237.470	29129
237.535	20395
237.600	13949
237.664	11579
237.729	10299
237.794	14023
237.859	25953
237.923	18285
237.988	11007
238.053	15612
238.118	14829
238.182	41948
238.247	35204
238.312	16649
238.376	12437
238.441	10311
238.506	9573
238.570	5529
238.635	7037
238.700	5623
238.764	6076
238.829	18384
238.893	21170
238.958	9761
239.023	9171
239.087	6630
239.152	7383
239.216	4490
239.281	6205
239.346	5986
239.410	6339
239.475	7645
239.539	38845
239.604	28349
239.668	9819
239.733	6664
239.797	5934
239.862	9051
239.926	25915
239.991	11260
240.055	7011
240.120	5762
240.184	6820
240.249	5155
240.313	5588
240.378	5829
240.442	22232
240.507	36256
240.571	11663
240.635	17609
240.700	19652
240.764	7053
240.829	5504
240.893	4508
240.957	6636
241.022	21240
241.086	35303
241.151	15987
241.215	5702
241.279	10040
241.344	17784
241.408	9710
241.472	7029
241.537	8339
241.601	7787
241.665	6140
241.730	7137
241.794	8079
241.858	7608
241.922	6834
241.987	6429
242.051	6293
242.115	6993
242.179	6510
242.244	5712
242.308	6582
242.372	8168
242.436	11416
242.501	7724
242.565	5645
242.629	5477
242.693	7611
242.757	5632
242.822	7350
242.886	7526
242.950	8219
243.014	8506
243.078	7713
243.142	7179
243.206	6914
243.271	8823
243.335	10071
243.399	14545
243.463	52033
243.527	122998
243.591	38439
243.655	15424
243.719	9301
243.783	10467
243.847	16560
243.911	20757
243.975	20441
244.040	14674
244.104	9795
244.168	7746
244.232	10057
244.296	14364
244.360	16985
244.424	10275
244.488	8557
244.552	8471
244.615	5442
244.679	6297
244.743	7734
244.807	7244
244.871	5636
244.935	5688
244.999	4366
245.063	6456
245.127	7041
245.191	12503
245.255	12564
245.319	9035
245.383	6592
245.446	7493
245.510	4684
245.574	6084
245.638	6603
245.702	5506
245.766	15241
245.829	10615
245.893	7951
245.957	7273
246.021	8323
246.085	8517
246.149	10509
246.212	22441
246.276	33753
246.340	15005
246.404	10658
246.467	11563
246.531	16337
246.595	12056
246.659	10486
246.722	9057
246.786	10387
246.850	11690
246.913	13797
246.977	6553
247.041	9176
247.104	9567
247.168	8545
247.232	20083
247.295	46859
247.359	21577
247.423	10456
247.486	17425
247.550	10968
247.614	9141
247.677	10800
247.741	8621
247.804	8551
247.868	10449
247.932	19462
247.995	41937
248.059	16297
248.122	9603
248.186	12351
248.249	20207
248.313	75284
248.376	70685
248.440	45726
248.503	16015
248.567	14082
248.630	19474
248.694	24896
248.757	32171
248.821	80671
248.884	40979
248.948	40531
249.011	56992
249.075	91091
249.138	72048
249.202	25810
249.265	19362
249.328	28345
249.392	17803
249.455	14700
249.519	12042
249.582	14240
249.645	22417
249.709	18193
249.772	19317
249.835	15245
249.899	16942
249.962	14031
250.025	11669
250.089	29599
250.152	36196
250.215	18637
250.279	15190
250.342	15458
250.405	15954
250.468	15638
250.532	19552
250.595	30754
250.658	125162
250.721	193755
250.785	63952
250.848	31722
250.911	20758
250.974	19093
251.038	26486
251.101	49603
251.164	28076
251.227	27872
251.290	26806
251.354	42182
251.417	177173
251.480	162095
251.543	113622
251.606	311838
251.669	217772
251.732	83918
251.795	75256
251.859	78856
251.922	194665
251.985	103914
252.048	43533
252.111	31411
252.174	27109
252.237	45168
252.300	96616
252.363	112571
252.426	238025
252.489	97199
252.552	56900
252.615	39530
252.678	35180
252.741	76550
252.804	111822
252.867	246591
252.930	130763
252.993	67577
253.056	37252
253.119	32176
253.182	26181
253.245	41894
253.308	30356
253.371	26452
253.434	27422
253.497	26242
253.559	43604
253.622	30259
253.685	32528
253.748	29624
253.811	17058
253.874	25273
253.937	23106
254.000	15125
254.062	27796
254.125	43338
254.188	42299
254.251	30647
254.314	17118
254.376	26895
254.439	26938
254.502	22039
254.565	29719
254.628	46374
254.690	25691
254.753	14773
254.816	12829
254.878	15714
254.941	33029
255.004	31865
255.067	14527
255.129	12978
255.192	9212
255.255	7529
255.317	9887
255.380	7165
255.443	6338
255.505	7392
255.568	8783
255.631	8645
255.693	8839
255.756	6798
255.819	7348
255.881	5553
255.944	6949
256.006	7510
256.069	7119
256.132	6532
256.194	11178
256.257	29815
256.319	20421
256.382	19614
256.444	11604
256.507	9787
256.569	9404
256.632	11424
256.694	20434
256.757	48403
256.819	129040
256.882	54831
256.944	23341
257.007	16583
257.069	17182
257.132	14075
257.194	12430
257.257	12206
257.319	12144
257.381	15916
257.444	38663
257.506	153003
257.569	151947
257.631	67712
257.693	34852
257.756	20510
257.818	18900
257.880	11726
257.943	10807
258.005	9920
258.067	10528
258.130	10415
258.192	11143
258.254	20547
258.317	13599
258.379	9815
258.441	23796
258.503	21480
258.566	36442
258.628	44676
258.690	11966
258.753	11582
258.815	17440
258.877	11363
258.939	9140
259.001	9063
259.064	9940
259.126	11129
259.188	16023
259.250	11734
259.312	12728
259.375	28790
259.437	18507
259.499	9734
259.561	8292
259.623	10845
259.685	12609
259.747	11736
259.809	36092
259.872	63495
259.934	99486
259.996	86902
260.058	25669
260.120	11594
260.182	9209
260.244	8385
260.306	7559
260.368	8583
260.430	9376
260.492	24725
260.554	39035
260.616	21912
260.678	44092
260.740	61329
260.802	16196
260.864	12374
260.926	9733
260.988	11018
261.050	11446
261.112	36260
261.174	83790
261.236	52806
261.298	16463
261.359	28766
261.421	39449
261.483	11120
261.545	10620
261.607	7024
261.669	9474
261.731	18242
261.793	38478
261.854	15502
261.916	11011
261.978	14614
262.040	15540
262.102	9966
262.164	16769
262.225	12774
262.287	8373
262.349	18850
262.411	14373
262.472	9497
262.534	20113
262.596	39150
262.658	13248
262.719	8832
262.781	13232
262.843	39283
262.904	16973
262.966	14365
263.028	17285
263.090	82294
263.151	199023
263.213	63022
263.275	34164
263.336	14816
263.398	10023
263.459	8463
263.521	9068
263.583	17798
263.644	12864
263.706	6971
263.767	5558
263.829	6302
263.891	5374
263.952	5987
264.014	6150
264.075	18379
264.137	43219
264.198	15835
264.260	7912
264.321	7521
264.383	22313
264.444	57997
264.506	19765
264.567	12311
264.629	26075
264.690	55679
264.752	17578
264.813	10043
264.875	7911
264.936	9333
264.998	8622
265.059	7031
265.120	8909
265.182	14360
265.243	68972
265.305	65649
265.366	17211
265.427	10677
265.489	9579
265.550	5473
265.611	8788
265.673	8574
265.734	9277
265.795	6835
265.857	7795
265.918	10128
265.979	20979
266.040	110090
266.102	87366
266.163	27484
266.224	20309
266.286	11373
266.347	7918
266.408	7572
266.469	9867
266.530	7610
266.592	6064
266.653	11194
266.714	18034
266.775	7759
266.836	6181
266.898	5000
266.959	14752
267.020	9923
267.081	7289
267.142	5701
267.203	6302
267.264	4881
267.326	7309
267.387	4597
267.448	5583
267.509	5595
267.570	4590
267.631	5695
267.692	5013
267.753	6043
267.814	4653
267.875	11450
267.936	22617
267.997	18305
268.058	12041
268.119	6593
268.180	7004
268.241	4908
268.302	4886
268.363	4830
268.424	6108
268.485	7765
268.546	6494
268.607	4364
268.668	4485
268.729	4503
268.790	5985
268.851	7480
268.912	17818
268.972	16604
269.033	8747
269.094	5777
269.155	5599
269.216	4835
269.277	6723
269.338	5040
269.398	5290
269.459	6236
269.520	7992
269.581	9383
269.642	10878
269.702	7928
269.763	6279
269.824	5813
269.885	8371
269.945	10672
270.006	6105
270.067	4285
270.128	4908
270.188	4877
270.249	5838
270.310	5329
270.370	5454
270.431	6953
270.492	5058
270.553	6174
270.613	11539
270.674	21729
270.734	9848
270.795	5649
270.856	8763
270.916	7871
270.977	6255
271.038	7938
271.098	7091
271.159	11317
271.219	11340
271.280	6575
271.340	5865
271.401	7600
271.462	22207
271.522	11208
271.583	7754
271.643	8905
271.704	7936
271.764	8705
271.825	16938
271.885	63402
271.946	84597
272.006	24569
272.066	38947
272.127	67600
272.187	18721
272.248	12091
272.308	13265
272.369	45079
272.429	23683
272.489	18916
272.550	19903
272.610	16894
272.671	13537
272.731	16550
272.791	27639
272.852	12607
272.912	11327
272.972	7420
273.033	8513
273.093	13359
273.153	14464
273.214	11158
273.274	10871
273.334	43489
273.394	65390
273.455	22017
273.515	25421
273.575	54368
273.635	21034
273.696	31606
273.756	61701
273.816	22631
273.876	13963
273.936	40061
273.997	71918
274.057	18913
274.117	13578
274.177	18316
274.237	82604
274.297	71233
274.358	49609
274.418	49354
274.478	33813
274.538	16145
274.598	16093
274.658	57143
274.718	70051
274.778	24468
274.838	14965
274.898	34070
274.958	99430
275.018	72969
275.078	40350
275.138	18001
275.198	12256
275.258	8694
275.318	13204
275.378	19078
275.438	18348
275.498	13324
275.558	45722
275.618	84397
275.678	42786
275.738	26176
275.798	25577
275.858	18122
275.918	9012
275.978	9298
276.038	9833
276.098	7651
276.157	14275
276.217	35593
276.277	16279
276.337	12774
276.397	8105
276.457	9891
276.517	8504
276.576	6780
276.636	6800
276.696	10316
276.756	24579
276.815	17174
276.875	9175
276.935	10295
276.995	9487
277.055	6542
277.114	6147
277.174	9348
277.234	27897
277.293	12717
277.353	8502
277.413	7079
277.472	7462
277.532	7596
277.592	8655
277.651	23633
277.711	38915
277.771	15014
277.830	48511
277.890	35923
277.950	32888
278.009	91968
278.069	30950
278.128	28732
278.188	37942
278.248	17636
278.307	43612
278.367	27019
278.426	12323
278.486	9309
278.545	8006
278.605	8162
278.664	7157
278.724	9136
278.783	25276
278.843	61258
278.902	18597
278.962	11757
279.021	13068
279.081	21367
279.140	19249
279.199	12734
279.259	13243
279.318	14991
279.378	19044
279.437	30756
279.496	106137
279.556	346214
279.615	252587
279.675	61895
279.734	37020
279.793	55341
279.853	83238
279.912	29813
279.971	19457
280.031	16472
280.090	31381
280.149	50901
280.208	47230
280.268	255003
280.327	231007
280.386	52746
280.445	37359
280.505	31738
280.564	19459
280.623	16802
280.682	20763
280.742	26843
280.801	11647
280.860	9482
280.919	9650
280.978	8922
281.037	9983
281.097	7912
281.156	9074
281.215	7465
281.274	9569
281.333	39128
281.392	28297
281.451	8682
281.510	8131
281.569	6462
281.628	7219
281.688	7860
281.747	7697
281.806	10089
281.865	6644
281.924	5977
281.983	6608
282.042	5118
282.101	5430
282.160	5769
282.219	5118
282.278	5785
282.337	19262
282.396	12970
282.454	6883
282.513	8544
282.572	28352
282.631	15046
282.690	7085
282.749	6881
282.808	10034
282.867	11185
282.926	8294
282.985	5647
283.043	4682
283.102	5896
283.161	8935
283.220	23556
283.279	37296
283.338	12296
283.396	8170
283.455	7007
283.514	7933
283.573	11939
283.631	9780
283.690	7742
283.749	6143
283.808	13480
283.866	14505
283.925	6601
283.984	7698
284.043	9343
284.101	11511
284.160	8900
284.219	18710
284.277	11801
284.336	13456
284.395	38782
284.453	30107
284.512	11932
284.570	15489
284.629	12859
284.688	11193
284.746	11275
284.805	12818
284.863	15743
284.922	19238
284.981	22047
285.039	32017
285.098	55616
285.156	140510
285.215	394872
285.273	356213
285.332	142814
285.390	73339
285.449	43640
285.507	29634
285.566	22920
285.624	20199
285.683	16128
285.741	13271
285.799	11680
285.858	12022
285.916	10220
285.975	8926
286.033	7582
286.091	8534
286.150	7294
286.208	9402
286.267	13303
286.325	10095
286.383	12370
286.442	10466
286.500	7021
286.558	6748
286.616	6344
286.675	8610
286.733	7265
286.791	7447
286.850	9825
286.908	12112
286.966	16718
287.024	9010
287.083	7729
287.141	6203
287.199	7607
287.257	9867
287.315	8570
287.374	8949
287.432	19290
287.490	13819
287.548	10301
287.606	9242
287.664	9376
287.723	14530
287.781	23008
287.839	14413
287.897	15588
287.955	20660
288.013	31107
288.071	62792
288.129	243395
288.187	596766
288.245	268803
288.303	91062
288.361	52877
288.419	43894
288.477	30381
288.535	20175
288.593	15995
288.651	13883
288.709	10897
288.767	10808
288.825	9116
288.883	10703
288.941	10107
288.999	9000
289.057	7764
289.115	10240
289.173	8546
289.231	7245
289.289	7706
289.346	7835
289.404	7267
289.462	10592
289.520	10795
289.578	6958
289.636	5637
289.694	5548
289.751	5139
289.809	5833
289.867	5719
289.925	8075
289.983	8338
290.040	5396
290.098	5455
290.156	6615
290.214	6961
290.271	4985
290.329	5289
290.387	4716
290.444	4658
290.502	5002
290.560	6358
290.617	7510
290.675	6302
290.733	5957
290.790	5864
290.848	6314
290.906	7263
290.963	7202
291.021	7003
291.078	6923
291.136	7915
291.194	29011
291.251	53491
291.309	16368
291.366	8466
291.424	7310
291.481	6269
291.539	6435
291.596	5496
291.654	4668
291.711	5325
291.769	6302
291.826	10980
291.884	7609
291.941	4814
291.999	5286
292.056	6698
292.114	6255
292.171	5288
292.228	5373
292.286	6799
292.343	12383
292.401	14763
292.458	10793
292.515	7452
292.573	8142
292.630	9033
292.687	10038
292.745	8625
292.802	14582
292.859	40564
292.917	43170
292.974	22278
293.031	9173
293.089	7796
293.146	8001
293.203	6722
293.260	6541
293.318	11055
293.375	21480
293.432	11250
293.489	7268
293.546	7662
293.604	11648
293.661	31054
293.718	74261
293.775	39389
293.832	17574
293.889	13388
293.947	13217
294.004	10121
294.061	10760
294.118	20120
294.175	49098
294.232	76308
294.289	29240
294.346	16152
294.403	14700
294.460	12613
294.517	10744
294.574	10142
294.631	9489
294.688	12329
294.745	26592
294.802	93838
294.859	110665
294.916	41918
294.973	21828
295.030	15923
295.087	13171
295.144	10235
295.201	10007
295.258	9695
295.315	11743
295.372	31079
295.429	55636
295.486	27260
295.542	20859
295.599	57230
295.656	93009
295.713	56089
295.770	53587
295.827	23258
295.883	14269
295.940	14887
295.997	18647
296.054	17007
296.111	10529
296.167	9252
296.224	8761
296.281	7624
296.338	8294
296.394	7881
296.451	12199
296.508	27054
296.564	49647
296.621	35500
296.678	69552
296.734	98309
296.791	38109
296.848	21438
296.904	19354
296.961	32170
297.018	59780
297.074	48051
297.131	21443
297.187	15746
297.244	19418
297.301	65056
297.357	107733
297.414	38027
297.470	16691
297.527	13151
297.583	11545
297.640	10860
297.696	9346
297.753	8312
297.809	7767
297.866	6881
297.922	7843
297.979	7888
298.035	9136
298.092	12818
298.148	34528
298.204	31351
298.261	17585
298.317	34659
298.374	86148
298.430	45806
298.486	24056
298.543	19257
298.599	17434
298.656	17151
298.712	27082
298.768	70152
298.824	52549
298.881	19183
298.937	12612
298.993	11569
299.050	11976
299.106	11903
299.162	10028
299.218	9641
299.275	9708
299.331	9631
299.387	19083
299.443	67093
299.500	60460
299.556	22895
299.612	13574
299.668	11477
299.724	10092
299.780	9269
299.837	9995
299.893	14761
299.949	45988
300.005	49174
300.061	51943
300.117	93727
300.173	45049
300.229	20662
300.285	22732
300.341	23465
300.397	13384
300.453	9571
300.510	9114
300.566	9681
300.622	8875
300.678	14123
300.734	31298
300.790	43830
300.845	59498
300.901	32003
300.957	41030
301.013	32499
301.069	15147
301.125	11567
301.181	13818
301.237	9917
301.293	8121
301.349	7767
301.405	8318
301.461	9745
301.516	12466
301.572	12152
301.628	16393
301.684	16153
301.740	28488
301.796	35747
301.851	24999
301.907	37431
301.963	36964
302.019	68257
302.074	191540
302.130	180465
302.186	79945
302.242	35005
302.297	23419
302.353	21507
302.409	35916
302.464	32494
302.520	27149
302.576	62295
302.631	67730
302.687	37354
302.743	18870
302.798	13102
302.854	12003
302.910	12879
302.965	17293
303.021	25358
303.076	20681
303.132	24457
303.187	25972
303.243	15254
303.299	12088
303.354	10169
303.410	10701
303.465	9493
303.521	9319
303.576	9916
303.632	12222
303.687	21795
303.743	62395
303.798	49227
303.853	21285
303.909	15189
303.964	11886
304.020	15350
304.075	21230
304.130	18229
304.186	31624
304.241	30855
304.297	25823
304.352	16726
304.358	16314
304.407	12980
304.449	12121
304.463	11841
304.518	12512
304.539	12109
304.573	11490
304.629	13250
304.630	13414
304.684	21432
304.720	39838
304.739	48839
304.794	68990
304.811	59093
304.850	35830
304.902	18728
304.905	17640
304.960	14363
304.992	15254
305.015	15849
305.071	13915
305.083	13280
305.126	10997
305.173	9628
305.181	9434
305.236	8152
305.264	8937
305.292	9700
305.347	11687
305.354	11756
305.402	12343
305.445	14032
305.457	14439
305.512	17317
305.535	16456
305.567	15691
305.622	17716
305.626	18370
305.678	32417
305.716	60377
305.733	70182
305.788	72503
305.807	64296
305.843	51370
305.897	65061
305.898	65169
305.953	61231
305.988	42583
306.008	32836
306.063	20484
306.078	18584
306.118	14433
306.168	11569
306.173	11318
306.228	10802
306.259	9917
306.283	9422
306.338	11093
306.349	11599
306.393	13517
306.440	15391
306.448	15931
306.503	17242
306.530	20444
306.558	29081
306.613	69907
306.620	73391
306.668	79507
306.711	70069
306.723	67078
306.778	45236
306.801	34671
306.833	24119
306.888	14961
306.892	14684
306.943	12497
306.982	11639
306.997	11544
307.052	12900
307.072	14076
307.107	19518
307.162	31673
307.163	31878
307.217	54666
307.253	66750
307.272	67208
307.327	65343
307.343	57245
307.381	43220
307.434	34824
307.436	35451
307.491	71884
307.524	100810
307.546	103312
307.600	68090
307.614	56728
307.655	35548
307.704	24387
307.710	24904
307.765	38502
307.795	53236
307.819	64986
307.874	107728
307.885	107200
307.929	77081
307.975	44147
307.984	43231
308.038	54578
308.065	66057
308.093	112084
308.148	234639
308.156	262355
308.202	368423
308.246	412161
308.257	400451
308.312	216026
308.336	145411
308.366	104548
308.421	63021
308.426	60068
308.475	41654
308.517	32730
308.530	30699
308.585	26438
308.607	25876
308.639	29898
308.694	38638
308.697	39622
308.748	88350
308.787	140044
308.803	137953
308.857	90908
308.877	70206
308.912	54653
308.967	44781
308.967	44735
309.021	52253
309.058	59669
309.076	75692
309.130	136186
309.148	161548
309.185	302934
309.238	554438
309.239	554998
309.293	540167
309.328	452540
309.348	387496
309.402	182262
309.418	133047
309.457	90590
309.508	55635
309.511	54333
309.566	44509
309.598	41596
309.620	43169
309.674	51701
309.688	54244
309.729	49251
309.778	38505
309.783	37710
309.837	29592
309.868	25661
309.892	31284
309.946	48893
309.959	54404
310.001	65046
310.049	72498
310.055	70361
310.109	43576
310.139	28212
310.163	23236
310.218	17575
310.229	16707
310.272	17212
310.319	18084
310.326	18122
310.381	20085
310.409	20453
310.435	20390
310.489	20271
310.499	20335
310.543	22904
310.589	25726
310.598	25270
310.652	22938
310.679	20779
310.706	17524
310.760	10828
310.769	9923
310.814	8701
310.859	7770
310.868	7925
310.923	8968
310.948	9705
310.977	11313
311.031	14188
311.038	14612
311.085	13348
311.128	11703
311.139	11638
311.193	11491
311.218	11434
311.247	10546
311.301	8828
311.308	8623
311.356	9712
311.398	10983
311.410	10697
311.464	9129
311.488	8368
311.518	8307
311.572	8376
311.578	8401
311.626	11195
311.668	13714
311.680	15153
311.734	21675
311.758	24555
311.788	22639
311.842	18806
311.847	18409
311.896	27331
311.937	35333
311.950	33655
312.004	25899
312.027	22417
312.058	18328
312.112	11188
312.117	10495
312.165	10997
312.207	11467
312.297	22357
312.386	13840
312.476	11678
312.566	16955
312.656	9557
312.745	9463
312.835	13553
312.925	12924
313.015	18370
313.104	21132
313.194	9817
313.284	8482
313.374	9879
313.463	9088
313.553	8151
313.643	7792
313.732	7473
313.822	8067
313.912	10745
314.001	11026
314.091	16795
314.180	20772
314.270	14553
314.360	21588
314.449	12220
314.539	8985
314.628	9658
314.718	15762
314.808	22981
314.897	7986
314.987	8158
315.076	10158
315.166	19888
315.255	20947
315.345	16218
315.434	22036
315.524	20084
315.613	15872
315.703	13378
315.792	12313
315.881	12444
315.971	13938
316.060	43609
316.150	99964
316.239	101066
316.328	25214
316.418	9335
316.507	9585
316.597	11663
316.686	13319
316.775	49769
316.865	103073
316.954	13467
317.043	7342
317.133	7875
317.222	6746
317.311	7245
317.400	6271
317.490	10766
317.579	8381
317.668	7299
317.757	9122
317.847	11041
317.936	18139
318.025	17679
318.114	10521
318.203	12371
318.293	20482
318.382	33420
318.471	27752
318.560	65192
318.649	127359
318.738	20959
318.828	14027
318.917	16895
319.006	41952
319.095	118695
319.184	166354
319.273	56108
319.362	20881
319.451	12129
319.540	13071
319.629	22379
319.718	28529
319.807	22171
319.896	68181
319.985	189262
320.074	44467
320.163	29451
320.252	67770
320.341	39278
320.430	23732
320.519	19163
320.608	12856
320.697	12916
320.786	11942
320.875	12645
320.964	15100
321.053	20117
321.142	28932
321.230	26895
321.319	35711
321.408	68674
321.497	31812
321.586	33387
321.675	92289
321.764	63371
321.852	40725
321.941	36252
322.030	21485
322.119	37655
322.207	86671
322.296	121396
322.385	52234
322.474	38502
322.562	69003
322.651	40623
322.740	34380
322.829	84036
322.917	137499
323.006	39172
323.095	28368
323.183	41972
323.272	48035
323.361	118499
323.449	341698
323.538	104201
323.626	277054
323.715	121644
323.804	70147
323.892	250370
323.981	89591
324.069	36195
324.158	165004
324.246	105132
324.335	21484
324.424	20370
324.512	10110
324.601	12208
324.689	16617
324.778	47390
324.866	98103
324.954	19541
325.043	16931
325.131	62424
325.220	120980
325.308	127002
325.397	87821
325.485	35041
325.574	9778
325.662	8111
325.750	8967
325.839	9073
325.927	9022
326.015	17461
326.104	64649
326.192	73120
326.280	11638
326.369	11791
326.457	11177
326.545	17335
326.634	8704
326.722	7391
326.810	7332
326.898	7331
326.987	9554
327.075	24596
327.163	50222
327.251	23760
327.340	11526
327.428	12358
327.516	8289
327.604	12637
327.692	15667
327.781	32170
327.869	57740
327.957	22899
328.045	10941
328.133	10769
328.221	27150
328.309	10971
328.397	8466
328.485	9810
328.574	13118
328.662	38227
328.750	55826
328.838	26962
328.926	10124
329.014	7745
329.102	14562
329.190	44967
329.278	17085
329.366	5715
329.454	7384
329.542	7180
329.630	7188
329.718	7946
329.806	7432
329.893	12229
329.981	9536
330.069	7370
330.157	25722
330.245	51947
330.333	20954
330.421	7747
330.509	14234
330.597	41338
330.684	29665
330.772	21547
330.860	46488
330.948	50084
331.036	13559
331.123	6618
331.211	9859
331.299	14162
331.387	49366
331.475	62862
331.562	20862
331.650	9221
331.738	20599
331.825	29676
331.913	8443
332.001	8847
332.089	21570
332.176	59678
332.264	162687
332.352	84116
332.439	17672
332.527	13179
332.614	19511
332.702	25986
332.790	13983
332.877	69914
332.965	119919
333.052	16703
333.140	25352
333.228	45808
333.315	11399
333.403	19650
333.490	95109
333.578	48096
333.665	19450
333.753	14031
333.840	9165
333.928	21939
334.015	90665
334.103	121568
334.190	286677
334.278	50697
334.365	29257
334.452	14627
334.540	9932
334.627	26083
334.715	32377
334.802	88290
334.889	509624
334.977	333151
335.064	27193
335.151	14714
335.239	16661
335.326	27355
335.413	128312
335.501	114792
335.588	14663
335.675	11013
335.762	23764
335.850	33700
335.937	19679
336.024	102986
336.111	408529
336.199	105115
336.286	14712
336.373	9111
336.460	7218
336.547	10831
336.635	14765
336.722	10023
336.809	10868
336.896	19259
336.983	75508
337.070	171517
337.157	224231
337.245	294781
337.332	160519
337.419	20170
337.506	11971
337.593	16720
337.680	77765
337.767	156070
337.854	43313
337.941	64655
338.028	102936
338.115	25459
338.202	31161
338.289	91375
338.376	281990
338.463	65334
338.550	116817
338.637	86138
338.724	69976
338.811	96071
338.898	14898
338.984	10940
339.071	13877
339.158	14296
339.245	28969
339.332	21070
339.419	75581
339.506	52798
339.593	6544
339.679	6526
339.766	5468
339.853	11787
339.940	14397
340.027	7155
340.113	7551
340.200	11800
340.287	9922
340.374	10478
340.460	13461
340.547	7169
340.634	12813
340.720	39847
340.807	17159
340.894	6205
340.980	9333
341.067	6605
341.154	7270
341.240	10732
341.327	15306
341.414	7374
341.500	5413
341.587	7894
341.674	7099
341.760	13894
341.847	12438
341.933	4934
342.020	3401
342.106	4550
342.193	6966
342.279	9262
342.366	8208
342.452	10998
342.539	7300
342.625	19007
342.712	35675
342.798	14953
342.885	7307
342.971	3913
343.058	4746
343.144	4566
343.230	3926
343.317	5699
343.403	3540
343.490	4071
343.576	3648
343.662	4576
343.749	6725
343.835	10386
343.921	20540
344.008	127539
344.094	201021
344.180	33768
344.267	17195
344.353	71865
344.439	84399
344.525	24302
344.612	12566
344.698	11848
344.784	7237
344.870	4635
344.957	4850
345.043	8012
345.129	6012
345.215	13548
345.301	7367
345.387	5580
345.474	5398
345.560	8641
345.646	16647
345.732	8551
345.818	6767
345.904	6531
345.990	7820
346.076	20641
346.162	43025
346.249	11057
346.335	4702
346.421	7162
346.507	31912
346.593	72260
346.679	16410
346.765	9042
346.851	4961
346.937	5880
347.023	5526
347.108	6377
347.194	4606
347.280	5701
347.366	6453
347.452	30585
347.538	95090
347.624	66936
347.710	66039
347.796	15117
347.882	8856
347.967	9619
348.053	15993
348.139	9468
348.225	4584
348.311	5290
348.397	5436
348.482	6819
348.568	7509
348.654	4145
348.740	2390
348.825	3041
348.911	12523
348.997	59877
349.083	94549
349.168	19034
349.254	7249
349.340	6366
349.425	4310
349.511	8400
349.597	10945
349.682	18354
349.768	45261
349.854	19513
349.939	8709
350.025	6641
350.110	5890
350.196	4720
350.282	3311
350.367	7764
350.453	36050
350.538	30612
350.624	10594
350.709	10023
350.795	5207
350.880	5074
350.966	10311
351.051	30348
351.137	22151
351.222	6126
351.308	17663
351.393	33744
351.479	9046
351.564	3975
351.649	4658
351.735	5437
351.820	3542
351.906	5471
351.991	14346
352.076	34036
352.162	30821
352.247	7661
352.332	5535
352.418	9702
352.503	16521
352.588	55018
352.673	33086
352.759	9393
352.844	4973
352.929	7046
353.014	8012
353.100	6512
353.185	9624
353.270	15240
353.355	12947
353.441	7847
353.526	18193
353.611	17980
353.696	12440
353.781	8988
353.866	3836
353.952	6013
354.037	13943
354.122	26510
354.207	22700
354.292	9204
354.377	4853
354.462	4996
354.547	6405
354.632	8943
354.717	14348
354.802	10557
354.887	4884
354.972	4988
355.057	3231
355.142	3319
355.227	5942
355.312	9310
355.397	21174
355.482	41732
355.567	18142
355.652	17912
355.737	19709
355.822	59748
355.907	35042
355.991	6905
356.076	4260
356.161	5524
356.246	4760
356.331	6725
356.416	22454
356.501	119427
356.585	92549
356.670	12021
356.755	8108
356.840	15749
356.924	94243
357.009	251016
357.094	71907
357.179	16968
357.263	12466
357.348	16039
357.433	14857
357.517	10829
357.602	8450
357.687	8109
357.771	17117
357.856	46895
357.941	25471
358.025	82529
358.110	269324
358.195	94052
358.279	12769
358.364	11374
358.448	43365
358.533	93478
358.617	65454
358.702	66431
358.787	21653
358.871	13849
358.956	9767
359.040	3990
359.125	3829
359.209	7221
359.294	25126
359.378	31310
359.462	11452
359.547	11611
359.631	13389
359.716	5358
359.800	8415
359.885	15039
359.969	6082
360.053	7306
360.138	7395
360.222	9025
360.306	13424
360.391	13062
360.475	28781
360.559	47047
360.644	37512
360.728	27890
360.812	72911
360.896	153400
360.981	68129
361.065	35855
361.149	9329
361.233	8858
361.318	7726
361.402	9494
361.486	7582
361.570	5111
361.654	7333
361.739	25657
361.823	117437
361.907	141840
361.991	20939
362.075	14490
362.159	23451
362.243	16334
362.327	10709
362.411	14158
362.495	16039
362.580	8278
362.664	4791
362.748	3443
362.832	4022
362.916	5169
363.000	19478
363.084	105924
363.168	161730
363.252	32468
363.336	14655
363.420	36022
363.503	160052
363.587	144368
363.671	17915
363.755	12418
363.839	14911
363.923	8156
364.007	15836
364.091	28332
364.175	77150
364.258	214934
364.342	78334
364.426	17592
364.510	13098
364.594	22457
364.677	42887
364.761	143389
364.845	80686
364.929	22901
365.013	18004
365.096	17925
365.180	22924
365.264	83097
365.347	226427
365.431	88140
365.515	21168
365.598	7667
365.682	9668
365.766	31196
365.849	32025
365.933	15570
366.017	24783
366.100	18127
366.184	9539
366.267	11399
366.351	6013
366.435	4546
366.518	3364
366.602	3434
366.685	4828
366.769	8135
366.852	23354
366.936	28318
367.019	11294
367.103	22902
367.186	36863
367.270	8319
367.353	2992
367.436	4629
367.520	3461
367.603	5903
367.687	8287
367.770	14077
367.853	11382
367.937	41607
368.020	50958
368.104	12529
368.187	12819
368.270	16302
368.353	18536
368.437	77834
368.520	208335
368.603	79470
368.687	51533
368.770	68153
368.853	17968
368.936	29145
369.020	30478
369.103	8174
369.186	6187
369.269	6913
369.352	13189
369.436	20588
369.519	11131
369.602	4725
369.685	7254
369.768	7625
369.851	7712
369.934	6260
370.018	9131
370.101	13877
370.184	14826
370.267	13612
370.350	17550
370.433	33427
370.516	72684
370.599	68337
370.682	21781
370.765	39485
370.848	56936
370.931	97471
371.014	43419
371.097	9294
371.180	5336
371.263	5126
371.346	3267
371.429	4839
371.511	6289
371.594	12529
371.677	27370
371.760	35495
371.843	22435
371.926	114482
372.009	203537
372.091	57390
372.174	55824
372.257	100962
372.340	37265
372.423	51374
372.505	59137
372.588	21358
372.671	37146
372.754	89359
372.836	45913
372.919	82499
373.002	127640
373.085	27238
373.167	15884
373.250	44638
373.332	92948
373.415	161891
373.498	275662
373.580	93515
373.663	135277
373.746	154903
373.828	31459
373.911	18302
373.993	38541
374.076	148214
374.159	126732
374.241	44969
374.324	75776
374.406	49436
374.489	102853
374.571	215587
374.654	71366
374.736	54624
374.819	152552
374.901	213730
374.983	188276
375.066	28611
375.148	25961
375.231	129162
375.313	192825
375.395	62810
375.478	11149
375.560	7982
375.643	13415
375.725	67636
375.807	210047
375.890	233966
375.972	159939
376.054	86325
376.136	169455
376.219	60523
376.301	66275
376.383	138864
376.465	46329
376.548	27516
376.630	49818
376.712	114057
376.794	42755
376.877	7004
376.959	4714
377.041	11959
377.123	37165
377.205	35288
377.287	6272
377.369	5102
377.452	5698
377.534	5502
377.616	5612
377.698	4634
377.780	2552
377.862	4863
377.944	4520
378.026	4113
378.108	3945
378.190	3292
378.272	4205
378.354	3320
378.436	4873
378.518	21491
378.600	59128
378.682	37833
378.764	51186
378.846	36223
378.928	16916
379.010	15413
379.091	8748
379.173	5382
379.255	4653
379.337	9119
379.419	33199
379.501	71205
379.583	27557
379.664	10640
379.746	21263
379.828	54016
379.910	66541
379.991	51105
380.073	9799
380.155	9056
380.237	5268
380.318	4785
380.400	5649
380.482	14013
380.564	17550
380.645	17162
380.727	14128
380.809	9548
380.890	6280
380.972	4807
381.053	5745
381.135	8084
381.217	22066
381.298	49835
381.380	25179
381.461	37418
381.543	130693
381.624	128256
381.706	22426
381.787	15761
381.869	18778
381.951	78270
382.032	220694
382.113	115885
382.195	23152
382.276	17022
382.358	43398
382.439	104528
382.521	134692
382.602	188339
382.684	86555
382.765	143022
382.846	127914
382.928	115785
383.009	58752
383.090	60595
383.172	202474
383.253	257667
383.334	120169
383.416	156978
383.497	67609
383.578	27425
383.659	59819
383.741	208297
383.822	418668
383.903	191774
383.984	102897
384.066	174435
384.147	94900
384.228	20137
384.309	14641
384.390	10288
384.471	8628
384.553	11413
384.634	17332
384.715	15375
384.796	8257
384.877	15008
384.958	46480
385.039	48148
385.120	15579
385.201	11349
385.282	20643
385.363	24967
385.444	13962
385.525	31649
385.606	86550
385.687	64630
385.768	23381
385.849	36872
385.930	116401
386.011	162799
386.092	39071
386.173	11475
386.254	13484
386.335	14211
386.416	14673
386.496	37056
386.577	52927
386.658	29507
386.739	20256
386.820	25154
386.901	21852
386.981	13364
387.062	7676
387.143	17179
387.224	50874
387.304	46645
387.385	20784
387.466	20551
387.547	24257
387.627	11747
387.708	29432
387.789	99351
387.869	102652
387.950	27111
388.031	7588
388.111	17547
388.192	53597
388.273	72473
388.353	32325
388.434	12259
388.514	30545
388.595	110524
388.676	113004
388.756	48357
388.837	42823
388.917	24414
388.998	7389
389.078	7368
389.159	7064
389.239	5568
389.320	10303
389.400	11478
389.480	33682
389.561	58291
389.641	24386
389.722	10956
389.802	17034
389.883	35094
389.963	78301
390.043	71430
390.124	35543
390.204	26831
390.284	54347
390.365	47990
390.445	120242
390.525	234721
390.605	157222
390.686	31985
390.766	10849
390.846	7296
390.927	4993
391.007	6416
391.087	11020
391.167	11035
391.247	12353
391.328	38385
391.408	45471
391.488	23821
391.568	5626
391.648	8303
391.728	9602
391.808	10167
391.888	12600
391.969	34013
392.049	44902
392.129	30792
392.209	35502
392.289	59561
392.369	45105
392.449	62144
392.529	29373
392.609	15213
392.689	24301
392.769	59528
392.849	47097
392.929	58501
393.009	108154
393.089	49634
393.169	18175
393.248	72395
393.328	287130
393.408	266101
393.488	40532
393.568	11722
393.648	8348
393.728	8186
393.807	7672
393.887	9007
393.967	9826
394.047	13308
394.127	20334
394.206	47327
394.286	225829
394.366	727595
394.446	661418
394.525	142238
394.605	35915
394.685	40379
394.764	100587
394.844	150908
394.924	85883
395.003	18108
395.083	11969
395.163	11299
395.242	11404
395.322	11095
395.402	8304
395.481	19623
395.561	72901
395.640	145282
395.720	103221
395.799	174163
395.879	125324
395.958	82792
396.038	327874
396.117	954482
396.197	901420
396.276	263814
396.356	92691
396.435	66204
396.515	31622
396.594	20512
396.673	26465
396.753	89416
396.832	244296
396.912	178859
396.991	43563
397.070	12909
397.150	6626
397.229	6614
397.308	5087
397.388	6683
397.467	5805
397.546	5213
397.625	4273
397.705	8578
397.784	6952
397.863	4489
397.942	4031
398.022	12301
398.101	70746
398.180	159961
398.259	76259
398.338	16870
398.417	7968
398.497	8495
398.576	8313
398.655	4163
398.734	5112
398.813	12078
398.892	69310
398.971	168754
399.050	70337
399.129	7754
399.208	4426
399.287	6165
399.366	4239
399.445	5010
399.524	4900
399.603	4607
399.682	13410
399.761	61274
399.840	177074
399.919	119487
399.998	14623
400.077	4277
400.156	3006
400.235	9285
400.313	6970
400.392	11182
400.471	29540
400.550	38480
400.629	11498
400.708	8553
400.786	17550
400.865	48713
400.944	41863
401.023	14537
401.102	3534
401.180	4633
401.259	7858
401.338	10947
401.416	9373
401.495	8647
401.574	9422
401.652	8900
401.731	10950
401.810	8888
401.888	4126
401.967	3795
402.046	4582
402.124	10623
402.203	11924
402.281	8375
402.360	19733
402.438	55730
402.517	35089
402.596	14284
402.674	12907
402.753	7444
402.831	6318
402.910	8063
402.988	28836
403.066	60552
403.145	31195
403.223	23320
403.302	41476
403.380	32180
403.459	28146
403.537	14089
403.615	6465
403.694	2220
403.772	3055
403.850	2634
403.929	3226
404.007	3896
404.085	8313
404.164	7367
404.242	6695
404.320	26154
404.398	62204
404.477	77460
404.555	165429
404.633	131167
404.711	47045
404.789	21259
404.868	6629
404.946	3195
405.024	2679
405.102	2660
405.180	2181
405.258	1546
405.336	4742
405.415	7509
405.493	15217
405.571	9454
405.649	2193
405.727	4942
405.805	10066
405.883	8156
405.961	12398
406.039	16194
406.117	4652
406.195	8868
406.273	45658
406.351	123696
406.429	72204
406.507	20151
406.585	7007
406.663	5005
406.740	5503
406.818	5486
406.896	3913
406.974	6152
407.052	16551
407.130	77173
407.208	87726
407.285	16477
407.363	3227
407.441	4078
407.519	2705
407.596	5780
407.674	14495
407.752	42003
407.830	54671
407.907	25869
407.985	5597
408.063	4419
408.141	5131
408.218	14330
408.296	10054
408.373	4588
408.451	4655
408.529	3962
408.606	1095
408.684	2806
408.762	1216
408.839	1451
408.917	1009
408.994	1555
409.072	785
409.149	2045
409.227	2835
409.304	2820
409.382	956
409.459	1391
409.537	2522
409.614	2667
409.692	1623
409.769	1975
409.846	3695
409.924	6794
410.001	3990
410.079	2856
410.156	3012
410.233	4001
410.311	3516
410.388	2440
410.465	3955
410.543	2861
410.620	1742
410.697	3544
410.775	2345
410.852	1803
410.929	4745
411.006	5714
411.083	4210
411.161	10913
411.238	15777
411.315	10716
411.392	3257
411.469	5254
411.547	5257
411.624	2684
411.701	1632
411.778	4914
411.855	8709
411.932	4722
412.009	2653
412.086	3457
412.163	6703
412.240	9066
412.317	12311
412.394	9278
412.471	2843
412.548	1944
412.625	2628
412.702	7508
412.779	13294
412.856	7599
412.933	3228
413.010	4263
413.087	8649
413.164	27736
413.241	30446
413.318	7778
413.395	5669
413.471	7590
413.548	3750
413.625	4847
413.702	6232
413.779	5785
413.855	1536
413.932	1582
414.009	1293
414.086	1544
414.162	2762
414.239	9874
414.316	32229
414.393	48866
414.469	14825
414.546	2600
414.623	1763
414.699	2134
414.776	2887
414.853	2777
414.929	4286
415.006	6506
415.082	9752
415.159	5599
415.236	2785
415.312	3645
415.389	6449
415.465	7886
415.542	3588
415.618	2603
415.695	4103
415.771	3245
415.848	3761
415.924	6708
416.000	5344
416.077	3869
416.153	906
416.230	1074
416.306	3234
416.383	6604
416.459	4290
416.535	2403
416.612	1759
416.688	2630
416.764	2050
416.841	2226
416.917	2580
416.993	3638
417.069	4999
417.146	9440
417.222	10610
417.298	4699
417.374	2430
417.451	4044
417.527	3403
417.603	3838
417.679	2630
417.755	2791
417.831	1627
417.908	1427
417.984	1526
418.060	2931
418.136	7253
418.212	6878
418.288	3494
418.364	3069
418.440	2312
418.516	7870
418.592	16773
418.668	18555
418.744	15484
418.820	11021
418.896	3757
418.972	1735
419.048	2299
419.124	6741
419.200	4081
419.276	1587
419.352	459
419.428	1049
419.504	1760
419.579	2660
419.655	1224
419.731	3913
419.807	10993
419.883	18275
419.959	10238
420.034	5679
420.110	12313
420.186	32433
420.262	21141
420.337	6330
420.413	3725
420.489	1999
420.565	2227
420.640	1196
420.716	2009
420.792	51
420.867	1741
420.943	2231
421.019	4381
421.094	3037
421.170	1892
421.245	588
421.321	1624
421.397	1476
421.472	7118
421.548	15280
421.623	9152
421.699	3825
421.774	2117
421.850	1210
421.925	5117
422.001	3590
422.076	1333
422.152	1947
422.227	3738
422.302	4110
422.378	5075
422.453	7775
422.529	19990
422.604	96645
422.679	180811
422.755	72759
422.830	12398
422.905	3684
422.981	1276
423.056	2433
423.131	1121
423.207	1511
423.282	2607
423.357	7518
423.432	5178
423.508	6883
423.583	13233
423.658	9998
423.733	5884
423.808	7943
423.883	5467
423.959	3424
424.034	1093
424.109	2324
424.184	831
424.259	1901
424.334	811
424.409	1414
424.484	1972
424.559	2450
424.634	1886
424.709	3844
424.784	4030
424.859	3524
424.934	7939
425.009	24314
425.084	33046
425.159	11861
425.234	3018
425.309	3141
425.384	13166
425.459	17161
425.534	6006
425.609	5699
425.683	2857
425.758	1374
425.833	3784
425.908	6065
425.983	17154
426.058	36000
426.132	16490
426.207	8180
426.282	17369
426.357	15573
426.431	2919
426.506	3745
426.581	5080
426.655	3687
426.730	1833
426.805	2419
426.879	3837
426.954	4572
427.029	11988
427.103	50180
427.178	97192
427.253	40334
427.327	8229
427.402	19951
427.476	36472
427.551	15389
427.625	8189
427.700	6947
427.774	4456
427.849	7225
427.923	2976
427.998	3798
428.072	5426
428.147	11229
428.221	20672
428.296	25957
428.370	7973
428.444	9384
428.519	25317
428.593	47056
428.667	39466
428.742	45950
428.816	35461
428.890	56295
428.965	55276
429.039	45030
429.113	49183
429.188	14623
429.262	3649
429.336	9534
429.410	22536
429.485	21541
429.559	38056
429.633	26417
429.707	6118
429.781	25698
429.855	83159
429.930	93878
430.004	121673
430.078	195101
430.152	114167
430.226	31148
430.300	16079
430.374	4860
430.448	12900
430.522	75530
430.596	166245
430.670	75374
430.744	71195
430.818	92844
430.892	20560
430.966	4304
431.040	3252
431.114	1791
431.188	3325
431.262	4926
431.336	6760
431.410	24755
431.484	52981
431.557	24365
431.631	2474
431.705	2363
431.779	5538
431.853	18366
431.927	10629
432.000	2890
432.074	3755
432.148	9090
432.222	7446
432.295	2383
432.369	2150
432.443	11996
432.516	58143
432.590	103680
432.664	36987
432.737	5264
432.811	950
432.885	1133
432.958	1366
433.032	1643
433.106	1578
433.179	1090
433.253	1008
433.326	2127
433.400	1542
433.473	2025
433.547	157
433.620	2885
433.694	4546
433.767	8832
433.841	5585
433.914	2131
433.988	1105
434.061	1825
434.134	1811
434.208	1381
434.281	684
434.355	2474
434.428	2171
434.501	1391
434.575	3079
434.648	3138
434.721	914
434.795	815
434.868	732
434.941	324
435.014	1035
435.088	1660
435.161	2323
435.234	3928
435.307	4112
435.381	3040
435.454	1949
435.527	1766
435.600	362
435.673	997
435.746	505
435.819	1057
435.892	976
435.966	2190
436.039	1831
436.112	2536
436.185	558
436.258	1134
436.331	760
436.404	961
436.477	-129
436.550	1645
436.623	189
436.696	1151
436.769	2504
436.842	2918
436.915	3747
436.987	6270
437.060	2436
437.133	973
437.206	1759
437.279	2659
437.352	930
437.425	1210
437.498	3198
437.570	5402
437.643	2917
437.716	1421
437.789	1435
437.861	6598
437.934	12675
438.007	5042
438.080	1076
438.152	2322
438.225	10597
438.298	73411
438.370	148176
438.443	54032
438.516	10713
438.588	3265
438.661	1463
438.734	2291
438.806	2650
438.879	3090
438.951	4532
439.024	6318
439.096	1742
439.169	1483
439.241	978
439.314	3494
439.386	10540
439.459	18570
439.531	23203
439.604	6990
439.676	1523
439.749	822
439.821	1430
439.893	2260
439.966	4281
440.038	5078
440.110	3499
440.183	1866
440.255	870
440.327	6399
440.400	35762
440.472	95826
440.544	50054
440.617	7147
440.689	5323
440.761	8582
440.833	11181
440.905	5927
440.978	1826
441.050	1137
441.122	1034
441.194	1301
441.266	1288
441.338	1738
441.411	5891
441.483	26584
441.555	31350
441.627	9635
441.699	13126
441.771	13900
441.843	4345
441.915	1723
441.987	753
442.059	2191
442.131	4684
442.203	8942
442.275	8438
442.347	5653
442.419	2551
442.491	5027
442.563	10369
442.635	21835
442.706	43926
442.778	27328
442.850	3128
442.922	2999
442.994	5331
443.066	8623
443.137	4765
443.209	3245
443.281	3979
443.353	8903
443.425	15535
443.496	14116
443.568	9740
443.640	6341
443.711	4280
443.783	3006
443.855	1608
443.926	2040
443.998	5100
444.070	7900
444.141	5761
444.213	4993
444.285	7524
444.356	13826
444.428	13278
444.499	4780
444.571	1110
444.642	1324
444.714	1805
444.785	5535
444.857	15951
444.928	39641
445.000	20183
445.071	28146
445.143	24304
445.214	8393
445.285	21163
445.357	52003
445.428	35902
445.500	47787
445.571	47305
445.642	17753
445.714	40708
445.785	50972
445.856	11225
445.928	6130
445.999	4938
446.070	4183
446.141	4493
446.213	5363
446.284	5404
446.355	9084
446.426	4708
446.497	5211
446.569	12699
446.640	13640
446.711	4618
446.782	6109
446.853	15508
446.924	10914
446.995	3266
447.066	7295
447.138	15363
447.209	7098
447.280	1764
447.351	1250
447.422	2013
447.493	6223
447.564	5049
447.635	4543
447.706	2554
447.777	1224
447.847	1426
447.918	2616
447.989	6730
448.060	12874
448.131	28762
448.202	18575
448.273	8364
448.344	4667
448.414	2453
448.485	1965
448.556	2114
448.627	1376
448.698	1254
448.768	1403
448.839	5338
448.910	14328
448.981	9128
449.051	2716
449.122	1510
449.193	1345
449.263	2318
449.334	2202
449.405	3934
449.475	7935
449.546	8037
449.616	16715
449.687	10747
449.758	3420
449.828	1615
449.899	2020
449.969	1561
450.040	3152
450.110	9024
450.181	9866
450.251	2596
450.322	2284
450.392	3617
450.463	2467
450.533	2052
450.604	2669
450.674	2255
450.744	2400
450.815	1235
450.885	3069
450.955	1880
451.026	2064
451.096	3322
451.166	5866
451.237	21351
451.307	41054
451.377	12381
451.447	3092
451.518	1896
451.588	3158
451.658	4103
451.728	13486
451.799	49989
451.869	42669
451.939	7832
452.009	2546
452.079	2443
452.149	4337
452.219	16763
452.289	53773
452.360	30191
452.430	5817
452.500	4545
452.570	3762
452.640	8228
452.710	28999
452.780	38098
452.850	15475
452.920	10288
452.990	5014
453.060	4945
453.129	5512
453.199	11958
453.269	69389
453.339	110735
453.409	152129
453.479	180655
453.549	248932
453.619	245257
453.688	78278
453.758	12114
453.828	5959
453.898	5325
453.968	4189
454.037	4133
454.087	3834
454.107	3665
454.168	2396
454.177	2161
454.247	2960
454.249	3072
454.316	3727
454.330	5044
454.386	8773
454.411	17332
454.456	30134
454.492	31873
454.525	33641
454.574	16476
454.595	9261
454.655	5424
454.665	4923
454.734	9641
454.736	10273
454.804	21494
454.817	28933
454.873	53556
454.898	54206
454.943	54789
454.979	39610
455.013	27632
455.060	17384
455.082	13518
455.141	18964
455.152	19557
455.221	51364
455.222	52301
455.291	73064
455.303	71714
455.360	65264
455.384	79684
455.430	96191
455.465	74064
455.499	55371
455.546	53132
455.569	50179
455.627	26683
455.638	23240
455.707	6246
455.708	6302
455.777	5522
455.789	5661
455.846	5891
455.869	5905
455.916	5937
455.950	5998
455.985	5775
456.031	6093
456.054	6210
456.112	5169
456.124	5119
456.193	6429
456.193	6357
456.262	8554
456.274	9517
456.332	13028
456.355	14400
456.401	14598
456.436	10749
456.470	7940
456.516	5260
456.540	4060
456.597	3760
456.609	3675
456.678	4353
456.678	4320
456.747	4332
456.759	4299
456.817	4200
456.840	4298
456.886	4392
456.920	4601
456.955	5513
457.001	7126
457.024	8305
457.082	12005
457.093	12584
457.162	19970
457.163	20102
457.232	23430
457.243	21305
457.301	11882
457.324	9124
457.370	5700
457.405	5763
457.439	5929
457.485	5541
457.508	5544
457.566	6704
457.577	6722
457.646	6553
457.647	6593
457.715	7042
457.727	7126
457.784	7282
457.808	7410
457.853	7731
457.889	8227
457.922	8367
457.969	8471
457.991	8495
458.050	8627
458.060	8561
458.129	8684
458.130	8725
458.198	7423
458.211	7182
458.267	6734
458.292	6526
458.336	6513
458.372	6733
458.405	7482
458.453	8755
458.474	9495
458.533	12049
458.543	12208
458.611	14243
458.614	14349
458.680	11019
458.694	9922
458.749	7837
458.775	7467
458.818	7570
458.855	7916
458.887	8279
458.936	9004
458.955	9169
459.016	9309
459.024	9349
459.093	10568
459.097	10600
459.162	10355
459.177	10488
459.230	10924
459.257	11167
459.299	11410
459.338	12041
459.368	12429
459.418	12722
459.437	12154
459.499	10342
459.505	10254
459.574	8645
459.579	8627
459.643	8963
459.659	9076
459.711	9924
459.740	10447
459.780	11577
459.820	12764
459.849	13489
459.900	15208
459.917	14618
459.981	12469
459.986	12466
460.054	11438
460.061	11408
460.123	11813
460.141	12158
460.191	13764
460.222	14305
460.260	14366
460.302	15339
460.328	14714
460.382	12309
460.397	12305
460.462	12895
460.465	13156
460.534	19504
460.543	20412
460.602	34529
460.623	40047
460.671	57444
460.703	71661
460.739	57390
460.783	34081
460.808	29182
460.864	14635
460.876	13689
460.944	13303
460.945	13268
461.013	12867
461.024	12652
461.081	12607
461.104	12958
461.150	12522
461.184	11927
461.218	11954
461.264	11686
461.286	11739
461.345	12482
461.355	12689
461.423	14825
461.425	14854
461.491	21914
461.505	23536
461.559	50290
461.585	62981
461.628	91771
461.665	120006
461.696	117948
461.745	119631
461.764	102311
461.825	24951
461.832	23705
461.901	16456
461.905	16470
461.969	15239
461.985	14887
462.037	16701
462.065	17575
462.105	25499
462.145	33918
462.173	44523
462.225	64809
462.241	70301
462.305	96820
462.310	93385
462.378	34535
462.385	27167
462.446	17425
462.465	15838
462.514	15259
462.545	15346
462.582	15754
462.625	16657
462.650	16874
462.705	16812
462.718	18251
462.785	26167
462.786	26388
462.854	38780
462.865	41037
462.922	44703
462.945	45969
462.990	31233
463.025	17902
463.058	16029
463.104	14356
463.126	14253
463.184	15047
463.194	15337
463.262	16928
463.264	16985
463.330	18600
463.344	18883
463.398	20972
463.424	22097
463.466	22647
463.504	23144
463.533	22906
463.583	21980
463.601	23078
463.663	27086
463.669	28430
463.737	43974
463.743	45384
463.805	76610
463.823	85636
463.873	127879
463.903	154805
463.940	145925
463.982	136863
464.008	106269
464.062	32947
464.076	30288
464.142	18410
464.144	18319
464.211	18058
464.221	18137
464.279	20001
464.301	20556
464.347	24219
464.381	27031
464.414	32128
464.461	39209
464.482	38585
464.540	37299
464.550	35853
464.617	23785
464.620	23345
464.685	24884
464.699	25222
464.753	29176
464.779	31363
464.820	35119
464.859	38386
464.888	39292
464.938	40650
464.956	40615
465.018	40704
465.023	39990
465.091	29009
465.098	27817
465.158	27930
465.177	28131
465.226	28167
465.257	27997
465.293	28953
465.336	29976
465.361	33915
465.416	42691
465.428	48892
465.495	82153
465.496	82617
465.563	133448
465.575	142335
465.631	149841
465.654	152852
465.698	88458
465.734	32544
465.765	29221
465.813	25108
465.833	24963
465.893	25705
465.900	25714
465.968	25423
465.972	25358
466.035	24736
466.052	24503
466.102	25312
466.131	25740
466.170	25789
466.210	25657
466.237	26527
466.290	28275
466.304	28467
466.369	28850
466.372	28957
466.439	30612
466.449	30775
466.506	38934
466.528	41977
466.573	74035
466.607	97901
466.641	134655
466.687	185541
466.708	194124
466.766	217406
466.775	198314
466.842	50553
466.845	43452
466.909	34533
466.925	32593
466.977	32145
467.004	31893
467.044	33818
467.083	35629
467.111	39290
467.163	45942
467.178	46335
467.242	47514
467.245	47497
467.312	45074
467.321	44659
467.379	47868
467.400	48889
467.446	55245
467.480	59644
467.559	45164
467.638	39652
467.717	42718
467.796	43347
467.875	45884
467.955	54874
468.034	117178
468.113	224610
468.192	288167
468.271	46979
468.350	35560
468.429	37608
468.508	34518
468.588	36748
468.667	41652
468.746	44525
468.825	41803
468.904	38062
468.983	56471
469.062	89141
469.141	95233
469.220	35830
469.299	37303
469.378	41819
469.456	44827
469.535	39795
469.614	41209
469.693	52018
469.772	69730
469.851	101784
469.930	47326
470.009	37313
470.088	34669
470.166	37577
470.245	41324
470.324	43128
470.403	38833
470.482	34235
470.560	35050
470.639	35008
470.718	39705
470.797	39380
470.875	53232
470.954	75097
471.033	73403
471.111	30808
471.190	28986
471.269	29594
471.347	30679
471.426	35125
471.505	43030
471.583	39171
471.662	37033
471.740	33429
471.819	33030
471.898	34195
471.976	32276
472.055	34685
472.133	44123
472.212	61807
472.290	63311
472.369	34915
472.447	32109
472.526	29636
472.604	33293
472.683	31936
472.761	33172
472.839	31768
472.918	31640
472.996	37271
473.075	45688
473.153	38305
473.231	33793
473.310	43454
473.388	36241
473.466	36609
473.545	36848
473.623	41412
473.701	37754
473.780	32073
473.858	31929
473.936	35665
474.014	32379
474.093	44776
474.171	72949
474.249	110085
474.327	47085
474.405	28649
474.484	28419
474.562	29883
474.640	30365
474.718	34067
474.796	30357
474.874	27779
474.952	26437
475.030	27468
475.108	27407
475.187	29726
475.265	32245
475.343	40481
475.421	40932
475.499	32801
475.577	38700
475.655	70289
475.733	147043
475.811	242671
475.889	211165
475.966	91308
476.044	35312
476.122	40672
476.200	44601
476.278	36744
476.356	34111
476.434	38020
476.512	40689
476.590	46980
476.667	39735
476.745	31795
476.823	33663
476.901	35193
476.979	38640
477.056	35200
477.134	34901
477.212	36130
477.290	32004
477.367	30839
477.445	31257
477.523	31329
477.601	31869
477.678	36231
477.756	47116
477.834	48511
477.911	32626
477.989	32632
478.066	34562
478.144	42513
478.222	36634
478.299	44367
478.377	38772
478.454	28834
478.532	27604
478.609	29736
478.687	31360
478.764	28619
478.842	30283
478.919	33604
478.997	32095
479.074	33498
479.152	44902
479.229	59049
479.307	30721
479.384	26734
479.461	27606
479.539	35764
479.616	43488
479.694	33390
479.771	41010
479.848	47003
479.926	67889
480.003	55653
480.080	29372
480.157	29358
480.235	28652
480.312	31038
480.389	47739
480.467	80071
480.544	89148
480.621	38014
480.698	36513
480.775	44927
480.853	45129
480.930	35340
481.007	37450
481.084	44634
481.161	44340
481.238	40003
481.315	30771
481.392	31676
481.470	33115
481.547	34341
481.624	31794
481.701	31335
481.778	35406
481.855	45991
481.932	78126
482.009	131008
482.086	58754
482.163	31477
482.240	38021
482.317	51555
482.393	39069
482.470	33011
482.547	34920
482.624	31273
482.701	33854
482.778	30907
482.855	25965
482.932	26645
483.009	26752
483.085	31038
483.162	34423
483.239	30926
483.316	26597
483.393	27094
483.469	29264
483.546	39117
483.623	40724
483.699	30548
483.776	32958
483.853	41951
483.930	86048
484.006	203351
484.083	297361
484.160	97186
484.236	121816
484.313	89906
484.389	74954
484.466	67205
484.543	64695
484.619	66355
484.696	72194
484.772	83529
484.849	86921
484.925	63980
485.002	63180
485.078	69297
485.155	67331
485.231	62262
485.308	62177
485.384	71662
485.461	111166
485.537	196655
485.614	188493
485.690	63005
485.766	58841
485.843	63102
485.919	73892
485.995	69409
486.072	53591
486.148	54373
486.224	55620
486.301	61995
486.377	73732
486.453	68830
486.530	65365
486.606	85224
486.682	103942
486.758	149208
486.835	164406
486.911	139870
486.987	231545
487.063	140361
487.139	132865
487.215	94898
487.292	60014
487.368	59007
487.444	65983
487.520	72369
487.596	57090
487.672	60902
487.748	77968
487.824	80183
487.900	57176
487.976	61842
488.052	70712
488.128	78232
488.204	66497
488.280	63732
488.356	109467
488.432	240859
488.508	306671
488.584	67908
488.660	50892
488.736	52191
488.812	55880
488.888	66259
488.964	85480
489.039	147340
489.115	182222
489.191	97017
489.267	59072
489.343	57155
489.418	47156
489.494	46599
489.570	44947
489.646	48776
489.722	49012
489.797	63000
489.873	135474
489.949	274108
490.024	154122
490.100	48330
490.176	47954
490.251	53689
490.327	59932
490.403	43010
490.478	41275
490.554	36261
490.629	38712
490.705	39096
490.781	44980
490.856	45939
490.932	48449
491.007	45401
491.083	49620
491.158	52857
491.234	100435
491.309	209624
491.385	155332
491.460	49991
491.536	50569
491.611	40162
491.686	44393
491.762	58122
491.837	102063
491.913	169655
491.988	228463
492.063	213292
492.139	118977
492.214	68735
492.289	35593
492.365	36805
492.440	46360
492.515	51481
492.590	47830
492.666	41173
492.741	73692
492.816	107802
492.891	45157
492.967	35500
493.042	34280
493.117	39256
493.192	48144
493.267	116912
493.342	304739
493.418	300631
493.493	45342
493.568	30716
493.643	36210
493.718	55863
493.793	81751
493.868	59262
493.943	34232
494.018	35226
494.093	36724
494.168	34774
494.243	29512
494.318	27987
494.393	28978
494.468	27826
494.543	26677
494.618	32142
494.693	31049
494.768	34235
494.842	32517
494.917	26760
494.992	29648
495.067	25459
495.142	26553
495.217	29661
495.292	29410
495.366	37371
495.441	43450
495.516	53796
495.591	82372
495.665	210165
495.740	361199
495.815	110360
495.890	49401
495.964	42501
496.039	43953
496.114	40040
496.188	42249
496.263	43150
496.338	43472
496.412	56228
496.487	58536
496.561	52555
496.636	50420
496.710	45710
496.785	55430
496.860	63881
496.934	43254
497.009	42070
497.083	42556
497.158	48396
497.232	59054
497.307	69763
497.381	54436
497.455	81358
497.530	101619
497.604	56958
497.679	71290
497.753	118297
497.827	123375
497.902	90019
497.976	151181
498.050	521269
498.125	1443635
498.199	938211
498.273	106131
498.348	75154
498.422	66904
498.496	67697
498.570	60761
498.645	57502
498.719	64406
498.793	90260
498.867	156907
498.941	258181
499.016	750959
499.090	1415610
499.164	275623
499.238	53200
499.312	49895
499.386	59718
499.460	57720
499.534	57741
499.609	78013
499.683	125090
499.757	131481
499.831	400212
499.905	1138615
499.979	683243
500.053	151938
500.127	125160
500.201	68026
500.275	55084
500.349	54394
500.422	63873
500.496	95690
500.570	234789
500.644	682102
500.718	967373
500.792	130497
500.866	67309
500.940	90144
501.013	63973
501.087	65411
501.161	98118
501.235	179120
501.309	512112
501.382	1105389
501.456	608229
501.530	216726
501.603	339030
501.677	87721
501.751	52203
501.825	76506
501.898	196048
501.972	456909
502.046	174975
502.119	83609
502.193	234293
502.266	464574
502.340	168921
502.413	259849
502.487	400595
502.561	200144
502.634	52992
502.708	41259
502.781	37524
502.855	34478
502.928	33585
503.002	35062
503.075	37159
503.149	40249
503.222	41555
503.295	46935
503.369	62455
503.442	125445
503.516	443185
503.589	851369
503.662	404311
503.736	181052
503.809	405730
503.882	273540
503.956	440896
504.029	239215
504.102	66439
504.175	51076
504.249	37009
504.322	55845
504.395	46794
504.468	35063
504.542	38996
504.615	26377
504.688	25927
504.761	28587
504.834	34725
504.907	37965
504.980	46082
505.053	32285
505.127	38646
505.200	53779
505.273	70328
505.346	35674
505.419	31749
505.492	27392
505.565	24044
505.638	24254
505.711	26473
505.784	26485
505.857	26058
505.930	28685
506.003	27470
506.076	34229
506.149	52241
506.221	58944
506.294	66662
506.367	229704
506.440	552180
506.513	170227
506.586	60771
506.659	31487
506.731	28019
506.804	38038
506.877	45257
506.950	35489
507.022	29820
507.095	51109
507.168	46976
507.241	25260
507.313	21951
507.386	25310
507.459	28846
507.531	21547
507.604	21789
507.677	22780
507.749	20252
507.822	29951
507.894	51357
507.967	51054
508.040	33844
508.112	31464
508.185	31633
508.257	30334
508.330	36560
508.402	31038
508.475	36992
508.547	38517
508.620	47192
508.692	70087
508.765	33299
508.837	26067
508.909	25888
508.982	27801
509.054	28582
509.127	25057
509.199	24113
509.271	24779
509.344	22765
509.416	23973
509.488	26169
509.560	26911
509.633	27701
509.705	30572
509.777	32311
509.849	38567
509.922	29972
509.994	27562
510.066	30554
510.138	35026
510.210	54152
510.283	46804
510.355	37920
510.427	33498
510.499	32693
510.571	32315
510.643	33649
510.715	43294
510.787	35810
510.859	36578
510.931	42942
511.003	42957
511.076	37034
511.148	32935
511.219	42434
511.291	80650
511.363	69898
511.435	31705
511.507	29422
511.579	30712
511.651	30459
511.723	28455
511.795	28034
511.867	33299
511.939	56122
512.010	120243
512.082	59045
512.154	30708
512.226	32025
512.298	45934
512.369	54509
512.441	41968
512.513	39978
512.585	34470
512.656	37842
512.728	39422
512.800	31009
512.871	33113
512.943	32705
513.015	27964
513.086	30402
513.158	33055
513.230	35972
513.301	43704
513.373	39228
513.444	28737
513.516	27379
513.588	28052
513.659	29460
513.731	33499
513.802	35212
513.874	61120
513.945	71183
514.016	30766
514.088	28394
514.159	31998
514.231	40778
514.302	47757
514.374	40505
514.445	56962
514.516	123085
514.588	63626
514.659	57159
514.730	100947
514.802	47716
514.873	32195
514.944	32711
515.016	33570
515.087	40883
515.158	76095
515.229	79495
515.301	32565
515.372	35916
515.443	27757
515.514	27106
515.585	24333
515.656	26714
515.728	25026
515.799	26840
515.870	27676
515.941	29427
516.012	31823
516.083	38848
516.154	40382
516.225	42723
516.296	40687
516.367	35412
516.438	37911
516.509	45058
516.580	72721
516.651	208998
516.722	474717
516.793	146519
516.864	67021
516.935	67807
517.006	74089
517.077	103423
517.148	223670
517.219	655871
517.289	738053
517.360	516715
517.431	123481
517.502	48405
517.573	46300
517.643	48630
517.714	52032
517.785	50418
517.856	50526
517.926	55172
517.997	56233
518.068	63703
518.138	79864
518.209	145021
518.280	526698
518.350	1172724
518.421	271802
518.492	62816
518.562	56811
518.633	58134
518.703	44540
518.774	52592
518.845	69957
518.915	57977
518.986	51537
519.056	64048
519.127	106558
519.197	226365
519.268	578906
519.338	226926
519.408	69015
519.479	58592
519.549	42546
519.620	38453
519.690	33799
519.760	35904
519.831	35416
519.901	33796
519.971	33550
520.042	42226
520.112	49776
520.182	43012
520.253	42425
520.323	41453
520.393	58604
520.463	66091
520.534	71772
520.604	102845
520.674	51526
520.744	69612
520.814	125923
520.885	104876
520.955	276339
521.025	655332
521.095	139857
521.165	43622
521.235	42504
521.305	33488
521.375	30116
521.445	33647
521.515	37051
521.585	41790
521.655	34761
521.725	37264
521.795	35550
521.865	36311
521.935	66319
522.005	45274
522.075	31270
522.145	36285
522.215	48736
522.285	71500
522.355	120421
522.424	208706
522.494	134144
522.564	54005
522.634	97928
522.704	160311
522.774	47421
522.843	32279
522.913	31213
522.983	35335
523.053	30316
523.122	32226
523.192	44687
523.262	109483
523.331	68511
523.401	28238
523.471	24392
523.540	25952
523.610	21540
523.680	23702
523.749	29345
523.819	44528
523.888	34895
523.958	25336
524.027	28659
524.097	30658
524.166	26669
524.236	27375
524.305	29177
524.375	25609
524.444	25051
524.514	30562
524.583	36456
524.653	46353
524.722	46575
524.791	28755
524.861	27016
524.930	23789
524.999	27222
525.069	36701
525.138	39885
525.207	47176
525.277	28286
525.346	27760
525.415	26066
525.484	28975
525.554	40004
525.623	31735
525.692	26102
525.761	25664
525.830	23674
525.900	26862
525.969	37379
526.038	32539
526.107	32004
526.176	49132
526.245	40652
526.314	51275
526.383	54472
526.452	46650
526.522	88014
526.591	118427
526.660	77873
526.729	38476
526.797	52068
526.867	144987
526.935	413239
527.004	230657
527.073	70857
527.142	28835
527.211	26010
527.280	28198
527.349	26758
527.418	19954
527.487	22986
527.555	21809
527.624	20937
527.693	19099
527.762	21806
527.831	19701
527.899	21901
527.968	21352
528.037	21420
528.106	27973
528.174	44244
528.243	45590
528.312	76354
528.380	58184
528.449	25876
528.518	21435
528.586	17045
528.655	19892
528.723	19380
528.792	20843
528.861	24650
528.929	21234
528.998	19301
529.066	18353
529.135	19090
529.203	17705
529.272	18322
529.340	19610
529.409	21673
529.477	22370
529.545	37150
529.614	34138
529.682	49363
529.751	44878
529.819	45824
529.887	25308
529.956	21101
530.024	21399
530.092	17322
530.161	22424
530.229	28408
530.297	18296
530.365	17899
530.434	16384
530.502	15435
530.570	16997
530.638	15789
530.707	19084
530.775	21970
530.843	17242
530.911	18133
530.979	16526
531.047	18071
531.115	19945
531.183	18406
531.252	19480
531.320	21075
531.388	17535
531.456	18262
531.524	15875
531.592	18769
531.660	20695
531.728	17734
531.796	17676
531.864	18640
531.932	19298
532.000	18252
532.067	18788
532.135	19448
532.203	23055
532.271	25458
532.339	45651
532.407	77520
532.475	37218
532.542	27258
532.610	28750
532.678	48951
532.746	179239
532.814	242369
532.881	47775
532.949	22191
533.017	20170
533.084	19913
533.152	19031
533.220	20328
533.287	20487
533.355	18474
533.423	19124
533.490	18387
533.558	19560
533.625	22525
533.693	24551
533.761	23227
533.828	24743
533.896	24536
533.963	42576
534.031	45826
534.098	52078
534.166	28744
534.233	22937
534.300	25958
534.368	26106
534.435	24069
534.503	22715
534.570	23841
534.637	19506
534.705	19503
534.772	20268
534.840	22874
534.907	33604
534.974	28659
535.041	27926
535.109	34570
535.176	18438
535.243	18070
535.310	19682
535.378	17548
535.445	16619
535.512	16406
535.579	18068
535.646	18459
535.714	21667
535.781	25035
535.848	25456
535.915	29917
535.982	28901
536.049	28334
536.116	27941
536.183	24315
536.250	24451
536.317	24449
536.384	27525
536.451	33766
536.518	31592
536.585	26085
536.652	35505
536.719	40249
536.786	29110
536.853	29025
536.920	48531
536.987	57513
537.053	58388
537.120	173881
537.187	77289
537.254	21716
537.321	20765
537.388	20695
537.454	18524
537.521	18831
537.588	19460
537.654	23371
537.721	24345
537.788	23103
537.855	19560
537.921	21352
537.988	20989
538.055	22485
538.121	21113
538.188	23512
538.254	34173
538.321	48667
538.388	28870
538.454	21622
538.521	19941
538.587	17933
538.654	18884
538.720	17257
538.787	19094
538.853	23463
538.920	31656
538.986	32415
539.053	25175
539.119	23894
539.185	22998
539.252	26436
539.318	30837
539.385	26544
539.451	25720
539.517	25602
539.583	33469
539.650	78980
539.716	105698
539.782	29277
539.849	20552
539.915	22416
539.981	23124
540.047	25306
540.114	24350
540.180	24439
540.246	22867
540.312	33626
540.378	56935
540.444	47362
540.510	70298
540.576	111831
540.643	31389
540.709	20378
540.775	22491
540.841	26505
540.907	45204
540.973	56036
541.039	34503
541.105	31553
541.171	23238
541.237	21929
541.303	22190
541.369	27119
541.435	33333
541.500	43863
541.566	26160
541.632	20146
541.698	19521
541.764	20731
541.830	20886
541.896	21784
541.961	21048
542.027	20645
542.093	20879
542.159	23425
542.224	27196
542.290	36805
542.356	49446
542.421	42728
542.487	26326
542.553	26112
542.618	29254
542.684	22261
542.750	23377
542.815	29952
542.881	59508
542.947	123534
543.012	50667
543.078	19884
543.143	21712
543.209	22918
543.274	23178
543.340	28324
543.405	58055
543.471	51838
543.536	22681
543.602	23580
543.667	22363
543.732	22115
543.798	22107
543.863	22515
543.928	19311
543.994	19869
544.059	18442
544.124	20000
544.190	19577
544.255	20295
544.320	20399
544.386	20654
544.451	27799
544.516	28567
544.581	37124
544.646	94618
544.712	81210
544.777	30349
544.842	35475
544.907	36619
544.972	28755
545.037	27990
545.102	31133
545.168	32139
545.233	32423
545.298	35217
545.363	41782
545.428	40403
545.493	64645
545.558	86094
545.623	37334
545.688	30528
545.753	30457
545.818	29420
545.883	31894
545.947	29877
546.012	38280
546.077	35278
546.142	30199
546.207	30970
546.272	36217
546.337	34494
546.401	31600
546.466	31044
546.531	29362
546.596	32335
546.661	29183
546.725	27975
546.790	26983
546.855	27571
546.919	27660
546.984	29641
547.049	33625
547.113	40642
547.178	29943
547.243	35025
547.307	38230
547.372	47727
547.436	48158
547.501	27985
547.565	31018
547.630	36337
547.695	40163
547.759	57898
547.823	36402
547.888	27774
547.952	28090
548.017	32776
548.081	45517
548.146	65162
548.210	42410
548.274	26963
548.339	26039
548.403	25563
548.468	24150
548.532	25817
548.596	26880
548.660	27897
548.725	32458
548.789	42585
548.853	41205
548.917	36218
548.982	67557
549.046	50640
549.110	29184
549.174	28781
549.238	24805
549.303	24370
549.367	27338
549.431	25083
549.495	25595
549.559	25209
549.623	26124
549.687	33093
549.751	37669
549.815	29746
549.879	28613
549.943	27001
550.007	30319
550.071	30990
550.135	35841
550.199	30990
550.263	30672
550.327	45653
550.391	59848
550.455	30986
550.519	30348
550.582	30703
550.646	39983
550.710	34047
550.774	29067
550.838	30133
550.901	30335
550.965	32752
551.029	35465
551.093	44751
551.156	71928
551.220	172235
551.284	115622
551.347	82817
551.411	242845
551.475	152128
551.538	33616
551.602	28258
551.666	26656
551.729	24855
551.793	27644
551.856	28477
551.920	27975
551.983	26918
552.047	25665
552.110	23986
552.174	25210
552.237	24467
552.301	24048
552.364	25610
552.428	25456
552.491	24643
552.554	26048
552.618	27309
552.681	28493
552.745	31330
552.808	42400
552.871	44833
552.934	31279
552.998	31492
553.061	34286
553.124	29728
553.187	28864
553.251	32880
553.314	35084
553.377	38669
553.440	69896
553.503	213908
553.567	185598
553.630	35223
553.693	27812
553.756	27207
553.819	25375
553.882	25850
553.945	24206
554.008	23896
554.071	22876
554.134	24029
554.197	23839
554.260	22969
554.323	25429
554.386	25825
554.449	23289
554.512	24062
554.575	24066
554.638	26699
554.701	23746
554.764	22718
554.827	24250
554.889	21885
554.952	21799
555.015	21522
555.078	22218
555.141	22222
555.203	20856
555.266	22225
555.329	24471
555.391	21628
555.454	23318
555.517	24318
555.580	21831
555.642	20520
555.705	21486
555.768	23905
555.830	23642
555.893	21266
555.955	21867
556.018	21959
556.080	22626
556.143	21961
556.206	23441
556.268	25444
556.330	24645
556.393	24225
556.455	32597
556.518	60440
556.580	41208
556.643	21064
556.705	22535
556.767	21969
556.830	23705
556.892	26716
556.955	33239
557.017	25497
557.079	23334
557.142	23141
557.204	29028
557.266	45623
557.328	31984
557.391	22184
557.453	22050
557.515	23325
557.577	27918
557.639	24497
557.701	20986
557.764	20231
557.826	23087
557.888	25806
557.950	21971
558.012	21506
558.074	24387
558.136	30462
558.198	33157
558.260	25680
558.322	24364
558.384	23785
558.446	25132
558.508	27935
558.570	35091
558.632	53728
558.694	54487
558.756	38139
558.818	79585
558.880	96460
558.942	34076
559.003	32474
559.065	21923
559.127	21350
559.189	23268
559.251	23229
559.312	25854
559.374	44272
559.436	71811
559.498	31866
559.559	22705
559.621	23418
559.683	29510
559.744	49087
559.806	75034
559.868	56174
559.929	32184
559.991	32593
560.052	35108
560.114	41129
560.176	32249
560.237	38168
560.299	38723
560.360	28862
560.422	29627
560.483	29425
560.545	28414
560.606	27771
560.667	27932
560.729	28535
560.790	26850
560.852	27597
560.913	28047
560.974	26836
561.036	26874
561.097	27233
561.158	26946
561.220	27669
561.281	27067
561.342	28156
561.403	31856
561.465	39654
561.526	73520
561.587	64615
561.648	29936
561.709	27782
561.771	27981
561.832	27009
561.893	26708
561.954	26589
562.015	27169
562.076	26644
562.137	27197
562.198	27022
562.259	27328
562.320	28455
562.381	31227
562.442	36211
562.503	28432
562.564	26020
562.625	26344
562.686	26443
562.747	28881
562.808	28156
562.869	32796
562.930	39822
562.991	36426
563.051	32337
563.112	30058
563.173	28174
563.234	26580
563.294	27481
563.355	27756
563.416	28345
563.477	28556
563.537	30914
563.598	32284
563.659	30193
563.720	30435
563.780	30676
563.841	30645
563.901	28934
563.962	28773
564.023	28646
564.083	29593
564.144	30829
564.204	31013
564.265	34898
564.325	51592
564.386	105198
564.446	59224
564.507	28775
564.567	28305
564.628	28192
564.688	28414
564.749	29776
564.809	40441
564.869	42687
564.930	27559
564.990	25254
565.050	25541
565.111	26107
565.171	25508
565.231	25086
565.292	26019
565.352	24642
565.412	26421
565.472	27339
565.532	27271
565.593	25926
565.653	24643
565.713	26670
565.773	27714
565.833	30000
565.893	32277
565.953	25703
566.013	27521
566.074	33474
566.134	51255
566.194	83918
566.254	64057
566.314	39832
566.374	28808
566.434	29305
566.494	28148
566.554	27086
566.614	28550
566.673	27695
566.733	29923
566.793	30303
566.853	30487
566.913	29906
566.973	29690
567.033	31132
567.092	29944
567.152	29194
567.212	31077
567.272	32856
567.331	35753
567.391	33646
567.451	39314
567.511	59766
567.570	47445
567.630	29136
567.690	28488
567.749	28561
567.809	29324
567.868	30763
567.928	34073
567.988	37324
568.047	34073
568.107	35500
568.166	39530
568.226	50824
568.285	58867
568.345	52584
568.404	47478
568.464	43495
568.523	41297
568.582	43645
568.642	46321
568.701	53578
568.761	69018
568.820	89010
568.879	92079
568.939	86853
568.998	59106
569.057	46345
569.116	40402
569.176	35756
569.235	33274
569.294	30417
569.353	29446
569.413	32534
569.472	31030
569.531	26648
569.590	27111
569.649	26087
569.708	25628
569.767	27197
569.827	30693
569.886	25956
569.945	24678
570.004	24762
570.063	25239
570.122	27926
570.181	30945
570.240	37404
570.299	32952
570.358	28855
570.417	24233
570.475	23945
570.534	24809
570.593	24370
570.652	25940
570.711	26881
570.770	27973
570.829	31031
570.887	26331
570.946	24418
571.005	22760
571.064	23177
571.122	27916
571.181	31585
571.240	24485
571.299	23372
571.357	30227
571.416	30245
571.475	39577
571.533	32766
571.592	26872
571.650	28851
571.709	22407
571.768	22126
571.826	20740
571.885	20862
571.943	21561
572.002	24937
572.060	23917
572.119	20076
572.177	20800
572.236	19094
572.294	18855
572.352	19837
572.411	19502
572.469	18748
572.528	20452
572.586	21091
572.644	23786
572.703	25065
572.761	22523
572.819	20534
572.877	20127
572.936	19595
572.994	19313
573.052	19703
573.110	20123
573.169	18622
573.227	19505
573.285	19100
573.343	19593
573.401	19622
573.459	19371
573.517	19116
573.576	19727
573.634	19710
573.692	20420
573.750	19104
573.808	21573
573.866	26046
573.924	35646
573.982	29108
574.040	20574
574.098	20323
574.155	17938
574.213	18411
574.271	18171
574.329	18587
574.387	16952
574.445	18362
574.503	16950
574.560	16494
574.618	16755
574.676	16022
574.734	16751
574.792	17220
574.849	15923
574.907	15480
574.965	16012
575.022	15980
575.080	16007
575.138	17459
575.195	17638
575.253	18372
575.311	18108
575.368	15736
575.426	16974
575.483	16694
575.541	17466
575.598	17744
575.656	19533
575.713	18584
575.771	16885
575.828	17437
575.886	18433
575.943	20015
576.001	19773
576.058	20700
576.115	22113
576.173	27364
576.230	29806
576.287	27010
576.345	21655
576.402	20640
576.459	21874
576.517	23194
576.574	26009
576.631	26967
576.688	22278
576.746	21155
576.803	20144
576.860	19167
576.917	20101
576.974	20091
577.031	19205
577.089	20399
577.146	21295
577.203	20969
577.260	24366
577.317	27142
577.374	30314
577.431	25142
577.488	22140
577.545	19828
577.602	19813
577.659	20603
577.716	21806
577.773	21964
577.830	19535
577.886	19292
577.943	19554
578.000	19999
578.057	23061
578.114	21412
578.171	24686
578.227	30632
578.284	27972
578.341	25609
578.398	25788
578.454	25609
578.511	29933
578.568	32084
578.625	23349
578.681	19911
578.738	18552
578.794	18511
578.851	17883
578.908	19372
578.964	19066
579.021	18634
579.077	18848
579.134	17823
579.190	17670
579.247	17245
579.303	16629
579.360	15697
579.416	16809
579.473	15814
579.529	15934
579.586	17408
579.642	18196
579.698	19578
579.755	19572
579.811	18903
579.867	19316
579.924	19245
579.980	21388
580.036	25125
580.093	30088
580.149	39431
580.205	40381
580.261	32688
580.317	28948
580.374	28606
580.430	30720
580.486	27428
580.542	22932
580.598	21230
580.619	21091
580.654	20878
580.692	20066
580.710	19698
580.765	18644
580.767	18635
580.823	19236
580.838	18972
580.879	18348
580.911	17664
580.935	17208
580.984	17480
580.991	17538
581.047	18706
581.057	19051
581.103	20718
581.130	21761
581.159	22887
581.203	23935
581.215	24247
581.270	23523
581.276	23300
581.326	21357
581.349	21085
581.382	20768
581.422	20908
581.438	20972
581.494	21165
581.494	21128
581.550	19130
581.567	19402
581.606	20057
581.640	19364
581.661	18979
581.713	18912
581.717	18918
581.773	17308
581.786	17500
581.829	18162
581.859	18287
581.885	18407
581.932	18185
581.940	18171
581.996	19084
582.004	18933
582.052	18052
582.077	17456
582.107	16819
582.150	18086
582.163	18466
582.219	19309
582.223	19213
582.274	18428
582.296	19569
582.330	21176
582.368	20222
582.386	19888
582.441	18145
582.441	18149
582.497	17995
582.514	18163
582.552	18789
582.587	19566
582.608	19925
582.659	18710
582.663	18631
582.719	18232
582.732	18249
582.774	18392
582.805	18574
582.830	18681
582.877	18418
582.885	18376
582.941	18272
582.950	18311
582.996	18575
583.023	19491
583.052	20633
583.095	21823
583.107	22188
583.162	26471
583.168	26607
583.218	27296
583.240	25211
583.273	22148
583.313	21402
583.328	21166
583.384	20420
583.385	20378
583.439	19212
583.458	18900
583.494	18207
583.531	17454
583.549	17169
583.603	18205
583.605	18230
583.660	16870
583.676	16979
583.715	17546
583.748	18679
583.770	19279
583.820	18620
583.825	18555
583.881	17552
583.893	17533
583.936	17638
583.965	17475
583.991	17233
584.038	17490
584.046	17541
584.101	17774
584.110	17574
584.156	16616
584.183	17125
584.211	17460
584.255	16238
584.266	16003
584.321	16288
584.328	16345
584.376	16919
584.400	16931
584.431	16761
584.472	16134
584.486	15855
584.541	16307
584.545	16328
584.596	16934
584.617	17170
584.651	17866
584.689	18379
584.706	18347
584.761	18076
584.762	18078
584.816	17673
584.834	17756
584.871	18177
584.906	17932
584.926	17678
584.978	17340
584.980	17336
585.035	18257
585.051	18442
585.090	18636
585.123	18522
585.145	18749
585.195	20509
585.200	20640
585.254	21963
585.267	22711
585.309	25764
585.340	26718
585.364	26477
585.412	22077
585.419	21403
585.473	19467
585.484	19538
585.528	20872
585.556	21283
585.583	21741
585.628	23121
585.637	23480
585.692	29162
585.700	29460
585.747	30497
585.772	27852
585.801	23705
585.845	20103
585.856	19580
585.910	20127
585.917	20086
585.965	19768
585.989	20085
586.019	20276
586.061	19983
586.074	19963
586.128	20125
586.133	20289
586.183	22806
586.205	23446
586.237	23729
586.277	24023
586.292	24159
586.346	24028
586.349	24097
586.401	24826
586.421	25364
586.455	27375
586.493	32284
586.509	35979
586.564	52795
586.565	53516
586.618	88839
586.637	83989
586.672	55662
586.709	35594
586.727	29457
586.781	23770
586.781	23755
586.835	22566
586.853	22099
586.889	21732
586.925	21926
586.944	22067
586.996	22546
586.998	22549
587.052	23762
587.068	23778
587.106	23640
587.140	23445
587.161	23433
587.212	24495
587.215	24508
587.269	24766
587.284	24661
587.323	25005
587.356	25606
587.377	25547
587.427	25521
587.431	25565
587.485	26677
587.499	26945
587.539	27395
587.571	27719
587.593	28081
587.643	29035
587.648	29117
587.702	30813
587.715	31289
587.755	32937
587.786	33737
587.810	33584
587.858	33753
587.864	33982
587.917	36891
587.930	37907
587.971	42008
588.001	44427
588.025	44824
588.073	44278
588.079	44412
588.133	48292
588.145	49251
588.187	53298
588.217	56608
588.241	59545
588.288	65895
588.295	66824
588.348	76111
588.360	78373
588.402	87554
588.431	94461
588.456	100542
588.503	115434
588.510	117604
588.564	139653
588.575	145367
588.617	169629
588.646	190349
588.671	211874
588.718	270156
588.725	282667
588.778	410489
588.789	446874
588.832	682628
588.861	879444
588.886	1156866
588.932	1667191
588.939	1705433
588.993	1825851
589.004	1816167
589.047	1205095
589.075	803132
589.100	605618
589.147	331664
589.154	316292
589.207	240429
589.218	228866
589.261	217451
589.290	218413
589.314	229536
589.361	268100
589.368	280523
589.421	415961
589.433	455171
589.475	755392
589.504	998931
589.528	1246835
589.576	1621781
589.582	1574941
589.635	950103
589.647	824800
589.689	451116
589.718	235866
589.742	191799
589.790	126548
589.795	123449
589.849	104763
589.861	102108
589.902	101844
589.932	96233
589.955	82554
590.004	57961
590.009	56894
590.062	49577
590.075	47780
590.115	43931
590.146	41879
590.168	41346
590.218	40224
590.222	40052
590.275	38556
590.289	38189
590.328	37347
590.360	36346
590.381	35419
590.431	34187
590.435	34095
590.488	32863
590.503	32623
590.541	32174
590.574	31697
590.594	31188
590.645	30100
590.647	30049
590.700	29121
590.716	28918
590.753	28366
590.787	28014
590.806	27620
590.859	26374
590.859	26349
590.912	26148
590.930	26105
590.965	25761
591.001	25493
591.018	25534
591.071	25690
591.072	25706
591.124	25626
591.143	25603
591.177	25762
591.214	25991
591.230	25983
591.283	26136
591.285	26156
591.336	26776
591.356	27016
591.389	27034
591.427	27005
591.442	26572
591.495	24987
591.498	24897
591.547	24733
591.569	24646
591.600	24608
591.640	24552
591.653	24670
591.706	25359
591.711	25455
591.759	27797
591.782	29159
591.811	31195
591.853	33680
591.864	32522
591.917	26556
591.924	25741
591.969	24867
591.995	24435
592.022	24816
592.066	25520
592.075	26337
592.127	31539
592.137	32589
592.180	38117
592.208	41245
592.233	36409
592.279	27373
592.285	27125
592.338	25250
592.350	24835
592.390	23402
592.421	22352
592.443	22596
592.491	23159
592.495	23212
592.548	24077
592.562	24321
592.600	23879
592.633	23524
592.653	23109
592.704	21946
592.705	22090
592.775	23139
592.846	23132
592.916	23212
592.987	25119
593.058	25029
593.128	22729
593.199	21958
593.270	21233
593.341	21764
593.411	21139
593.482	22235
593.553	21953
593.623	20736
593.694	22275
593.764	25304
593.835	22367
593.906	21346
593.976	22347
594.047	23848
594.117	30401
594.188	32431
594.258	19826
594.329	20115
594.399	20997
594.470	19585
594.540	19230
594.611	19776
594.681	19419
594.751	21118
594.822	23056
594.892	23366
594.963	23895
595.033	23447
595.103	23189
595.174	28370
595.244	44864
595.314	62810
595.384	26151
595.455	22056
595.525	22899
595.595	22488
595.665	23239
595.736	21883
595.806	21630
595.876	21783
595.946	20340
596.016	19552
596.087	20537
596.157	22294
596.227	20764
596.297	23001
596.367	22898
596.437	27476
596.507	40383
596.577	55518
596.647	26819
596.717	20914
596.787	20213
596.857	20500
596.927	21293
596.997	21423
597.067	21281
597.137	23254
597.207	22541
597.277	21161
597.347	21426
597.417	21301
597.487	20943
597.557	23313
597.626	22482
597.696	25357
597.766	35304
597.836	51895
597.906	28612
597.975	22001
598.045	20606
598.115	20657
598.185	19861
598.254	21230
598.324	21141
598.394	20222
598.464	20963
598.533	19987
598.603	19459
598.672	19952
598.742	20152
598.812	19929
598.881	19240
598.951	19209
599.020	18586
599.090	18398
599.159	18615
599.229	17955
599.299	18191
599.368	17986
599.437	18071
599.507	20098
599.576	20741
599.646	20898
599.715	22432
599.785	20373
599.854	23522
599.924	27768
599.993	23165
600.062	20521
600.132	19565
600.201	19804
600.270	20729
600.340	19363
600.409	17456
600.478	18718
600.547	17945
600.617	20455
600.686	19008
600.755	19156
600.824	19683
600.894	20890
600.963	18448
601.032	18756
601.101	18543
601.170	18280
601.239	18736
601.308	20407
601.378	18410
601.447	18169
601.516	17446
601.585	18626
601.654	18931
601.723	18844
601.792	19374
601.861	19923
601.930	21564
601.999	20194
602.068	17704
602.137	19476
602.206	18384
602.275	18608
602.343	20378
602.412	20015
602.481	16504
602.550	16874
602.619	15603
602.688	18273
602.756	17034
602.825	15881
602.894	16404
602.963	16912
603.032	17055
603.100	16387
603.169	16616
603.238	17459
603.307	15892
603.375	16047
603.444	15748
603.513	17003
603.581	14665
603.650	15905
603.719	15844
603.787	16053
603.856	16224
603.924	16504
603.993	15460
604.061	15643
604.130	15598
604.198	15230
604.267	15726
604.335	15637
604.404	15803
604.472	14989
604.541	15040
604.609	15714
604.678	14614
604.746	15159
604.815	14831
604.883	15754
604.951	15291
605.020	14686
605.088	15432
605.156	16604
605.225	13929
605.293	15655
605.361	15467
605.429	15487
605.498	15655
605.566	15916
605.634	15904
605.702	16085
605.771	14815
605.839	16162
605.907	15453
605.975	15154
606.043	14627
606.111	15736
606.180	15837
606.248	19032
606.316	19981
606.384	17805
606.452	24670
606.520	20486
606.588	15540
606.656	14294
606.724	14175
606.792	14390
606.860	13885
606.928	13067
606.996	13314
607.064	13404
607.132	13647
607.200	13947
607.267	13453
607.335	13231
607.403	13858
607.471	13810
607.539	13313
607.607	14002
607.674	13777
607.742	14964
607.810	14935
607.878	13735
607.946	12522
608.013	13634
608.081	13857
608.149	13577
608.216	12333
608.284	14175
608.352	13055
608.419	17133
608.487	29098
608.555	19124
608.622	13586
608.690	12944
608.757	12387
608.825	13895
608.893	14573
608.960	16470
609.028	22284
609.095	33329
609.163	17253
609.230	15538
609.298	15249
609.365	12347
609.432	12108
609.500	13458
609.567	14232
609.635	14808
609.702	13395
609.769	14673
609.837	20372
609.904	16203
609.971	12041
610.039	16390
610.106	18125
610.173	25621
610.241	47023
610.308	75978
610.375	57991
610.442	19610
610.509	14721
610.577	14097
610.644	13261
610.711	12845
610.778	12380
610.845	13215
610.912	13920
610.980	15916
611.047	21307
611.114	17739
611.181	13529
611.248	11668
611.315	13210
611.382	12787
611.449	12814
611.516	12749
611.583	12708
611.650	13253
611.717	12897
611.784	13542
611.851	12736
611.918	14826
611.984	14237
612.051	17677
612.118	23973
612.185	40779
612.252	28891
612.319	13963
612.386	13345
612.452	14315
612.519	18322
612.586	32972
612.653	21371
612.719	14276
612.786	12495
612.853	12399
612.919	11794
612.986	12070
613.053	11867
613.120	11030
613.186	11228
613.253	13509
613.319	11843
613.386	12084
613.453	11703
613.519	14078
613.586	15021
613.652	21939
613.719	18284
613.785	15595
613.852	13840
613.918	13521
613.985	17485
614.051	31150
614.118	75734
614.184	75045
614.250	17101
614.317	12729
614.383	11596
614.449	11316
614.516	10904
614.582	14159
614.648	11422
614.715	11401
614.781	11241
614.847	13257
614.914	15330
614.980	14420
615.046	12727
615.112	11483
615.179	11714
615.245	12763
615.311	13403
615.377	16268
615.443	16732
615.509	15367
615.575	14635
615.642	14463
615.708	15481
615.774	15630
615.840	19427
615.906	20932
615.972	21613
616.038	30772
616.104	38958
616.170	59140
616.236	51162
616.302	23390
616.368	19111
616.434	17754
616.500	19328
616.565	18464
616.631	18248
616.697	17089
616.763	17080
616.829	18955
616.895	22015
616.961	22073
617.026	18785
617.092	16296
617.158	16444
617.224	16098
617.289	16794
617.355	17764
617.421	17759
617.487	19020
617.552	16958
617.618	15584
617.684	16266
617.749	17813
617.815	15159
617.880	14725
617.946	15490
618.012	15110
618.077	15132
618.143	15416
618.208	15500
618.274	17032
618.339	18112
618.405	15854
618.470	17296
618.536	19078
618.601	22579
618.667	20532
618.732	19182
618.798	18715
618.863	18221
618.928	17455
618.994	19630
619.059	21990
619.124	24956
619.190	20994
619.255	18799
619.320	18940
619.386	18081
619.451	17130
619.516	18761
619.581	17903
619.647	18144
619.712	19051
619.777	18266
619.842	19281
619.907	18756
619.972	18773
620.038	17961
620.103	18331
620.168	16994
620.233	17201
620.298	17753
620.363	16956
620.428	16761
620.493	18392
620.558	17097
620.623	17263
620.688	17169
620.753	16453
620.818	16037
620.883	17086
620.948	16445
621.013	17699
621.078	17750
621.143	18533
621.207	21413
621.272	19836
621.337	20309
621.402	26014
621.467	35818
621.532	39034
621.596	25507
621.661	23385
621.726	21854
621.791	21565
621.855	21964
621.920	25238
621.985	28845
622.049	34361
622.114	30341
622.179	25553
622.243	27466
622.308	24916
622.373	26070
622.437	25655
622.502	23744
622.566	24651
622.631	22966
622.695	24585
622.760	24220
622.824	24140
622.889	23830
622.953	24328
623.018	30403
623.082	29722
623.147	23608
623.211	22593
623.276	22781
623.340	22823
623.404	21654
623.469	21568
623.533	20631
623.597	21273
623.662	21579
623.726	21700
623.790	21253
623.854	21598
623.919	21990
623.983	20840
624.047	22299
624.111	21490
624.176	21087
624.240	21903
624.304	24213
624.368	21799
624.432	22225
624.496	22589
624.560	21500
624.625	22745
624.689	20963
624.753	19712
624.817	19959
624.881	19594
624.945	20070
625.009	20696
625.073	19823
625.137	19834
625.201	23556
625.265	23302
625.329	21018
625.393	22018
625.456	21999
625.520	22775
625.584	26603
625.648	36451
625.712	61421
625.776	154337
625.839	179112
625.903	66647
625.967	31035
626.031	56929
626.095	95696
626.158	31123
626.222	18500
626.286	19590
626.349	18094
626.413	19136
626.477	19975
626.540	16499
626.604	18086
626.668	19108
626.731	17572
626.795	20649
626.858	18951
626.922	17708
626.986	17417
627.049	16047
627.113	17590
627.176	17457
627.240	16365
627.303	16891
627.366	16578
627.430	16918
627.493	18005
627.557	18207
627.620	18331
627.684	16651
627.747	16969
627.810	16077
627.874	17775
627.937	15900
628.000	19226
628.064	18028
628.127	14511
628.190	16376
628.253	17169
628.317	15739
628.380	16020
628.443	16193
628.506	16556
628.569	16751
628.632	14948
628.696	15940
628.759	15637
628.822	14850
628.885	13978
628.948	15202
629.011	15541
629.074	15957
629.137	15164
629.200	13979
629.263	18280
629.326	15016
629.389	13881
629.452	15674
629.515	16365
629.578	15409
629.641	16011
629.704	15443
629.767	15628
629.830	13759
629.892	13775
629.955	14248
630.018	16073
630.081	14097
630.144	16544
630.207	14433
630.269	17672
630.332	19658
630.395	16375
630.458	13720
630.520	13356
630.583	14127
630.646	12417
630.708	12515
630.771	13088
630.834	14167
630.896	11603
630.959	12345
631.021	12801
631.084	13373
631.146	16055
631.209	18809
631.272	13024
631.334	12981
631.397	12250
631.459	12397
631.522	11866
631.584	12551
631.646	13161
631.709	12619
631.771	15920
631.834	13811
631.896	12472
631.958	10551
632.021	11667
632.083	11910
632.145	12445
632.208	11729
632.270	12074
632.332	10668
632.395	11610
632.457	13259
632.519	11440
632.581	12329
632.643	10569
632.706	12383
632.768	9975
632.830	11678
632.892	10871
632.954	11844
633.016	12128
633.078	10962
633.141	10515
633.203	10801
633.265	11659
633.327	10720
633.389	9890
633.451	12431
633.513	12824
633.575	14933
633.637	12918
633.698	11570
633.760	10991
633.822	10912
633.884	10760
633.946	10084
634.008	11226
634.070	10938
634.132	12390
634.193	11858
634.255	9960
634.317	9956
634.379	10612
634.441	10554
634.502	10865
634.564	12264
634.626	12807
634.687	15090
634.749	12353
634.811	10573
634.873	8730
634.934	9584
634.996	10039
635.057	10265
635.119	9414
635.181	10821
635.242	10104
635.304	8482
635.365	12062
635.427	10417
635.488	9214
635.550	8901
635.611	9562
635.673	8441
635.734	11058
635.796	9397
635.857	10783
635.918	8797
635.980	10559
636.041	9252
636.102	10407
636.164	9313
636.225	9554
636.286	8630
636.348	10308
636.409	9084
636.470	7736
636.531	10375
636.593	12523
636.654	12277
636.715	9081
636.776	7914
636.838	8448
636.899	10112
636.960	9251
637.021	9672
637.082	11109
637.143	10716
637.204	8612
637.265	7264
637.326	8278
637.387	8532
637.448	7244
637.509	9339
637.570	7806
637.631	9030
637.692	7169
637.753	6555
637.814	7964
637.875	8944
637.936	8803
637.997	7018
638.058	8510
638.119	9806
638.179	8265
638.240	7750
638.301	7287
638.362	7737
638.423	8085
638.483	8990
638.544	7202
638.605	8088
638.666	6590
638.726	8309
638.787	7822
638.848	8252
638.908	7674
638.969	7991
639.030	8924
639.090	7032
639.151	6990
639.211	8520
639.272	9622
639.332	13015
639.393	8942
639.453	7734
639.514	7773
639.574	7915
639.635	6885
639.695	8241
639.756	6163
639.816	8098
639.877	8303
639.937	11942
639.997	13946
640.058	7020
640.118	6412
640.178	8709
640.239	6463
640.299	6686
640.359	6630
640.420	6659
640.480	7069
640.540	6823
640.600	6926
640.661	7638
640.721	6210
640.781	10445
640.841	5918
640.901	7876
640.961	7513
641.021	8087
641.082	6704
641.142	9572
641.202	9116
641.262	5656
641.322	6828
641.382	6064
641.442	7322
641.502	6722
641.562	7053
641.622	6877
641.682	6729
641.742	7209
641.802	7543
641.861	8408
641.921	7703
641.981	7746
642.041	8209
642.101	9148
642.161	6270
642.221	6819
642.280	6670
642.340	6174
642.400	5286
642.460	8116
642.519	6669
642.579	6271
642.639	8448
642.698	4195
642.758	8086
642.818	7743
642.877	6163
642.937	7156
642.997	7643
643.056	9231
643.116	5682
643.175	8142
643.235	6506
643.294	6304
643.354	6105
643.414	6594
643.473	6408
643.532	6865
643.592	5720
643.651	7097
643.711	9971
643.770	11539
643.830	19073
643.889	36648
643.948	12910
644.008	7745
644.067	6073
644.126	5300
644.186	6128
644.245	6757
644.304	4554
644.363	7411
644.423	4542
644.482	6538
644.541	5885
644.600	4233
644.659	6067
644.719	5597
644.778	6994
644.837	7231
644.896	7910
644.955	10408
645.014	8260
645.073	8148
645.132	6054
645.191	7290
645.250	5381
645.309	7495
645.368	6139
645.427	7713
645.486	5711
645.545	7699
645.604	5378
645.663	5916
645.722	5501
645.781	6073
645.840	5776
645.898	5908
645.957	6999
646.016	6323
646.075	7491
646.134	9697
646.192	17119
646.251	24643
646.310	7817
646.369	6241
646.427	6150
646.486	4969
646.545	5525
646.603	6080
646.662	5979
646.721	6133
646.779	4064
646.838	3861
646.896	5451
646.955	5688
647.014	5928
647.072	5624
647.131	7402
647.189	6058
647.248	4304
647.306	5730
647.365	6141
647.423	3845
647.481	7324
647.540	3665
647.598	5342
647.657	5027
647.715	5789
647.773	4967
647.832	5804
647.890	5133
647.948	5680
648.007	7073
648.065	4314
648.123	5877
648.181	8314
648.240	9135
648.298	6605
648.356	5444
648.414	7426
648.472	7493
648.531	7794
648.589	6887
648.647	6101
648.705	6238
648.763	6470
648.821	5793
648.879	6103
648.937	6762
648.995	6268
649.053	6246
649.111	6547
649.169	8241
649.227	7841
649.285	7960
649.343	15701
649.401	14184
649.459	15343
649.516	15282
649.574	14324
649.632	32875
649.690	41287
649.748	13583
649.806	10154
649.863	15770
649.921	8866
649.979	6107
650.037	5493
650.094	4433
650.152	5563
650.210	5113
650.268	5349
650.325	5726
650.383	4813
650.440	3752
650.498	6091
650.556	4892
650.613	4388
650.671	4672
650.728	5629
650.786	6286
650.843	5942
650.901	3791
650.958	4637
651.016	5386
651.073	3971
651.131	3886
651.188	3367
651.246	6398
651.303	5117
651.360	5048
651.418	4384
651.475	5231
651.532	3570
651.590	5362
651.647	3744
651.704	4642
651.762	4305
651.819	4508
651.876	4454
651.933	5846
651.990	5093
652.048	3301
652.105	4080
652.162	5245
652.219	4095
652.276	3959
652.333	3894
652.390	3620
652.448	4197
652.505	4938
652.562	4887
652.619	5774
652.676	7578
652.733	8419
652.790	3580
652.847	3181
652.904	4133
652.961	3109
653.017	2735
653.074	5213
653.131	3726
653.188	3334
653.245	4131
653.302	4154
653.359	3320
653.415	4557
653.472	4278
653.529	4978
653.586	3529
653.642	4528
653.699	4304
653.756	3099
653.813	3807
653.869	3640
653.926	3332
653.983	3391
654.039	3820
654.096	3790
654.152	5130
654.209	2772
654.266	4882
654.322	4953
654.379	4917
654.435	5990
654.492	6014
654.548	8469
654.605	12356
654.661	7939
654.717	5292
654.774	5311
654.830	5067
654.887	4851
654.943	4862
655.000	5087
655.056	5339
655.112	6501
655.168	5371
655.225	5447
655.281	7796
655.337	9315
655.394	16115
655.450	12835
655.506	9924
655.562	17312
655.618	14199
655.675	5077
655.731	6459
655.787	6327
655.843	7134
655.899	6234
655.955	8495
656.011	8114
656.067	8387
656.123	10216
656.179	12237
656.235	13996
656.291	10738
656.347	12058
656.403	10320
656.459	9315
656.515	9781
656.571	8687
656.627	7004
656.683	6598
656.739	6517
656.795	5732
656.850	5818
656.906	6542
656.962	5285
657.018	5013
657.074	4163
657.129	5166
657.185	5418
657.241	4595
657.297	3245
657.352	5532
657.408	3903
657.464	5410
657.519	5132
657.575	3208
657.630	4288
657.686	4726
657.742	4145
657.797	4628
657.853	4439
657.908	5362
657.964	3276
658.019	4669
658.075	4778
658.130	5818
658.186	2687
658.241	4420
658.297	3773
658.352	4030
658.407	4187
658.463	3723
658.518	4513
658.573	4165
658.629	3340
658.684	4470
658.739	4528
658.795	3072
658.850	3892
658.905	4097
658.960	3539
659.016	3949
659.071	3571
659.126	3876
659.181	4230
659.236	6997
659.291	6106
659.346	5027
659.401	5520
659.457	6609
659.512	7189
659.567	6122
659.622	4259
659.677	4431
659.732	3843
659.787	4801
659.842	5553
659.897	8270
659.952	4931
660.007	4651
660.061	3692
660.116	4290
660.171	3611
660.226	3852
660.281	4900
660.336	3522
660.391	4993
660.445	4705
660.500	4518
660.555	4344
660.610	3529
660.664	4748
660.719	3424
660.774	5373
660.828	4260
660.883	3861
660.938	4741
660.992	3791
661.047	4778
661.101	4140
661.156	4048
661.211	3671
661.265	4924
661.320	4472
661.374	4058
661.429	3653
661.483	5008
661.538	3470
661.592	3755
661.647	5312
661.701	4138
661.755	4648
661.810	4974
661.864	3815
661.919	3414
661.973	5015
662.027	4216
662.081	4242
662.136	3972
662.190	4696
662.244	5025
662.299	4538
662.353	4159
662.407	4482
662.461	4484
662.515	5161
662.569	4473
662.624	5598
662.678	5472
662.732	5129
662.786	5178
662.840	5341
662.894	4590
662.948	5104
663.002	4504
663.056	5340
663.110	3632
663.164	4668
663.218	3975
663.272	4165
663.326	4405
663.380	4967
663.434	4529
663.488	4785
663.542	5611
663.595	5030
663.649	4966
663.703	4857
663.757	5149
663.811	3631
663.864	3939
663.918	4665
663.972	3672
664.026	4138
664.079	4605
664.133	4727
664.187	5197
664.240	3831
664.294	4288
664.348	5077
664.401	4531
664.455	4262
664.508	4367
664.562	4755
664.615	4730
664.669	4387
664.722	4596
664.776	4602
664.829	4703
664.883	4585
664.936	4763
664.990	5852
665.043	5644
665.097	5939
665.150	6807
665.203	5388
665.257	4630
665.310	6042
665.363	5221
665.417	5341
665.470	5841
665.523	5373
665.576	5846
665.630	4821
665.683	5110
665.736	5817
665.789	5300
665.842	4821
665.895	5581
665.949	5493
666.002	4792
666.055	6186
666.108	5607
666.161	5658
666.214	4415
666.267	5487
666.320	5105
666.373	6379
666.426	5497
666.479	5448
666.532	6467
666.585	7920
666.638	8185
666.691	7367
666.744	7469
666.796	7841
666.849	7123
666.902	5318
666.955	5109
667.008	4752
667.060	5180
667.113	4668
667.166	4169
667.219	5242
667.271	4958
667.324	5113
667.377	4927
667.430	4551
667.482	5831
667.535	5959
667.587	5404
667.640	5104
667.693	6496
667.745	7316
667.798	8031
667.850	6105
667.903	5807
667.955	4931
668.008	5866
668.060	6888
668.113	6928
668.165	6964
668.218	6480
668.270	6706
668.322	5703
668.375	6221
668.427	5284
668.479	6009
668.532	5803
668.584	5976
668.636	5578
668.689	6185
668.741	5845
668.793	6248
668.845	5119
668.898	6069
668.950	6117
669.002	6102
669.054	5557
669.106	6287
669.158	5963
669.211	6226
669.263	5493
669.315	7851
669.367	7850
669.419	6757
669.471	6609
669.523	7950
669.575	9942
669.627	8761
669.679	7356
669.731	6961
669.783	6983
669.835	7719
669.886	6865
669.938	7365
669.990	5858
670.042	6659
670.094	7175
670.146	6872
670.197	7374
670.249	9499
670.301	10469
670.353	13932
670.404	18574
670.456	24131
670.508	36800
670.560	56267
670.611	90000
670.663	153343
670.715	352603
670.766	625827
670.818	239146
670.869	41838
670.921	21448
670.972	16294
671.024	12112
671.075	10423
671.127	10093
671.178	7599
671.230	8084
671.281	7539
671.333	7571
671.384	7783
671.436	7659
671.487	8491
671.538	7947
671.590	8505
671.641	9148
671.692	8186
671.744	9483
671.795	9408
671.846	8396
671.897	7392
671.949	7171
672.000	7380
672.051	7221
672.102	8121
672.153	6996
672.204	6942
672.256	7433
672.307	6806
672.358	6611
672.409	7185
672.460	7064
672.511	6570
672.562	6616
672.613	7029
672.664	6402
672.715	6487
672.766	5635
672.817	6350
672.868	6232
672.919	6695
672.970	6548
673.021	6840
673.071	5185
673.122	6163
673.173	6705
673.224	6119
673.275	6238
673.326	5458
673.376	5310
673.427	6053
673.478	6449
673.528	7217
673.579	6080
673.630	5640
673.680	7283
673.731	5890
673.782	5530
673.832	6328
673.883	6370
673.934	7347
673.984	5907
674.035	5775
674.085	6122
674.136	6167
674.186	7410
674.237	8862
674.287	13313
674.338	9173
674.388	5793
674.438	5868
674.489	6159
674.539	6540
674.589	6367
674.640	6704
674.690	6337
674.740	6304
674.791	7420
674.841	7093
674.891	6214
674.942	6406
674.992	6578
675.042	5700
675.092	5943
675.142	5164
675.193	6499
675.243	5907
675.293	5889
675.343	6171
675.393	6578
675.443	6608
675.493	5447
675.543	5050
675.593	6244
675.643	6166
675.693	6469
675.743	7044
675.793	6115
675.843	5192
675.893	5978
675.943	5383
675.993	5780
676.043	6989
676.093	5353
676.142	5485
676.192	4995
676.242	5533
676.292	5315
676.341	5631
676.391	6183
676.441	5119
676.491	5203
676.540	5344
676.590	5220
676.640	5619
676.689	5628
676.739	5578
676.789	4593
676.838	5303
676.888	5333
676.937	4824
676.987	5308
677.037	4519
677.086	4738
677.136	5168
677.185	5026
677.235	3796
677.284	5384
677.333	4859
677.383	4242
677.432	4955
677.482	4414
677.531	5249
677.580	5274
677.630	5028
677.679	4735
677.728	4701
677.778	4806
677.827	4953
677.876	4238
677.925	4440
677.975	4933
678.024	5074
678.073	4459
678.122	5697
678.171	5266
678.220	4761
678.269	6153
678.319	6277
678.368	6196
678.417	5712
678.466	6194
678.515	6068
678.564	6179
678.613	5672
678.662	5393
678.711	5611
678.760	6202
678.809	5538
678.857	5954
678.906	5153
678.955	5331
679.004	5499
679.053	5654
679.102	5271
679.151	5411
679.199	4765
679.248	5524
679.297	5841
679.346	5796
679.394	5748
679.443	5335
679.492	5660
679.540	6009
679.589	6197
679.638	4333
679.686	4763
679.735	4789
679.784	5483
679.832	5796
679.881	5068
679.929	4813
679.978	3874
680.026	4539
680.075	4952
680.123	4213
680.172	4623
680.220	4378
680.268	5576
680.317	4191
680.365	4621
680.414	3809
680.462	4729
680.510	5042
680.559	4137
680.607	3825
680.655	4579
680.703	4817
680.752	4991
680.800	4092
680.848	4017
680.896	3665
680.945	3506
680.993	4036
681.041	4419
681.089	4019
681.137	3756
681.185	4101
681.233	4973
681.258	4643
681.281	4310
681.329	4338
681.377	3907
681.380	3971
681.425	4776
681.473	4649
681.502	4978
681.521	5161
681.569	5508
681.617	5491
681.624	5512
681.665	5511
681.713	4762
681.745	4792
681.761	4778
681.809	4858
681.857	4171
681.867	4226
681.904	4315
681.952	4593
681.989	4585
682.000	4560
682.048	4641
682.096	4409
682.111	4478
682.143	4551
682.191	5003
682.233	5653
682.239	5731
682.286	5468
682.334	5103
682.354	5188
682.382	5291
682.430	5121
682.476	5144
682.477	5126
682.525	4912
682.572	4773
682.598	4675
682.620	4572
682.667	4439
682.715	5917
682.720	5874
682.763	5243
682.810	4810
682.841	5073
682.857	5194
682.905	4471
682.952	5265
682.963	5362
683.000	5599
683.047	5725
683.085	5701
683.095	5672
683.142	5269
683.190	5267
683.206	5146
683.237	4922
683.284	5263
683.328	6056
683.332	6103
683.379	5956
683.426	5089
683.449	5223
683.473	5367
683.521	5822
683.568	5499
683.571	5518
683.615	5472
683.662	5390
683.693	5419
683.709	5425
683.757	5004
683.804	5344
683.814	5396
683.851	5501
683.898	5599
683.936	5494
683.945	5470
683.992	5645
684.039	5482
684.057	5646
684.086	5830
684.133	5435
684.179	6246
684.180	6257
684.227	5634
684.274	6514
684.300	5878
684.321	5381
684.368	5872
684.415	6261
684.422	6227
684.462	5917
684.509	5416
684.543	5675
684.556	5764
684.603	5872
684.649	5626
684.665	5814
684.696	6210
684.743	6224
684.786	6496
684.790	6523
684.837	7074
684.883	7789
684.908	7667
684.930	7373
684.977	8462
685.023	7700
685.029	7694
685.070	7485
685.117	6955
685.150	6653
685.164	6614
685.210	8097
685.257	7965
685.272	8068
685.303	8100
685.350	7489
685.393	7467
685.396	7464
685.443	7789
685.490	8085
685.514	7987
685.536	7797
685.583	7764
685.629	7793
685.636	7864
685.675	8350
685.722	7026
685.757	7491
685.768	7648
685.815	8260
685.861	8739
685.878	8269
685.908	7500
685.954	8327
686.000	9529
686.000	9550
686.047	10348
686.093	11287
686.121	11817
686.139	11695
686.185	9434
686.232	9597
686.242	9461
686.278	9070
686.324	8705
686.363	7595
686.370	7465
686.416	7403
686.463	8223
686.484	7985
686.509	7727
686.555	7922
686.601	8353
686.606	8385
686.647	8643
686.693	8188
686.727	7789
686.739	7620
686.785	8307
686.831	8141
686.848	8091
686.877	7862
686.923	7477
686.969	7911
686.969	7914
687.015	7632
687.061	7593
687.090	7418
687.107	7287
687.153	8140
687.199	8078
687.211	7868
687.245	7436
687.291	8245
687.332	8665
687.336	8704
687.382	8965
687.428	8981
687.453	8681
687.474	8221
687.520	8818
687.565	7695
687.574	7716
687.611	8082
687.657	8170
687.695	8325
687.702	8378
687.748	8669
687.794	9030
687.816	8632
687.839	8107
687.885	8183
687.931	7974
687.937	7990
687.976	8338
688.022	8153
688.058	8889
688.067	9011
688.113	8719
688.158	8067
688.179	8353
688.204	8779
688.249	8245
688.295	8720
688.300	8701
688.340	8778
688.386	9414
688.421	9386
688.431	9273
688.477	8835
688.522	8756
688.542	8796
688.567	9012
688.613	9027
688.658	8102
688.663	8145
688.703	8770
688.749	9497
688.784	9729
688.794	9707
688.839	9284
688.884	9532
688.905	9103
688.930	8546
688.975	9021
689.020	8801
689.026	8700
689.065	8417
689.110	8913
689.146	8859
689.155	8779
689.201	8718
689.246	8524
689.267	8269
689.291	8219
689.336	8726
689.381	9016
689.388	9037
689.426	9042
689.471	8860
689.509	8995
689.516	9029
689.561	8655
689.606	8677
689.630	8911
689.651	9114
689.696	8833
689.741	8826
689.750	8789
689.785	8816
689.830	9133
689.871	9351
689.875	9347
689.920	8814
689.965	8776
689.992	8351
690.010	8288
690.054	8820
690.099	9257
690.112	9380
690.144	9500
690.189	8850
690.233	8972
690.233	8983
690.278	8650
690.323	9036
690.354	8939
690.367	8981
690.412	9460
690.457	9302
690.474	9626
690.501	10053
690.546	9434
690.590	9232
690.595	9232
690.635	9617
690.680	10138
690.716	10054
690.724	10077
690.769	11071
690.813	11263
690.836	11645
690.857	12694
690.902	14611
690.946	17339
690.957	17915
690.991	22469
691.035	29790
691.077	36860
691.080	36998
691.124	35091
691.168	33173
691.198	31982
691.213	29956
691.257	24885
691.301	20150
691.318	18005
691.346	16407
691.390	14138
691.434	12079
691.439	11865
691.478	11815
691.522	11487
691.559	10908
691.567	10872
691.611	11100
691.655	10950
691.680	10860
691.699	10827
691.743	11203
691.787	11105
691.800	11077
691.831	10924
691.875	10682
691.919	10494
691.921	10470
691.964	10923
692.008	11962
692.041	11898
692.052	11747
692.096	11938
692.139	11531
692.162	11328
692.183	11076
692.227	10862
692.271	10747
692.282	10605
692.315	10705
692.359	10953
692.402	11317
692.403	11339
692.447	11158
692.490	11724
692.523	11936
692.534	11950
692.578	11807
692.622	11792
692.643	11588
692.666	11364
692.709	11184
692.753	10769
692.763	10823
692.797	11139
692.840	10622
692.884	10683
692.884	10706
692.928	11064
692.971	10957
693.004	11037
693.015	11113
693.059	11850
693.102	11943
693.124	11956
693.146	11867
693.189	11933
693.233	12035
693.245	12054
693.276	12533
693.320	13201
693.363	13296
693.365	13301
693.407	14270
693.450	14958
693.485	15437
693.493	15787
693.537	17584
693.580	19041
693.605	20098
693.624	21912
693.667	26389
693.710	30629
693.725	32371
693.753	41816
693.797	57252
693.840	73510
693.845	74870
693.883	71054
693.926	65828
693.966	62088
693.970	60873
694.013	47490
694.056	34261
694.086	25133
694.099	24206
694.142	21659
694.185	18990
694.206	17548
694.229	17018
694.272	16323
694.315	15418
694.326	15130
694.358	14739
694.401	14144
694.444	13888
694.446	13828
694.487	13229
694.530	12801
694.566	12570
694.573	12575
694.616	11985
694.659	11556
694.686	11378
694.702	11328
694.745	10845
694.787	10718
694.806	10483
694.830	10513
694.873	10749
694.916	10963
694.926	10943
694.959	10779
695.002	10636
695.044	10555
695.046	10523
695.087	10494
695.130	10728
695.166	10873
695.172	10966
695.215	11183
695.258	11419
695.286	11487
695.301	11428
695.343	11469
695.386	11380
695.406	11244
695.428	11014
695.471	10724
695.514	10244
695.526	10132
695.556	10266
695.599	10536
695.641	10598
695.646	10566
695.684	10398
695.726	10266
695.766	10124
695.769	10160
695.811	10710
695.854	10804
695.886	10975
695.896	11002
695.938	10774
695.981	10792
696.005	10636
696.023	10607
696.065	10789
696.108	10731
696.125	10772
696.150	11079
696.192	11257
696.235	11729
696.245	11766
696.277	11502
696.319	11210
696.361	10982
696.365	10924
696.404	10947
696.446	11073
696.485	11092
696.488	11119
696.530	11063
696.572	11138
696.604	11080
696.614	11070
696.656	10978
696.698	10829
696.724	10722
696.740	10744
696.783	10769
696.825	10714
696.844	10719
696.867	10720
696.909	10574
696.951	10306
696.964	10283
696.992	10139
697.034	9622
697.076	9364
697.083	9262
697.118	9577
697.160	10026
697.202	10419
697.203	10403
697.244	10306
697.286	10214
697.323	9976
697.327	9987
697.369	9960
697.411	9869
697.442	9806
697.453	9919
697.494	10305
697.536	10608
697.562	10810
697.578	10847
697.620	10792
697.661	10756
697.682	10698
697.703	10812
697.744	11070
697.786	11345
697.801	11405
697.828	11663
697.869	11943
697.911	12279
697.921	12319
697.952	11924
697.994	11389
698.035	10898
698.040	10806
698.077	10954
698.118	11030
698.160	11182
698.160	11153
698.201	11007
698.243	10862
698.279	10685
698.284	10766
698.325	11285
698.367	11766
698.399	12131
698.408	12000
698.449	11225
698.491	10467
698.518	9958
698.532	10047
698.573	10225
698.614	10362
698.638	10427
698.656	10454
698.697	10444
698.738	10448
698.757	10415
698.779	10642
698.820	11034
698.862	11412
698.877	11528
698.903	11830
698.944	12248
698.985	12681
698.996	12766
699.026	12646
699.067	12439
699.116	12158
699.235	11679
699.354	11770
699.474	12491
699.593	13328
699.713	12776
699.832	10881
699.951	11602
700.070	11402
700.190	11143
700.309	11296
700.428	12737
700.547	11280
700.667	11960
700.786	12287
700.905	11320
701.024	12939
701.143	11279
701.262	8763
701.381	10285
701.500	10433
701.619	10263
701.738	9748
701.857	9443
701.976	9168
702.095	9481
702.214	11157
702.333	10288
702.452	9572
702.571	8952
702.690	9156
702.809	8974
702.928	8590
703.047	9441
703.165	9087
703.284	9332
703.403	9462
703.522	11300
703.640	10983
703.759	14076
703.878	19945
703.997	10264
704.115	10426
704.234	9208
704.353	8913
704.471	9028
704.590	8169
704.708	7861
704.827	8854
704.946	8774
705.064	9941
705.183	9341
705.301	12380
705.420	18204
705.538	16148
705.656	13507
705.775	13163
705.893	20192
706.012	26821
706.130	14379
706.249	13197
706.367	13596
706.485	15615
706.604	13449
706.722	13606
706.840	15801
706.958	17217
707.077	13196
707.195	12753
707.313	11824
707.431	11584
707.549	11485
707.668	12220
707.786	12545
707.904	11764
708.022	11075
708.140	12111
708.258	11201
708.376	11937
708.494	11982
708.612	13542
708.730	19398
708.848	17915
708.966	16383
709.084	15468
709.202	14964
709.320	15980
709.438	16126
709.556	16238
709.674	15562
709.791	16562
709.909	14767
710.027	15662
710.145	14636
710.263	16140
710.380	15517
710.498	15383
710.616	15337
710.733	15762
710.851	16171
710.969	15634
711.086	15935
711.204	14761
711.322	13811
711.439	15329
711.557	14799
711.674	15892
711.792	14099
711.909	14631
712.027	15112
712.144	14796
712.262	13994
712.379	16134
712.497	23757
712.614	23072
712.732	19242
712.849	18357
712.966	19531
713.084	22411
713.201	19413
713.318	19097
713.436	18134
713.553	19055
713.670	18357
713.787	21542
713.905	21803
714.022	18324
714.139	17422
714.256	18165
714.373	17226
714.490	18570
714.608	18682
714.725	26137
714.842	27791
714.959	16514
715.076	15977
715.193	15310
715.310	15178
715.427	15840
715.544	16509
715.661	18587
715.778	15486
715.895	17694
716.011	17673
716.128	14862
716.245	15136
716.362	15592
716.479	17222
716.596	15191
716.713	15848
716.829	15110
716.946	15352
717.063	15012
717.180	14475
717.296	13551
717.413	13711
717.530	13800
717.646	12808
717.763	13969
717.880	12928
717.996	12697
718.113	12933
718.229	13411
718.346	12214
718.462	13311
718.579	14416
718.695	17728
718.812	19736
718.928	20521
719.045	15102
719.161	12625
719.277	11686
719.394	12700
719.510	13483
719.626	11440
719.743	15195
719.859	13273
719.975	12917
720.092	13915
720.208	16401
720.324	13976
720.440	12024
720.557	13389
720.673	17208
720.789	29733
720.905	72067
721.021	25310
721.137	12925
721.253	12640
721.369	12981
721.486	15391
721.602	21134
721.718	13059
721.834	10421
721.950	11604
722.066	11616
722.181	10848
722.297	10493
722.413	10748
722.529	11017
722.645	10752
722.761	10436
722.877	10399
722.993	9031
723.108	10280
723.224	9474
723.340	10575
723.456	9768
723.571	10386
723.687	9022
723.803	10113
723.918	9047
724.034	9166
724.150	9904
724.265	11946
724.381	26298
724.497	35472
724.612	11313
724.728	9505
724.843	9251
724.959	12702
725.074	25897
725.190	31035
725.305	11658
725.421	9902
725.536	8257
725.651	8462
725.767	8213
725.882	8878
725.997	7504
726.113	8936
726.228	7751
726.343	7419
726.459	7481
726.574	8668
726.689	7707
726.804	8433
726.920	8634
727.035	8196
727.150	9369
727.265	8431
727.380	8597
727.495	8769
727.610	7374
727.725	8016
727.841	8720
727.956	14153
728.071	13726
728.186	8134
728.301	6645
728.416	7853
728.531	7482
728.645	7045
728.760	7965
728.875	8153
728.990	7575
729.105	7609
729.220	7134
729.335	7878
729.449	6808
729.564	5483
729.679	5798
729.794	6327
729.908	8639
730.023	6962
730.138	6159
730.253	6083
730.367	5721
730.482	5677
730.596	6546
730.711	7524
730.826	6762
730.940	5309
731.055	6568
731.169	6436
731.284	5068
731.398	6013
731.513	7662
731.627	7260
731.742	8205
731.856	9755
731.970	5101
732.085	5043
732.199	6536
732.313	5489
732.428	5694
732.542	8622
732.656	6790
732.771	4810
732.885	5325
732.999	6090
733.113	6853
733.227	6419
733.342	5267
733.456	6023
733.570	5010
733.684	5244
733.798	4861
733.912	5223
734.026	4330
734.140	5558
734.254	6344
734.368	13933
734.482	17693
734.596	5518
734.710	3907
734.824	4642
734.938	3937
735.052	5106
735.166	5547
735.280	6144
735.393	5049
735.507	5528
735.621	8803
735.735	18762
735.849	6789
735.962	4708
736.076	4951
736.190	6587
736.303	9470
736.417	12515
736.531	5960
736.644	5781
736.758	3919
736.872	4301
736.985	4737
737.099	4008
737.212	3374
737.326	4711
737.439	4331
737.553	4087
737.666	4937
737.780	3985
737.893	3845
738.007	3825
738.120	3425
738.233	3661
738.347	3203
738.460	4801
738.573	4505
738.687	4722
738.800	3720
738.913	5134
739.026	4753
739.140	4451
739.253	4242
739.366	3877
739.479	3342
739.592	3715
739.705	3727
739.818	3700
739.932	3659
740.045	3617
740.158	3974
740.271	4946
740.384	3638
740.497	5224
740.610	5170
740.723	4852
740.836	4898
740.949	5032
741.062	5552
741.174	6069
741.287	4993
741.400	4345
741.513	5773
741.626	6427
741.739	4994
741.851	3810
741.964	3781
742.077	5359
742.189	5980
742.302	12412
742.415	10002
742.527	5154
742.640	4430
742.753	3615
742.865	3263
742.978	3564
743.090	3566
743.203	4146
743.316	4002
743.428	2760
743.541	3384
743.653	2817
743.766	3489
743.878	4561
743.990	7388
744.103	12334
744.215	19555
744.327	9007
744.440	4502
744.552	5405
744.664	3776
744.777	3535
744.889	2259
745.001	4486
745.113	2316
745.226	3283
745.338	3471
745.450	3440
745.562	3531
745.674	2157
745.786	2646
745.898	3732
746.010	3192
746.122	2781
746.234	3689
746.347	4121
746.459	4169
746.570	5025
746.682	10122
746.794	27449
746.906	14562
747.018	4344
747.130	3683
747.242	3585
747.354	3004
747.466	4016
747.577	3967
747.689	3662
747.801	3909
747.913	3640
748.024	2590
748.136	2436
748.248	2572
748.359	3139
748.471	2515
748.583	2819
748.694	2893
748.806	5015
748.918	5440
749.029	4176
749.141	3753
749.252	2930
749.364	3179
749.475	5842
749.587	5490
749.698	3073
749.809	3798
749.921	2599
750.032	3282
750.144	2632
750.255	1763
750.366	2291
750.478	2774
750.589	3613
750.700	2972
750.811	3749
750.923	3343
751.034	5633
751.145	5994
751.256	2810
751.367	2415
751.479	3297
751.590	2570
751.701	2560
751.812	2797
751.923	3521
752.034	2652
752.145	2282
752.256	2480
752.367	2163
752.478	2391
752.589	2612
752.700	2386
752.811	2809
752.922	3032
753.032	2814
753.143	2987
753.254	2669
753.365	3370
753.476	2849
753.586	2453
753.697	3015
753.808	1924
753.919	2771
754.029	3122
754.140	3669
754.251	2904
754.361	3149
754.472	3630
754.582	2977
754.693	2735
754.804	2377
754.914	2209
755.025	2534
755.135	3663
755.246	2540
755.356	2838
755.466	3488
755.577	2796
755.687	3767
755.798	2148
755.908	2634
756.018	2622
756.129	3131
756.239	3041
756.349	3228
756.460	2409
756.570	3233
756.680	2641
756.790	3893
756.900	2729
757.011	2853
757.121	2674
757.231	2379
757.341	2960
757.451	2649
757.561	2622
757.671	3029
757.781	2516
757.891	4273
758.001	3614
758.111	3609
758.221	3136
758.331	2900
758.441	3391
758.551	3813
758.661	3963
758.771	4136
758.880	4452
758.990	3888
759.100	4009
759.210	3526
759.320	3742
759.429	3492
759.539	4019
759.649	3014
759.758	4531
759.868	5315
759.978	3309
760.087	4349
760.197	3655
760.307	3987
760.416	3893
760.526	4411
760.635	3949
760.745	4286
760.854	4024
760.964	4461
761.073	4935
761.182	4777
761.292	4995
761.401	6797
761.511	5069
761.620	5392
761.729	5644
761.839	5385
761.948	6315
762.057	5780
762.166	5763
762.276	4434
762.385	6651
762.494	5214
762.603	5676
762.712	6808
762.822	6318
762.931	7466
763.040	6314
763.149	7475
763.258	7427
763.367	8288
763.476	8211
763.585	8453
763.694	9562
763.803	9350
763.912	10414
764.021	9833
764.130	10913
764.238	10766
764.347	11107
764.456	11768
764.565	13916
764.674	14933
764.783	14843
764.891	17255
765.000	19594
765.109	21623
765.217	23716
765.326	29526
765.435	35136
765.543	41513
765.652	50997
765.761	66570
765.869	90360
765.978	130978
766.086	205322
766.195	348351
766.303	619435
766.412	868301
766.520	782293
766.629	492046
766.737	272060
766.846	167803
766.954	115104
767.062	84320
767.171	64835
767.279	49719
767.387	39853
767.496	33770
767.604	29405
767.712	25922
767.820	23429
767.928	22171
768.037	19871
768.145	19956
768.253	18091
768.361	18777
768.469	18698
768.577	18937
768.685	18969
768.793	20987
768.901	22578
769.009	26351
769.117	31357
769.225	40182
769.333	55346
769.441	85374
769.549	144902
769.657	284871
769.765	583685
769.873	739935
769.981	469844
770.088	214687
770.196	116529
770.304	75782
770.412	53601
770.519	41521
770.627	33140
770.735	26908
770.842	22584
770.950	19104
771.058	17084
771.165	17013
771.273	13609
771.380	12986
771.488	12466
771.595	10664
771.703	9913
771.810	10707
771.918	8852
772.025	9155
772.133	8643
772.240	8607
772.348	8205
772.455	7852
772.562	7062
772.670	6996
772.777	7878
772.884	6648
772.991	6730
773.099	6489
773.206	5811
773.313	6092
773.420	5416
773.528	4591
773.635	5201
773.742	4766
773.849	5277
773.956	4657
774.063	5217
774.170	4637
774.277	5928
774.384	4572
774.491	5204
774.598	4603
774.705	4478
774.812	5633
774.919	5065
775.026	5205
775.133	4636
775.239	4338
775.346	4596
775.453	4737
775.560	4623
775.667	4610
775.773	3939
775.880	5494
775.987	4841
776.093	4412
776.200	4506
776.307	4344
776.413	3885
776.520	4178
776.627	4565
776.733	4549
776.840	5229
776.946	9737
777.053	18746
777.159	48017
777.266	30528
777.372	38109
777.478	35095
777.585	18735
777.691	5987
777.798	4389
777.904	5307
778.010	5810
778.117	5010
778.223	4835
778.329	3533
778.435	4467
778.542	3120
778.648	3655
778.754	2491
778.860	3774
778.966	3783
779.072	3906
779.178	3667
779.284	3512
779.391	3761
779.497	2864
779.603	5997
779.708	6147
779.815	15212
779.920	49051
780.026	81902
780.132	13596
780.238	3654
780.344	3921
780.450	3477
780.556	3352
780.661	3193
780.767	3079
780.873	3133
780.979	3702
781.085	2130
781.190	3160
781.296	2502
781.402	2951
781.507	2211
781.613	2711
781.719	1803
781.824	3917
781.930	3531
782.035	2952
782.141	3518
782.246	2772
782.352	2397
782.457	2772
782.563	2965
782.668	2613
782.773	1839
782.879	2948
782.984	3740
783.090	3692
783.195	3779
783.300	3307
783.405	3381
783.511	3185
783.616	2856
783.721	3661
783.826	2317
783.932	3917
784.037	2902
784.142	3166
784.247	2612
784.352	3001
784.457	1873
784.562	3067
784.667	2627
784.772	3132
784.877	2195
784.982	2588
785.087	2117
785.192	3157
785.297	2465
785.402	2671
785.507	1901
785.611	2547
785.716	2011
785.821	2708
785.926	1845
786.031	2098
786.135	3118
786.240	2393
786.345	891
786.450	2621
786.554	1789
786.659	2463
786.763	615
786.868	2187
786.973	2396
787.077	2517
787.182	2666
787.286	2073
787.391	1069
787.495	1822
787.600	2095
787.704	1924
787.809	1702
787.913	1846
788.017	1486
788.122	1857
788.226	1322
788.330	875
788.435	1588
788.539	1756
788.643	1699
788.747	1627
788.852	2060
788.956	2180
789.060	2250
789.164	1964
789.268	1973
789.372	2284
789.476	1663
789.580	1351
789.684	1256
789.788	2630
789.892	1724
789.996	2593
790.100	1858
790.204	1713
790.308	2042
790.412	2723
790.516	2210
790.620	2507
790.724	1723
790.828	2032
790.931	1558
791.035	3651
791.139	1428
791.242	1487
791.346	2255
791.450	1736
791.554	1455
791.657	1242
791.761	2693
791.864	2130
791.968	1904
792.072	1563
792.175	2131
792.279	2073
792.382	1978
792.486	2015
792.589	1781
792.693	2457
792.796	913
792.899	2183
793.003	2336
793.106	1136
793.209	927
793.313	2808
793.416	770
793.519	2529
793.623	1976
793.726	2310
793.829	1600
793.932	1915
794.035	867
794.138	2997
794.242	3454
794.345	3682
794.448	4501
794.551	7645
794.654	27065
794.757	45380
794.860	10478
794.963	3663
795.066	2754
795.169	4092
795.272	1431
795.375	2147
795.477	1504
795.580	2268
795.683	1654
795.786	2036
795.889	142
795.991	1912
796.094	2939
796.197	1711
796.300	2757
796.402	1317
796.505	1019
796.608	415
796.710	1096
796.813	1553
796.915	915
797.018	1785
797.120	1247
797.223	334
797.326	1716
797.428	624
797.530	1258
797.633	1097
797.735	2078
797.838	4749
797.940	4241
798.042	826
798.145	812
798.247	1938
798.349	-195
798.452	1797
798.554	489
798.656	-210
798.758	1168
798.860	1002
798.962	685
799.065	772
799.167	-124
799.269	2543
799.371	1856
799.473	2093
799.575	2159
799.677	2391
799.779	3080
799.881	1305
799.983	1622
800.085	1415
800.187	1000
800.289	230
800.390	1423
800.492	1213
800.594	1423
800.696	1455
800.798	879
800.899	621
801.001	713
801.103	943
801.205	707
801.306	956
801.408	-286
801.509	1128
801.611	828
801.713	1279
801.814	198
801.916	221
802.017	463
802.119	422
802.220	625
802.322	-215
802.423	3201
802.525	602
802.626	1568
802.727	995
802.829	877
802.930	-320
803.031	2844
803.133	822
803.234	494
803.335	1136
803.436	300
803.538	1187
803.639	-85
803.740	709
803.841	106
803.942	401
804.043	1476
804.144	823
804.245	-98
804.346	174
804.447	542
804.548	1204
804.649	1975
804.750	665
804.851	-75
804.952	654
805.053	413
805.154	-458
805.255	1395
805.355	13
805.456	-116
805.557	130
805.658	-58
805.758	1145
805.859	623
805.960	195
806.061	27
806.161	-86
806.262	917
806.362	711
806.463	379
806.564	1606
806.664	1335
806.765	1034
806.865	1885
806.966	1627
807.066	459
807.166	709
807.267	1282
807.367	687
807.468	805
807.568	-286
807.668	980
807.769	1119
807.869	225
807.969	325
808.069	451
808.170	971
808.270	244
808.370	1265
808.470	952
808.570	-62
808.670	119
808.770	671
808.870	-106
808.970	1055
809.070	-423
809.170	-166
809.271	755
809.370	296
809.470	-439
809.570	266
809.670	468
809.770	838
809.870	477
809.970	214
810.070	381
810.169	143
810.269	-356
810.369	802
810.469	307
810.568	224
810.668	-1159
810.768	-674
810.867	770
810.967	-311
811.066	-290
811.166	-192
811.265	1128
811.365	-396
811.464	768
811.564	1111
811.663	297
811.763	-889
811.862	342
811.962	849
812.061	363
812.160	-138
812.260	713
812.359	838
812.458	606
812.557	3113
812.657	3482
812.756	1160
812.855	411
812.954	371
813.053	274
813.153	1050
813.252	90
813.351	902
813.450	215
813.549	-384
813.648	358
813.747	-117
813.846	237
813.945	-701
814.044	-9
814.143	326
814.242	6
814.341	-444
814.439	-6
814.538	169
814.637	-60
814.736	262
814.835	278
814.933	-424
815.032	314
815.131	269
815.229	-270
815.328	253
815.427	-419
815.525	700
815.624	649
815.722	-456
815.821	384
815.919	698
816.018	-369
816.116	513
816.215	-106
816.313	583
816.412	-327
816.510	533
816.609	1032
816.707	1401
816.805	-240
816.904	768
817.002	113
817.100	1830
817.198	310
817.296	195
817.395	322
817.493	1713
817.591	-468
817.689	1892
817.787	610
817.885	3391
817.983	6300
818.081	13657
818.179	31701
818.277	80993
818.375	68474
818.473	23174
818.571	9386
818.669	6649
818.767	9247
818.865	7136
818.963	4511
819.061	5934
819.158	12512
819.256	28372
819.354	69862
819.452	152364
819.549	94920
819.647	23583
819.745	8435
819.842	5316
819.940	3655
820.038	3065
820.135	1728
820.233	1953
820.330	1126
820.428	593
820.525	2259
820.623	979
820.720	241
820.818	1593
820.915	1187
821.012	2892
821.110	742
821.207	2279
821.304	1004
821.402	3643
821.499	8280
821.596	16012
821.693	9122
821.791	2713
821.888	311
821.985	2788
822.082	2114
822.179	4172
822.276	6110
822.373	3538
822.470	463
822.567	483
822.664	-24
822.761	873
822.858	-126
822.955	1052
823.052	676
823.149	-197
823.246	481
823.343	376
823.440	884
823.536	-489
823.633	-419
823.730	-68
823.827	-31
823.923	599
824.020	2125
824.117	2776
824.213	4909
824.310	3643
824.407	318
824.503	1442
824.600	-281
824.696	-53
824.793	370
824.889	-334
824.986	-497
825.082	-514
825.179	-383
825.275	-301
825.371	245
825.468	1036
825.564	-111
825.660	-224
825.757	-391
825.853	1154
825.949	-606
826.045	650
826.142	-501
826.238	-639
826.334	-148
826.430	-848
826.526	538
826.622	-243
826.718	242
826.814	-453
826.910	1322
827.006	-73
827.102	-376
827.198	1406
827.294	-829
827.390	710
827.486	825
827.582	-369
827.678	-1032
827.774	673
827.869	-1147
827.965	959
828.061	-784
828.157	361
828.252	-549
828.348	-415
828.444	778
828.539	-759
828.635	-243
828.731	941
828.826	-828
828.922	277
829.017	-441
829.113	491
829.208	-341
829.304	464
829.399	504
829.495	-266
829.590	779
829.685	-1186
829.781	558
829.876	222
829.971	-654
830.066	197
830.162	173
830.257	-818
830.352	-22
830.447	1087
830.543	23
830.638	-578
830.733	226
830.828	-505
830.923	119
831.018	-152
831.113	-462
831.208	673
831.303	184
831.398	-137
831.493	-875
831.588	-37
831.683	-903
831.778	304
831.873	-596
831.967	897
832.062	4
832.157	-1001
832.252	-39
832.346	-156
832.441	271
832.536	594
832.631	2315
832.725	1492
832.820	-569
832.914	-916
833.009	-463
833.104	134
833.198	901
833.293	-590
833.387	410
833.482	187
833.576	-238
833.670	301
833.765	-632
833.859	-1035
833.954	693
834.048	152
834.142	-350
834.237	-281
834.331	-518
834.425	278
834.519	-396
834.613	1017
834.708	101
834.802	-71
834.896	-489
834.990	-249
835.084	303
835.178	-263
835.272	21
835.366	-111
835.460	386
835.554	240
835.648	524
835.742	101
835.836	345
835.930	-1081
836.024	-348
836.117	1148
836.211	-105
836.305	1478
836.399	1970
836.493	-604
836.586	197
836.680	-547
836.774	-795
836.867	553
836.961	-906
837.055	-490
837.148	-660
837.242	212
837.335	-678
837.429	694
837.522	201
837.616	411
837.709	2911
837.803	2131
837.896	375
837.989	209
838.083	2001
838.176	5285
838.269	3874
838.363	1066
838.456	-566
838.549	297
838.642	827
838.735	1941
838.829	1819
838.922	-194
839.015	19
839.108	-299
839.201	-865
839.294	-432
839.387	342
839.480	958
839.573	1663
839.666	2381
839.759	57
839.852	212
839.945	126
840.038	382
840.131	-416
840.223	-1046
840.316	375
840.409	-683
840.502	-749
840.594	971
840.687	-995
840.780	805
840.873	-250
840.965	1031
841.058	1982
841.150	4216
841.243	2029
841.336	1241
841.428	-113
841.521	-7
841.613	681
841.706	639
841.798	-51
841.890	-13
841.983	-879
842.075	1109
842.167	-370
842.260	420
842.352	1771
842.444	3247
842.537	5551
842.629	8676
842.721	758
842.813	-234
842.905	-91
842.997	282
843.090	861
843.182	2914
843.274	6342
843.366	15115
843.458	26661
843.550	17036
843.642	2012
843.734	1500
843.826	954
843.918	1518
844.009	248
844.101	796
844.193	783
844.285	1367
844.377	3276
844.469	6157
844.560	11589
844.652	11687
844.744	4317
844.835	727
844.927	725
845.019	1432
845.110	243
845.202	-209
845.293	-214
845.385	248
845.476	461
845.568	810
845.659	175
845.751	467
845.842	-142
845.934	-156
846.025	-688
846.116	500
846.208	311
846.299	-567
846.390	948
846.482	364
846.573	740
846.664	1345
846.755	1282
846.846	1810
846.937	-808
847.029	121
847.120	152
847.211	-598
847.302	320
847.393	-971
847.484	-92
847.575	-188
847.666	-17
847.757	-322
847.847	-90
847.938	1455
848.029	-193
848.120	316
848.211	-277
848.302	7
848.392	-442
848.483	231
848.574	-217
848.664	-343
848.755	-26
848.846	-190
848.936	-191
849.027	785
849.118	-158
849.208	58
849.299	-549
849.389	555
849.480	478
849.570	1216
849.661	1188
849.751	1076
849.841	418
849.932	-120
850.022	-719
850.112	-376
850.203	52
850.293	364
850.383	-484
850.474	-462
850.564	-12
850.654	329
850.744	-111
850.834	-329
850.924	-120
851.014	373
851.104	-412
851.194	19
851.284	208
851.374	41
851.464	-168
851.554	1021
851.644	-387
851.734	2384
851.824	1964
851.914	222
852.004	3061
852.094	1918
852.183	394
852.273	959
852.363	-340
852.452	-434
852.542	-362
852.632	-247
852.721	83
852.811	-269
852.901	-145
852.990	320
853.080	-369
853.169	-241
853.259	395
853.348	-865
853.438	-429
853.527	345
853.617	-360
853.706	652
853.795	253
853.885	3375
853.974	3623
854.063	7906
854.152	10330
854.242	2882
854.331	268
854.420	-204
854.509	-39
854.598	401
854.687	109
854.777	861
854.866	298
854.955	959
855.044	-400
855.133	-564
855.222	213
855.311	-310
855.400	394
855.488	76
855.577	-903
855.666	523
855.755	1312
855.844	775
855.933	415
856.021	-17
856.110	205
856.199	109
856.288	-326
856.376	494
856.465	-239
856.554	855
856.642	-691
856.731	1280
856.819	861
856.908	600
856.996	-283
857.085	-18
857.173	-408
857.262	-384
857.350	220
857.438	289
857.527	-107
857.615	353
857.703	276
857.792	-362
857.880	-190
857.968	-79
858.056	-328
858.145	-820
858.233	-123
858.321	-673
858.409	-968
858.497	-233
858.585	-423
858.673	233
858.761	-800
858.849	-391
858.937	-335
859.025	-149
859.113	818
859.201	737
859.289	2344
859.377	1605
859.465	829
859.552	-29
859.640	21
859.728	129
859.816	-565
859.903	-39
859.991	-662
860.079	-6
860.166	-414
860.254	-153
860.342	378
860.429	306
860.517	-762
860.604	671
860.692	-217
860.779	-334
860.867	-370
860.954	353
861.042	437
861.129	56
861.216	-525
861.304	171
861.391	-670
861.478	-407
861.565	-156
861.653	696
861.740	-484
861.827	-588
861.914	-61
862.001	53
862.089	-355
862.176	7
862.263	-14
862.350	-168
862.437	105
862.524	251
862.611	1057
862.698	2240
862.785	3605
862.871	5066
862.958	2005
863.045	416
863.132	218
863.219	-114
863.306	-788
863.392	634
863.479	-257
863.566	130
863.652	339
863.739	-532
863.826	205
863.912	-465
863.999	-897
864.086	448
864.172	-665
864.259	-461
864.345	-1060
864.432	303
864.518	-357
864.604	-887
864.691	-438
864.777	477
864.863	-755
864.950	149
865.036	-1046
865.122	419
865.209	-210
865.295	-204
865.381	1353
865.467	-114
865.553	1197
865.639	365
865.726	73
865.812	1168
865.898	1169
865.984	2499
866.070	5182
866.156	5590
866.242	508
866.328	-258
866.414	-938
866.499	241
866.585	-1007
866.671	74
866.757	192
866.843	-131
866.928	-41
867.014	-712
867.100	43
867.186	218
867.271	890
867.357	2140
867.442	2321
867.528	592
867.614	853
867.699	3763
867.785	6178
867.870	8858
867.956	14202
868.041	8703
868.127	4681
868.212	7958
868.297	7782
868.383	2785
868.468	2923
868.553	4584
868.639	1877
868.724	2600
868.809	2911
868.894	912
868.979	-286
869.065	673
869.150	-154
869.235	379
869.320	-1299
869.405	80
869.490	-873
869.575	-390
869.660	-318
869.745	325
869.830	-411
869.915	13
870.000	137
870.085	1388
870.169	1811
870.254	2280
870.339	735
870.424	-1300
870.509	0
870.593	203
870.678	-53
870.763	659
870.847	512
870.932	1332
871.016	1832
871.101	2721
871.186	824
871.270	-92
871.355	-84
871.439	-89
871.523	380
871.608	1276
871.692	1283
871.777	2819
871.861	1322
871.945	-755
872.030	360
872.114	21
872.198	-733
872.282	723
872.367	-238
872.451	-698
872.535	-305
872.619	-561
872.703	109
872.787	445
872.871	-323
872.955	-333
873.039	-1072
873.123	-364
873.207	623
873.291	-109
873.375	56
873.459	-198
873.543	-130
873.627	-911
873.711	428
873.794	-470
873.878	-933
873.962	-319
874.045	56
874.129	-121
874.137	-165
874.213	-603
874.245	-666
874.296	-778
874.352	-492
874.380	-355
874.460	493
874.464	528
874.547	-517
874.568	-364
874.631	96
874.676	-194
874.714	-456
874.784	589
874.798	804
874.881	1426
874.892	1246
874.965	-51
874.999	169
875.048	485
875.107	536
875.131	559
875.215	-222
875.215	-222
875.298	-965
875.323	-794
875.381	-397
875.430	-303
875.465	-249
875.538	259
875.548	333
875.631	-568
875.646	-562
875.714	-557
875.753	-633
875.798	-703
875.861	-615
875.881	-591
875.964	-91
875.968	-94
876.047	-147
876.076	120
876.130	595
876.183	-20
876.213	-361
876.291	273
876.296	324
876.379	-422
876.398	-206
876.462	396
876.506	29
876.545	-266
876.613	484
876.628	628
876.711	176
876.721	192
876.794	433
876.828	265
876.877	14
876.935	459
876.960	633
877.043	339
877.043	340
877.125	768
877.150	911
877.208	1172
877.258	1139
877.291	1136
877.365	502
877.374	446
877.456	1490
877.472	1465
877.539	1103
877.579	901
877.622	709
877.687	608
877.704	593
877.787	456
877.794	474
877.869	827
877.901	766
877.952	569
878.008	525
878.034	500
878.115	437
878.117	441
878.199	92
878.222	406
878.282	1098
878.329	910
878.364	777
878.437	747
878.447	746
878.529	87
878.544	242
878.611	854
878.651	496
878.694	257
878.758	719
878.776	827
878.858	832
878.865	805
878.941	384
878.972	281
879.023	162
879.078	-7
879.105	-7
879.185	564
879.187	574
879.269	638
879.292	552
879.351	319
879.399	440
879.433	592
879.506	477
879.516	459
879.598	905
879.613	866
879.680	585
879.720	465
879.762	555
879.827	706
879.844	625
879.926	434
879.933	399
880.007	494
880.040	526
880.089	514
880.147	302
880.171	293
880.253	1343
880.254	1340
880.335	1048
880.360	1489
880.417	3102
880.467	3914
880.499	4562
880.574	6379
880.580	6273
880.662	2081
880.680	1524
880.744	918
880.787	778
880.825	839
880.893	732
880.907	682
880.989	851
881.000	784
881.070	623
881.106	402
881.152	189
881.213	725
881.233	859
881.315	656
881.319	644
881.396	438
881.426	390
881.478	506
881.532	907
881.559	1043
881.639	554
881.641	544
881.722	556
881.745	546
881.803	659
881.852	797
881.885	903
881.958	877
881.966	867
882.047	1104
882.064	982
882.129	987
882.171	1425
882.210	1681
882.277	1849
882.291	1849
882.372	1781
882.383	1679
882.454	441
882.489	307
882.535	741
882.596	674
882.616	507
882.697	339
882.702	303
882.778	415
882.808	507
882.859	483
882.914	498
882.940	445
883.020	121
883.021	128
883.102	711
883.127	825
883.183	953
883.233	890
883.264	764
883.339	1018
883.345	1050
883.426	324
883.445	421
883.507	811
883.551	701
883.587	630
883.657	621
883.668	684
883.749	1217
883.763	1305
883.830	1345
883.869	1256
883.910	960
883.975	728
883.991	788
884.072	679
884.081	677
884.152	836
884.187	912
884.233	716
884.292	654
884.314	764
884.394	798
884.398	800
884.475	651
884.504	568
884.555	748
884.610	901
884.636	879
884.716	947
884.716	953
884.797	913
884.821	767
884.877	713
884.927	819
884.958	825
885.033	506
885.038	518
885.118	903
885.139	979
885.199	1007
885.244	1131
885.279	1313
885.350	1267
885.359	1246
885.439	1599
885.456	1545
885.520	1154
885.561	1080
885.600	1013
885.667	683
885.680	757
885.760	1348
885.773	1440
885.840	1737
885.878	1875
885.920	1923
885.984	1763
886.000	1723
886.080	1714
886.089	1738
886.160	1681
886.195	1344
886.240	1349
886.300	1796
886.320	1781
886.400	1593
886.406	1560
886.480	1270
886.511	1179
886.560	1585
886.616	1895
886.640	1741
886.720	1694
886.722	1678
886.800	1548
886.827	1559
886.879	1712
886.932	1562
886.959	1387
887.038	1363
887.039	1374
887.119	1580
887.143	1636
887.198	2005
887.248	2276
887.278	2108
887.354	1559
887.358	1573
887.437	1859
887.459	1912
887.517	1927
887.564	1950
887.596	1859
887.669	1592
887.676	1629
887.755	1903
887.774	1984
887.835	2017
887.880	2094
887.914	1971
887.985	1511
887.994	1522
888.073	1524
888.090	1570
888.153	1733
888.195	1714
888.232	1635
888.300	1595
888.311	1603
888.391	1533
888.405	1519
888.470	2055
888.510	2334
888.549	2034
888.615	1600
888.628	1722
888.708	2347
888.720	2443
888.787	2275
888.825	2145
888.866	2184
888.930	2262
888.945	2181
889.024	1700
889.035	1632
889.103	2248
889.140	2542
889.182	2347
889.245	2058
889.261	2125
889.340	2416
889.349	2444
889.419	1980
889.454	1720
889.498	2303
889.559	3117
889.577	3008
889.656	2482
889.664	2426
889.735	2667
889.768	2769
889.814	2383
889.873	1859
889.978	2555
890.083	3321
890.187	1863
890.292	2927
890.397	2281
890.501	1723
890.606	1904
890.710	1256
890.815	2684
890.919	2557
891.024	1725
891.128	1772
891.233	2565
891.337	2427
891.442	1845
891.546	1229
891.650	2415
891.755	2477
891.859	3871
891.963	2609
892.068	1821
892.172	1992
892.276	1636
892.380	2445
892.484	1904
892.589	1843
892.693	2682
892.797	1637
892.901	2107
893.005	2384
893.109	1987
893.213	2400
893.317	2069
893.421	1623
893.525	1744
893.629	1823
893.733	2579
893.837	1067
893.941	1792
894.045	2819
894.148	2966
894.252	4947
894.356	4414
894.460	2036
894.564	2299
894.667	2299
894.771	1918
894.875	1176
894.978	2309
895.082	1356
895.186	2184
895.289	1917
895.393	2012
895.496	1492
895.600	2605
895.703	933
895.807	1272
895.910	1081
896.014	2520
896.117	1158
896.221	1821
896.324	1161
896.427	2457
896.531	1474
896.634	1259
896.737	2031
896.840	1158
896.944	822
897.047	1268
897.150	1738
897.253	2492
897.356	1761
897.460	1890
897.563	1341
897.666	1454
897.769	1415
897.872	2088
897.975	1560
898.078	1678
898.181	1179
898.284	1165
898.387	1249
898.490	1990
898.593	1582
898.695	1607
898.798	1402
898.901	3178
899.004	2077
899.107	1360
899.209	1766
899.312	1183
899.415	1309
899.518	914
899.620	1058
899.723	2140
899.826	2966
899.928	2797
900.031	974
900.133	1845
900.236	1195
900.338	1029
900.441	1736
900.543	1467
900.646	864
900.748	1763
900.851	1926
900.953	1740
901.055	1329
901.158	1676
901.260	741
901.362	1700
901.465	675
901.567	1654
901.669	1352
901.771	1618
901.873	1800
901.976	1551
902.078	453
902.180	1753
902.282	919
902.384	577
902.486	1595
902.588	2139
902.690	2228
902.792	2754
902.894	2132
902.996	1361
903.098	580
903.200	866
903.302	1541
903.404	2434
903.505	1102
903.607	1705
903.709	1836
903.811	2001
903.913	1139
904.014	1229
904.116	1243
904.218	2313
904.319	1768
904.421	2639
904.523	3205
904.624	2414
904.726	1691
904.827	2198
904.929	2228
905.030	2593
905.132	1420
905.233	1417
905.335	1781
905.436	900
905.537	877
905.639	2338
905.740	969
905.841	1294
905.943	2901
906.044	2631
906.145	2527
906.247	1737
906.348	1437
906.449	1852
906.550	1040
906.651	1792
906.752	967
906.854	1672
906.955	1015
907.056	1743
907.157	1483
907.258	1920
907.359	1593
907.460	1427
907.561	977
907.662	1686
907.762	1043
907.863	1425
907.964	1352
908.065	1639
908.166	1624
908.267	1384
908.367	1356
908.468	1324
908.569	987
908.670	2087
908.770	1558
908.871	2239
908.971	2674
909.072	3864
909.173	1408
909.273	1962
909.374	888
909.474	1299
909.575	683
909.675	946
909.776	1322
909.876	1483
909.977	1017
910.077	1204
910.177	791
910.278	1046
910.378	1132
910.478	214
910.579	1152
910.679	350
910.779	1290
910.879	1379
910.980	1305
911.080	1350
911.180	1376
911.280	1582
911.380	756
911.480	1488
911.580	1007
911.680	1277
911.780	1328
911.880	1904
911.980	1218
912.080	1228
912.180	1434
912.280	2130
912.380	2055
912.480	1973
912.580	1839
912.679	1331
912.779	959
912.879	1860
912.979	977
913.078	1583
913.178	1066
913.278	1658
913.377	1552
913.477	1159
913.577	1013
913.676	1478
913.776	1118
913.875	1889
913.975	1213
914.074	537
914.174	1222
914.273	1284
914.373	1777
914.472	1104
914.572	574
914.671	1815
914.770	692
914.870	1446
914.969	1189
915.068	863
915.167	1637
915.267	984
915.366	-191
915.465	1051
915.564	1564
915.663	1997
915.763	1006
915.862	1924
915.961	1104
916.060	1118
916.159	590
916.258	829
916.357	1568
916.456	1565
916.555	1237
916.654	1020
916.752	1673
916.851	908
916.950	1357
917.049	1784
917.148	969
917.247	1341
917.345	814
917.444	1131
917.543	881
917.642	1654
917.740	1329
917.839	1170
917.937	1812
918.036	1682
918.135	610
918.233	1398
918.332	653
918.430	1831
918.529	1615
918.627	2065
918.726	1181
918.824	1070
918.923	845
919.021	913
919.119	1286
919.218	1051
919.316	1322
919.414	1036
919.512	997
919.611	558
919.709	1105
919.807	1042
919.905	807
920.003	1389
920.102	1257
920.200	1589
920.298	843
920.396	1262
920.494	662
920.592	1147
920.690	1486
920.788	900
920.886	1869
920.984	1353
921.082	1289
921.180	1664
921.277	1173
921.375	1384
921.473	836
921.571	1304
921.669	501
921.766	1050
921.864	762
921.962	1079
922.060	1288
922.157	840
922.255	412
922.352	880
922.450	1783
922.548	1107
922.645	912
922.743	1146
922.840	1171
922.938	1842
923.035	1379
923.133	1503
923.230	1040
923.327	1077
923.425	1511
923.522	1011
923.619	1215
923.717	1083
923.814	800
923.911	1604
924.008	2071
924.106	1046
924.203	503
924.300	1428
924.397	726
924.494	1290
924.591	2294
924.688	1623
924.786	1421
924.883	1535
924.979	805
925.077	834
925.173	928
925.270	1384
925.367	753
925.464	1494
925.561	1295
925.658	2097
925.755	2043
925.852	2146
925.948	1912
926.045	3457
926.142	3021
926.239	4116
926.335	2878
926.432	3457
926.529	3483
926.625	4299
926.722	2563
926.818	2439
926.915	1634
927.011	505
927.108	1049
927.204	193
927.301	1196
927.397	835
927.494	1244
927.590	2068
927.687	1070
927.783	1608
927.879	442
927.976	1593
928.072	1170
928.168	994
928.264	798
928.361	1156
928.457	1110
928.553	1644
928.649	1146
928.745	1695
928.841	1679
928.937	1126
929.033	852
929.129	1482
929.225	399
929.321	1039
929.417	190
929.513	1512
929.609	606
929.705	658
929.801	846
929.897	570
929.993	399
930.089	1501
930.184	1297
930.280	1236
930.376	994
930.471	1752
930.567	779
930.663	984
930.758	811
930.854	1309
930.950	1204
931.045	976
931.141	1160
931.236	1837
931.332	856
931.427	791
931.523	467
931.618	1245
931.714	974
931.809	1606
931.905	675
932.000	554
932.095	1242
932.191	371
932.286	366
932.381	941
932.476	1178
932.572	1079
932.667	1364
932.762	1462
932.857	820
932.952	958
933.047	431
933.142	1149
933.237	960
933.332	1551
933.427	843
933.522	773
933.617	-199
933.712	1589
933.807	580
933.902	1585
933.997	1293
934.092	1538
934.187	615
934.282	1382
934.376	715
934.471	1211
934.566	486
934.661	1563
934.755	1708
934.850	1590
934.945	1420
935.039	1054
935.134	1246
935.228	997
935.323	1259
935.417	812
935.512	1287
935.606	1555
935.701	1285
935.795	1688
935.890	1496
935.984	1262
936.079	1151
936.173	1424
936.267	353
936.362	1093
936.456	1180
936.550	1152
936.644	979
936.738	178
936.833	2046
936.927	1304
937.021	1290
937.115	1000
937.209	805
937.303	1707
937.397	892
937.491	1380
937.585	111
937.679	1384
937.773	936
937.867	1271
937.961	1052
938.055	589
938.149	1274
938.243	1542
938.337	1086
938.430	1516
938.524	2789
938.618	5199
938.712	3963
938.805	1546
938.899	739
938.993	1533
939.086	2731
939.180	6660
939.274	6624
939.367	3127
939.461	923
939.554	925
939.648	-289
939.741	1186
939.835	717
939.928	1468
940.022	47
940.115	991
940.208	1322
940.302	1096
940.395	964
940.488	722
940.582	1518
940.675	1439
940.768	1330
940.861	1287
940.954	1381
941.048	690
941.141	1434
941.234	1547
941.327	2202
941.420	2798
941.513	1642
941.606	1405
941.699	1551
941.792	131
941.885	639
941.978	601
942.071	292
942.164	364
942.257	909
942.349	399
942.442	910
942.535	1376
942.628	777
942.721	869
942.813	59
942.906	1853
942.999	1319
943.091	1048
943.184	966
943.277	98
943.369	637
943.462	826
943.554	586
943.647	667
943.739	590
943.832	1433
943.924	-11
944.017	874
944.109	-58
944.201	199
944.294	1447
944.386	799
944.478	1011
944.571	741
944.663	503
944.755	1439
944.847	1524
944.940	884
945.032	-481
945.124	1087
945.216	1714
945.308	467
945.400	1376
945.492	570
945.584	755
945.676	1706
945.768	529
945.860	1279
945.952	425
946.044	1676
946.136	1010
946.228	454
946.320	102
946.412	1685
946.503	493
946.595	1076
946.687	163
946.779	1436
946.870	716
946.962	41
947.054	747
947.145	1973
947.237	657
947.329	590
947.420	220
947.512	836
947.603	793
947.695	1020
947.786	662
947.878	670
947.969	636
948.061	449
948.152	722
948.243	857
948.335	1029
948.426	875
948.517	1250
948.609	1404
948.700	1309
948.791	543
948.882	787
948.973	592
949.065	732
949.156	1435
949.247	-129
949.338	481
949.429	260
949.520	1233
949.611	42
949.702	1046
949.793	1005
949.884	785
949.975	281
950.066	1087
950.157	747
950.247	1093
950.338	985
950.429	999
950.520	1110
950.611	2173
950.701	1183
950.792	1631
950.883	966
950.973	1789
951.064	1324
951.155	1130
951.245	888
951.336	1335
951.427	-306
951.517	1010
951.608	1364
951.698	-20
951.788	985
951.879	1103
951.969	456
952.060	1088
952.150	1391
952.240	870
952.331	-289
952.421	1412
952.511	294
952.602	804
952.692	209
952.782	969
952.872	236
952.962	1100
953.052	1300
953.143	640
953.233	864
953.323	1335
953.413	541
953.503	776
953.593	788
953.683	310
953.773	556
953.863	525
953.953	139
954.042	1251
954.132	605
954.222	1452
954.312	868
954.402	701
954.492	2875
954.581	5065
954.671	2756
954.761	523
954.850	1555
954.940	1513
955.030	1176
955.119	1812
955.209	879
955.298	589
955.388	1044
955.477	1750
955.567	918
955.656	2065
955.746	1851
955.835	1195
955.925	168
956.014	1181
956.103	643
956.193	1221
956.282	790
956.371	466
956.461	348
956.550	1353
956.639	1158
956.728	984
956.817	691
956.906	1085
956.995	1560
957.085	1651
957.174	1335
957.263	1553
957.352	1243
957.441	2005
957.530	1982
957.619	1457
957.708	1540
957.796	2071
957.885	1312
957.974	1504
958.063	1267
958.152	453
958.241	1922
958.329	2171
958.418	2398
958.507	1747
958.596	2229
958.684	2018
958.773	2433
958.861	2139
958.950	2553
959.039	2228
959.127	2505
959.216	2645
959.304	2797
959.393	3178
959.481	3318
959.570	3026
959.658	2454
959.746	3645
959.835	4924
959.923	8410
960.011	4775
960.100	2989
960.188	2243
960.276	1508
960.365	2196
960.453	1961
960.541	783
960.629	1444
960.717	1479
960.805	1330
960.893	2260
960.981	1591
961.069	1685
961.158	1104
961.245	1512
961.333	1879
961.421	424
961.509	1325
961.597	1343
961.685	913
961.773	675
961.861	898
961.949	883
962.036	1079
962.124	1552
962.212	667
962.299	414
962.387	1006
962.475	868
962.562	964
962.650	901
962.738	419
962.825	813
962.913	1136
963.000	484
963.088	364
963.175	1194
963.263	1288
963.350	543
963.438	2293
963.525	3325
963.612	6653
963.700	14027
963.787	32017
963.874	15441
963.962	2102
964.049	971
964.136	858
964.223	178
964.310	912
964.398	676
964.485	1796
964.572	2446
964.659	5169
964.746	5152
964.833	811
964.920	516
965.007	851
965.094	685
965.181	632
965.268	592
965.355	877
965.441	464
965.528	214
965.615	41
965.702	1148
965.789	75
965.875	803
965.962	145
966.049	263
966.136	1071
966.222	121
966.309	469
966.395	370
966.482	451
966.569	749
966.655	1139
966.742	1163
966.828	1168
966.915	733
967.001	589
967.087	706
967.174	1344
967.260	2692
967.347	4533
967.433	11252
967.519	20049
967.605	8160
967.692	1198
967.778	92
967.864	392
967.950	326
968.036	-403
968.123	804
968.209	447
968.295	-435
968.381	311
968.467	560
968.553	-510
968.639	1740
968.725	808
968.811	3548
968.897	3087
968.983	888
969.069	186
969.154	839
969.240	566
969.326	-116
969.412	42
969.497	-201
969.583	-691
969.669	725
969.755	603
969.840	400
969.926	190
970.012	-74
970.097	2
970.183	1472
970.268	428
970.354	2489
970.439	5622
970.525	12349
970.610	4427
970.696	684
970.781	488
970.866	176
970.952	717
971.037	262
971.122	-607
971.208	-2
971.293	182
971.378	-953
971.463	730
971.549	219
971.634	463
971.719	519
971.804	1630
971.889	2947
971.974	925
972.059	-188
972.144	755
972.229	313
972.314	97
972.399	927
972.484	-499
972.569	854
972.654	1280
972.739	6411
972.824	7066
972.908	1742
972.993	166
973.078	797
973.163	-481
973.247	-156
973.332	-1135
973.417	1295
973.501	-673
973.586	291
973.671	-30
973.755	880
973.840	335
973.924	1220
974.009	611
974.093	298
974.178	2504
974.262	4202
974.346	5365
974.431	1053
974.515	-158
974.600	322
974.684	149
974.768	464
974.852	696
974.937	-1721
975.021	-52
975.105	304
975.189	-609
975.273	598
975.358	-1126
975.442	-632
975.526	292
975.610	-225
975.694	-197
975.778	1038
975.862	636
975.946	-1717
976.030	597
976.114	-437
976.198	194
976.281	209
976.365	121
976.449	-423
976.533	-281
976.617	-248
976.700	-7
976.784	356
976.868	787
976.951	2794
977.035	1279
977.119	914
977.202	-459
977.286	-399
977.369	-223
977.453	367
977.536	-1132
977.620	-110
977.703	-174
977.787	-690
977.870	434
977.953	787
978.037	-298
978.120	2576
978.203	3055
978.287	6461
978.370	3275
978.453	953
978.536	529
978.620	2651
978.703	3628
978.786	2217
978.869	-432
978.952	-1219
979.035	942
979.118	-130
979.201	-754
979.284	-314
979.367	-1180
979.450	469
979.533	-484
979.616	-338
979.699	-319
979.782	431
979.865	575
979.948	36
980.030	-1357
980.113	-463
980.196	-1094
980.279	648
980.361	-845
980.444	-440
980.526	-212
980.609	-588
980.692	-1208
980.774	803
980.857	-1014
980.939	-312
981.022	-902
981.104	-592
981.187	-621
981.269	501
981.352	-525
981.434	-780
981.516	-691
981.599	567
981.681	260
981.763	-107
981.846	55
981.928	152
982.010	-969
982.092	-799
982.174	695
982.256	-502
982.339	185
982.421	-67
982.503	-413
982.585	-907
982.667	-287
982.749	106
982.831	266
982.913	-824
982.995	144
983.077	279
983.158	1226
983.240	-787
983.322	-309
983.404	-360
983.486	-1229
983.568	64
983.649	-603
983.731	46
983.813	-649
983.894	800
983.976	-742
984.058	-581
984.139	563
984.221	-226
984.302	-508
984.384	-8
984.465	-595
984.547	243
984.628	-520
984.710	429
984.791	-471
984.872	-191
984.954	-1009
985.035	329
985.116	-1061
985.198	-434
985.279	-81
985.360	-893
985.441	-1202
985.522	315
985.604	-1474
985.685	-1655
985.766	-293
985.847	-42
985.928	-706
986.009	-636
986.090	-1126
986.171	3
986.252	-232
986.333	75
986.414	-239
986.495	710
986.576	-97
986.656	-493
986.737	21
986.818	292
986.899	-1155
986.980	-463
987.060	-93
987.141	-952
987.222	-809
987.302	618
987.383	-104
987.464	-559
987.544	-403
987.625	-318
987.705	26
987.786	-303
987.866	-1029
987.947	-295
988.027	-495
988.108	-529
988.188	-451
988.268	-552
988.349	139
988.429	-144
988.509	-666
988.589	-603
988.670	-2317
988.750	1002
988.830	-822
988.910	-5
988.990	-1117
989.070	-531
989.151	-261
989.231	-772
989.311	-118
989.391	-514
989.471	-1118
989.551	-608
989.631	-920
989.711	547
989.791	-849
989.870	-1222
989.950	25
990.030	-1137
990.110	-633
990.190	-857
990.269	-797
990.349	-228
990.429	-398
990.509	-92
990.588	-1046
990.668	-816
990.747	-464
990.827	-1015
990.907	-1037
990.986	-491
991.066	-318
991.145	-869
991.225	-701
991.304	-778
991.383	-491
991.463	-871
991.542	-120
991.622	-1104
991.701	-835
991.780	-522
991.859	-1192
991.939	-894
992.018	-385
992.097	-203
992.176	-162
992.256	-1343
992.335	-1145
992.414	-2
992.493	-1227
992.572	-469
992.651	890
992.730	-345
992.809	-70
992.888	-622
992.967	-753
993.046	-408
993.125	-1027
993.203	-510
993.282	-727
993.361	-1257
993.440	-957
993.519	-880
993.597	-153
993.676	-1253
993.755	-438
993.834	-431
993.912	-1921
993.991	416
994.069	-939
994.148	-1426
994.226	-337
994.305	226
994.384	-1477
994.462	360
994.540	-548
994.619	-742
994.697	-995
994.776	-758
994.854	-48
994.932	-1153
995.011	-600
995.089	-576
995.167	24
995.245	-237
995.324	-1913
995.402	-198
995.480	-1333
995.558	-560
995.636	-1543
995.714	-1856
995.792	235
995.870	-1281
995.948	336
996.026	-1035
996.104	-1186
996.182	-71
996.260	-1669
996.338	-137
996.416	-2292
996.494	-1122
996.572	-161
996.649	-582
996.727	-1167
996.805	-780
996.883	-1340
996.960	-1485
997.038	-478
997.116	-184
997.193	-1011
997.271	-171
997.348	-1412
997.426	-467
997.504	-1464
997.581	-678
997.658	-697
997.736	-1124
997.813	-564
997.891	379
997.968	-951
998.046	-189
998.123	-978
998.200	-389
998.277	-1537
998.355	-84
998.432	-2324
998.509	-951
998.586	-1251
998.663	-316
998.741	-977
998.818	-166
998.895	-1403
998.972	-263
999.049	-797
999.126	-1106
999.203	-740
999.280	-708
999.357	-1199
999.434	-860
999.511	-503
999.587	-672
999.664	-1194
999.741	143
999.818	252
999.895	-1538
999.971	-889
1000.048	-1054
1000.125	-252
1000.202	-912
1000.278	-1150
1000.355	-1618
1000.431	-1197
1000.508	-505
1000.584	-804
1000.661	-546
1000.738	-1268
1000.814	-585
1000.890	-308
1000.967	-451
1001.043	94
1001.120	-1758
1001.196	-390
1001.272	-2061
1001.349	319
1001.425	-520
1001.501	-1469
1001.577	-1216
1001.654	-581
1001.730	-1474
1001.806	-597
1001.882	-1287
1001.958	-777
1002.034	-586
1002.110	-1018
1002.186	-1215
1002.262	-1645
1002.338	-1597
1002.414	-314
1002.490	-497
1002.566	-655
1002.642	-977
1002.718	370
1002.794	-176
1002.870	-260
1002.945	-1401
1003.021	-980
1003.097	-1022
1003.173	-495
1003.248	-1277
1003.324	-1096
1003.400	-1567
1003.475	-594
1003.551	-524
1003.626	-1006
1003.702	-1677
1003.777	-1360
1003.853	-1210
1003.928	-1592
1004.004	-713
1004.079	-1096
1004.155	-1374
1004.230	-1683
1004.305	165
1004.381	-720
1004.456	-1141
1004.531	-954
1004.607	-627
1004.682	-1303
1004.757	-1478
1004.832	-701
1004.907	-249
1004.982	-853
1005.057	-1020
1005.133	-1738
1005.208	0
1005.283	-974
1005.358	-49
1005.433	-1187
1005.508	-580
1005.583	-1362
1005.657	213
1005.732	-11
1005.807	-1230
1005.882	-1403
1005.957	-1277
1006.032	-597
1006.106	-1104
1006.181	-1314
1006.256	-707
1006.331	-1077
1006.405	-1272
1006.480	-365
1006.554	-684
1006.629	-1460
1006.704	-1021
1006.778	-936
1006.853	-805
1006.927	-2139
1007.002	-859
1007.076	-1260
1007.150	-622
1007.225	-1026
1007.299	-1082
1007.373	-1738
1007.448	-1100
1007.522	37
1007.596	-1132
1007.671	-1938
1007.745	-999
1007.819	-1946
1007.893	-1410
1007.967	-1352
1008.041	-2170
1008.115	-1167
1008.190	-1009
1008.264	-1253
1008.338	-1426
1008.412	-885
1008.486	-345
1008.560	-1393
1008.633	-1187
1008.707	-1944
1008.781	-1441
1008.855	-1552
1008.929	-1204
1009.003	-1769
1009.076	-1860
1009.150	-1202
1009.224	-730
1009.298	-1217
1009.371	-1376
1009.445	-1675
1009.519	-712
1009.592	-2448
1009.666	-686
1009.739	-1118
1009.813	-2185
1009.886	-582
1009.960	-2033
1010.033	-1313
1010.107	-406
1010.180	-2044
1010.253	-780
1010.327	-1230
1010.400	-1774
1010.473	-1200
1010.547	-448
1010.620	-1205
1010.693	-562
1010.766	-1601
1010.840	-561
1010.913	-758
1010.986	-704
1011.059	-1440
1011.132	-487
1011.205	-87
1011.278	-1683
1011.351	-775
1011.424	-899
1011.497	-1635
1011.570	-1371
1011.643	-951
1011.716	-1124
1011.789	-1578
1011.862	-1117
1011.934	-1001
1012.007	-1452
1012.080	-1331
1012.153	-1112
1012.225	-740
1012.298	-1568
1012.371	-1640
1012.443	-400
1012.516	-2253
1012.588	-1397
1012.661	-1464
1012.733	-1521
1012.806	-1060
1012.879	-965
1012.951	-1461
1013.023	-1902
1013.096	-1237
1013.168	-984
1013.241	-1363
1013.313	-2123
1013.385	-1522
1013.458	-1596
1013.530	-1878
1013.602	-1060
1013.674	-871
1013.746	-1727
1013.819	-2175
1013.891	-497
1013.963	-2175
1014.035	-980
1014.107	-994
1014.179	-819
1014.251	-2199
1014.323	-1530
1014.395	-1052
1014.467	-1431
1014.539	-1353
1014.611	-1518
1014.683	-557
1014.754	-1305
1014.826	-1962
1014.898	-1310
1014.970	-2251
1015.042	-1285
1015.113	-986
1015.185	-1156
1015.257	-1700
1015.328	-2091
1015.400	-2204
1015.471	-2132
1015.543	-1575
1015.615	-989
1015.686	-1264
1015.757	-978
1015.829	-1282
1015.901	-1268
1015.972	-1850
1016.043	-1332
1016.115	-1790
1016.186	-1298
1016.257	-1451
1016.328	-1078
1016.400	-857
1016.471	-1925
1016.542	-1571
1016.613	-583
1016.685	-1829
1016.756	-585
1016.827	-1718
1016.898	-2479
1016.969	-1203
1017.040	-1324
1017.111	-2611
1017.182	-1429
1017.253	-543
1017.324	-1135
1017.395	-1448
1017.466	-1232
1017.537	-2177
1017.608	-1596
1017.678	-1933
1017.749	-1254
1017.820	-2210
1017.891	-1614
1017.961	-1476
1018.032	-1506
1018.103	-1536
1018.173	-946
1018.244	-2023
1018.315	-732
1018.385	-930
1018.456	-846
1018.526	-1767
1018.597	-1686
1018.667	-1941
1018.738	-2336
1018.808	-1266
1018.878	-2110
1018.949	-1702
1019.019	-1287
1019.089	-2045
1019.160	-1314
1019.230	-2254
1019.300	-1411
1019.371	-2385
1019.441	-1181
1019.511	-1353
1019.581	-1330
1019.651	-1733
1019.721	-878
1019.791	-1742
1019.861	-1524
1019.931	-739
1020.001	-2017
1020.071	-1712
1020.141	-1042
1020.211	-1738
1020.281	-2277
1020.351	-2329
1020.421	-1201
1020.491	-1573
1020.560	-1485
1020.630	-1328
1020.700	-2076
1020.770	-1914
1020.839	-1586
1020.909	-2172
1020.979	-1915
1021.048	-2231
1021.118	-2247
1021.187	-1589
1021.257	-2027
1021.326	-1701
1021.396	-1953
1021.465	-1692
1021.535	-1113
1021.604	-1957
1021.674	-1831
1021.743	-1518
1021.812	-737
1021.882	-2088
1021.951	-1175
1022.020	-2133
1022.089	-2344
1022.159	-2002
1022.228	-1087
1022.297	-1860
1022.366	-1878
1022.435	-2067
1022.504	-1375
1022.573	-2376
1022.642	-781
1022.711	-2667
1022.781	-2310
1022.849	-1365
1022.918	-1826
1022.987	-2258
1023.056	-864
1023.125	-959
1023.194	-1977
1023.263	-1762
1023.331	-1510
1023.400	-2428
1023.469	-1853
1023.538	-2031
1023.606	-1684
1023.675	-1610
1023.744	-2394
1023.812	-1317
1023.881	-1380
1023.949	-2425
1024.018	-1729
1024.086	-1873
1024.155	-1988
1024.223	-2325
1024.292	-1602
1024.360	-1931
1024.429	-1707
1024.497	-2387
1024.565	-1877
1024.634	-2638
1024.702	-1497
1024.770	-1413
1024.838	-2485
1024.907	-1686
1024.975	-1813
1025.043	-1790
1025.111	-1390
1025.179	-1558
1025.247	-2213
1025.315	-1542
1025.383	-1560
1025.451	-1700
1025.519	-1656
1025.587	-2052
1025.655	-1577
1025.723	-1975
1025.791	-2333
1025.859	-1804
1025.927	-1474
1025.995	-1650
1026.062	-2272
1026.130	-2166
1026.198	-1804
1026.266	-1541
1026.333	-1917
1026.401	-2386
1026.469	-1318
1026.536	-1944
1026.604	-1514
1026.671	-2102
1026.739	-877
1026.806	-1321
1026.874	-2556
1026.941	-1760
1027.009	-1590
1027.076	-2141
1027.144	-921
1027.211	-2066
1027.278	-1071
1027.345	-1826
1027.413	-1201
1027.480	-2172
1027.547	-1496
1027.614	-1721
1027.682	-1224
1027.749	-2410
1027.816	-2567
1027.883	-2073
1027.950	-1743
1028.017	-2134
1028.084	-1056
1028.151	-2295
1028.218	-2019
1028.285	-1944
1028.352	-1490
1028.419	-1802
1028.486	-1667
1028.553	-1694
1028.619	-2857
1028.686	-2451
1028.753	-1772
1028.820	-2324
1028.886	-1745
1028.953	-1614
1029.020	-1736
1029.086	-1849
1029.153	-2012
1029.220	-1825
1029.286	-1962
1029.353	-1112
1029.419	-1271
1029.486	-1642
1029.552	-1863
1029.619	-1843
1029.685	-1881
1029.751	-2279
1029.818	-1281
1029.884	-1592
1029.951	-799
1030.017	-2329
1030.083	-1717
1030.149	-2003
1030.216	-1880
1030.282	-1446
1030.348	-1742
1030.414	-2091
1030.480	-2056
1030.546	-2029
1030.612	-2074
1030.678	-2792
1030.744	-1583
1030.810	-2013
1030.876	-1568
1030.942	-2519
1031.008	-1993
1031.074	-2327
1031.140	-2199
1031.206	-1383
1031.272	-1842
1031.337	-1820
1031.403	-1708
1031.469	-1769
1031.534	-2069
1031.600	-773
1031.666	-2173
1031.731	-1744
1031.797	-1949
1031.863	-2512
1031.928	-1812
1031.994	-2480
1032.059	-1673
1032.125	-2159
1032.190	-2312
1032.256	-2552
1032.321	-1714
1032.386	-1877
1032.452	-1398
1032.517	-2018
1032.582	-1810
1032.647	-1805
1032.713	-1693
1032.778	-2484
1032.843	-2035
1032.908	-1892
1032.974	-1815
1033.039	-2412
1033.104	-2140
1033.169	-1754
1033.234	-1174
1033.299	-1174
1033.364	-1042
1033.429	-2730
1033.494	-1749
1033.559	-2422
1033.624	-1710
1033.688	-1484
1033.753	-2495
1033.818	-2650
1033.883	-1722
1033.948	-1973
1034.013	-2257
1034.077	-1690
1034.142	-1683
1034.207	-2069
1034.271	-2348
1034.336	-1858
1034.400	-1487
1034.465	-1008
1034.530	-1492
1034.594	-1594
1034.658	-994
1034.723	-2577
1034.787	-2400
1034.852	-1559
1034.916	-2877
1034.981	-1853
1035.045	-1770
1035.109	-2518
1035.173	-1101
1035.238	-2955
1035.302	-1410
1035.366	-1751
1035.430	-2321
1035.495	-2135
1035.559	-1832
1035.623	-1325
1035.687	-2004
1035.751	-2468
1035.815	-1848
1035.879	-2057
1035.943	-1122
1036.007	-1750
1036.071	-1458
1036.135	-1750
1036.198	-1608
1036.262	-2782
1036.326	-1680
1036.390	-1802
1036.454	-1757
1036.517	-1138
1036.581	-1520
1036.645	-1352
1036.709	-1268
1036.772	-1663
1036.836	-1858
1036.900	-1844
1036.963	-1899
1037.026	-1895
1037.090	-1675
1037.154	-2301
1037.217	-1679
1037.280	-2776
1037.344	-1264
1037.407	-2315
1037.471	-1281
1037.534	-2125
1037.597	-2336
1037.661	-2329
1037.724	-2390
1037.787	-2711
1037.850	-1747
1037.913	-2957
1037.977	-1708
1038.040	-1688
1038.103	-2496
1038.166	-1684
1038.229	-1964
1038.292	-2237
1038.355	-1768
1038.418	-2594
1038.481	-1223
1038.544	-2129
1038.607	-1952
1038.670	-1630
1038.732	-2057
1038.795	-2073
1038.858	-1619
1038.921	-1574
1038.984	-785
1039.046	-2689
1039.109	-1933
1039.172	-2204
1039.234	-1470
1039.297	-2584
1039.360	-2299
1039.422	-1920
1039.485	-2421
1039.547	-3033
1039.610	-688
1039.672	-2016
1039.734	-2400
1039.797	-1925
1039.859	-782
1039.922	-2750
1039.984	-2208
1040.046	-2226
1040.109	-1752
1040.171	-1438
1040.233	-2077
1040.295	-1904
1040.358	-2450
1040.420	-1909
1040.482	-2541
1040.544	-2478
1040.606	-1341
1040.668	-1892
1040.730	-2303
1040.792	-1499
1040.854	-2283
1040.916	-1947
1040.978	-2844
1041.040	-1848
1041.102	-1647
1041.164	-2580
1041.225	-2764
1041.287	-2587
1041.349	-1589
1041.411	-2191
1041.472	-1660
1041.534	-1903
1041.596	-2151
1041.657	-1311
1041.719	-1514
1041.781	-1283
1041.842	-2059
1041.904	-1797
1041.965	-770
1042.027	-1432
1042.088	-2577
1042.150	-1269
1042.211	-1643
1042.272	-1301
1042.334	-1945
1042.395	-2256
1042.456	-2334
1042.518	-2443
1042.579	-1344
1042.640	-1943
1042.701	-1857
1042.763	-2336
1042.824	-1021
1042.885	-2577
1042.946	-2074
1043.007	-1646
1043.068	-1289
1043.129	-2121
1043.190	-1994
1043.251	-1042
1043.312	-1617
1043.373	-1680
1043.434	-1416
1043.495	-2070
1043.556	-1175
1043.616	-2051
1043.677	-1716
1043.738	-1456
1043.799	-1615
1043.859	-1741
1043.920	-1854
1043.981	-1954
1044.041	-1230
1044.102	-1957
1044.162	-1090
1044.223	-1945
1044.284	-1702
1044.344	-2678
1044.405	-1534
1044.465	-1328
1044.525	-2048
1044.586	-1768
1044.646	-1436
1044.707	-1781
1044.767	-1350
1044.827	-1694
1044.887	-1365
1044.948	-2488
1045.008	-1600
1045.068	-2000
1045.128	-1782
1045.188	-1714
1045.249	-1238
1045.309	-1782
1045.369	-1739
1045.429	-1920
1045.489	-2658
1045.549	-2022
1045.609	-1727
1045.669	-1839
1045.729	-2185
1045.789	-2011
1045.848	-1286
1045.908	-2261
1045.968	-1102
1046.028	-1666
1046.088	-966
1046.147	-1615
1046.207	-1632
1046.267	-995
1046.326	-1276
1046.386	-1990
1046.446	-544
1046.505	-1025
1046.565	-820
1046.624	-857
1046.684	199
1046.743	-905
1046.803	-854
1046.862	-482
1046.922	0
