'Start Wavelength	183.907
'End Wavelength	1046.922
'Gate Delay	5.000
'Gate Width (ms)	1.050
'Laser Output Level	0.000
'X Position	0.000
'Y Position	0.000
'Z Position	0.000
'Grid Point Number	1.000
'Shot Number	100.000
183.907	279.000
183.977	-179.000
184.047	49
184.116	610
184.186	-73
184.256	564
184.325	-53
184.395	-193
184.465	483
184.534	445
184.604	554
184.674	500
184.743	287
184.813	686
184.883	-291
184.952	41
185.022	935
185.092	111
185.161	-168
185.231	582
185.301	334
185.370	209
185.440	447
185.509	540
185.579	-371
185.649	777
185.718	179
185.788	-525
185.857	486
185.927	190
185.996	20
186.066	110
186.136	112
186.205	73
186.275	119
186.344	-2
186.414	-112
186.483	-594
186.553	548
186.622	602
186.692	10
186.761	-133
186.831	-112
186.900	465
186.970	394
187.039	526
187.109	415
187.178	418
187.248	-144
187.317	670
187.387	108
187.456	609
187.526	442
187.595	344
187.664	-61
187.734	769
187.803	-94
187.873	224
187.942	400
188.012	549
188.081	195
188.150	670
188.220	785
188.289	79
188.358	327
188.428	977
188.497	-210
188.567	588
188.636	421
188.705	322
188.775	37
188.844	-493
188.913	137
188.983	527
189.052	375
189.121	-80
189.191	-193
189.260	1287
189.329	63
189.399	275
189.468	244
189.537	217
189.606	808
189.676	218
189.745	655
189.814	1092
189.883	254
189.953	382
190.022	196
190.091	773
190.161	1707
190.230	1270
190.299	-352
190.368	-92
190.437	208
190.507	-6
190.576	315
190.645	-87
190.714	-153
190.783	566
190.853	240
190.922	-94
190.991	-626
191.060	812
191.129	426
191.198	668
191.268	477
191.337	814
191.406	685
191.475	625
191.544	-107
191.613	297
191.682	434
191.752	728
191.821	514
191.890	611
191.959	353
192.028	226
192.097	-56
192.166	135
192.235	74
192.304	125
192.373	-574
192.442	209
192.511	357
192.580	756
192.650	213
192.719	488
192.788	6
192.857	330
192.926	-22
192.995	600
193.064	1292
193.133	1342
193.202	894
193.271	455
193.340	446
193.409	397
193.478	1072
193.547	1272
193.615	1138
193.684	2066
193.753	887
193.822	1613
193.891	528
193.960	287
194.029	107
194.098	696
194.167	-319
194.236	341
194.305	291
194.374	359
194.443	323
194.512	666
194.580	409
194.649	306
194.718	781
194.787	-595
194.856	215
194.925	1453
194.994	-66
195.062	352
195.131	602
195.200	-12
195.269	1140
195.338	899
195.407	717
195.475	544
195.544	351
195.613	1294
195.682	1153
195.751	108
195.819	528
195.888	672
195.957	953
196.026	563
196.094	661
196.163	701
196.232	262
196.301	538
196.369	-328
196.438	1036
196.507	252
196.576	405
196.644	-44
196.713	826
196.782	-63
196.850	833
196.919	-122
196.988	772
197.056	-453
197.125	723
197.194	112
197.262	547
197.331	405
197.400	309
197.468	-114
197.537	203
197.606	562
197.674	1318
197.743	2410
197.812	1369
197.880	1978
197.949	1096
198.017	1943
198.086	1573
198.155	291
198.223	1526
198.292	2983
198.360	495
198.429	191
198.497	423
198.566	2329
198.635	2193
198.703	1293
198.772	2312
198.840	3079
198.909	2925
198.977	1664
199.046	1464
199.114	1732
199.183	880
199.251	266
199.320	425
199.388	441
199.457	1244
199.525	797
199.594	243
199.662	-346
199.731	731
199.799	503
199.867	548
199.936	116
200.004	1000
200.073	1069
200.141	-452
200.210	101
200.278	657
200.346	467
200.415	878
200.483	1163
200.552	815
200.620	596
200.688	1616
200.757	311
200.825	831
200.893	592
200.962	824
201.030	-133
201.098	776
201.167	39
201.235	460
201.303	195
201.372	470
201.440	1038
201.508	435
201.577	202
201.645	1356
201.713	430
201.781	534
201.850	1302
201.918	409
201.986	827
202.055	556
202.123	433
202.191	279
202.259	407
202.327	825
202.396	723
202.464	479
202.532	765
202.600	3884
202.669	878
202.737	707
202.805	712
202.873	617
202.941	993
203.009	962
203.078	149
203.146	788
203.214	992
203.282	208
203.350	801
203.418	317
203.487	756
203.555	912
203.623	883
203.691	664
203.759	-72
203.827	656
203.895	681
203.963	794
204.031	569
204.099	1265
204.168	-68
204.236	838
204.304	1051
204.372	-107
204.440	565
204.508	426
204.576	309
204.644	1205
204.712	-337
204.780	199
204.848	1074
204.916	883
204.984	1219
205.052	479
205.120	893
205.188	680
205.256	191
205.324	915
205.392	672
205.460	852
205.528	858
205.596	252
205.664	503
205.732	1003
205.799	2947
205.867	4793
205.935	50
206.003	1411
206.071	591
206.139	1042
206.207	1490
206.275	1082
206.343	766
206.411	680
206.478	589
206.546	537
206.614	697
206.682	535
206.750	435
206.818	1854
206.885	1815
206.953	927
207.021	1242
207.089	520
207.157	360
207.225	1227
207.292	978
207.360	948
207.428	612
207.496	890
207.563	1257
207.631	506
207.699	92
207.767	1123
207.834	471
207.902	1296
207.970	1182
208.038	823
208.105	436
208.173	1784
208.241	1199
208.309	1901
208.376	1271
208.444	2636
208.512	1819
208.579	967
208.647	1056
208.715	1419
208.782	1429
208.850	942
208.918	862
208.985	1378
209.053	880
209.120	1122
209.188	985
209.256	1308
209.323	194
209.391	788
209.459	1646
209.526	1694
209.594	435
209.661	1680
209.729	469
209.796	1043
209.864	1106
209.932	581
209.999	1505
210.067	1466
210.134	633
210.202	904
210.269	1641
210.337	2534
210.404	964
210.472	457
210.539	1715
210.607	980
210.674	1242
210.742	1084
210.809	1037
210.877	1535
210.944	1601
211.012	1044
211.079	2294
211.146	1150
211.214	1102
211.281	2748
211.349	1839
211.416	1160
211.484	1519
211.551	1576
211.618	983
211.686	1975
211.753	632
211.821	1491
211.888	1197
211.955	1352
212.023	1444
212.090	1006
212.157	1334
212.225	1827
212.292	3082
212.359	7517
212.427	19780
212.494	7743
212.561	3082
212.629	2973
212.696	1315
212.763	1968
212.831	1410
212.898	1696
212.965	1400
213.032	1465
213.100	1142
213.167	1582
213.234	1665
213.301	1232
213.369	1687
213.436	1748
213.503	1298
213.570	1369
213.638	1495
213.705	1151
213.772	1923
213.839	1905
213.906	2106
213.973	2063
214.041	1044
214.108	1745
214.175	1737
214.242	2120
214.309	1582
214.376	1739
214.444	1285
214.511	2111
214.578	1775
214.645	2014
214.712	2139
214.779	1360
214.846	2536
214.913	2117
214.980	1677
215.048	2532
215.115	2828
215.182	1661
215.249	1899
215.316	1380
215.383	1254
215.450	1966
215.517	1666
215.584	1257
215.651	1561
215.718	1942
215.785	2370
215.852	1684
215.919	2068
215.986	1719
216.053	1497
216.120	1079
216.187	1175
216.254	2001
216.321	1535
216.388	2150
216.455	1780
216.522	2494
216.589	1906
216.656	3410
216.722	3538
216.789	2216
216.856	2976
216.923	2241
216.990	1987
217.057	2307
217.124	2192
217.191	2750
217.258	2926
217.324	3605
217.391	3377
217.458	3145
217.525	1830
217.592	2249
217.659	1247
217.725	1664
217.792	3097
217.859	3405
217.926	1786
217.993	1487
218.059	1745
218.126	1472
218.193	1741
218.260	1984
218.327	977
218.393	745
218.460	1222
218.527	1357
218.594	1446
218.660	2943
218.727	3806
218.794	1847
218.860	1552
218.927	1441
218.994	944
219.061	786
219.127	2263
219.194	3148
219.261	1495
219.327	1514
219.394	919
219.461	896
219.527	1655
219.594	2620
219.661	2489
219.727	1169
219.794	1350
219.860	934
219.927	1381
219.994	2518
220.060	4346
220.127	3277
220.193	2582
220.260	3625
220.326	3288
220.393	4385
220.460	5538
220.526	3178
220.593	2377
220.659	3954
220.726	3564
220.792	9361
220.859	6700
220.925	8127
220.992	9314
221.058	11699
221.125	11576
221.191	9588
221.258	4039
221.324	3101
221.391	2579
221.457	1848
221.524	2087
221.590	4452
221.657	12259
221.723	7581
221.789	6702
221.856	6063
221.922	2794
221.989	2138
222.055	2259
222.121	1240
222.188	3985
222.254	2672
222.321	1447
222.387	1453
222.453	732
222.520	1287
222.586	1206
222.652	1072
222.719	1545
222.785	2313
222.851	1114
222.918	1343
222.984	1269
223.050	1927
223.116	754
223.183	2222
223.249	831
223.315	1098
223.382	1352
223.448	984
223.514	191
223.580	1292
223.647	1078
223.713	1031
223.779	950
223.845	1256
223.911	955
223.978	450
224.044	1130
224.110	736
224.176	1321
224.242	695
224.309	427
224.375	1298
224.441	1137
224.507	923
224.573	978
224.639	735
224.705	539
224.772	1396
224.838	625
224.904	1671
224.970	866
225.036	784
225.102	1041
225.168	2046
225.234	803
225.300	1580
225.366	1225
225.432	1236
225.499	1515
225.565	1839
225.631	1826
225.697	1875
225.763	2198
225.829	2609
225.895	2313
225.961	4156
226.027	3467
226.093	3080
226.159	3905
226.225	6308
226.291	12387
226.357	16326
226.423	8001
226.489	6359
226.554	3543
226.620	3896
226.686	4868
226.752	7441
226.818	11930
226.884	23145
226.950	17612
227.016	8388
227.082	5801
227.148	3772
227.214	3690
227.279	3325
227.345	3153
227.411	2756
227.477	3471
227.543	7499
227.609	6230
227.674	3443
227.740	2074
227.806	2235
227.872	2014
227.938	2446
228.003	3038
228.069	1849
228.135	2272
228.201	1388
228.267	1353
228.332	2077
228.398	1984
228.464	2146
228.530	1683
228.595	2112
228.661	1347
228.727	2934
228.792	2382
228.858	1078
228.924	491
228.990	2990
229.055	833
229.121	2128
229.187	1568
229.252	1737
229.318	1078
229.384	1880
229.449	2118
229.515	893
229.581	-193
229.646	2534
229.712	2197
229.777	5661
229.843	4761
229.909	3377
229.974	3265
230.040	2940
230.105	2370
230.171	2329
230.236	3147
230.302	4723
230.368	3528
230.433	2686
230.499	2410
230.564	3459
230.630	1967
230.695	1650
230.761	2115
230.826	1168
230.892	3256
230.957	1691
231.023	1270
231.088	1458
231.154	1923
231.219	2312
231.284	2560
231.350	3158
231.415	1411
231.481	1915
231.546	1170
231.612	1632
231.677	1202
231.742	797
231.808	1776
231.873	429
231.939	826
232.004	3575
232.069	2966
232.135	1814
232.200	1553
232.265	1595
232.331	609
232.396	884
232.461	973
232.527	1434
232.592	1175
232.657	1518
232.723	2451
232.788	1823
232.853	1412
232.918	1205
232.984	1311
233.049	1173
233.114	1942
233.179	3195
233.245	4901
233.310	5015
233.375	1628
233.440	1837
233.506	1252
233.571	1450
233.636	1221
233.701	1979
233.766	3202
233.832	3593
233.897	1473
233.962	963
234.027	2600
234.092	2119
234.157	1802
234.222	2436
234.288	3191
234.353	11312
234.418	8775
234.483	4465
234.548	3076
234.613	2658
234.678	2607
234.743	3531
234.808	11436
234.873	5420
234.938	3448
235.004	2912
235.069	1329
235.134	1583
235.199	2373
235.264	2274
235.329	1055
235.394	2387
235.459	2840
235.524	2032
235.589	2636
235.654	2632
235.719	1581
235.784	2644
235.849	2778
235.913	5616
235.978	5951
236.043	5671
236.108	2737
236.173	2163
236.238	2697
236.303	2581
236.368	2224
236.433	4952
236.498	7594
236.563	5417
236.627	10990
236.692	35565
236.757	25489
236.822	11298
236.887	7625
236.952	6801
237.017	4602
237.081	6566
237.146	7460
237.211	16436
237.276	36951
237.341	53265
237.405	25350
237.470	10547
237.535	7352
237.600	5514
237.664	4623
237.729	3726
237.794	4670
237.859	8829
237.923	6024
237.988	3899
238.053	5461
238.118	6057
238.182	16909
238.247	13182
238.312	4923
238.376	4098
238.441	2955
238.506	3941
238.570	918
238.635	3418
238.700	2130
238.764	2429
238.829	6349
238.893	7052
238.958	3216
239.023	3322
239.087	2943
239.152	2986
239.216	2137
239.281	1812
239.346	2587
239.410	2823
239.475	3119
239.539	15485
239.604	10145
239.668	4715
239.733	2223
239.797	6373
239.862	14910
239.926	14228
239.991	5159
240.055	2833
240.120	2202
240.184	2083
240.249	2348
240.313	830
240.378	1726
240.442	8811
240.507	12742
240.571	4308
240.635	5970
240.700	7733
240.764	1700
240.829	2212
240.893	790
240.957	1854
241.022	8907
241.086	12742
241.151	4351
241.215	2228
241.279	3818
241.344	6381
241.408	3105
241.472	2731
241.537	2987
241.601	3838
241.665	2534
241.730	2654
241.794	3542
241.858	2831
241.922	1679
241.987	3156
242.051	2380
242.115	1757
242.179	2291
242.244	2150
242.308	3454
242.372	3532
242.436	3836
242.501	2874
242.565	1680
242.629	2361
242.693	2605
242.757	1530
242.822	2332
242.886	3331
242.950	3251
243.014	2701
243.078	3356
243.142	2863
243.206	3049
243.271	3835
243.335	3544
243.399	6060
243.463	24946
243.527	51546
243.591	13618
243.655	6030
243.719	4034
243.783	4645
243.847	5899
243.911	7436
243.975	7471
244.040	4829
244.104	3396
244.168	2974
244.232	4024
244.296	6472
244.360	7008
244.424	4527
244.488	3354
244.552	3036
244.615	1919
244.679	2341
244.743	2714
244.807	2855
244.871	900
244.935	2228
244.999	1137
245.063	1952
245.127	2831
245.191	6065
245.255	3788
245.319	4064
245.383	2389
245.446	3698
245.510	2129
245.574	2483
245.638	1754
245.702	2730
245.766	6489
245.829	4693
245.893	3615
245.957	2686
246.021	3185
246.085	3411
246.149	4249
246.212	11804
246.276	16824
246.340	6506
246.404	4139
246.467	5178
246.531	6056
246.595	4468
246.659	4169
246.722	2903
246.786	4383
246.850	5292
246.913	5746
246.977	2526
247.041	3619
247.104	3973
247.168	4575
247.232	10623
247.295	23598
247.359	8599
247.423	5235
247.486	8808
247.550	4602
247.614	3591
247.677	4968
247.741	4215
247.804	3460
247.868	5300
247.932	10767
247.995	20951
248.059	6442
248.122	3313
248.186	6202
248.249	10681
248.313	42070
248.376	35317
248.440	21966
248.503	7933
248.567	7180
248.630	8854
248.694	13062
248.757	18156
248.821	41129
248.884	20508
248.948	21812
249.011	31230
249.075	48817
249.138	35947
249.202	12366
249.265	7642
249.328	12305
249.392	7969
249.455	6889
249.519	5766
249.582	6254
249.645	11065
249.709	8872
249.772	9945
249.835	7308
249.899	6715
249.962	6020
250.025	5564
250.089	16018
250.152	16986
250.215	6534
250.279	6760
250.342	5945
250.405	6457
250.468	5262
250.532	8679
250.595	15179
250.658	62749
250.721	84687
250.785	25883
250.848	14260
250.911	9555
250.974	8580
251.038	13654
251.101	23707
251.164	11907
251.227	11340
251.290	11105
251.354	20110
251.417	83574
251.480	68664
251.543	53846
251.606	148861
251.669	92838
251.732	34732
251.795	37203
251.859	39827
251.922	92364
251.985	41949
252.048	16835
252.111	12573
252.174	11912
252.237	23556
252.300	49680
252.363	55396
252.426	108876
252.489	37911
252.552	19127
252.615	13243
252.678	17262
252.741	39408
252.804	55334
252.867	114822
252.930	56530
252.993	26180
253.056	15862
253.119	11701
253.182	10426
253.245	15792
253.308	11356
253.371	10057
253.434	9728
253.497	9120
253.559	21075
253.622	12124
253.685	14479
253.748	11999
253.811	7082
253.874	10452
253.937	8513
254.000	6434
254.062	15397
254.125	20726
254.188	16805
254.251	11933
254.314	7778
254.376	12675
254.439	11536
254.502	9654
254.565	14658
254.628	23071
254.690	10649
254.753	5496
254.816	5574
254.878	7697
254.941	17428
255.004	13599
255.067	6579
255.129	4775
255.192	3986
255.255	2624
255.317	4890
255.380	3373
255.443	1689
255.505	2068
255.568	1905
255.631	2261
255.693	2808
255.756	1623
255.819	3049
255.881	1665
255.944	1857
256.006	2216
256.069	2211
256.132	2359
256.194	3847
256.257	11201
256.319	8276
256.382	7112
256.444	5392
256.507	4094
256.569	3261
256.632	4812
256.694	8039
256.757	23110
256.819	53805
256.882	19229
256.944	8342
257.007	7017
257.069	6702
257.132	5451
257.194	4094
257.257	3692
257.319	3990
257.381	5744
257.444	18314
257.506	70517
257.569	62065
257.631	28089
257.693	15295
257.756	8294
257.818	7457
257.880	4399
257.943	3805
258.005	3471
258.067	4095
258.130	2922
258.192	4853
258.254	7171
258.317	5672
258.379	4891
258.441	12059
258.503	9242
258.566	14459
258.628	15831
258.690	5071
258.753	4489
258.815	6548
258.877	4486
258.939	3519
259.001	3810
259.064	3358
259.126	3922
259.188	5948
259.250	4371
259.312	6091
259.375	12749
259.437	7234
259.499	3358
259.561	3258
259.623	3253
259.685	3228
259.747	4181
259.809	15174
259.872	23343
259.934	40622
259.996	27397
260.058	7763
260.120	3815
260.182	3553
260.244	3100
260.306	2980
260.368	3711
260.430	2636
260.492	6044
260.554	11818
260.616	8180
260.678	19673
260.740	20662
260.802	5999
260.864	4018
260.926	2703
260.988	4258
261.050	4260
261.112	10452
261.174	27329
261.236	16514
261.298	6545
261.359	11060
261.421	13198
261.483	3610
261.545	3844
261.607	1244
261.669	3411
261.731	6797
261.793	14816
261.854	4629
261.916	3915
261.978	3877
262.040	4599
262.102	2833
262.164	5669
262.225	3272
262.287	3799
262.349	8348
262.411	5256
262.472	3412
262.534	8293
262.596	13843
262.658	4153
262.719	1766
262.781	5540
262.843	12718
262.904	5322
262.966	5053
263.028	6993
263.090	36108
263.151	69628
263.213	19555
263.275	9272
263.336	5338
263.398	4024
263.459	2435
263.521	3448
263.583	7136
263.644	4028
263.706	2582
263.767	1546
263.829	1760
263.891	1509
263.952	1370
264.014	1649
264.075	3590
264.137	8439
264.198	4348
264.260	1718
264.321	2450
264.383	7545
264.444	13689
264.506	3797
264.567	3059
264.629	7626
264.690	10513
264.752	4327
264.813	2182
264.875	1436
264.936	3321
264.998	2255
265.059	2415
265.120	3506
265.182	6125
265.243	29125
265.305	23213
265.366	5741
265.427	3260
265.489	2935
265.550	1696
265.611	3012
265.673	1994
265.734	2771
265.795	2020
265.857	1685
265.918	3545
265.979	9899
266.040	47291
266.102	31252
266.163	8093
266.224	6977
266.286	4201
266.347	2095
266.408	2482
266.469	3609
266.530	1759
266.592	1682
266.653	5092
266.714	7060
266.775	1848
266.836	2288
266.898	1310
266.959	3092
267.020	1546
267.081	3009
267.142	1875
267.203	2049
267.264	649
267.326	2759
267.387	1269
267.448	739
267.509	1389
267.570	1124
267.631	2108
267.692	784
267.753	2540
267.814	1806
267.875	5291
267.936	10542
267.997	5400
268.058	4829
268.119	3011
268.180	3068
268.241	1249
268.302	2022
268.363	1181
268.424	1839
268.485	2914
268.546	1087
268.607	1077
268.668	464
268.729	963
268.790	1788
268.851	1835
268.912	6633
268.972	5746
269.033	2629
269.094	1013
269.155	2306
269.216	1080
269.277	2642
269.338	1373
269.398	2972
269.459	1646
269.520	3292
269.581	2879
269.642	4937
269.702	2270
269.763	2994
269.824	2405
269.885	3160
269.945	4459
270.006	1976
270.067	1159
270.128	1499
270.188	1482
270.249	1424
270.310	849
270.370	1314
270.431	1557
270.492	1844
270.553	1918
270.613	4949
270.674	9052
270.734	3210
270.795	1835
270.856	3253
270.916	2124
270.977	2545
271.038	2057
271.098	2717
271.159	4117
271.219	4234
271.280	1804
271.340	1133
271.401	2540
271.462	6576
271.522	3073
271.583	2249
271.643	2755
271.704	2570
271.764	3338
271.825	10133
271.885	34965
271.946	37762
272.006	11467
272.066	22580
272.127	30555
272.187	9657
272.248	5413
272.308	7174
272.369	22079
272.429	9979
272.489	7599
272.550	6873
272.610	7460
272.671	4642
272.731	5875
272.791	7254
272.852	4213
272.912	4327
272.972	2500
273.033	3021
273.093	3202
273.153	4090
273.214	3298
273.274	4670
273.334	15931
273.394	25803
273.455	8980
273.515	11120
273.575	20148
273.635	9099
273.696	16351
273.756	27056
273.816	9678
273.876	6760
273.936	15462
273.997	21829
274.057	5179
274.117	4782
274.177	9428
274.237	37110
274.297	26497
274.358	19164
274.418	21966
274.478	13044
274.538	5168
274.598	6124
274.658	20940
274.718	22471
274.778	7671
274.838	4643
274.898	14214
274.958	34313
275.018	31688
275.078	15962
275.138	6996
275.198	3747
275.258	2691
275.318	4385
275.378	7736
275.438	7016
275.498	6044
275.558	18989
275.618	31090
275.678	15802
275.738	9911
275.798	7565
275.858	3395
275.918	2854
275.978	3273
276.038	3709
276.098	2212
276.157	7405
276.217	14204
276.277	6554
276.337	4308
276.397	2118
276.457	3500
276.517	2105
276.576	2426
276.636	2107
276.696	4046
276.756	10479
276.815	6390
276.875	2849
276.935	4075
276.995	2550
277.055	2219
277.114	2741
277.174	4252
277.234	12517
277.293	4913
277.353	2262
277.413	2097
277.472	2722
277.532	3082
277.592	4720
277.651	15848
277.711	20682
277.771	9233
277.830	29957
277.890	19421
277.950	21651
278.009	49490
278.069	15835
278.128	19748
278.188	21603
278.248	10943
278.307	27572
278.367	13823
278.426	5716
278.486	2981
278.545	3638
278.605	2293
278.664	2914
278.724	4325
278.783	13685
278.843	26877
278.902	8193
278.962	4597
279.021	5408
279.081	12272
279.140	9943
279.199	6008
279.259	7080
279.318	6872
279.378	10718
279.437	21874
279.496	66105
279.556	173257
279.615	109472
279.675	31281
279.734	20491
279.793	33462
279.853	44529
279.912	15724
279.971	9863
280.031	8644
280.090	18302
280.149	25822
280.208	28226
280.268	117075
280.327	93779
280.386	23096
280.445	17188
280.505	12745
280.564	9146
280.623	6018
280.682	9610
280.742	11321
280.801	4455
280.860	3584
280.919	2486
280.978	3277
281.037	2568
281.097	2009
281.156	3530
281.215	2612
281.274	4603
281.333	18102
281.392	10334
281.451	2954
281.510	2026
281.569	2422
281.628	2041
281.688	2579
281.747	3101
281.806	1619
281.865	2118
281.924	2107
281.983	2117
282.042	1416
282.101	1441
282.160	2229
282.219	1677
282.278	2917
282.337	8482
282.396	4452
282.454	3017
282.513	3243
282.572	12252
282.631	5597
282.690	2168
282.749	1086
282.808	3688
282.867	2559
282.926	2603
282.985	1504
283.043	1195
283.102	1973
283.161	3219
283.220	7423
283.279	12682
283.338	3343
283.396	2886
283.455	3039
283.514	3097
283.573	3879
283.631	3309
283.690	1948
283.749	2558
283.808	5650
283.866	4928
283.925	2213
283.984	3019
284.043	4761
284.101	3675
284.160	1802
284.219	4427
284.277	3845
284.336	6592
284.395	17465
284.453	11617
284.512	5495
284.570	7831
284.629	5633
284.688	5793
284.746	6034
284.805	8456
284.863	9940
284.922	12912
284.981	16134
285.039	26703
285.098	49544
285.156	116252
285.215	226650
285.273	195451
285.332	96406
285.390	52936
285.449	34316
285.507	23934
285.566	18323
285.624	12864
285.683	9783
285.741	8380
285.799	6920
285.858	6468
285.916	5171
285.975	4392
286.033	3856
286.091	3405
286.150	2488
286.208	2612
286.267	3739
286.325	4211
286.383	5635
286.442	4476
286.500	2542
286.558	2487
286.616	3187
286.675	4172
286.733	3340
286.791	2754
286.850	3658
286.908	4318
286.966	5530
287.024	3393
287.083	2629
287.141	2199
287.199	3240
287.257	3866
287.315	3331
287.374	4136
287.432	7811
287.490	4490
287.548	3267
287.606	2397
287.664	2478
287.723	3305
287.781	4364
287.839	3570
287.897	3816
287.955	6242
288.013	11060
288.071	29335
288.129	106329
288.187	227014
288.245	90537
288.303	30857
288.361	18122
288.419	12767
288.477	9374
288.535	7001
288.593	5457
288.651	3404
288.709	1692
288.767	3263
288.825	2206
288.883	1972
288.941	1981
288.999	1394
289.057	1290
289.115	2366
289.173	2538
289.231	2022
289.289	697
289.346	2053
289.404	3232
289.462	3834
289.520	3675
289.578	2360
289.636	1005
289.694	1718
289.751	1194
289.809	1721
289.867	1471
289.925	2484
289.983	2638
290.040	1860
290.098	1657
290.156	1960
290.214	2631
290.271	1802
290.329	799
290.387	1763
290.444	787
290.502	1190
290.560	1296
290.617	1101
290.675	911
290.733	1335
290.790	1945
290.848	1860
290.906	1602
290.963	2019
291.021	1811
291.078	2186
291.136	1896
291.194	8394
291.251	12370
291.309	3549
291.366	1806
291.424	1350
291.481	1382
291.539	1857
291.596	1862
291.654	762
291.711	570
291.769	1263
291.826	2634
291.884	1658
291.941	1130
291.999	1535
292.056	2171
292.114	1551
292.171	1214
292.228	1988
292.286	1994
292.343	3998
292.401	4172
292.458	2315
292.515	1727
292.573	1749
292.630	2619
292.687	2036
292.745	1932
292.802	3323
292.859	8561
292.917	15248
292.974	7314
293.031	2791
293.089	1873
293.146	1378
293.203	1928
293.260	1495
293.318	2540
293.375	3529
293.432	1760
293.489	2171
293.546	1802
293.604	3876
293.661	14629
293.718	28999
293.775	11894
293.832	5973
293.889	4511
293.947	4867
294.004	3224
294.061	3502
294.118	7486
294.175	14738
294.232	15736
294.289	7356
294.346	4070
294.403	4540
294.460	3120
294.517	2144
294.574	2957
294.631	2123
294.688	4464
294.745	11003
294.802	32540
294.859	27974
294.916	11087
294.973	6625
295.030	3989
295.087	3980
295.144	3823
295.201	2407
295.258	2226
295.315	5023
295.372	13966
295.429	21932
295.486	8995
295.542	5382
295.599	13971
295.656	20180
295.713	14903
295.770	18416
295.827	6538
295.883	3851
295.940	3545
295.997	5386
296.054	4314
296.111	2982
296.167	2111
296.224	1553
296.281	2166
296.338	2039
296.394	1643
296.451	2838
296.508	10083
296.564	15476
296.621	13260
296.678	30928
296.734	35229
296.791	12686
296.848	6682
296.904	7861
296.961	14574
297.018	23549
297.074	15551
297.131	5938
297.187	6570
297.244	9360
297.301	29540
297.357	43519
297.414	13952
297.470	6727
297.527	4445
297.583	4018
297.640	3075
297.696	2606
297.753	1899
297.809	2185
297.866	1495
297.922	1923
297.979	2098
298.035	2576
298.092	6097
298.148	13488
298.204	12039
298.261	7265
298.317	14645
298.374	32732
298.430	17346
298.486	8305
298.543	5987
298.599	5501
298.656	6271
298.712	10709
298.768	22953
298.824	14980
298.881	5449
298.937	3607
298.993	3320
299.050	4156
299.106	2994
299.162	2986
299.218	2666
299.275	3319
299.331	4287
299.387	9384
299.443	30798
299.500	29456
299.556	12866
299.612	6069
299.668	5926
299.724	9722
299.780	9084
299.837	5363
299.893	7617
299.949	23182
300.005	26101
300.061	25713
300.117	40165
300.173	17728
300.229	7513
300.285	9065
300.341	8654
300.397	5130
300.453	3299
300.510	3457
300.566	3936
300.622	7580
300.678	20642
300.734	27351
300.790	22863
300.845	27215
300.901	18069
300.957	23754
301.013	14470
301.069	6163
301.125	4298
301.181	3556
301.237	2697
301.293	2258
301.349	2008
301.405	1925
301.461	3153
301.516	4038
301.572	3899
301.628	6103
301.684	5625
301.740	9699
301.796	12125
301.851	9541
301.907	15484
301.963	18067
302.019	34696
302.074	84065
302.130	75227
302.186	33193
302.242	14244
302.297	9500
302.353	9073
302.409	16202
302.464	13103
302.520	12668
302.576	26639
302.631	27240
302.687	13546
302.743	6928
302.798	4649
302.854	3726
302.910	4156
302.965	5332
303.021	7773
303.076	7624
303.132	9328
303.187	10048
303.243	5022
303.299	4097
303.354	3059
303.410	2793
303.465	2366
303.521	2689
303.576	3147
303.632	5340
303.687	8634
303.743	25493
303.798	19666
303.853	7339
303.909	4677
303.964	4577
304.020	5936
304.075	7784
304.130	7307
304.186	13277
304.241	11786
304.297	9892
304.352	5407
304.358	5306
304.407	4480
304.449	3331
304.463	2947
304.518	3740
304.539	3652
304.573	3502
304.629	4456
304.630	4516
304.684	7562
304.720	16652
304.739	21195
304.794	28711
304.811	24225
304.850	13180
304.902	5652
304.905	5191
304.960	4437
304.992	4546
305.015	4659
305.071	4353
305.083	4140
305.126	3303
305.173	2182
305.181	2015
305.236	2183
305.264	2812
305.292	3396
305.347	3046
305.354	3157
305.402	3990
305.445	4105
305.457	4112
305.512	4767
305.535	4846
305.567	5008
305.622	6120
305.626	6323
305.678	11569
305.716	21914
305.733	25484
305.788	27223
305.807	24250
305.843	19562
305.897	27123
305.898	27193
305.953	25343
305.988	17175
306.008	12777
306.063	7246
306.078	6537
306.118	5340
306.168	3912
306.173	3804
306.228	2890
306.259	2919
306.283	2977
306.338	2698
306.349	2970
306.393	4059
306.440	3962
306.448	3913
306.503	3662
306.530	4083
306.558	5516
306.613	10365
306.620	11040
306.668	16079
306.711	23072
306.723	23719
306.778	17127
306.801	13028
306.833	8610
306.888	4271
306.892	4152
306.943	3813
306.982	3329
306.997	3246
307.052	3078
307.072	3106
307.107	3290
307.162	4310
307.163	4313
307.217	5234
307.253	6908
307.272	7412
307.327	6945
307.343	6651
307.381	6210
307.434	6406
307.436	6583
307.491	12415
307.524	17074
307.546	18433
307.600	19617
307.614	17852
307.655	10678
307.704	6357
307.710	6329
307.765	7248
307.795	8581
307.819	9892
307.874	14470
307.885	14514
307.929	12816
307.975	12295
307.984	13036
308.038	20550
308.065	26906
308.093	47449
308.148	98793
308.156	109588
308.202	168380
308.246	201556
308.257	193452
308.312	103383
308.336	69225
308.366	51402
308.421	30191
308.426	28407
308.475	18719
308.517	13567
308.530	12819
308.585	10895
308.607	10231
308.639	10035
308.694	10255
308.697	10313
308.748	14638
308.787	19533
308.803	19618
308.857	15963
308.877	14532
308.912	13531
308.967	13787
308.967	13804
309.021	20688
309.058	26541
309.076	34182
309.130	62384
309.148	73533
309.185	138925
309.238	247939
309.239	248825
309.293	269490
309.328	250947
309.348	213568
309.402	101695
309.418	73261
309.457	51470
309.508	30268
309.511	29750
309.566	25001
309.598	23408
309.620	24595
309.674	28459
309.688	29578
309.729	28493
309.778	25244
309.783	24786
309.837	19426
309.868	16895
309.892	19570
309.946	27041
309.959	29397
310.001	37016
310.049	43116
310.055	41643
310.109	25420
310.139	16384
310.163	13242
310.218	7990
310.229	7103
310.272	6230
310.319	5563
310.326	5454
310.381	4419
310.409	4113
310.435	4064
310.489	3905
310.499	3845
310.543	3672
310.589	3760
310.598	3795
310.652	4027
310.679	3998
310.706	3683
310.760	3150
310.769	3069
310.814	3016
310.859	3062
310.868	3013
310.923	2546
310.948	2388
310.977	2952
311.031	4084
311.038	4233
311.085	3877
311.128	3451
311.139	3459
311.193	3477
311.218	3446
311.247	3148
311.301	2730
311.308	2655
311.356	2970
311.398	3365
311.410	3290
311.464	2825
311.488	2659
311.518	2951
311.572	3364
311.578	3409
311.626	3930
311.668	4423
311.680	4529
311.734	4885
311.758	5049
311.788	4587
311.842	3750
311.847	3657
311.896	4829
311.937	5894
311.950	5916
312.004	5934
312.027	5932
312.058	5157
312.112	3769
312.117	3627
312.165	3229
312.207	2890
312.297	5084
312.386	3823
312.476	4327
312.566	7259
312.656	4376
312.745	2725
312.835	3940
312.925	3509
313.015	4040
313.104	4091
313.194	4017
313.284	3430
313.374	4733
313.463	4390
313.553	3773
313.643	2159
313.732	3231
313.822	2821
313.912	4049
314.001	3536
314.091	4408
314.180	4844
314.270	5591
314.360	5531
314.449	4668
314.539	3883
314.628	3586
314.718	4096
314.808	4964
314.897	4471
314.987	3816
315.076	4613
315.166	5099
315.255	5304
315.345	5529
315.434	5125
315.524	5742
315.613	6460
315.703	9250
315.792	20076
315.881	75835
315.971	32209
316.060	12002
316.150	10545
316.239	10922
316.328	5481
316.418	3217
316.507	4344
316.597	5922
316.686	5192
316.775	6368
316.865	10095
316.954	4177
317.043	3531
317.133	4245
317.222	4024
317.311	3583
317.400	3492
317.490	6425
317.579	7047
317.668	8314
317.757	13138
317.847	35356
317.936	134167
318.025	50789
318.114	26302
318.203	14780
318.293	11909
318.382	21503
318.471	15950
318.560	20392
318.649	31847
318.738	8231
318.828	5953
318.917	6766
319.006	6317
319.095	15485
319.184	40497
319.273	24045
319.362	12365
319.451	4618
319.540	4842
319.629	10419
319.718	16033
319.807	8360
319.896	16463
319.985	51664
320.074	19854
320.163	5714
320.252	7988
320.341	6756
320.430	6284
320.519	8394
320.608	4966
320.697	4876
320.786	4493
320.875	6558
320.964	8270
321.053	11893
321.142	16455
321.230	18297
321.319	13614
321.408	26732
321.497	12653
321.586	11857
321.675	12917
321.764	13159
321.852	9788
321.941	16070
322.030	12718
322.119	13700
322.207	27760
322.296	17605
322.385	11096
322.474	14207
322.562	34002
322.651	18885
322.740	13349
322.829	18157
322.917	15398
323.006	10201
323.095	9705
323.183	7716
323.272	12603
323.361	19340
323.449	43902
323.538	17734
323.626	30343
323.715	19513
323.804	9281
323.892	26320
323.981	15565
324.069	6567
324.158	14242
324.246	13610
324.335	6624
324.424	10758
324.512	4665
324.601	6346
324.689	11090
324.778	18324
324.866	12713
324.954	4897
325.043	3770
325.131	7229
325.220	11332
325.308	12250
325.397	9758
325.485	6638
325.574	3839
325.662	3394
325.750	3295
325.839	4154
325.927	2848
326.015	4867
326.104	6182
326.192	7598
326.280	3557
326.369	3675
326.457	5491
326.545	8589
326.634	4136
326.722	2996
326.810	2965
326.898	3734
326.987	3868
327.075	7323
327.163	7955
327.251	5259
327.340	6235
327.428	10093
327.516	3341
327.604	2951
327.692	3403
327.781	3758
327.869	6372
327.957	4381
328.045	4110
328.133	3431
328.221	3282
328.309	3260
328.397	3263
328.485	4589
328.574	6169
328.662	18666
328.750	10162
328.838	4999
328.926	3420
329.014	3011
329.102	4681
329.190	10600
329.278	7958
329.366	3545
329.454	3092
329.542	2535
329.630	3208
329.718	4052
329.806	4939
329.893	6683
329.981	9336
330.069	21406
330.157	75161
330.245	197519
330.333	109330
330.421	21394
330.509	11445
330.597	23750
330.684	15953
330.772	7115
330.860	6250
330.948	8494
331.036	4432
331.123	2639
331.211	3083
331.299	3477
331.387	7240
331.475	11694
331.562	4583
331.650	2957
331.738	3412
331.825	4292
331.913	1816
332.001	3110
332.089	3910
332.176	6298
332.264	12972
332.352	10600
332.439	4242
332.527	3365
332.614	2619
332.702	4359
332.790	3474
332.877	7916
332.965	12173
333.052	5420
333.140	5403
333.228	11284
333.315	5397
333.403	3528
333.490	8116
333.578	8090
333.665	13606
333.753	8270
333.840	3827
333.928	5259
334.015	10234
334.103	19887
334.190	52410
334.278	16041
334.365	7872
334.452	7848
334.540	5583
334.627	7258
334.715	8119
334.802	17074
334.889	57642
334.977	56555
335.064	12915
335.151	7012
335.239	6419
335.326	8638
335.413	28170
335.501	36516
335.588	7870
335.675	5439
335.762	6979
335.850	11328
335.937	12148
336.024	24861
336.111	63261
336.199	31082
336.286	10383
336.373	6823
336.460	3810
336.547	4755
336.635	5487
336.722	4620
336.809	3574
336.896	6813
336.983	16295
337.070	38483
337.157	55228
337.245	36162
337.332	23268
337.419	4984
337.506	3402
337.593	3932
337.680	11929
337.767	31675
337.854	10797
337.941	10851
338.028	11323
338.115	5609
338.202	6010
338.289	11705
338.376	30156
338.463	12109
338.550	20008
338.637	20615
338.724	7441
338.811	9375
338.898	2697
338.984	2786
339.071	3319
339.158	3656
339.245	11365
339.332	6943
339.419	7132
339.506	7633
339.593	1965
339.679	3198
339.766	2599
339.853	4437
339.940	8156
340.027	3451
340.113	3247
340.200	3731
340.287	3209
340.374	4848
340.460	6901
340.547	3546
340.634	6138
340.720	21518
340.807	12736
340.894	2888
340.980	3154
341.067	3784
341.154	3555
341.240	5479
341.327	10518
341.414	4497
341.500	5258
341.587	3885
341.674	3408
341.760	8267
341.847	8148
341.933	3141
342.020	1482
342.106	2380
342.193	3648
342.279	5560
342.366	4548
342.452	7350
342.539	4904
342.625	10044
342.712	23656
342.798	9741
342.885	4402
342.971	2575
343.058	2279
343.144	2328
343.230	2154
343.317	3005
343.403	2105
343.490	2332
343.576	2167
343.662	3042
343.749	2973
343.835	5086
343.921	12021
344.008	64907
344.094	142519
344.180	32951
344.267	10986
344.353	32377
344.439	31512
344.525	12983
344.612	9796
344.698	10006
344.784	5198
344.870	3102
344.957	2636
345.043	4759
345.129	3137
345.215	7539
345.301	4205
345.387	2693
345.474	2190
345.560	1402
345.646	2551
345.732	2566
345.818	3555
345.904	3245
345.990	3549
346.076	3503
346.162	4759
346.249	3045
346.335	2857
346.421	4778
346.507	15653
346.593	48625
346.679	11751
346.765	3207
346.851	3144
346.937	3280
347.023	3203
347.108	3856
347.194	2732
347.280	3347
347.366	4131
347.452	16500
347.538	62896
347.624	43069
347.710	28997
347.796	5453
347.882	3215
347.967	3317
348.053	3120
348.139	3345
348.225	3358
348.311	3910
348.397	2682
348.482	3627
348.568	4289
348.654	2773
348.740	5307
348.825	6824
348.911	8754
348.997	28709
349.083	54806
349.168	9167
349.254	3431
349.340	3613
349.425	2319
349.511	4167
349.597	4537
349.682	9006
349.768	29020
349.854	14777
349.939	3293
350.025	2699
350.110	2777
350.196	2345
350.282	1427
350.367	2908
350.453	3701
350.538	4992
350.624	3224
350.709	4038
350.795	1647
350.880	1979
350.966	3218
351.051	4764
351.137	3370
351.222	3602
351.308	9268
351.393	24415
351.479	7514
351.564	2840
351.649	2717
351.735	2699
351.820	2135
351.906	3062
351.991	4338
352.076	16763
352.162	23036
352.247	5790
352.332	3810
352.418	6548
352.503	9890
352.588	33928
352.673	26371
352.759	6444
352.844	3588
352.929	3914
353.014	4719
353.100	4317
353.185	6872
353.270	9360
353.355	8084
353.441	3509
353.526	4088
353.611	7364
353.696	8927
353.781	6326
353.866	2787
353.952	3827
354.037	6848
354.122	15863
354.207	13483
354.292	6097
354.377	3276
354.462	3577
354.547	3197
354.632	4107
354.717	5224
354.802	8076
354.887	3641
354.972	2862
355.057	2560
355.142	1904
355.227	3633
355.312	5382
355.397	12274
355.482	24865
355.567	13714
355.652	10137
355.737	12015
355.822	35353
355.907	28474
355.991	5427
356.076	3620
356.161	4134
356.246	2725
356.331	4849
356.416	11944
356.501	66238
356.585	68067
356.670	10474
356.755	7422
356.840	9919
356.924	47760
357.009	159558
357.094	59797
357.179	12271
357.263	6934
357.348	6791
357.433	6980
357.517	6530
357.602	4992
357.687	5844
357.771	10527
357.856	30631
357.941	20833
358.025	42187
358.110	168040
358.195	80128
358.279	12182
358.364	8664
358.448	24318
358.533	61611
358.617	45662
358.702	45049
358.787	17166
358.871	9633
358.956	8208
359.040	4642
359.125	3088
359.209	4525
359.294	13815
359.378	25171
359.462	9529
359.547	4859
359.631	3469
359.716	2298
359.800	3567
359.885	5423
359.969	3001
360.053	3220
360.138	3207
360.222	4951
360.306	7932
360.391	7220
360.475	15070
360.559	31802
360.644	24341
360.728	19246
360.812	37589
360.896	100381
360.981	36575
361.065	15848
361.149	5871
361.233	4878
361.318	3978
361.402	4733
361.486	4382
361.570	4514
361.654	5714
361.739	14137
361.823	64199
361.907	101468
361.991	19454
362.075	9363
362.159	18684
362.243	17064
362.327	19259
362.411	24355
362.495	13469
362.580	8257
362.664	6209
362.748	7747
362.832	9909
362.916	19064
363.000	49078
363.084	103152
363.168	129904
363.252	32265
363.336	10958
363.420	13413
363.503	39985
363.587	44192
363.671	10521
363.755	8571
363.839	10439
363.923	7393
364.007	12302
364.091	14865
364.175	24370
364.258	77136
364.342	74959
364.426	88897
364.510	48592
364.594	23049
364.677	23790
364.761	90502
364.845	63535
364.929	18138
365.013	13632
365.096	11936
365.180	13160
365.264	19608
365.347	63486
365.431	26949
365.515	7206
365.598	3927
365.682	4621
365.766	5525
365.849	7227
365.933	5031
366.017	5643
366.100	4575
366.184	1994
366.267	3506
366.351	3766
366.435	3177
366.518	3071
366.602	3357
366.685	3506
366.769	4089
366.852	6438
366.936	9274
367.019	7118
367.103	5215
367.186	7908
367.270	3504
367.353	1650
367.436	3794
367.520	2820
367.603	4210
367.687	4602
367.770	10529
367.853	7620
367.937	24553
368.020	39737
368.104	9830
368.187	7629
368.270	12262
368.353	10695
368.437	12300
368.520	21657
368.603	15761
368.687	25445
368.770	48187
368.853	12831
368.936	9972
369.020	8308
369.103	4509
369.186	3477
369.269	3531
369.352	7356
369.436	9115
369.519	6474
369.602	3400
369.685	3898
369.768	4386
369.851	3724
369.934	2907
370.018	3688
370.101	8264
370.184	7173
370.267	6192
370.350	9515
370.433	16265
370.516	46593
370.599	68223
370.682	24592
370.765	25676
370.848	32233
370.931	61265
371.014	22741
371.097	5162
371.180	4277
371.263	3933
371.346	2259
371.429	3583
371.511	3249
371.594	6563
371.677	8988
371.760	10822
371.843	11876
371.926	62993
372.009	147802
372.091	44821
372.174	25909
372.257	63137
372.340	25051
372.423	13349
372.505	13917
372.588	8122
372.671	18970
372.754	60734
372.836	30323
372.919	19018
373.002	33422
373.085	11729
373.167	9999
373.250	27035
373.332	61178
373.415	89643
373.498	189845
373.580	71700
373.663	107447
373.746	147746
373.828	30978
373.911	10214
373.993	11254
374.076	33786
374.159	31324
374.241	17007
374.324	47468
374.406	34532
374.489	56215
374.571	149676
374.654	60233
374.736	29663
374.819	90992
374.901	130671
374.983	136053
375.066	25228
375.148	8885
375.231	30275
375.313	51412
375.395	18383
375.478	6024
375.560	5128
375.643	7138
375.725	27570
375.807	111730
375.890	79227
375.972	22222
376.054	14570
376.136	18606
376.219	10493
376.301	31502
376.383	92617
376.465	34825
376.548	17707
376.630	24844
376.712	75921
376.794	34010
376.877	5835
376.959	3428
377.041	3417
377.123	7186
377.205	8277
377.287	2777
377.369	3247
377.452	3031
377.534	3179
377.616	3076
377.698	3484
377.780	2338
377.862	3603
377.944	3601
378.026	3094
378.108	2716
378.190	3440
378.272	3118
378.354	3054
378.436	2427
378.518	4347
378.600	13389
378.682	13628
378.764	33441
378.846	26450
378.928	6919
379.010	9332
379.091	6104
379.173	3548
379.255	3570
379.337	4691
379.419	16403
379.501	48478
379.583	20643
379.664	6606
379.746	11583
379.828	32631
379.910	44271
379.991	39656
380.073	7514
380.155	5807
380.237	3559
380.318	2448
380.400	3381
380.482	7368
380.564	9562
380.645	11928
380.727	10393
380.809	6800
380.890	5380
380.972	4080
381.053	3540
381.135	5050
381.217	12861
381.298	33443
381.380	16240
381.461	16296
381.543	75337
381.624	93203
381.706	18123
381.787	8940
381.869	9849
381.951	37267
382.032	142009
382.113	85003
382.195	16378
382.276	12424
382.358	26464
382.439	71946
382.521	82533
382.602	128859
382.684	57334
382.765	91190
382.846	97250
382.928	113809
383.009	65093
383.090	57640
383.172	181042
383.253	243684
383.334	97580
383.416	110094
383.497	59389
383.578	28466
383.659	51120
383.741	175519
383.822	384303
383.903	196143
383.984	78885
384.066	122098
384.147	75817
384.228	18713
384.309	12145
384.390	10262
384.471	7662
384.553	8032
384.634	9777
384.715	10980
384.796	6201
384.877	9895
384.958	31523
385.039	37474
385.120	13784
385.201	7623
385.282	7989
385.363	8763
385.444	8556
385.525	17503
385.606	57309
385.687	49462
385.768	11920
385.849	14818
385.930	66806
386.011	121643
386.092	33437
386.173	8848
386.254	5977
386.335	6676
386.416	6961
386.496	20665
386.577	33075
386.658	12287
386.739	7383
386.820	7954
386.901	5725
386.981	7305
387.062	6007
387.143	10320
387.224	32887
387.304	31057
387.385	12360
387.466	7927
387.547	9293
387.627	7848
387.708	15466
387.789	61146
387.869	77837
387.950	23919
388.031	5854
388.111	4750
388.192	10107
388.273	13905
388.353	9223
388.434	6577
388.514	15036
388.595	67520
388.676	81806
388.756	35379
388.837	28665
388.917	19596
388.998	4934
389.078	5695
389.159	5024
389.239	4337
389.320	7964
389.400	6005
389.480	14283
389.561	37462
389.641	19217
389.722	6706
389.802	9670
389.883	16920
389.963	45422
390.043	26920
390.124	7815
390.204	13951
390.284	36215
390.365	24406
390.445	28787
390.525	83566
390.605	77667
390.686	23377
390.766	8799
390.846	6403
390.927	3834
391.007	4788
391.087	5245
391.167	5588
391.247	4400
391.328	7043
391.408	9018
391.488	7110
391.568	3546
391.648	6874
391.728	8280
391.808	9267
391.888	9177
391.969	21586
392.049	34291
392.129	16780
392.209	18900
392.289	45890
392.369	25369
392.449	18523
392.529	13937
392.609	13315
392.689	18745
392.769	48378
392.849	44190
392.929	34159
393.009	70958
393.089	68247
393.169	83204
393.248	251781
393.328	750609
393.408	792334
393.488	282206
393.568	85028
393.648	41631
393.728	26075
393.807	18394
393.887	16512
393.967	14542
394.047	15062
394.127	16033
394.206	25652
394.286	84727
394.366	349807
394.446	383376
394.525	95526
394.605	25625
394.685	17681
394.764	24334
394.844	38070
394.924	30785
395.003	12946
395.083	10092
395.163	9438
395.242	7867
395.322	9252
395.402	7250
395.481	10622
395.561	19438
395.640	45444
395.720	46519
395.799	55203
395.879	43681
395.958	37097
396.038	124721
396.117	459673
396.197	509362
396.276	152220
396.356	48896
396.435	33888
396.515	28022
396.594	34454
396.673	66842
396.753	248527
396.832	694847
396.912	539278
396.991	134669
397.070	42509
397.150	22506
397.229	17754
397.308	20430
397.388	36755
397.467	21523
397.546	10212
397.625	5979
397.705	9549
397.784	7510
397.863	6023
397.942	4799
398.022	5066
398.101	13605
398.180	36999
398.259	19506
398.338	7091
398.417	5606
398.497	3512
398.576	4500
398.655	3051
398.734	3744
398.813	4428
398.892	13148
398.971	40236
399.050	20025
399.129	3658
399.208	2753
399.287	3351
399.366	2286
399.445	3001
399.524	2858
399.603	1997
399.682	5612
399.761	15561
399.840	44414
399.919	33827
399.998	5564
400.077	2257
400.156	1491
400.235	4597
400.313	2351
400.392	3816
400.471	17048
400.550	27161
400.629	6871
400.708	4403
400.786	3869
400.865	7765
400.944	8181
401.023	5815
401.102	1398
401.180	2321
401.259	1667
401.338	1974
401.416	3341
401.495	3836
401.574	2741
401.652	2184
401.731	3913
401.810	2648
401.888	2534
401.967	1808
402.046	2072
402.124	4070
402.203	3593
402.281	3465
402.360	4323
402.438	10200
402.517	7030
402.596	3691
402.674	2366
402.753	2453
402.831	2399
402.910	3689
402.988	12450
403.066	46553
403.145	27558
403.223	14110
403.302	38383
403.380	29476
403.459	27969
403.537	11640
403.615	4162
403.694	1948
403.772	2458
403.850	2363
403.929	2239
404.007	2832
404.085	5931
404.164	6272
404.242	4645
404.320	16247
404.398	52660
404.477	57884
404.555	103938
404.633	94198
404.711	42035
404.789	24273
404.868	7167
404.946	3715
405.024	2488
405.102	2201
405.180	1489
405.258	1156
405.336	3100
405.415	1812
405.493	5140
405.571	5028
405.649	1715
405.727	1427
405.805	3378
405.883	3484
405.961	2869
406.039	4181
406.117	1478
406.195	4900
406.273	20203
406.351	77849
406.429	45729
406.507	6728
406.585	2241
406.663	3157
406.740	3253
406.818	3353
406.896	1924
406.974	4093
407.052	6371
407.130	43486
407.208	61900
407.285	13593
407.363	1997
407.441	3198
407.519	2894
407.596	4494
407.674	17968
407.752	74216
407.830	61460
407.907	12436
407.985	3656
408.063	2472
408.141	1723
408.218	4418
408.296	3072
408.373	3453
408.451	3203
408.529	3027
408.606	1275
408.684	2063
408.762	1828
408.839	2173
408.917	1665
408.994	2965
409.072	2029
409.149	1757
409.227	3993
409.304	5478
409.382	4864
409.459	5901
409.537	8148
409.614	7465
409.692	6258
409.769	6353
409.846	7511
409.924	9987
410.001	7180
410.079	6881
410.156	5251
410.233	4584
410.311	3506
410.388	2667
410.465	3717
410.543	3695
410.620	3366
410.697	3178
410.775	3148
410.852	823
410.929	3142
411.006	4386
411.083	2555
411.161	6687
411.238	6932
411.315	4036
411.392	2465
411.469	3872
411.547	3460
411.624	2524
411.701	2653
411.778	2765
411.855	4620
411.932	2747
412.009	1813
412.086	2321
412.163	2667
412.240	2152
412.317	2775
412.394	2966
412.471	1695
412.548	1326
412.625	648
412.702	2797
412.779	4204
412.856	3660
412.933	1188
413.010	2248
413.087	3538
413.164	15371
413.241	22072
413.318	5766
413.395	4569
413.471	4712
413.548	2464
413.625	2767
413.702	766
413.779	1946
413.855	498
413.932	594
414.009	704
414.086	1684
414.162	1315
414.239	2914
414.316	14092
414.393	33899
414.469	12276
414.546	1975
414.623	567
414.699	1559
414.776	1762
414.853	1294
414.929	1450
415.006	1451
415.082	1304
415.159	1473
415.236	1852
415.312	2017
415.389	3324
415.465	4129
415.542	2733
415.618	1219
415.695	3440
415.771	1993
415.848	1959
415.924	2021
416.000	1482
416.077	1725
416.153	840
416.230	628
416.306	304
416.383	1104
416.459	703
416.535	728
416.612	633
416.688	1218
416.764	1164
416.841	1158
416.917	1139
416.993	1002
417.069	2211
417.146	3472
417.222	6064
417.298	3090
417.374	833
417.451	2541
417.527	1674
417.603	3174
417.679	1485
417.755	1573
417.831	-245
417.908	1607
417.984	793
418.060	1107
418.136	3875
418.212	4857
418.288	1673
418.364	1894
418.440	394
418.516	3418
418.592	3109
418.668	6271
418.744	8491
418.820	6790
418.896	1508
418.972	1136
419.048	1385
419.124	5112
419.200	2752
419.276	1172
419.352	220
419.428	1446
419.504	1167
419.579	2487
419.655	1214
419.731	2547
419.807	5516
419.883	11003
419.959	8588
420.034	3200
420.110	5111
420.186	20574
420.262	17125
420.337	3252
420.413	2627
420.489	2366
420.565	2191
420.640	1596
420.716	2197
420.792	1847
420.867	2214
420.943	1576
421.019	3260
421.094	3039
421.170	2925
421.245	1580
421.321	2982
421.397	4175
421.472	14089
421.548	41784
421.623	27929
421.699	8407
421.774	6446
421.850	6015
421.925	9221
422.001	9312
422.076	9315
422.152	11250
422.227	16147
422.302	23128
422.378	32317
422.453	59237
422.529	137606
422.604	366926
422.679	576719
422.755	404244
422.830	166591
422.905	70385
422.981	38341
423.056	24301
423.131	18489
423.207	13583
423.282	11066
423.357	13175
423.432	9880
423.508	9415
423.583	12296
423.658	10619
423.733	6016
423.808	5648
423.883	6009
423.959	5604
424.034	3631
424.109	4461
424.184	2530
424.259	2740
424.334	2436
424.409	2051
424.484	1921
424.559	2475
424.634	2031
424.709	2829
424.784	2642
424.859	3087
424.934	3355
425.009	13679
425.084	23165
425.159	8636
425.234	1809
425.309	2416
425.384	6763
425.459	12197
425.534	4118
425.609	1985
425.683	549
425.758	1293
425.833	1686
425.908	2454
425.983	7285
426.058	22842
426.132	9895
426.207	2762
426.282	3340
426.357	2467
426.431	1243
426.506	1767
426.581	1046
426.655	1636
426.730	1230
426.805	1274
426.879	1482
426.954	1114
427.029	3571
427.103	23717
427.178	62620
427.253	28895
427.327	3856
427.402	4456
427.476	12033
427.551	7170
427.625	2196
427.700	2243
427.774	197
427.849	2204
427.923	72
427.998	1337
428.072	1789
428.147	6060
428.221	28877
428.296	103148
428.370	61405
428.444	8363
428.519	4810
428.593	7717
428.667	6791
428.742	8204
428.816	12086
428.890	57543
428.965	103813
429.039	32125
429.113	10134
429.188	4001
429.262	1594
429.336	3867
429.410	10653
429.485	8057
429.559	6515
429.633	5801
429.707	2975
429.781	9471
429.855	55786
429.930	93172
430.004	36567
430.078	37643
430.152	47240
430.226	140451
430.300	152928
430.374	28573
430.448	7729
430.522	14367
430.596	35759
430.670	29950
430.744	93541
430.818	134059
430.892	27611
430.966	4484
431.040	2772
431.114	1178
431.188	720
431.262	973
431.336	908
431.410	3729
431.484	8465
431.557	6706
431.631	1644
431.705	3894
431.779	19608
431.853	91959
431.927	70249
432.000	9056
432.074	2572
432.148	1572
432.222	706
432.295	1312
432.369	1302
432.443	2955
432.516	23605
432.590	63232
432.664	23467
432.737	2780
432.811	420
432.885	438
432.958	1202
433.032	8
433.106	4
433.179	-977
433.253	589
433.326	966
433.400	-614
433.473	590
433.547	-367
433.620	1363
433.694	1883
433.767	3100
433.841	210
433.914	613
433.988	1030
434.061	1278
434.134	-109
434.208	57
434.281	-652
434.355	526
434.428	1396
434.501	-294
434.575	-192
434.648	705
434.721	-300
434.795	842
434.868	-843
434.941	-393
435.014	-87
435.088	580
435.161	1839
435.234	2356
435.307	2711
435.381	1902
435.454	1197
435.527	1895
435.600	2916
435.673	2693
435.746	2338
435.819	1460
435.892	1934
435.966	1112
436.039	31
436.112	1317
436.185	-366
436.258	54
436.331	-410
436.404	301
436.477	-176
436.550	578
436.623	81
436.696	-540
436.769	-14
436.842	646
436.915	77
436.987	1482
437.060	-477
437.133	353
437.206	-1014
437.279	115
437.352	-457
437.425	197
437.498	315
437.570	2965
437.643	1827
437.716	988
437.789	-390
437.861	1626
437.934	7463
438.007	2460
438.080	302
438.152	1495
438.225	3950
438.298	33183
438.370	94608
438.443	38106
438.516	8053
438.588	2153
438.661	465
438.734	597
438.806	336
438.879	1185
438.951	1788
439.024	4072
439.096	590
439.169	657
439.241	-306
439.314	162
439.386	1045
439.459	1980
439.531	2945
439.604	907
439.676	86
439.749	-99
439.821	-46
439.893	400
439.966	219
440.038	791
440.110	292
440.183	632
440.255	127
440.327	2069
440.400	10955
440.472	50705
440.544	34241
440.617	4235
440.689	2551
440.761	3838
440.833	5544
440.905	4203
440.978	-58
441.050	203
441.122	31
441.194	57
441.266	-14
441.338	97
441.411	857
441.483	14161
441.555	20376
441.627	4262
441.699	2010
441.771	1872
441.843	876
441.915	66
441.987	35
442.059	667
442.131	736
442.203	2195
442.275	1872
442.347	4494
442.419	7991
442.491	40577
442.563	105378
442.635	48422
442.706	14138
442.778	8824
442.850	1463
442.922	2011
442.994	1790
443.066	2600
443.137	3179
443.209	3208
443.281	6537
443.353	13413
443.425	52590
443.496	188465
443.568	191509
443.640	72830
443.711	14394
443.783	6565
443.855	3081
443.926	2175
443.998	1520
444.070	2308
444.141	1562
444.213	2420
444.285	3307
444.356	1987
444.428	2437
444.499	1392
444.571	470
444.642	1406
444.714	766
444.785	2617
444.857	3239
444.928	6231
445.000	4080
445.071	4979
445.143	6210
445.214	7389
445.285	11363
445.357	32397
445.428	122289
445.500	285652
445.571	178461
445.642	95700
445.714	31507
445.785	15645
445.856	6027
445.928	4506
445.999	3679
446.070	2860
446.141	2187
446.213	3268
446.284	1276
446.355	1692
446.426	651
446.497	590
446.569	1207
446.640	3145
446.711	1895
446.782	498
446.853	528
446.924	1036
446.995	346
447.066	462
447.138	742
447.209	956
447.280	-569
447.351	-247
447.422	-115
447.493	28
447.564	896
447.635	1166
447.706	1207
447.777	80
447.847	-550
447.918	58
447.989	-237
448.060	377
448.131	2941
448.202	3001
448.273	1607
448.344	118
448.414	731
448.485	618
448.556	352
448.627	-221
448.698	-398
448.768	-533
448.839	-1087
448.910	1468
448.981	903
449.051	716
449.122	-405
449.193	182
449.263	-531
449.334	-159
449.405	1300
449.475	2938
449.546	697
449.616	2294
449.687	1407
449.758	633
449.828	-248
449.899	6
449.969	-420
450.040	298
450.110	490
450.181	935
450.251	582
450.322	-464
450.392	-136
450.463	47
450.533	-104
450.604	182
450.674	-753
450.744	498
450.815	-461
450.885	257
450.955	-94
451.026	30
451.096	-626
451.166	1187
451.237	1605
451.307	5187
451.377	1740
451.447	504
451.518	-1243
451.588	579
451.658	-26
451.728	1278
451.799	5190
451.869	6289
451.939	529
452.009	54
452.079	-474
452.149	-251
452.219	786
452.289	6385
452.360	4433
452.430	771
452.500	450
452.570	1306
452.640	2181
452.710	8568
452.780	12201
452.850	9210
452.920	6479
452.990	2474
453.060	1186
453.129	1452
453.199	1302
453.269	8366
453.339	18386
453.409	28442
453.479	26275
453.549	37195
453.619	38611
453.688	14555
453.758	1352
453.828	524
453.898	250
453.968	-342
454.037	-501
454.087	13
454.107	198
454.168	-220
454.177	-307
454.247	-668
454.249	-593
454.316	525
454.330	538
454.386	472
454.411	1329
454.456	2416
454.492	4117
454.525	5513
454.574	2452
454.595	1133
454.655	304
454.665	171
454.734	710
454.736	789
454.804	2239
454.817	3252
454.873	6404
454.898	6514
454.943	6266
454.979	3843
455.013	1812
455.060	1326
455.082	1349
455.141	2011
455.152	2084
455.221	6565
455.222	6731
455.291	12334
455.303	13189
455.360	15765
455.384	22244
455.430	31914
455.465	24186
455.499	16904
455.546	10761
455.569	7852
455.627	4962
455.638	4492
455.707	1102
455.708	1129
455.777	1247
455.789	1213
455.846	927
455.869	742
455.916	371
455.950	339
455.985	160
456.031	584
456.054	787
456.112	871
456.124	865
456.193	1092
456.193	1068
456.262	873
456.274	1178
456.332	2275
456.355	1979
456.401	1322
456.436	1292
456.470	1117
456.516	736
456.540	635
456.597	678
456.609	620
456.678	316
456.678	294
456.747	1086
456.759	1053
456.817	935
456.840	1147
456.886	1319
456.920	1129
456.955	1069
457.001	1588
457.024	1821
457.082	1870
457.093	1817
457.162	2321
457.163	2346
457.232	2703
457.243	2704
457.301	2387
457.324	2055
457.370	1518
457.405	1799
457.439	2169
457.485	2269
457.508	2228
457.566	2695
457.577	2869
457.646	3812
457.647	3850
457.715	6178
457.727	6638
457.784	9810
457.808	12287
457.853	16525
457.889	21101
457.922	21934
457.969	16745
457.991	16322
458.050	16688
458.060	17099
458.129	26942
458.130	27272
458.198	31308
458.211	30170
458.267	19876
458.292	14518
458.336	9626
458.372	8350
458.405	9664
458.453	12599
458.474	15695
458.533	26808
458.543	28109
458.611	46691
458.614	47203
458.680	36851
458.694	31915
458.749	17120
458.775	12103
458.818	8066
458.855	6450
458.887	5327
458.936	4635
458.955	4384
459.016	3506
459.024	3482
459.093	4191
459.097	4214
459.162	4223
459.177	4272
459.230	4371
459.257	4591
459.299	5066
459.338	5370
459.368	5473
459.418	5806
459.437	5483
459.499	4194
459.505	4167
459.574	3861
459.579	3890
459.643	4130
459.659	4081
459.711	4121
459.740	4452
459.780	4826
459.820	5010
459.849	5138
459.900	5735
459.917	5961
459.981	6205
459.986	6152
460.054	6211
460.061	6214
460.123	6439
460.141	6444
460.191	7314
460.222	7939
460.260	8274
460.302	8998
460.328	9091
460.382	8584
460.397	8595
460.462	8947
460.465	9153
460.534	14328
460.543	15106
460.602	46960
460.623	58645
460.671	92610
460.703	123824
460.739	120846
460.783	109505
460.808	89694
460.864	19446
460.876	14873
460.944	7022
460.945	6948
461.013	6072
461.024	5980
461.081	5623
461.104	5558
461.150	5434
461.184	5224
461.218	5103
461.264	5250
461.286	5434
461.345	5506
461.355	5412
461.423	5494
461.425	5479
461.491	5207
461.505	5387
461.559	8483
461.585	9454
461.628	13052
461.665	16805
461.696	19063
461.745	23617
461.764	20675
461.825	8525
461.832	8296
461.901	5944
461.905	5906
461.969	5886
461.985	5749
462.037	5971
462.065	6241
462.105	6135
462.145	5938
462.173	7617
462.225	10648
462.241	11610
462.305	16380
462.310	16048
462.378	10422
462.385	9678
462.446	6669
462.465	5730
462.514	6109
462.545	6613
462.582	6636
462.625	6589
462.650	6588
462.705	6419
462.718	6350
462.785	6441
462.786	6478
462.854	8260
462.865	8518
462.922	9852
462.945	10577
462.990	8465
463.025	6638
463.058	6405
463.104	5737
463.126	5871
463.184	6589
463.194	6587
463.262	6405
463.264	6399
463.330	6776
463.344	6785
463.398	6760
463.424	6872
463.466	7120
463.504	7198
463.533	7205
463.583	7463
463.601	7598
463.663	7556
463.669	7636
463.737	8987
463.743	9054
463.805	11781
463.823	12767
463.873	18790
463.903	22311
463.940	23803
463.982	25669
464.008	21401
464.062	11414
464.076	10758
464.142	7714
464.144	7728
464.211	7983
464.221	8048
464.279	7772
464.301	7631
464.347	7815
464.381	8095
464.414	8940
464.461	9790
464.482	10284
464.540	11803
464.550	11558
464.617	9540
464.620	9457
464.685	9740
464.699	9807
464.753	12539
464.779	13885
464.820	15053
464.859	15977
464.888	15320
464.938	14226
464.956	14381
465.018	14866
465.023	14778
465.091	13221
465.098	13029
465.158	13217
465.177	13324
465.226	13335
465.257	13199
465.293	13539
465.336	13934
465.361	14420
465.416	15385
465.428	15761
465.495	17853
465.496	17939
465.563	26325
465.575	27797
465.631	34383
465.654	37145
465.698	26475
465.734	17289
465.765	15765
465.813	13333
465.833	13500
465.893	14330
465.900	14374
465.968	14362
465.972	14338
466.035	13194
466.052	12849
466.102	13898
466.131	14463
466.170	14562
466.210	14583
466.237	15276
466.290	16669
466.304	16556
466.369	15768
466.372	15875
466.439	18123
466.449	18417
466.506	18551
466.528	18533
466.573	22036
466.607	24601
466.641	30706
466.687	39144
466.708	43133
466.766	53969
466.775	51088
466.842	28547
466.845	27416
466.909	22562
466.925	21388
466.977	21646
467.004	21724
467.044	22143
467.083	22483
467.111	23672
467.163	25756
467.178	26412
467.242	28869
467.245	28777
467.312	25592
467.321	25115
467.379	24220
467.400	23817
467.446	24927
467.480	25637
467.559	24148
467.638	21359
467.717	21496
467.796	21844
467.875	22125
467.955	22017
468.034	25842
468.113	45622
468.192	63929
468.271	27796
468.350	20646
468.429	21563
468.508	22088
468.588	20122
468.667	19086
468.746	18907
468.825	17608
468.904	16304
468.983	16910
469.062	22274
469.141	26464
469.220	18116
469.299	15499
469.378	17558
469.456	20381
469.535	19371
469.614	18826
469.693	18924
469.772	20102
469.851	24662
469.930	21034
470.009	16473
470.088	17012
470.166	17781
470.245	19530
470.324	21051
470.403	19383
470.482	18922
470.560	16406
470.639	15601
470.718	17793
470.797	16217
470.875	16536
470.954	19323
471.033	22399
471.111	15273
471.190	14689
471.269	13675
471.347	14096
471.426	14774
471.505	15955
471.583	18753
471.662	17722
471.740	15448
471.819	15792
471.898	14630
471.976	14857
472.055	15128
472.133	17526
472.212	20659
472.290	20091
472.369	16077
472.447	14415
472.526	13968
472.604	14411
472.683	14773
472.761	15302
472.839	14140
472.918	14260
472.996	14457
473.075	15759
473.153	15216
473.231	14044
473.310	14890
473.388	14860
473.466	14708
473.545	15337
473.623	18633
473.701	18115
473.780	14763
473.858	12844
473.936	15649
474.014	13695
474.093	15838
474.171	19250
474.249	23682
474.327	18542
474.405	14003
474.484	13980
474.562	14114
474.640	13319
474.718	15854
474.796	15475
474.874	15927
474.952	14375
475.030	15190
475.108	16342
475.187	17435
475.265	17967
475.343	21042
475.421	23117
475.499	17025
475.577	15745
475.655	17837
475.733	24534
475.811	38335
475.889	35951
475.966	29436
476.044	14600
476.122	15058
476.200	16652
476.278	15345
476.356	12646
476.434	13429
476.512	14457
476.590	16183
476.667	17447
476.745	12180
476.823	13379
476.901	13507
476.979	13583
477.056	12783
477.134	13290
477.212	13085
477.290	13399
477.367	12505
477.445	11839
477.523	11785
477.601	11522
477.678	12783
477.756	13595
477.834	14744
477.911	12330
477.989	12840
478.066	12088
478.144	12564
478.222	13272
478.299	17402
478.377	20084
478.454	14412
478.532	12332
478.609	12055
478.687	12987
478.764	11411
478.842	12655
478.919	13369
478.997	12254
479.074	11978
479.152	12060
479.229	14421
479.307	12903
479.384	10623
479.461	11192
479.539	11099
479.616	12261
479.694	12992
479.771	11772
479.848	12971
479.926	14332
480.003	15671
480.080	11398
480.157	11177
480.235	9854
480.312	11152
480.389	11447
480.467	15880
480.544	18978
480.621	13627
480.698	12455
480.775	13256
480.853	14373
480.930	12384
481.007	13089
481.084	16396
481.161	22737
481.238	19067
481.315	11958
481.392	11073
481.470	11461
481.547	12001
481.624	10714
481.701	11644
481.778	11433
481.855	11972
481.932	15791
482.009	22075
482.086	19956
482.163	12685
482.240	13812
482.317	19493
482.393	19441
482.470	13075
482.547	10966
482.624	12452
482.701	11807
482.778	12478
482.855	10729
482.932	11609
483.009	11712
483.085	13525
483.162	17170
483.239	17906
483.316	12711
483.393	12826
483.469	11698
483.546	11429
483.623	12891
483.699	11407
483.776	11330
483.853	12727
483.930	15725
484.006	31548
484.083	54896
484.160	40756
484.236	58903
484.313	50288
484.389	37182
484.466	33303
484.543	30369
484.619	31677
484.696	31694
484.772	32425
484.849	31999
484.925	30009
485.002	30052
485.078	30577
485.155	30964
485.231	28609
485.308	27289
485.384	28148
485.461	30975
485.537	39809
485.614	47044
485.690	29515
485.766	26581
485.843	27398
485.919	30171
485.995	33621
486.072	25236
486.148	24687
486.224	25009
486.301	24362
486.377	27589
486.453	28195
486.530	28030
486.606	35544
486.682	40595
486.758	40819
486.835	45739
486.911	38524
486.987	50206
487.063	52591
487.139	59712
487.215	54527
487.292	38016
487.368	30981
487.444	33144
487.520	39677
487.596	45452
487.672	54617
487.748	103278
487.824	176447
487.900	116128
487.976	49909
488.052	37472
488.128	37609
488.204	32396
488.280	26574
488.356	29006
488.432	43192
488.508	62791
488.584	33728
488.660	24527
488.736	24725
488.812	24942
488.888	28486
488.964	32729
489.039	48784
489.115	76067
489.191	59084
489.267	28171
489.343	23122
489.418	21999
489.494	22318
489.570	20689
489.646	21938
489.722	21427
489.797	21806
489.873	25299
489.949	46047
490.024	46115
490.100	22059
490.176	20091
490.251	22019
490.327	25953
490.403	22467
490.478	20074
490.554	18392
490.629	18794
490.705	17811
490.781	20527
490.856	19462
490.932	20763
491.007	20400
491.083	20881
491.158	18656
491.234	21821
491.309	35128
491.385	40573
491.460	21190
491.536	19757
491.611	19897
491.686	18885
491.762	23319
491.837	32544
491.913	54451
491.988	65982
492.063	91165
492.139	39219
492.214	25092
492.289	18073
492.365	16038
492.440	19429
492.515	18095
492.590	18506
492.666	15054
492.741	17477
492.816	24896
492.891	18815
492.967	17440
493.042	15519
493.117	17830
493.192	18211
493.267	25385
493.342	68939
493.418	111417
493.493	32159
493.568	15597
493.643	14933
493.718	17164
493.793	20142
493.868	23991
493.943	18200
494.018	16874
494.093	15075
494.168	14861
494.243	14330
494.318	14332
494.393	13834
494.468	14691
494.543	13801
494.618	15242
494.693	15389
494.768	14014
494.842	15141
494.917	14225
494.992	15027
495.067	14829
495.142	13902
495.217	15549
495.292	14972
495.366	17546
495.441	19711
495.516	22507
495.591	26376
495.665	55847
495.740	135980
495.815	89182
495.890	25126
495.964	19216
496.039	22223
496.114	22662
496.188	29061
496.263	29035
496.338	20658
496.412	21676
496.487	24173
496.561	23829
496.636	25767
496.710	24189
496.785	24853
496.860	28221
496.934	24497
497.009	25631
497.083	25876
497.158	28058
497.232	30846
497.307	33755
497.381	32215
497.455	35443
497.530	41135
497.604	38655
497.679	38707
497.753	48845
497.827	60951
497.902	63235
497.976	67920
498.050	96094
498.125	267582
498.199	346932
498.273	92965
498.348	71507
498.422	65476
498.496	61061
498.570	57634
498.645	50337
498.719	47713
498.793	48572
498.867	52171
498.941	60374
499.016	109101
499.090	295390
499.164	158848
499.238	34531
499.312	28406
499.386	29787
499.460	29756
499.534	26537
499.609	28919
499.683	35632
499.757	33815
499.831	48877
499.905	174857
499.979	215706
500.053	42228
500.127	35797
500.201	28077
500.275	22178
500.349	21896
500.422	23513
500.496	27258
500.570	43324
500.644	98643
500.718	204206
500.792	71722
500.866	19833
500.940	23552
501.013	20938
501.087	20369
501.161	27982
501.235	35592
501.309	56693
501.382	156634
501.456	178709
501.530	41511
501.603	58816
501.677	34403
501.751	16419
501.825	17843
501.898	25077
501.972	65809
502.046	57641
502.119	19636
502.193	30749
502.266	73952
502.340	48763
502.413	33114
502.487	65059
502.561	42602
502.634	18899
502.708	14336
502.781	14349
502.855	13472
502.928	12735
503.002	11416
503.075	11796
503.149	12796
503.222	13159
503.295	13950
503.369	16887
503.442	18863
503.516	43771
503.589	119364
503.662	97277
503.736	34237
503.809	55995
503.882	59815
503.956	72768
504.029	86013
504.102	62006
504.175	87633
504.249	56554
504.322	30375
504.395	22612
504.468	16661
504.542	14740
504.615	12229
504.688	13145
504.761	10509
504.834	12880
504.907	13542
504.980	19622
505.053	13746
505.127	14476
505.200	18831
505.273	15471
505.346	12342
505.419	10692
505.492	10428
505.565	10164
505.638	9238
505.711	9642
505.784	9689
505.857	10136
505.930	10737
506.003	8616
506.076	11507
506.149	12348
506.221	15021
506.294	15105
506.367	25037
506.440	86050
506.513	64981
506.586	17068
506.659	11590
506.731	10283
506.804	10543
506.877	13934
506.950	12426
507.022	10240
507.095	10617
507.168	13671
507.241	10126
507.313	9367
507.386	9185
507.459	11739
507.531	10375
507.604	9162
507.677	9957
507.749	9142
507.822	11227
507.894	18865
507.967	28137
508.040	18370
508.112	16632
508.185	14190
508.257	13476
508.330	17809
508.402	15217
508.475	13999
508.547	14323
508.620	14478
508.692	17655
508.765	14992
508.837	12046
508.909	12097
508.982	12914
509.054	13024
509.127	12032
509.199	11606
509.271	11620
509.344	11540
509.416	12321
509.488	12147
509.560	11699
509.633	11588
509.705	13805
509.777	13998
509.849	16880
509.922	15754
509.994	15121
510.066	14324
510.138	15096
510.210	25506
510.283	25742
510.355	19826
510.427	18682
510.499	16495
510.571	16226
510.643	16169
510.715	20567
510.787	19205
510.859	15334
510.931	17083
511.003	19825
511.076	21814
511.148	15603
511.219	16144
511.291	19368
511.363	24352
511.435	15970
511.507	14098
511.579	14363
511.651	14949
511.723	13060
511.795	14300
511.867	13292
511.939	15327
512.010	22330
512.082	21574
512.154	14368
512.226	14342
512.298	17766
512.369	27576
512.441	22529
512.513	20439
512.585	16978
512.656	16659
512.728	18254
512.800	16076
512.871	14798
512.943	15970
513.015	14610
513.086	14491
513.158	16013
513.230	15748
513.301	16872
513.373	18898
513.444	15253
513.516	14446
513.588	14822
513.659	14445
513.731	15011
513.802	15283
513.874	21532
513.945	34709
514.016	20815
514.088	14540
514.159	14294
514.231	17927
514.302	24329
514.374	21761
514.445	18225
514.516	26193
514.588	24092
514.659	18140
514.730	26057
514.802	25731
514.873	22497
514.944	29306
515.016	25811
515.087	23369
515.158	24710
515.229	33305
515.301	27851
515.372	40236
515.443	34075
515.514	27405
515.585	20992
515.656	20157
515.728	18261
515.799	15783
515.870	16381
515.941	15740
516.012	15874
516.083	18949
516.154	19881
516.225	21306
516.296	21808
516.367	20656
516.438	21461
516.509	25466
516.580	31994
516.651	67339
516.722	238100
516.793	180789
516.864	40614
516.935	35189
517.006	35864
517.077	45373
517.148	78950
517.219	232555
517.289	510584
517.360	193526
517.431	69598
517.502	24284
517.573	21975
517.643	21877
517.714	22733
517.785	23823
517.856	23615
517.926	28132
517.997	31101
518.068	36527
518.138	45346
518.209	59637
518.280	158994
518.350	633301
518.421	440451
518.492	67886
518.562	37653
518.633	35736
518.703	38515
518.774	56756
518.845	102483
518.915	119319
518.986	59441
519.056	37307
519.127	38759
519.197	49672
519.268	100337
519.338	89147
519.408	26368
519.479	26800
519.549	23774
519.620	18395
519.690	15210
519.760	15991
519.831	15649
519.901	16049
519.971	15050
520.042	15449
520.112	15735
520.182	18448
520.253	20565
520.323	16736
520.393	20587
520.463	33525
520.534	21343
520.604	43313
520.674	26624
520.744	20976
520.814	40272
520.885	47895
520.955	34658
521.025	113768
521.095	67691
521.165	17658
521.235	15338
521.305	14812
521.375	13896
521.445	14934
521.515	16631
521.585	18021
521.655	18340
521.725	16565
521.795	15914
521.865	11242
521.935	17873
522.005	17309
522.075	12167
522.145	13909
522.215	15619
522.285	19410
522.355	20819
522.424	33016
522.494	34116
522.564	21879
522.634	25352
522.704	73719
522.774	46046
522.843	16290
522.913	14306
522.983	16633
523.053	14909
523.122	14140
523.192	15882
523.262	33887
523.331	46185
523.401	18317
523.471	11870
523.540	13782
523.610	11477
523.680	11541
523.749	13388
523.819	14896
523.888	16006
523.958	11826
524.027	12774
524.097	13675
524.166	12040
524.236	11188
524.305	13895
524.375	11493
524.444	11487
524.514	13968
524.583	12253
524.653	13497
524.722	15389
524.791	12165
524.861	13561
524.930	11962
524.999	12199
525.069	15136
525.138	14166
525.207	15778
525.277	13914
525.346	12982
525.415	13517
525.484	13427
525.554	14428
525.623	17274
525.692	18228
525.761	19557
525.830	19912
525.900	24092
525.969	31751
526.038	48560
526.107	79106
526.176	237833
526.245	271351
526.314	99563
526.383	120792
526.452	209190
526.522	257982
526.591	377298
526.660	108008
526.729	54700
526.797	50680
526.867	76921
526.935	260631
527.004	577972
527.073	516108
527.142	81402
527.211	30109
527.280	22042
527.349	19530
527.418	14599
527.487	14476
527.555	12027
527.624	11380
527.693	11405
527.762	12395
527.831	11148
527.899	11753
527.968	12082
528.037	11231
528.106	12643
528.174	16300
528.243	16527
528.312	17034
528.380	24526
528.449	13389
528.518	12207
528.586	9211
528.655	11526
528.723	10763
528.792	10643
528.861	10954
528.929	10453
528.998	11994
529.066	13902
529.135	19491
529.203	20620
529.272	22038
529.340	30895
529.409	28826
529.477	26200
529.545	26529
529.614	29323
529.682	32002
529.751	38497
529.819	39157
529.887	42079
529.956	36614
530.024	36318
530.092	32903
530.161	33348
530.229	34934
530.297	38755
530.365	37060
530.434	36541
530.502	39121
530.570	35531
530.638	30594
530.707	30371
530.775	29924
530.843	28461
530.911	31860
530.979	32533
531.047	34302
531.115	38390
531.183	33014
531.252	31217
531.320	29908
531.388	30288
531.456	32931
531.524	35196
531.592	36224
531.660	40993
531.728	39012
531.796	35845
531.864	34806
531.932	35832
532.000	35400
532.067	38338
532.135	40955
532.203	42917
532.271	46263
532.339	48898
532.407	61577
532.475	58872
532.542	45297
532.610	45639
532.678	47581
532.746	80394
532.814	190050
532.881	94241
532.949	46452
533.017	41581
533.084	39494
533.152	37433
533.220	37284
533.287	38618
533.355	40137
533.423	38375
533.490	39993
533.558	38969
533.625	37353
533.693	36638
533.761	36931
533.828	37252
533.896	36334
533.963	45478
534.031	50931
534.098	57169
534.166	45849
534.233	39784
534.300	37825
534.368	37801
534.435	35740
534.503	37374
534.570	37911
534.637	38996
534.705	40313
534.772	41585
534.840	47976
534.907	113352
534.974	207887
535.041	60251
535.109	34508
535.176	30962
535.243	30646
535.310	29368
535.378	30210
535.445	27996
535.512	27011
535.579	26728
535.646	24733
535.714	27190
535.781	28500
535.848	29125
535.915	30660
535.982	33524
536.049	32848
536.116	31099
536.183	27527
536.250	26441
536.317	26212
536.384	25780
536.451	27644
536.518	29294
536.585	26644
536.652	29042
536.719	30037
536.786	27863
536.853	25574
536.920	28513
536.987	31981
537.053	32517
537.120	76903
537.187	98336
537.254	27470
537.321	23363
537.388	23340
537.454	20509
537.521	19939
537.588	19136
537.654	20969
537.721	23748
537.788	22511
537.855	20280
537.921	20813
537.988	20983
538.055	20644
538.121	19171
538.188	19647
538.254	21914
538.321	26440
538.388	25497
538.454	19990
538.521	19130
538.587	18390
538.654	18886
538.720	18051
538.787	17583
538.853	18642
538.920	18286
538.986	18938
539.053	18245
539.119	17478
539.185	18718
539.252	19077
539.318	22296
539.385	23469
539.451	20999
539.517	22086
539.583	21563
539.650	28666
539.716	68373
539.782	34925
539.849	18491
539.915	18050
539.981	17647
540.047	18585
540.114	19085
540.180	18385
540.246	18774
540.312	20716
540.378	26340
540.444	27825
540.510	29186
540.576	72502
540.643	40601
540.709	16676
540.775	17493
540.841	16541
540.907	19719
540.973	25942
541.039	23501
541.105	22125
541.171	18768
541.237	16582
541.303	17648
541.369	19545
541.435	20455
541.500	24594
541.566	20120
541.632	16448
541.698	15958
541.764	15841
541.830	16320
541.896	14535
541.961	16623
542.027	16792
542.093	17077
542.159	17156
542.224	18220
542.290	21574
542.356	24500
542.421	26253
542.487	20621
542.553	17968
542.618	17279
542.684	17461
542.750	16848
542.815	19309
542.881	22596
542.947	56400
543.012	63000
543.078	18423
543.143	15821
543.209	16349
543.274	16535
543.340	17899
543.405	27251
543.471	47100
543.536	21491
543.602	16153
543.667	14581
543.732	17391
543.798	15645
543.863	15829
543.928	15108
543.994	14476
544.059	15383
544.124	16456
544.190	15917
544.255	17476
544.320	17182
544.386	15970
544.451	19364
544.516	20661
544.581	20492
544.646	37659
544.712	72429
544.777	27028
544.842	19871
544.907	19033
544.972	18831
545.037	18258
545.102	20606
545.168	19454
545.233	20975
545.298	20076
545.363	21622
545.428	23567
545.493	28403
545.558	52214
545.623	36492
545.688	19601
545.753	20469
545.818	20035
545.883	20921
545.947	20965
546.012	21215
546.077	21541
546.142	22555
546.207	21244
546.272	23955
546.337	24550
546.401	23912
546.466	23597
546.531	23262
546.596	25011
546.661	24878
546.725	25920
546.790	24869
546.855	25558
546.919	27088
546.984	29932
547.049	30744
547.113	34388
547.178	35258
547.243	39821
547.307	44341
547.372	47444
547.436	50041
547.501	49520
547.565	51571
547.630	50667
547.695	49785
547.759	48691
547.823	49451
547.888	47862
547.952	49787
548.017	50419
548.081	59368
548.146	58966
548.210	56105
548.274	55360
548.339	55973
548.403	52333
548.468	47831
548.532	46206
548.596	49963
548.660	48661
548.725	51508
548.789	56652
548.853	58187
548.917	54547
548.982	55842
549.046	53532
549.110	45202
549.174	44948
549.238	50439
549.303	53449
549.367	56947
549.431	54800
549.495	52527
549.559	50631
549.623	56793
549.687	64088
549.751	68240
549.815	72992
549.879	74610
549.943	69451
550.007	73181
550.071	74728
550.135	72663
550.199	65691
550.263	65491
550.327	62865
550.391	67053
550.455	70923
550.519	71792
550.582	74378
550.646	84010
550.710	91717
550.774	85310
550.838	84643
550.901	86799
550.965	92524
551.029	96234
551.093	102019
551.156	112216
551.220	126113
551.284	136399
551.347	109127
551.411	111198
551.475	118716
551.538	94425
551.602	87260
551.666	80876
551.729	77486
551.793	75811
551.856	75170
551.920	76126
551.983	74809
552.047	74492
552.110	74217
552.174	75543
552.237	76811
552.301	73207
552.364	70428
552.428	69134
552.491	68916
552.554	70785
552.618	70169
552.681	73325
552.745	71429
552.808	75808
552.871	84175
552.934	79477
552.998	75128
553.061	72979
553.124	71563
553.187	70202
553.251	74934
553.314	77931
553.377	76790
553.440	88593
553.503	144941
553.567	254539
553.630	114323
553.693	79831
553.756	76589
553.819	75566
553.882	71811
553.945	72762
554.008	72565
554.071	72088
554.134	73760
554.197	70816
554.260	69518
554.323	70867
554.386	72028
554.449	72813
554.512	73778
554.575	70885
554.638	68765
554.701	69759
554.764	68962
554.827	67934
554.889	66178
554.952	62616
555.015	59982
555.078	61043
555.141	62006
555.203	61460
555.266	60360
555.329	61172
555.391	59461
555.454	57928
555.517	56418
555.580	54940
555.642	53944
555.705	51938
555.768	53796
555.830	52938
555.893	49045
555.955	48480
556.018	47466
556.080	47154
556.143	48617
556.206	48802
556.268	47599
556.330	46621
556.393	46648
556.455	45026
556.518	47432
556.580	47457
556.643	42439
556.705	41419
556.767	40001
556.830	39729
556.892	40324
556.955	43068
557.017	41098
557.079	39161
557.142	38666
557.204	38975
557.266	44579
557.328	44315
557.391	34802
557.453	33428
557.515	33013
557.577	34601
557.639	36971
557.701	34333
557.764	32596
557.826	35820
557.888	35809
557.950	38410
558.012	39613
558.074	46792
558.136	75032
558.198	204111
558.260	128185
558.322	45496
558.384	43385
558.446	46126
558.508	51266
558.570	59650
558.632	72636
558.694	96464
558.756	121217
558.818	283342
558.880	836186
558.942	472646
559.003	233473
559.065	171617
559.127	65171
559.189	59046
559.251	60162
559.312	76239
559.374	144935
559.436	511040
559.498	437430
559.559	87657
559.621	60809
559.683	59345
559.744	81770
559.806	212972
559.868	462842
559.929	153176
559.991	60576
560.052	69973
560.114	177159
560.176	178151
560.237	100644
560.299	206018
560.360	82109
560.422	31942
560.483	27073
560.545	25720
560.606	22843
560.667	22713
560.729	22407
560.790	22595
560.852	21905
560.913	21635
560.974	21047
561.036	22140
561.097	21603
561.158	20924
561.220	22675
561.281	20621
561.342	20560
561.403	23320
561.465	23711
561.526	32046
561.587	47367
561.648	26306
561.709	20616
561.771	20903
561.832	19879
561.893	19226
561.954	20557
562.015	20589
562.076	19709
562.137	20247
562.198	18686
562.259	20093
562.320	20190
562.381	20458
562.442	22972
562.503	23282
562.564	20135
562.625	20087
562.686	19766
562.747	19912
562.808	20332
562.869	19393
562.930	21783
562.991	21372
563.051	20600
563.112	20353
563.173	18901
563.234	19733
563.294	18932
563.355	19207
563.416	19491
563.477	19807
563.537	19827
563.598	20335
563.659	19265
563.720	19333
563.780	20123
563.841	19841
563.901	20547
563.962	18944
564.023	19192
564.083	19328
564.144	19475
564.204	19400
564.265	20427
564.325	21147
564.386	26331
564.446	28741
564.507	19361
564.567	18758
564.628	20369
564.688	20053
564.749	20080
564.809	20106
564.869	21758
564.930	21265
564.990	20816
565.050	19635
565.111	20556
565.171	20813
565.231	20044
565.292	21916
565.352	19095
565.412	21626
565.472	21077
565.532	21835
565.593	21441
565.653	21025
565.713	21529
565.773	22943
565.833	22804
565.893	27842
565.953	25238
566.013	24095
566.074	23502
566.134	26284
566.194	30899
566.254	34418
566.314	30036
566.374	27310
566.434	28155
566.494	29484
566.554	28379
566.614	30873
566.673	31926
566.733	33537
566.793	34955
566.853	35821
566.913	36731
566.973	37961
567.033	37764
567.092	37839
567.152	37107
567.212	37706
567.272	37711
567.331	39842
567.391	41074
567.451	42601
567.511	45934
567.570	45393
567.630	40816
567.690	39466
567.749	40453
567.809	42067
567.868	45665
567.928	50305
567.988	56714
568.047	66395
568.107	77010
568.166	96436
568.226	132424
568.285	180511
568.345	183943
568.404	167749
568.464	152226
568.523	145529
568.582	142492
568.642	149424
568.701	170436
568.761	210385
568.820	288114
568.879	325212
568.939	288437
568.998	238325
569.057	198730
569.116	166658
569.176	139705
569.235	119263
569.294	103845
569.353	91055
569.413	79311
569.472	72367
569.531	64463
569.590	57276
569.649	54297
569.708	50054
569.767	46559
569.827	45019
569.886	43023
569.945	36841
570.004	35095
570.063	34622
570.122	32554
570.181	32601
570.240	31684
570.299	31312
570.358	31252
570.417	28002
570.475	26420
570.534	27822
570.593	26017
570.652	26009
570.711	26426
570.770	24207
570.829	24560
570.887	24740
570.946	22536
571.005	22824
571.064	21393
571.122	21929
571.181	22815
571.240	21277
571.299	20312
571.357	20442
571.416	20487
571.475	20555
571.533	21756
571.592	20651
571.650	20639
571.709	19539
571.768	19736
571.826	21103
571.885	19401
571.943	20232
572.002	18838
572.060	19829
572.119	18113
572.177	17805
572.236	18165
572.294	17539
572.352	18643
572.411	18620
572.469	17237
572.528	18087
572.586	17357
572.644	18756
572.703	21182
572.761	18774
572.819	18326
572.877	17917
572.936	17228
572.994	15810
573.052	17223
573.110	17185
573.169	16860
573.227	16265
573.285	16485
573.343	17155
573.401	15519
573.459	16488
573.517	16654
573.576	16793
573.634	15460
573.692	15852
573.750	16104
573.808	16587
573.866	15765
573.924	17662
573.982	17975
574.040	16312
574.098	16082
574.155	16888
574.213	15356
574.271	15235
574.329	15688
574.387	15416
574.445	15404
574.503	15407
574.560	13670
574.618	15494
574.676	14896
574.734	15282
574.792	15765
574.849	15785
574.907	15130
574.965	14381
575.022	15045
575.080	14144
575.138	14639
575.195	14997
575.253	15034
575.311	15410
575.368	14664
575.426	13476
575.483	14742
575.541	14344
575.598	13332
575.656	14627
575.713	14505
575.771	14510
575.828	14444
575.886	14385
575.943	14319
576.001	15621
576.058	14471
576.115	14624
576.173	15040
576.230	16525
576.287	17142
576.345	17239
576.402	14580
576.459	15473
576.517	16408
576.574	16068
576.631	16047
576.688	15151
576.746	14768
576.803	15765
576.860	14684
576.917	15586
576.974	14647
577.031	14751
577.089	15413
577.146	15359
577.203	15155
577.260	15576
577.317	14904
577.374	15922
577.431	15635
577.488	15675
577.545	15176
577.602	15430
577.659	15087
577.716	15742
577.773	17913
577.830	17995
577.886	16274
577.943	16934
578.000	16786
578.057	16783
578.114	18175
578.171	20031
578.227	24622
578.284	26822
578.341	23877
578.398	21055
578.454	20366
578.511	19418
578.568	18765
578.625	18432
578.681	16767
578.738	16072
578.794	17802
578.851	16790
578.908	17034
578.964	17355
579.021	17429
579.077	17427
579.134	17550
579.190	16856
579.247	17291
579.303	16906
579.360	16973
579.416	16364
579.473	16619
579.529	16648
579.586	17214
579.642	18124
579.698	17164
579.755	19468
579.811	19634
579.867	19475
579.924	20197
579.980	21434
580.036	22354
580.093	26268
580.149	32630
580.205	40342
580.261	34437
580.317	30096
580.374	27349
580.430	25544
580.486	24074
580.542	22431
580.598	22171
580.619	21819
580.654	21237
580.692	20606
580.710	20336
580.765	20888
580.767	20932
580.823	20314
580.838	20626
580.879	21556
580.911	20910
580.935	20476
580.984	20255
580.991	20253
581.047	20845
581.057	20960
581.103	21621
581.130	21631
581.159	21677
581.203	23763
581.215	24335
581.270	24008
581.276	23864
581.326	22789
581.349	22788
581.382	22824
581.422	22057
581.438	21771
581.494	22293
581.494	22275
581.550	22542
581.567	22333
581.606	21902
581.640	22063
581.661	22181
581.713	21663
581.717	21646
581.773	21718
581.786	21742
581.829	21814
581.859	22080
581.885	22386
581.932	22646
581.940	22710
581.996	22343
582.004	22257
582.052	21803
582.077	22313
582.107	22955
582.150	22672
582.163	22593
582.219	23015
582.223	22972
582.274	22787
582.296	22880
582.330	23017
582.368	23737
582.386	24074
582.441	24326
582.441	24336
582.497	24030
582.514	24143
582.552	24564
582.587	24879
582.608	25031
582.659	25874
582.663	25951
582.719	26071
582.732	26177
582.774	26557
582.805	26611
582.830	26696
582.877	27888
582.885	28083
582.941	27907
582.950	28360
582.996	30924
583.023	32075
583.052	33280
583.095	34511
583.107	34842
583.162	34981
583.168	35216
583.218	37204
583.240	35906
583.273	34004
583.313	33090
583.328	32745
583.384	31003
583.385	30957
583.439	29658
583.458	29212
583.494	28231
583.531	28100
583.549	28116
583.603	28007
583.605	27999
583.660	27388
583.676	27354
583.715	27201
583.748	27335
583.770	27521
583.820	27603
583.825	27596
583.881	28124
583.893	27897
583.936	27129
583.965	27502
583.991	27799
584.038	27745
584.046	27714
584.101	28132
584.110	28157
584.156	28381
584.183	28820
584.211	29182
584.255	28366
584.266	28112
584.321	28688
584.328	28706
584.376	29327
584.400	29589
584.431	29660
584.472	29746
584.486	29784
584.541	31355
584.545	31371
584.596	31222
584.617	31245
584.651	31475
584.689	31605
584.706	31522
584.761	32179
584.762	32196
584.816	32558
584.834	32817
584.871	33189
584.906	33679
584.926	33905
584.978	34053
584.980	34043
585.035	34885
585.051	35161
585.090	36298
585.123	37181
585.145	37430
585.195	38051
585.200	38155
585.254	40667
585.267	41466
585.309	44105
585.340	45713
585.364	46922
585.412	48661
585.419	48840
585.473	51856
585.484	52684
585.528	57712
585.556	62872
585.583	72222
585.628	96282
585.637	106168
585.692	186932
585.700	205262
585.747	301181
585.772	301257
585.801	241520
585.845	123925
585.856	104314
585.910	64339
585.917	60959
585.965	54161
585.989	51864
586.019	50300
586.061	49237
586.074	48946
586.128	48238
586.133	48204
586.183	47901
586.205	48240
586.237	48509
586.277	48305
586.292	48386
586.346	49558
586.349	49672
586.401	50067
586.421	49892
586.455	49637
586.493	50589
586.509	51467
586.564	54688
586.565	54869
586.618	61499
586.637	62909
586.672	62324
586.709	59005
586.727	57861
586.781	59337
586.781	59281
586.835	59664
586.853	59887
586.889	60270
586.925	60783
586.944	61015
586.996	62526
586.998	62523
587.052	66197
587.068	66887
587.106	67883
587.140	69303
587.161	69965
587.212	72313
587.215	72363
587.269	75918
587.284	76852
587.323	79522
587.356	81952
587.377	83151
587.427	88031
587.431	88294
587.485	92621
587.499	93884
587.539	97269
587.571	100448
587.593	102608
587.643	108613
587.648	109159
587.702	117024
587.715	119386
587.755	125504
587.786	130767
587.810	135083
587.858	144045
587.864	144942
587.917	157631
587.930	161206
587.971	173611
588.001	182903
588.025	190480
588.073	208035
588.079	210140
588.133	233030
588.145	238767
588.187	259934
588.217	277229
588.241	292954
588.288	326290
588.295	330815
588.348	376514
588.360	387336
588.402	432396
588.431	467204
588.456	499058
588.503	567338
588.510	578451
588.564	680423
588.575	703780
588.617	810000
588.646	887096
588.671	971758
588.718	1140262
588.725	1172111
588.778	1427424
588.789	1475186
588.832	1696476
588.861	1830088
588.886	1885290
588.932	1940509
588.939	1927696
588.993	1790654
589.004	1788714
589.047	1896659
589.075	1953526
589.100	1880310
589.147	1677446
589.154	1645238
589.207	1365425
589.218	1309096
589.261	1212282
589.290	1158251
589.314	1161889
589.361	1186751
589.368	1207116
589.421	1402079
589.433	1443924
589.475	1674876
589.504	1814786
589.528	1848992
589.576	1863924
589.582	1855056
589.635	1842124
589.647	1835188
589.689	1623145
589.718	1427718
589.742	1261843
589.790	920230
589.795	895598
589.849	684080
589.861	638298
589.902	543158
589.932	479213
589.955	442889
590.004	366399
590.009	359744
590.062	308579
590.075	297299
590.115	266651
590.146	245578
590.168	233589
590.218	210322
590.222	208082
590.275	186932
590.289	182188
590.328	170564
590.360	162318
590.381	156213
590.431	142720
590.435	141619
590.488	130571
590.503	127921
590.541	122043
590.574	117439
590.594	113779
590.645	105794
590.647	105285
590.700	99443
590.716	97986
590.753	94074
590.787	90666
590.806	88897
590.859	85671
590.859	85389
590.912	80666
590.930	79365
590.965	76655
591.001	74437
591.018	73754
591.071	72281
591.072	72431
591.124	68979
591.143	67899
591.177	65878
591.214	64132
591.230	63503
591.283	61959
591.285	62044
591.336	59884
591.356	59132
591.389	58198
591.427	57532
591.442	56682
591.495	53950
591.498	53870
591.547	51535
591.569	50772
591.600	50225
591.640	49623
591.653	49354
591.706	48869
591.711	48934
591.759	47854
591.782	47447
591.811	47501
591.853	47878
591.864	47272
591.917	44628
591.924	44349
591.969	42974
591.995	42404
592.022	42200
592.066	42109
592.075	41925
592.127	41433
592.137	41452
592.180	42263
592.208	42917
592.233	41967
592.279	40428
592.285	40189
592.338	38998
592.350	38816
592.390	38195
592.421	37916
592.443	37629
592.491	37263
592.495	37154
592.548	36841
592.562	36842
592.600	36244
592.633	35878
592.653	35391
592.704	34160
592.705	34361
592.775	34841
592.846	34735
592.916	34836
592.987	33892
593.058	34251
593.128	33214
593.199	32936
593.270	31971
593.341	31289
593.411	31829
593.482	32337
593.553	31228
593.623	31178
593.694	31747
593.764	31390
593.835	32553
593.906	31230
593.976	31003
594.047	31349
594.117	33315
594.188	33942
594.258	31820
594.329	31145
594.399	31012
594.470	30618
594.540	30769
594.611	31762
594.681	31078
594.751	30940
594.822	32400
594.892	33917
594.963	33475
595.033	33984
595.103	33131
595.174	33585
595.244	36732
595.314	41236
595.384	34093
595.455	33725
595.525	35381
595.595	35658
595.665	36917
595.736	34323
595.806	35013
595.876	35076
595.946	35264
596.016	35920
596.087	35948
596.157	36440
596.227	36500
596.297	37947
596.367	38386
596.437	41639
596.507	43621
596.577	46362
596.647	43104
596.717	43158
596.787	43280
596.857	43385
596.927	43018
596.997	44015
597.067	44643
597.137	46267
597.207	45828
597.277	44280
597.347	43943
597.417	42827
597.487	43565
597.557	43867
597.626	44580
597.696	45018
597.766	47234
597.836	47725
597.906	42946
597.975	41137
598.045	41680
598.115	43110
598.185	44607
598.254	48143
598.324	52198
598.394	52871
598.464	51946
598.533	52411
598.603	49050
598.672	47945
598.742	49563
598.812	49483
598.881	50560
598.951	50775
599.020	49589
599.090	51478
599.159	52931
599.229	52073
599.299	50003
599.368	52793
599.437	52494
599.507	49911
599.576	49491
599.646	50920
599.715	51208
599.785	49507
599.854	48270
599.924	50440
599.993	49951
600.062	50861
600.132	51103
600.201	52239
600.270	58418
600.340	60969
600.409	60173
600.478	60946
600.547	60404
600.617	60402
600.686	54724
600.755	51082
600.824	51053
600.894	50370
600.963	51261
601.032	51388
601.101	51436
601.170	50172
601.239	51063
601.308	52348
601.378	52176
601.447	53440
601.516	53706
601.585	53979
601.654	57689
601.723	57496
601.792	58391
601.861	61178
601.930	65630
601.999	67012
602.068	64521
602.137	64927
602.206	66420
602.275	65908
602.343	67113
602.412	68936
602.481	68189
602.550	67081
602.619	67282
602.688	69905
602.756	69087
602.825	69462
602.894	70008
602.963	69415
603.032	70298
603.100	70793
603.169	69333
603.238	71718
603.307	69554
603.375	69033
603.444	71172
603.513	68491
603.581	69401
603.650	75325
603.719	64598
603.787	61621
603.856	63312
603.924	63826
603.993	66245
604.061	66836
604.130	69142
604.198	70372
604.267	72340
604.335	73342
604.404	72377
604.472	75484
604.541	76294
604.609	76943
604.678	78592
604.746	79604
604.815	83979
604.883	82386
604.951	78382
605.020	80553
605.088	77922
605.156	73933
605.225	74091
605.293	74806
605.361	74361
605.429	73880
605.498	75692
605.566	74946
605.634	78870
605.702	79541
605.771	80118
605.839	83076
605.907	78573
605.975	77952
606.043	77630
606.111	72474
606.180	77650
606.248	75778
606.316	73444
606.384	75040
606.452	69174
606.520	61332
606.588	59510
606.656	59721
606.724	58648
606.792	55586
606.860	50550
606.928	45931
606.996	45366
607.064	44261
607.132	45158
607.200	46021
607.267	50134
607.335	49598
607.403	52100
607.471	49832
607.539	48506
607.607	48497
607.674	44630
607.742	43912
607.810	44324
607.878	43470
607.946	44468
608.013	44930
608.081	46862
608.149	47673
608.216	47400
608.284	48730
608.352	48671
608.419	47393
608.487	48706
608.555	47359
608.622	47273
608.690	48555
608.757	51949
608.825	55188
608.893	54135
608.960	52838
609.028	50700
609.095	50931
609.163	49278
609.230	45134
609.298	41751
609.365	42690
609.432	45696
609.500	48696
609.567	54812
609.635	62743
609.702	67006
609.769	65468
609.837	56612
609.904	50517
609.971	55080
610.039	65992
610.106	91756
610.173	166055
610.241	397146
610.308	408461
610.375	190834
610.442	78863
610.509	55676
610.577	50608
610.644	49044
610.711	49582
610.778	50798
610.845	51410
610.912	54310
610.980	56743
611.047	60288
611.114	58705
611.181	52502
611.248	52210
611.315	54357
611.382	55019
611.449	57260
611.516	59880
611.583	59799
611.650	59793
611.717	61920
611.784	64437
611.851	71593
611.918	82379
611.984	101303
612.051	147984
612.118	294051
612.185	741358
612.252	709052
612.319	156450
612.386	91552
612.452	77343
612.519	71684
612.586	69539
612.653	68187
612.719	69054
612.786	65880
612.853	61655
612.919	58586
612.986	60009
613.053	56812
613.120	54431
613.186	51316
613.253	53658
613.319	51960
613.386	52883
613.453	52722
613.519	54225
613.586	54534
613.652	60955
613.719	57364
613.785	57217
613.852	54650
613.918	53659
613.985	55636
614.051	63321
614.118	80898
614.184	89882
614.250	56975
614.317	54954
614.383	53604
614.449	54061
614.516	53661
614.582	54753
614.648	53435
614.715	53450
614.781	52217
614.847	52019
614.914	52938
614.980	52585
615.046	52619
615.112	53939
615.179	54467
615.245	58439
615.311	64503
615.377	81269
615.443	98423
615.509	75869
615.575	64455
615.642	62978
615.708	64852
615.774	71822
615.840	82538
615.906	101882
615.972	144683
616.038	242247
616.104	445264
616.170	921451
616.236	1107274
616.302	272834
616.368	137546
616.434	100262
616.500	82734
616.565	84985
616.631	107446
616.697	98434
616.763	93450
616.829	126696
616.895	228362
616.961	270328
617.026	133992
617.092	73959
617.158	62097
617.224	58861
617.289	54430
617.355	49908
617.421	49161
617.487	48907
617.552	46074
617.618	44236
617.684	45111
617.749	46840
617.815	44301
617.880	42480
617.946	43218
618.012	44117
618.077	44454
618.143	43698
618.208	42993
618.274	44744
618.339	46154
618.405	40294
618.470	39640
618.536	39859
618.601	39263
618.667	37777
618.732	36501
618.798	35553
618.863	34886
618.928	34625
618.994	36316
619.059	37033
619.124	39444
619.190	38068
619.255	34527
619.320	34917
619.386	34008
619.451	33202
619.516	33786
619.581	34066
619.647	33912
619.712	34798
619.777	33152
619.842	34021
619.907	34228
619.972	34327
620.038	34953
620.103	33453
620.168	32470
620.233	34608
620.298	34417
620.363	34020
620.428	34949
620.493	35945
620.558	36577
620.623	36948
620.688	36628
620.753	36483
620.818	36302
620.883	37017
620.948	37697
621.013	37286
621.078	36154
621.143	35724
621.207	38706
621.272	36445
621.337	37150
621.402	36359
621.467	37706
621.532	38419
621.596	36577
621.661	36119
621.726	34528
621.791	35370
621.855	35959
621.920	35992
621.985	35645
622.049	37763
622.114	36937
622.179	36956
622.243	37152
622.308	38869
622.373	39708
622.437	39478
622.502	37301
622.566	36003
622.631	35414
622.695	38037
622.760	38618
622.824	37595
622.889	37319
622.953	38037
623.018	43510
623.082	45213
623.147	38687
623.211	38625
623.276	38284
623.340	35576
623.404	35029
623.469	35920
623.533	35989
623.597	34915
623.662	34541
623.726	32282
623.790	30604
623.854	31876
623.919	31302
623.983	31127
624.047	31886
624.111	31532
624.176	32859
624.240	33793
624.304	36080
624.368	33665
624.432	32291
624.496	33564
624.560	34702
624.625	37333
624.689	34763
624.753	35377
624.817	33994
624.881	32578
624.945	31479
625.009	30034
625.073	31103
625.137	31495
625.201	34231
625.265	35265
625.329	31898
625.393	31183
625.456	30850
625.520	31936
625.584	33476
625.648	35587
625.712	38304
625.776	51666
625.839	58272
625.903	38868
625.967	27965
626.031	31906
626.095	42031
626.158	32523
626.222	25393
626.286	24039
626.349	23410
626.413	20970
626.477	22731
626.540	21294
626.604	21097
626.668	21096
626.731	20567
626.795	20218
626.858	21303
626.922	20840
626.986	20139
627.049	19315
627.113	20440
627.176	20884
627.240	19995
627.303	18982
627.366	19171
627.430	20746
627.493	19627
627.557	19916
627.620	20373
627.684	20520
627.747	20599
627.810	18053
627.874	18436
627.937	16294
628.000	19047
628.064	17729
628.127	14629
628.190	15627
628.253	16617
628.317	15001
628.380	14705
628.443	14958
628.506	14932
628.569	14245
628.632	12176
628.696	12968
628.759	12527
628.822	13211
628.885	12401
628.948	12993
629.011	12731
629.074	12009
629.137	12479
629.200	11396
629.263	12500
629.326	10745
629.389	11988
629.452	11253
629.515	11297
629.578	10910
629.641	12196
629.704	11330
629.767	11918
629.830	11491
629.892	11089
629.955	10718
630.018	13078
630.081	11890
630.144	14298
630.207	10955
630.269	12369
630.332	10492
630.395	11338
630.458	10358
630.520	9466
630.583	10319
630.646	10189
630.708	10148
630.771	10646
630.834	10205
630.896	10612
630.959	10546
631.021	10483
631.084	10003
631.146	10458
631.209	11673
631.272	10971
631.334	11356
631.397	11481
631.459	10937
631.522	11958
631.584	12051
631.646	11949
631.709	13524
631.771	14161
631.834	14225
631.896	12148
631.958	10539
632.021	11947
632.083	9928
632.145	10815
632.208	9402
632.270	10976
632.332	9914
632.395	8984
632.457	11005
632.519	8770
632.581	10494
632.643	9714
632.706	9630
632.768	9288
632.830	10218
632.892	9820
632.954	9452
633.016	9832
633.078	10276
633.141	10268
633.203	9462
633.265	9578
633.327	9616
633.389	9336
633.451	10846
633.513	11436
633.575	11167
633.637	10434
633.698	10967
633.760	11540
633.822	10505
633.884	11468
633.946	11522
634.008	11551
634.070	12872
634.132	14322
634.193	14850
634.255	14894
634.317	15216
634.379	16480
634.441	13908
634.502	13220
634.564	13006
634.626	11800
634.687	12008
634.749	11070
634.811	10050
634.873	9792
634.934	10197
634.996	9778
635.057	9355
635.119	8917
635.181	9683
635.242	9825
635.304	7874
635.365	11442
635.427	9172
635.488	10382
635.550	9849
635.611	10330
635.673	9496
635.734	11402
635.796	11160
635.857	13680
635.918	13438
635.980	14856
636.041	14780
636.102	17668
636.164	16736
636.225	17066
636.286	14519
636.348	14412
636.409	12243
636.470	11344
636.531	10035
636.593	9668
636.654	9775
636.715	9277
636.776	9443
636.838	7932
636.899	9575
636.960	7952
637.021	8880
637.082	8897
637.143	8882
637.204	7970
637.265	7978
637.326	9204
637.387	8194
637.448	8154
637.509	8306
637.570	8254
637.631	8307
637.692	7638
637.753	6781
637.814	7673
637.875	7385
637.936	8209
637.997	7407
638.058	7810
638.119	8387
638.179	7165
638.240	7062
638.301	7193
638.362	6756
638.423	7028
638.483	8094
638.544	6616
638.605	6625
638.666	6726
638.726	7296
638.787	7058
638.848	7678
638.908	6760
638.969	7405
639.030	6096
639.090	6077
639.151	7304
639.211	7175
639.272	7796
639.332	10692
639.393	9683
639.453	7800
639.514	8472
639.574	7522
639.635	5838
639.695	7581
639.756	6742
639.816	7479
639.877	6918
639.937	9873
639.997	12374
640.058	7752
640.118	6727
640.178	7166
640.239	6678
640.299	5979
640.359	7158
640.420	7233
640.480	8475
640.540	8695
640.600	9857
640.661	9522
640.721	8026
640.781	11280
640.841	12842
640.901	9155
640.961	6782
641.021	7079
641.082	8238
641.142	9531
641.202	9697
641.262	5495
641.322	7251
641.382	6028
641.442	5646
641.502	6254
641.562	6642
641.622	6682
641.682	7954
641.742	7491
641.802	7750
641.861	7253
641.921	7358
641.981	6873
642.041	7361
642.101	6645
642.161	6618
642.221	5561
642.280	5532
642.340	5235
642.400	5357
642.460	6459
642.519	5784
642.579	5939
642.639	6788
642.698	4113
642.758	8211
642.818	6561
642.877	5516
642.937	6104
642.997	6494
643.056	8585
643.116	6566
643.175	7283
643.235	6959
643.294	7305
643.354	8930
643.414	10127
643.473	13891
643.532	17416
643.592	24255
643.651	39471
643.711	65350
643.770	113001
643.830	241757
643.889	657650
643.948	299471
644.008	39467
644.067	19338
644.126	13523
644.186	12163
644.245	9657
644.304	7495
644.363	9655
644.423	8202
644.482	8281
644.541	8138
644.600	7461
644.659	11595
644.719	14272
644.778	20150
644.837	29552
644.896	56004
644.955	146544
645.014	91848
645.073	17180
645.132	10076
645.191	8778
645.250	7750
645.309	9602
645.368	8340
645.427	12266
645.486	15020
645.545	31773
645.604	16158
645.663	8360
645.722	7739
645.781	9648
645.840	12769
645.898	15413
645.957	24120
646.016	34452
646.075	57973
646.134	105711
646.192	240570
646.251	528126
646.310	146488
646.369	25350
646.427	16448
646.486	11734
646.545	8590
646.603	9480
646.662	8378
646.721	7822
646.779	7552
646.838	7297
646.896	10758
646.955	12736
647.014	19422
647.072	30794
647.131	83197
647.189	77102
647.248	10970
647.306	7337
647.365	6100
647.423	5007
647.481	6572
647.540	4251
647.598	5949
647.657	4928
647.715	5706
647.773	4446
647.832	5696
647.890	3532
647.948	4528
648.007	5256
648.065	3832
648.123	3975
648.181	5290
648.240	5436
648.298	5957
648.356	4678
648.414	4675
648.472	4762
648.531	4580
648.589	4874
648.647	5166
648.705	4385
648.763	5093
648.821	4609
648.879	5564
648.937	6952
648.995	8865
649.053	11329
649.111	18180
649.169	26106
649.227	45190
649.285	80256
649.343	233646
649.401	218745
649.459	34860
649.516	19334
649.574	12046
649.632	18510
649.690	29383
649.748	16231
649.806	15946
649.863	29981
649.921	56912
649.979	68245
650.037	13447
650.094	4713
650.152	5069
650.210	4015
650.268	5378
650.325	4829
650.383	6946
650.440	4049
650.498	3621
650.556	3818
650.613	3118
650.671	3797
650.728	3516
650.786	3954
650.843	4155
650.901	4082
650.958	3973
651.016	3315
651.073	3462
651.131	2848
651.188	1727
651.246	3553
651.303	2876
651.360	3207
651.418	2676
651.475	3196
651.532	2169
651.590	3502
651.647	2053
651.704	2883
651.762	3496
651.819	2990
651.876	2819
651.933	3496
651.990	2818
652.048	1758
652.105	2346
652.162	3902
652.219	2953
652.276	2414
652.333	3228
652.390	1933
652.448	3470
652.505	2827
652.562	3162
652.619	3244
652.676	4161
652.733	6510
652.790	3470
652.847	1204
652.904	2889
652.961	1362
653.017	1346
653.074	3323
653.131	2818
653.188	712
653.245	2490
653.302	2217
653.359	2238
653.415	2756
653.472	1697
653.529	2714
653.586	1502
653.642	1628
653.699	2888
653.756	1163
653.813	1975
653.869	2404
653.926	2470
653.983	1762
654.039	2494
654.096	1979
654.152	3057
654.209	1684
654.266	2478
654.322	2184
654.379	2514
654.435	2144
654.492	2771
654.548	3789
654.605	4822
654.661	4232
654.717	1958
654.774	2900
654.830	2541
654.887	2189
654.943	3312
655.000	3833
655.056	3173
655.112	3652
655.168	1773
655.225	2807
655.281	2558
655.337	3273
655.394	4483
655.450	3946
655.506	4137
655.562	3409
655.618	5596
655.675	2290
655.731	2955
655.787	2729
655.843	4260
655.899	2007
655.955	3827
656.011	4374
656.067	3172
656.123	4525
656.179	4964
656.235	5793
656.291	4738
656.347	5408
656.403	4300
656.459	3584
656.515	3572
656.571	3508
656.627	3722
656.683	3284
656.739	3722
656.795	3072
656.850	3044
656.906	2975
656.962	3594
657.018	2183
657.074	3298
657.129	3376
657.185	4474
657.241	7298
657.297	7795
657.352	3380
657.408	2230
657.464	3097
657.519	1753
657.575	1872
657.630	2523
657.686	2602
657.742	2486
657.797	1914
657.853	1574
657.908	3352
657.964	1134
658.019	2442
658.075	2088
658.130	2525
658.186	1096
658.241	3007
658.297	1243
658.352	1818
658.407	3397
658.463	1762
658.518	2805
658.573	3156
658.629	972
658.684	2404
658.739	2713
658.795	840
658.850	2384
658.905	1255
658.960	2740
659.016	1643
659.071	2152
659.126	2264
659.181	1512
659.236	3402
659.291	4606
659.346	2697
659.401	2666
659.457	3323
659.512	3280
659.567	3678
659.622	2504
659.677	1617
659.732	1673
659.787	2085
659.842	2176
659.897	2647
659.952	2967
660.007	1944
660.061	2456
660.116	1482
660.171	1080
660.226	1887
660.281	3091
660.336	2096
660.391	2473
660.445	1438
660.500	2126
660.555	2241
660.610	1232
660.664	2843
660.719	1071
660.774	2688
660.828	2119
660.883	1775
660.938	2445
660.992	1391
661.047	2663
661.101	1878
661.156	2304
661.211	1266
661.265	1641
661.320	1903
661.374	1768
661.429	1753
661.483	1553
661.538	968
661.592	2462
661.647	2045
661.701	2996
661.755	3264
661.810	1642
661.864	1491
661.919	1698
661.973	2056
662.027	1982
662.081	1652
662.136	1587
662.190	2442
662.244	2850
662.299	1911
662.353	1459
662.407	1879
662.461	1941
662.515	2531
662.569	1916
662.624	2190
662.678	1394
662.732	1376
662.786	1459
662.840	2082
662.894	2902
662.948	2074
663.002	1309
663.056	1595
663.110	1522
663.164	1578
663.218	1723
663.272	2342
663.326	3351
663.380	1604
663.434	1620
663.488	1094
663.542	2323
663.595	2031
663.649	1604
663.703	2574
663.757	2173
663.811	1273
663.864	2035
663.918	2332
663.972	1331
664.026	1560
664.079	964
664.133	2231
664.187	2211
664.240	1155
664.294	1940
664.348	2133
664.401	2262
664.455	2326
664.508	1073
664.562	1691
664.615	2578
664.669	1383
664.722	1695
664.776	765
664.829	2122
664.883	1813
664.936	1408
664.990	2095
665.043	1781
665.097	1825
665.150	2938
665.203	2057
665.257	1738
665.310	2474
665.363	1137
665.417	1645
665.470	2697
665.523	2272
665.576	2337
665.630	2532
665.683	2296
665.736	1445
665.789	1876
665.842	1694
665.895	1826
665.949	2337
666.002	1941
666.055	1906
666.108	1951
666.161	1929
666.214	2606
666.267	2151
666.320	2901
666.373	2500
666.426	2321
666.479	1620
666.532	2210
666.585	2725
666.638	2501
666.691	1949
666.744	2648
666.796	1889
666.849	1848
666.902	1642
666.955	1626
667.008	1472
667.060	1415
667.113	1479
667.166	2183
667.219	1992
667.271	1912
667.324	1314
667.377	1794
667.430	1850
667.482	2416
667.535	3056
667.587	1952
667.640	2299
667.693	2128
667.745	3028
667.798	4975
667.850	2627
667.903	1647
667.955	2334
668.008	2449
668.060	2646
668.113	2089
668.165	2620
668.218	2449
668.270	2155
668.322	2247
668.375	2233
668.427	2189
668.479	1653
668.532	2622
668.584	2046
668.636	2460
668.689	2302
668.741	1088
668.793	2647
668.845	2020
668.898	2466
668.950	2110
669.002	2275
669.054	1811
669.106	2825
669.158	2296
669.211	2065
669.263	1817
669.315	2655
669.367	3275
669.419	2954
669.471	3795
669.523	3608
669.575	4052
669.627	3852
669.679	3237
669.731	3049
669.783	4009
669.835	3558
669.886	3812
669.938	3775
669.990	3718
670.042	3690
670.094	4991
670.146	5281
670.197	5989
670.249	8453
670.301	12263
670.353	16560
670.404	24306
670.456	35891
670.508	54392
670.560	79135
670.611	122648
670.663	197737
670.715	391508
670.766	758839
670.818	480319
670.869	115499
670.921	40331
670.972	24395
671.024	17257
671.075	12970
671.127	9686
671.178	8028
671.230	7682
671.281	6747
671.333	6253
671.384	5714
671.436	6636
671.487	8291
671.538	8767
671.590	11238
671.641	14848
671.692	21315
671.744	39663
671.795	43215
671.846	23801
671.897	11349
671.949	7020
672.000	5091
672.051	4278
672.102	3650
672.153	2374
672.204	2441
672.256	2983
672.307	2627
672.358	2904
672.409	3075
672.460	2331
672.511	2024
672.562	1875
672.613	2988
672.664	2001
672.715	2206
672.766	1981
672.817	1828
672.868	1679
672.919	2221
672.970	1494
673.021	2134
673.071	1713
673.122	2542
673.173	1793
673.224	1122
673.275	2361
673.326	1893
673.376	1765
673.427	713
673.478	1977
673.528	2412
673.579	1800
673.630	1634
673.680	2334
673.731	1919
673.782	1453
673.832	1693
673.883	1955
673.934	1649
673.984	1159
674.035	1312
674.085	2232
674.136	2419
674.186	1420
674.237	2056
674.287	2467
674.338	2111
674.388	1471
674.438	850
674.489	1235
674.539	1912
674.589	2104
674.640	1817
674.690	1483
674.740	1419
674.791	1740
674.841	1939
674.891	1759
674.942	1789
674.992	1322
675.042	1358
675.092	1538
675.142	941
675.193	1855
675.243	1712
675.293	1930
675.343	1274
675.393	1202
675.443	1837
675.493	1881
675.543	1603
675.593	1954
675.643	685
675.693	1198
675.743	1932
675.793	1229
675.843	847
675.893	1609
675.943	2062
675.993	2200
676.043	1885
676.093	1893
676.142	563
676.192	1617
676.242	1163
676.292	1115
676.341	1070
676.391	1775
676.441	1775
676.491	1234
676.540	1405
676.590	1227
676.640	979
676.689	523
676.739	92
676.789	1345
676.838	530
676.888	1800
676.937	1373
676.987	1549
677.037	947
677.086	1129
677.136	1028
677.185	641
677.235	1651
677.284	1048
677.333	742
677.383	1064
677.432	403
677.482	1452
677.531	1652
677.580	680
677.630	908
677.679	916
677.728	1065
677.778	1256
677.827	1371
677.876	1448
677.925	843
677.975	872
678.024	1296
678.073	1335
678.122	1093
678.171	1734
678.220	915
678.269	1580
678.319	1946
678.368	1592
678.417	1597
678.466	2127
678.515	1755
678.564	980
678.613	1520
678.662	1217
678.711	1022
678.760	914
678.809	1309
678.857	1362
678.906	887
678.955	1555
679.004	2607
679.053	721
679.102	1786
679.151	1058
679.199	1673
679.248	884
679.297	1000
679.346	2213
679.394	952
679.443	1771
679.492	1327
679.540	999
679.589	1033
679.638	903
679.686	777
679.735	2012
679.784	786
679.832	1174
679.881	1296
679.929	948
679.978	647
680.026	1072
680.075	1285
680.123	428
680.172	631
680.220	593
680.268	1062
680.317	494
680.365	-156
680.414	674
680.462	1320
680.510	1381
680.559	1002
680.607	909
680.655	776
680.703	854
680.752	1214
680.800	225
680.848	571
680.896	715
680.945	468
680.993	308
681.041	823
681.089	1676
681.137	763
681.185	1017
681.233	649
681.258	560
681.281	469
681.329	842
681.377	300
681.380	331
681.425	774
681.473	965
681.502	1198
681.521	1339
681.569	1013
681.617	666
681.624	710
681.665	932
681.713	1362
681.745	1395
681.761	1397
681.809	997
681.857	734
681.867	997
681.904	1870
681.952	1158
681.989	1089
682.000	1065
682.048	669
682.096	1164
682.111	973
682.143	509
682.191	1318
682.233	1906
682.239	1993
682.286	849
682.334	721
682.354	951
682.382	1236
682.430	1111
682.476	1146
682.477	1139
682.525	1074
682.572	586
682.598	782
682.620	925
682.667	531
682.715	1194
682.720	1149
682.763	643
682.810	1484
682.841	1509
682.857	1509
682.905	1626
682.952	1621
682.963	1633
683.000	1696
683.047	1212
683.085	1658
683.095	1757
683.142	1242
683.190	1324
683.206	1252
683.237	1111
683.284	1322
683.328	1241
683.332	1228
683.379	1158
683.426	853
683.449	1027
683.473	1196
683.521	1188
683.568	1466
683.571	1487
683.615	1665
683.662	1779
683.693	1547
683.709	1409
683.757	1540
683.804	1336
683.814	1323
683.851	1254
683.898	1480
683.936	1476
683.945	1467
683.992	1908
684.039	1245
684.057	1446
684.086	1715
684.133	1753
684.179	1779
684.180	1778
684.227	1972
684.274	1966
684.300	2037
684.321	2072
684.368	1482
684.415	1789
684.422	1775
684.462	1661
684.509	1435
684.543	1579
684.556	1614
684.603	1826
684.649	1909
684.665	1790
684.696	1618
684.743	1865
684.786	1661
684.790	1632
684.837	1795
684.883	1865
684.908	1604
684.930	1380
684.977	2332
685.023	1823
685.029	1841
685.070	1856
685.117	2077
685.150	2031
685.164	2049
685.210	1513
685.257	2396
685.272	2484
685.303	2585
685.350	2277
685.393	1548
685.396	1487
685.443	1927
685.490	2636
685.514	2100
685.536	1678
685.583	2099
685.629	2214
685.636	2266
685.675	2407
685.722	2230
685.757	2407
685.768	2479
685.815	2052
685.861	1967
685.878	1963
685.908	1969
685.954	2085
686.000	2189
686.000	2189
686.047	2032
686.093	2142
686.121	2615
686.139	2894
686.185	2886
686.232	2411
686.242	2373
686.278	2198
686.324	2276
686.363	2197
686.370	2195
686.416	2269
686.463	2553
686.484	2643
686.509	2730
686.555	2401
686.601	1739
686.606	1818
686.647	2510
686.693	2690
686.727	2712
686.739	2712
686.785	2362
686.831	2331
686.848	2474
686.877	2702
686.923	2563
686.969	2359
686.969	2358
687.015	2116
687.061	2347
687.090	2666
687.107	2846
687.153	2578
687.199	2449
687.211	2498
687.245	2508
687.291	2354
687.332	2681
687.336	2732
687.382	2653
687.428	2587
687.453	2701
687.474	2754
687.520	3193
687.565	2672
687.574	2679
687.611	2796
687.657	2986
687.695	2936
687.702	2994
687.748	3924
687.794	4825
687.816	5337
687.839	5383
687.885	4487
687.931	3118
687.937	3171
687.976	3692
688.022	3033
688.058	3008
688.067	3014
688.113	2714
688.158	2549
688.179	2515
688.204	2573
688.249	2999
688.295	2988
688.300	3050
688.340	3399
688.386	3150
688.421	3100
688.431	3109
688.477	2831
688.522	3035
688.542	3012
688.567	3039
688.613	2987
688.658	3109
688.663	3106
688.703	2891
688.749	2735
688.784	3043
688.794	3154
688.839	2856
688.884	2945
688.905	3184
688.930	3551
688.975	3485
689.020	3263
689.026	3283
689.065	3311
689.110	3107
689.146	3017
689.155	3015
689.201	3388
689.246	3749
689.267	3618
689.291	3437
689.336	3077
689.381	3628
689.388	3592
689.426	3460
689.471	3313
689.509	3411
689.516	3433
689.561	3053
689.606	2849
689.630	3123
689.651	3352
689.696	3251
689.741	3051
689.750	3086
689.785	3433
689.830	3563
689.871	3674
689.875	3658
689.920	3560
689.965	3360
689.992	3263
690.010	3285
690.054	3404
690.099	3656
690.112	3607
690.144	3441
690.189	3528
690.233	3269
690.233	3273
690.278	3309
690.323	3696
690.354	3714
690.367	3720
690.412	4161
690.457	3920
690.474	3933
690.501	3842
690.546	4293
690.590	4190
690.595	4171
690.635	4283
690.680	4349
690.716	4399
690.724	4513
690.769	5484
690.813	6641
690.836	6906
690.857	7303
690.902	8388
690.946	9766
690.957	10089
690.991	13248
691.035	17874
691.077	23228
691.080	23375
691.124	24440
691.168	22916
691.198	22436
691.213	20757
691.257	15991
691.301	11440
691.318	9745
691.346	8897
691.390	7475
691.434	6304
691.439	6148
691.478	5630
691.522	5403
691.559	4557
691.567	4486
691.611	4778
691.655	4969
691.680	4793
691.699	4560
691.743	4736
691.787	4419
691.800	4193
691.831	3851
691.875	4028
691.919	4159
691.921	4148
691.964	4068
692.008	4453
692.041	4038
692.052	3925
692.096	4314
692.139	4049
692.162	3976
692.183	3938
692.227	4434
692.271	4277
692.282	4330
692.315	4511
692.359	4524
692.402	4511
692.403	4519
692.447	4393
692.490	4101
692.523	4294
692.534	4388
692.578	4208
692.622	4306
692.643	4296
692.666	4387
692.709	4509
692.753	4663
692.763	4692
692.797	4767
692.840	4691
692.884	4841
692.884	4852
692.928	5019
692.971	4871
693.004	4688
693.015	4652
693.059	4765
693.102	4712
693.124	4588
693.146	4584
693.189	4730
693.233	4977
693.245	5031
693.276	5353
693.320	5637
693.363	6021
693.365	6020
693.407	6374
693.450	6844
693.485	7217
693.493	7410
693.537	8397
693.580	9235
693.605	9887
693.624	11367
693.667	14675
693.710	18162
693.725	19336
693.753	25557
693.797	36336
693.840	47620
693.845	48812
693.883	50108
693.926	49104
693.966	47938
693.970	46890
694.013	36189
694.056	25528
694.086	18403
694.099	17439
694.142	14392
694.185	11355
694.206	9888
694.229	9397
694.272	8580
694.315	7429
694.326	7211
694.358	7220
694.401	7011
694.444	6952
694.446	6933
694.487	6713
694.530	6310
694.566	5959
694.573	5930
694.616	5576
694.659	5652
694.686	5391
694.702	5207
694.745	4786
694.787	4794
694.806	4537
694.830	4576
694.873	4857
694.916	5159
694.926	5191
694.959	5220
695.002	5371
695.044	5436
695.046	5423
695.087	5290
695.130	5203
695.166	5085
695.172	5091
695.215	5031
695.258	5083
695.286	5004
695.301	5029
695.343	5359
695.386	5393
695.406	5383
695.428	5281
695.471	5138
695.514	5055
695.526	5032
695.556	5233
695.599	5444
695.641	5455
695.646	5454
695.684	5270
695.726	5126
695.766	4961
695.769	4967
695.811	4890
695.854	4772
695.886	4672
695.896	4743
695.938	4878
695.981	5207
696.005	5217
696.023	5136
696.065	5244
696.108	5084
696.125	5098
696.150	5269
696.192	5348
696.235	5545
696.245	5557
696.277	5664
696.319	5692
696.361	5996
696.365	5982
696.404	5912
696.446	6086
696.485	6026
696.488	6048
696.530	6118
696.572	6317
696.604	6426
696.614	6376
696.656	6117
696.698	5811
696.724	5499
696.740	5452
696.783	5511
696.825	5556
696.844	5508
696.867	5501
696.909	5506
696.951	5507
696.964	5514
696.992	5771
697.034	5978
697.076	6253
697.083	6287
697.118	6339
697.160	6400
697.202	6388
697.203	6371
697.244	6043
697.286	5528
697.323	5108
697.327	5161
697.369	5639
697.411	5898
697.442	6106
697.453	6184
697.494	6505
697.536	6846
697.562	7029
697.578	6885
697.620	6386
697.661	5947
697.682	5679
697.703	5777
697.744	6010
697.786	6284
697.801	6303
697.828	6327
697.869	6488
697.911	6609
697.921	6618
697.952	6310
697.994	5896
698.035	5397
698.040	5330
698.077	5421
698.118	5468
698.160	5576
698.160	5561
698.201	5516
698.243	5473
698.279	5434
698.284	5473
698.325	5666
698.367	5905
698.399	6040
698.408	6072
698.449	6145
698.491	6203
698.518	6236
698.532	6321
698.573	6536
698.614	6746
698.638	6826
698.656	6821
698.697	6805
698.738	6769
698.757	6733
698.779	6821
698.820	6960
698.862	7084
698.877	7119
698.903	7146
698.944	7140
698.985	7144
698.996	7127
699.026	7075
699.067	6979
699.116	6848
699.235	6957
699.354	5923
699.474	6387
699.593	7592
699.713	6969
699.832	6232
699.951	6706
700.070	6179
700.190	6073
700.309	6317
700.428	6879
700.547	6411
700.667	5848
700.786	6798
700.905	5386
701.024	6423
701.143	6475
701.262	6584
701.381	6512
701.500	5614
701.619	7080
701.738	6575
701.857	6309
701.976	6078
702.095	6184
702.214	6602
702.333	5615
702.452	6028
702.571	5479
702.690	5875
702.809	6736
702.928	5968
703.047	6071
703.165	6041
703.284	5626
703.403	5434
703.522	5984
703.640	5630
703.759	6438
703.878	7675
703.997	4996
704.115	6076
704.234	5521
704.353	6430
704.471	6148
704.590	5215
704.708	5354
704.827	5664
704.946	5538
705.064	5805
705.183	5764
705.301	6323
705.420	6653
705.538	6770
705.656	5887
705.775	7210
705.893	11913
706.012	15344
706.130	6472
706.249	6443
706.367	5785
706.485	6144
706.604	6615
706.722	5967
706.840	7661
706.958	12157
707.077	9749
707.195	7203
707.313	6343
707.431	5583
707.549	6024
707.668	5452
707.786	5975
707.904	5388
708.022	5665
708.140	5143
708.258	4617
708.376	5580
708.494	5752
708.612	6342
708.730	7689
708.848	7277
708.966	6996
709.084	7115
709.202	5675
709.320	6509
709.438	6322
709.556	6071
709.674	5629
709.791	5771
709.909	5691
710.027	6143
710.145	5682
710.263	6508
710.380	5815
710.498	6375
710.616	5226
710.733	6315
710.851	5742
710.969	6158
711.086	5192
711.204	5832
711.322	6822
711.439	5900
711.557	6821
711.674	5897
711.792	6293
711.909	7134
712.027	7370
712.144	5569
712.262	6207
712.379	6246
712.497	7531
712.614	7683
712.732	6580
712.849	6582
712.966	6737
713.084	7716
713.201	7263
713.318	6653
713.436	6942
713.553	7507
713.670	7656
713.787	8599
713.905	7111
714.022	7803
714.139	5954
714.256	9306
714.373	12080
714.490	21618
714.608	52770
714.725	241381
714.842	308896
714.959	26599
715.076	10399
715.193	9031
715.310	7953
715.427	6486
715.544	6681
715.661	6777
715.778	6098
715.895	6335
716.011	6087
716.128	6745
716.245	5596
716.362	6438
716.479	6181
716.596	6786
716.713	6350
716.829	6174
716.946	6554
717.063	4833
717.180	5305
717.296	5888
717.413	5753
717.530	5724
717.646	5719
717.763	6250
717.880	4967
717.996	5964
718.113	5475
718.229	5561
718.346	4885
718.462	5241
718.579	6619
718.695	8812
718.812	7606
718.928	6406
719.045	6255
719.161	5373
719.277	5657
719.394	5510
719.510	5685
719.626	5224
719.743	6788
719.859	9757
719.975	18155
720.092	68258
720.208	175820
720.324	29284
720.440	7308
720.557	6862
720.673	8234
720.789	9029
720.905	14066
721.021	7773
721.137	5187
721.253	4834
721.369	5316
721.486	5896
721.602	6054
721.718	5176
721.834	4506
721.950	4570
722.066	3923
722.181	3860
722.297	5139
722.413	5673
722.529	4704
722.645	5429
722.761	4436
722.877	5044
722.993	4425
723.108	5267
723.224	5143
723.340	4892
723.456	4255
723.571	4236
723.687	4259
723.803	5383
723.918	4086
724.034	4224
724.150	3955
724.265	5165
724.381	6761
724.497	8365
724.612	4558
724.728	4309
724.843	3900
724.959	5059
725.074	6851
725.190	7371
725.305	5008
725.421	4079
725.536	4423
725.651	3900
725.767	4202
725.882	4472
725.997	3401
726.113	3916
726.228	3256
726.343	3571
726.459	3973
726.574	3648
726.689	3553
726.804	3972
726.920	3770
727.035	4039
727.150	4324
727.265	3751
727.380	4048
727.495	4020
727.610	3483
727.725	4426
727.841	4814
727.956	7935
728.071	7117
728.186	3737
728.301	3944
728.416	4330
728.531	3662
728.645	3343
728.760	4047
728.875	4243
728.990	3786
729.105	3861
729.220	4413
729.335	4606
729.449	3359
729.564	3425
729.679	3639
729.794	3858
729.908	4078
730.023	4873
730.138	3733
730.253	3393
730.367	2977
730.482	3941
730.596	3446
730.711	3932
730.826	5654
730.940	6606
731.055	4150
731.169	3650
731.284	3358
731.398	3038
731.513	4424
731.627	4537
731.742	4775
731.856	4995
731.970	5365
732.085	5759
732.199	7860
732.313	13920
732.428	32774
732.542	90775
732.656	61218
732.771	12238
732.885	6615
732.999	5795
733.113	5940
733.227	5362
733.342	4416
733.456	4989
733.570	4497
733.684	4307
733.798	4707
733.912	4057
734.026	3227
734.140	3848
734.254	4200
734.368	5526
734.482	6527
734.596	4707
734.710	3782
734.824	3542
734.938	3644
735.052	3292
735.166	4319
735.280	4125
735.393	4019
735.507	3518
735.621	4271
735.735	5382
735.849	3512
735.962	3518
736.076	4010
736.190	3780
736.303	4477
736.417	5757
736.531	4057
736.644	3704
736.758	3522
736.872	2964
736.985	3850
737.099	3772
737.212	3045
737.326	3452
737.439	3222
737.553	3727
737.666	3202
737.780	3058
737.893	3574
738.007	2970
738.120	3451
738.233	3014
738.347	3757
738.460	4070
738.573	3907
738.687	3475
738.800	3748
738.913	3400
739.026	3164
739.140	3970
739.253	3278
739.366	3666
739.479	3573
739.592	3633
739.705	3032
739.818	3287
739.932	2793
740.045	3291
740.158	3917
740.271	3519
740.384	3522
740.497	3559
740.610	3528
740.723	3963
740.836	3210
740.949	3520
741.062	4500
741.174	3561
741.287	3455
741.400	3656
741.513	3702
741.626	3745
741.739	3989
741.851	3803
741.964	3856
742.077	3060
742.189	3639
742.302	4895
742.415	4139
742.527	3464
742.640	3347
742.753	3165
742.865	2972
742.978	2713
743.090	2688
743.203	3052
743.316	3770
743.428	3233
743.541	2328
743.653	2592
743.766	2634
743.878	2947
743.990	3754
744.103	4835
744.215	4668
744.327	3658
744.440	3854
744.552	4942
744.664	2397
744.777	3040
744.889	2420
745.001	2974
745.113	3167
745.226	2833
745.338	3299
745.450	2847
745.562	3276
745.674	2505
745.786	2734
745.898	3370
746.010	2965
746.122	2771
746.234	3032
746.347	3092
746.459	4107
746.570	3704
746.682	3828
746.794	6119
746.906	4028
747.018	3291
747.130	3146
747.242	3305
747.354	2661
747.466	3146
747.577	2390
747.689	2948
747.801	2606
747.913	2507
748.024	2654
748.136	2271
748.248	2982
748.359	3737
748.471	2085
748.583	2684
748.694	2601
748.806	3242
748.918	2887
749.029	2885
749.141	2931
749.252	3719
749.364	3549
749.475	4798
749.587	2714
749.698	3586
749.809	3159
749.921	2201
750.032	3254
750.144	1588
750.255	2597
750.366	2672
750.478	2397
750.589	2964
750.700	2750
750.811	2314
750.923	3145
751.034	4671
751.145	5031
751.256	3340
751.367	3318
751.479	3159
751.590	2464
751.701	2609
751.812	2309
751.923	3114
752.034	3166
752.145	2504
752.256	1772
752.367	2580
752.478	2575
752.589	3072
752.700	2847
752.811	2151
752.922	2002
753.032	2930
753.143	3305
753.254	2030
753.365	3382
753.476	3150
753.586	3286
753.697	3330
753.808	2804
753.919	2325
754.029	2207
754.140	2588
754.251	2529
754.361	2363
754.472	2410
754.582	2572
754.693	2703
754.804	2085
754.914	2618
755.025	1951
755.135	2332
755.246	2947
755.356	1745
755.466	3262
755.577	1847
755.687	3353
755.798	2359
755.908	2444
756.018	2577
756.129	2831
756.239	3427
756.349	2622
756.460	3190
756.570	3841
756.680	2635
756.790	3293
756.900	3447
757.011	2880
757.121	3207
757.231	2676
757.341	3025
757.451	2381
757.561	3116
757.671	3514
757.781	2433
757.891	4639
758.001	3073
758.111	3847
758.221	3574
758.331	2746
758.441	3463
758.551	4205
758.661	4284
758.771	3542
758.880	3346
758.990	4089
759.100	3704
759.210	3696
759.320	3747
759.429	3886
759.539	4229
759.649	3328
759.758	4600
759.868	4929
759.978	4059
760.087	4224
760.197	4361
760.307	5782
760.416	3654
760.526	4309
760.635	4592
760.745	5204
760.854	4695
760.964	5822
761.073	5719
761.182	5078
761.292	5032
761.401	5140
761.511	5011
761.620	5495
761.729	5145
761.839	5389
761.948	4672
762.057	4844
762.166	5879
762.276	4617
762.385	5814
762.494	5435
762.603	5463
762.712	5652
762.822	6685
762.931	6533
763.040	6215
763.149	6355
763.258	6405
763.367	7729
763.476	7870
763.585	7596
763.694	8691
763.803	9138
763.912	9314
764.021	9946
764.130	9912
764.238	10569
764.347	10610
764.456	12760
764.565	13749
764.674	14810
764.783	15625
764.891	16647
765.000	19115
765.109	21257
765.217	24487
765.326	29959
765.435	35624
765.543	44057
765.652	53869
765.761	70235
765.869	97786
765.978	143414
766.086	223521
766.195	375495
766.303	643989
766.412	865302
766.520	828117
766.629	614610
766.737	333483
766.846	200877
766.954	133753
767.062	95365
767.171	72060
767.279	55869
767.387	43234
767.496	37247
767.604	32269
767.712	26137
767.820	24540
767.928	22565
768.037	20939
768.145	20124
768.253	19622
768.361	18256
768.469	18081
768.577	18510
768.685	19560
768.793	20796
768.901	23105
769.009	25900
769.117	32334
769.225	40553
769.333	59300
769.441	90309
769.549	154228
769.657	297053
769.765	590514
769.873	759894
769.981	572823
770.088	266434
770.196	136398
770.304	87029
770.412	60891
770.519	45263
770.627	35280
770.735	29542
770.842	23960
770.950	20065
771.058	17337
771.165	15562
771.273	15376
771.380	13205
771.488	11921
771.595	11147
771.703	11297
771.810	10102
771.918	8988
772.025	9312
772.133	8848
772.240	8537
772.348	8007
772.455	8089
772.562	6741
772.670	6969
772.777	6982
772.884	6448
772.991	5672
773.099	6466
773.206	5550
773.313	6416
773.420	5726
773.528	6217
773.635	4856
773.742	6283
773.849	5432
773.956	4660
774.063	4531
774.170	4888
774.277	5574
774.384	4600
774.491	4351
774.598	3940
774.705	4774
774.812	3942
774.919	4475
775.026	4029
775.133	3352
775.239	4066
775.346	4010
775.453	4373
775.560	3645
775.667	4099
775.773	3893
775.880	3656
775.987	4203
776.093	3752
776.200	3710
776.307	3323
776.413	3967
776.520	3347
776.627	3663
776.733	3118
776.840	3072
776.946	5311
777.053	5453
777.159	9386
777.266	6230
777.372	8704
777.478	7623
777.585	4686
777.691	3372
777.798	3226
777.904	3868
778.010	3844
778.117	3905
778.223	2816
778.329	2167
778.435	2454
778.542	2943
778.648	1867
778.754	2754
778.860	3502
778.966	2293
779.072	2496
779.178	2118
779.284	2325
779.391	2144
779.497	3487
779.603	5646
779.708	7230
779.815	15722
779.920	54541
780.026	109521
780.132	21514
780.238	4499
780.344	3355
780.450	3954
780.556	3931
780.661	2812
780.767	3012
780.873	1866
780.979	2005
781.085	1967
781.190	2624
781.296	1585
781.402	2559
781.507	2079
781.613	1983
781.719	1989
781.824	1014
781.930	2076
782.035	2259
782.141	2254
782.246	1552
782.352	1264
782.457	2265
782.563	2211
782.668	1531
782.773	2029
782.879	1429
782.984	2038
783.090	2507
783.195	3034
783.300	2320
783.405	1754
783.511	1253
783.616	1849
783.721	2315
783.826	1454
783.932	1195
784.037	805
784.142	1210
784.247	1092
784.352	1853
784.457	1643
784.562	1711
784.667	1280
784.772	1432
784.877	1544
784.982	1814
785.087	1509
785.192	1435
785.297	1146
785.402	2007
785.507	926
785.611	2025
785.716	1926
785.821	2196
785.926	1396
786.031	1398
786.135	994
786.240	1339
786.345	699
786.450	1483
786.554	1626
786.659	1681
786.763	576
786.868	1208
786.973	1266
787.077	210
787.182	900
787.286	1059
787.391	1436
787.495	1256
787.600	1107
787.704	873
787.809	1592
787.913	1060
788.017	1160
788.122	1541
788.226	982
788.330	945
788.435	1415
788.539	1166
788.643	964
788.747	1780
788.852	1854
788.956	1265
789.060	1116
789.164	1173
789.268	436
789.372	1415
789.476	421
789.580	964
789.684	661
789.788	865
789.892	1201
789.996	1578
790.100	937
790.204	594
790.308	1190
790.412	982
790.516	1559
790.620	1250
790.724	1307
790.828	133
790.931	970
791.035	1752
791.139	1013
791.242	118
791.346	1523
791.450	946
791.554	396
791.657	530
791.761	1085
791.864	1933
791.968	469
792.072	1015
792.175	1084
792.279	648
792.382	485
792.486	1024
792.589	737
792.693	1464
792.796	424
792.899	2193
793.003	960
793.106	499
793.209	-15
793.313	1494
793.416	-163
793.519	1263
793.623	1874
793.726	984
793.829	2075
793.932	904
794.035	226
794.138	756
794.242	1680
794.345	2451
794.448	2714
794.551	8190
794.654	28867
794.757	59275
794.860	13550
794.963	2670
795.066	949
795.169	2107
795.272	221
795.375	536
795.477	335
795.580	901
795.683	451
795.786	567
795.889	-45
795.991	822
796.094	1181
796.197	-545
796.300	639
796.402	686
796.505	323
796.608	564
796.710	1063
796.813	143
796.915	531
797.018	414
797.120	1243
797.223	116
797.326	1253
797.428	186
797.530	-246
797.633	1102
797.735	965
797.838	711
797.940	1982
798.042	-207
798.145	191
798.247	926
798.349	23
798.452	573
798.554	370
798.656	-8
798.758	1497
798.860	1090
798.962	356
799.065	189
799.167	284
799.269	978
799.371	1923
799.473	1302
799.575	276
799.677	196
799.779	2185
799.881	874
799.983	1148
800.085	-94
800.187	959
800.289	145
800.390	569
800.492	1419
800.594	1419
800.696	783
800.798	593
800.899	478
801.001	447
801.103	455
801.205	123
801.306	93
801.408	209
801.509	983
801.611	1025
801.713	243
801.814	347
801.916	294
802.017	306
802.119	99
802.220	631
802.322	-436
802.423	1348
802.525	-386
802.626	790
802.727	213
802.829	977
802.930	-253
803.031	1503
803.133	122
803.234	105
803.335	739
803.436	-128
803.538	1085
803.639	-365
803.740	475
803.841	-209
803.942	703
804.043	761
804.144	282
804.245	-582
804.346	55
804.447	54
804.548	-203
804.649	684
804.750	-18
804.851	-11
804.952	256
805.053	500
805.154	-324
805.255	807
805.355	-470
805.456	297
805.557	159
805.658	-373
805.758	809
805.859	787
805.960	590
806.061	-239
806.161	129
806.262	-181
806.362	-242
806.463	-156
806.564	-243
806.664	-171
806.765	980
806.865	644
806.966	-639
807.066	-941
807.166	213
807.267	-513
807.367	544
807.468	294
807.568	-891
807.668	712
807.769	179
807.869	-56
807.969	327
808.069	589
808.170	394
808.270	63
808.370	833
808.470	82
808.570	-568
808.670	-534
808.770	365
808.870	-968
808.970	373
809.070	-378
809.170	-47
809.271	-334
809.370	-476
809.470	739
809.570	684
809.670	-1182
809.770	781
809.870	273
809.970	492
810.070	-20
810.169	470
810.269	-1673
810.369	217
810.469	417
810.568	-637
810.668	-773
810.768	-596
810.867	146
810.967	-562
811.066	7
811.166	676
811.265	594
811.365	-192
811.464	-174
811.564	567
811.663	383
811.763	-389
811.862	1069
811.962	791
812.061	-234
812.160	-385
812.260	158
812.359	1128
812.458	1386
812.557	4894
812.657	7000
812.756	2641
812.855	379
812.954	430
813.053	274
813.153	128
813.252	424
813.351	985
813.450	-111
813.549	80
813.648	1693
813.747	-300
813.846	236
813.945	-134
814.044	-45
814.143	293
814.242	78
814.341	-329
814.439	1012
814.538	1739
814.637	184
814.736	201
814.835	423
814.933	512
815.032	212
815.131	371
815.229	758
815.328	868
815.427	1025
815.525	946
815.624	954
815.722	679
815.821	1161
815.919	1110
816.018	875
816.116	1766
816.215	974
816.313	1178
816.412	1615
816.510	1871
816.609	2592
816.707	2294
816.805	2272
816.904	2366
817.002	2587
817.100	4103
817.198	3438
817.296	3373
817.395	4003
817.493	6219
817.591	5449
817.689	9603
817.787	12705
817.885	21029
817.983	35974
818.081	72029
818.179	159109
818.277	351168
818.375	348455
818.473	133516
818.571	53904
818.669	33464
818.767	26919
818.865	26134
818.963	30212
819.061	41369
819.158	69498
819.256	135008
819.354	276323
819.452	519067
819.549	421101
819.647	172666
819.745	73387
819.842	41165
819.940	27715
820.038	19961
820.135	15368
820.233	12413
820.330	8889
820.428	8075
820.525	7101
820.623	6240
820.720	4003
820.818	4704
820.915	4122
821.012	4493
821.110	2691
821.207	3321
821.304	2087
821.402	2483
821.499	3837
821.596	4098
821.693	3030
821.791	2202
821.888	2265
821.985	2145
822.082	1524
822.179	2243
822.276	2064
822.373	1521
822.470	1433
822.567	1580
822.664	289
822.761	1294
822.858	437
822.955	588
823.052	1217
823.149	287
823.246	850
823.343	448
823.440	991
823.536	453
823.633	863
823.730	-6
823.827	838
823.923	524
824.020	1568
824.117	318
824.213	471
824.310	1645
824.407	242
824.503	1022
824.600	603
824.696	-83
824.793	581
824.889	184
824.986	656
825.082	-384
825.179	686
825.275	433
825.371	-533
825.468	276
825.564	13
825.660	-314
825.757	778
825.853	436
825.949	766
826.045	616
826.142	27
826.238	-117
826.334	-38
826.430	-922
826.526	329
826.622	-58
826.718	-51
826.814	-420
826.910	630
827.006	550
827.102	-630
827.198	620
827.294	-279
827.390	870
827.486	430
827.582	-9
827.678	-837
827.774	452
827.869	-391
827.965	1182
828.061	-895
828.157	49
828.252	-72
828.348	-442
828.444	975
828.539	-518
828.635	-347
828.731	107
828.826	-734
828.922	618
829.017	-149
829.113	1114
829.208	129
829.304	-1163
829.399	854
829.495	-181
829.590	157
829.685	-881
829.781	-206
829.876	-393
829.971	-1187
830.066	-518
830.162	-566
830.257	-443
830.352	-207
830.447	830
830.543	497
830.638	-1119
830.733	614
830.828	-431
830.923	15
831.018	-1074
831.113	-515
831.208	-677
831.303	-436
831.398	-663
831.493	-177
831.588	493
831.683	-1377
831.778	-12
831.873	-484
831.967	-53
832.062	-1407
832.157	-1763
832.252	654
832.346	-621
832.441	-68
832.536	303
832.631	1433
832.725	435
832.820	-337
832.914	-791
833.009	-1313
833.104	-439
833.198	201
833.293	-747
833.387	-303
833.482	-479
833.576	-597
833.670	68
833.765	137
833.859	-392
833.954	-392
834.048	-481
834.142	-88
834.237	-850
834.331	-440
834.425	-785
834.519	-778
834.613	950
834.708	-1183
834.802	-574
834.896	-1393
834.990	-201
835.084	-433
835.178	-303
835.272	-423
835.366	-639
835.460	-123
835.554	-487
835.648	-379
835.742	-588
835.836	-755
835.930	-1284
836.024	-633
836.117	-317
836.211	-165
836.305	-505
836.399	230
836.493	-1152
836.586	41
836.680	-869
836.774	-619
836.867	557
836.961	-1412
837.055	-583
837.148	-962
837.242	-389
837.335	-383
837.429	-451
837.522	-691
837.616	67
837.709	569
837.803	-238
837.896	83
837.989	-772
838.083	54
838.176	491
838.269	-682
838.363	-347
838.456	-354
838.549	168
838.642	-493
838.735	1148
838.829	526
838.922	-1031
839.015	-1588
839.108	-1277
839.201	-728
839.294	-192
839.387	387
839.480	-810
839.573	-169
839.666	93
839.759	221
839.852	-1052
839.945	-309
840.038	-676
840.131	-657
840.223	-567
840.316	-3
840.409	-210
840.502	-1482
840.594	-459
840.687	-1571
840.780	-261
840.873	-1095
840.965	-1115
841.058	-215
841.150	40
841.243	-600
841.336	-129
841.428	-463
841.521	-1027
841.613	-1344
841.706	-655
841.798	-668
841.890	-160
841.983	-1217
842.075	30
842.167	-1300
842.260	-1105
842.352	290
842.444	44
842.537	96
842.629	1985
842.721	-416
842.813	-640
842.905	-1089
842.997	199
843.090	-965
843.182	-406
843.274	-552
843.366	2219
843.458	3616
843.550	2798
843.642	-322
843.734	-115
843.826	-1084
843.918	-391
844.009	-309
844.101	-713
844.193	-1037
844.285	-1015
844.377	-181
844.469	445
844.560	330
844.652	458
844.744	371
844.835	-221
844.927	-327
845.019	-924
845.110	-984
845.202	-70
845.293	-558
845.385	-835
845.476	-965
845.568	7
845.659	-920
845.751	-482
845.842	17
845.934	-918
846.025	-229
846.116	-508
846.208	-481
846.299	-959
846.390	-159
846.482	-909
846.573	-158
846.664	-22
846.755	-763
846.846	204
846.937	-1990
847.029	-1238
847.120	-66
847.211	-312
847.302	547
847.393	-1476
847.484	326
847.575	238
847.666	-764
847.757	-604
847.847	-1419
847.938	-547
848.029	-594
848.120	-104
848.211	-796
848.302	-985
848.392	-1090
848.483	61
848.574	-970
848.664	-1008
848.755	-763
848.846	-751
848.936	-1761
849.027	-488
849.118	-239
849.208	-555
849.299	-58
849.389	1043
849.480	2003
849.570	5496
849.661	10091
849.751	19033
849.841	9064
849.932	290
850.022	-987
850.112	-440
850.203	-436
850.293	-794
850.383	-879
850.474	-1152
850.564	-1044
850.654	-557
850.744	-1125
850.834	-612
850.924	-494
851.014	-832
851.104	-601
851.194	-819
851.284	-417
851.374	-823
851.464	-1
851.554	-415
851.644	-919
851.734	673
851.824	325
851.914	700
852.004	2277
852.094	1983
852.183	-287
852.273	198
852.363	-1352
852.452	-909
852.542	-407
852.632	-1295
852.721	-226
852.811	-1777
852.901	-232
852.990	-222
853.080	-512
853.169	-378
853.259	56
853.348	-767
853.438	47
853.527	205
853.617	945
853.706	3005
853.795	8245
853.885	17394
853.974	35105
854.063	62313
854.152	106982
854.242	52248
854.331	8632
854.420	2563
854.509	1124
854.598	1386
854.687	-230
854.777	783
854.866	-768
854.955	-375
855.044	-1380
855.133	65
855.222	-629
855.311	-548
855.400	-678
855.488	-632
855.577	-335
855.666	-587
855.755	161
855.844	470
855.933	-73
856.021	-69
856.110	451
856.199	-682
856.288	-944
856.376	-894
856.465	-1093
856.554	-833
856.642	-1296
856.731	-302
856.819	-715
856.908	-638
856.996	-808
857.085	-922
857.173	-369
857.262	-507
857.350	-534
857.438	-440
857.527	2
857.615	-560
857.703	-402
857.792	-718
857.880	-601
857.968	-603
858.056	-696
858.145	-1218
858.233	-1072
858.321	-840
858.409	20
858.497	-686
858.585	-1183
858.673	-206
858.761	-1319
858.849	-713
858.937	-823
859.025	-448
859.113	-224
859.201	-356
859.289	-273
859.377	-624
859.465	-860
859.552	-1151
859.640	-887
859.728	-369
859.816	-698
859.903	-680
859.991	-1631
860.079	-636
860.166	-862
860.254	-677
860.342	-753
860.429	-1317
860.517	-896
860.604	27
860.692	-1182
860.779	-851
860.867	-1220
860.954	-748
861.042	-290
861.129	-348
861.216	-1178
861.304	-1099
861.391	-649
861.478	-1141
861.565	-406
861.653	226
861.740	-1416
861.827	-818
861.914	-485
862.001	-765
862.089	-1167
862.176	-487
862.263	-1494
862.350	-48
862.437	-632
862.524	-1563
862.611	-198
862.698	102
862.785	-812
862.871	-165
862.958	-1038
863.045	-839
863.132	-429
863.219	130
863.306	-600
863.392	-402
863.479	-842
863.566	-1018
863.652	68
863.739	-773
863.826	-936
863.912	-1044
863.999	-1812
864.086	-895
864.172	-1584
864.259	-966
864.345	-716
864.432	-602
864.518	-1005
864.604	-857
864.691	-590
864.777	-762
864.863	-897
864.950	182
865.036	-441
865.122	1051
865.209	128
865.295	-100
865.381	535
865.467	-95
865.553	1253
865.639	1520
865.726	3269
865.812	8295
865.898	16894
865.984	25182
866.070	45985
866.156	61125
866.242	20916
866.328	3393
866.414	134
866.499	830
866.585	981
866.671	410
866.757	569
866.843	277
866.928	-334
867.014	-297
867.100	59
867.186	-342
867.271	67
867.357	-194
867.442	-306
867.528	-152
867.614	-275
867.699	-649
867.785	473
867.870	-1054
867.956	1335
868.041	204
868.127	-511
868.212	905
868.297	128
868.383	581
868.468	231
868.553	1155
868.639	304
868.724	2147
868.809	1803
868.894	57
868.979	467
869.065	703
869.150	-801
869.235	-674
869.320	-619
869.405	-490
869.490	-1526
869.575	-534
869.660	-750
869.745	-780
869.830	-213
869.915	-340
870.000	204
870.085	-1195
870.169	-65
870.254	-911
870.339	-1753
870.424	-1556
870.509	-578
870.593	-917
870.678	-269
870.763	-808
870.847	-533
870.932	-551
871.016	-271
871.101	-786
871.186	-851
871.270	-1340
871.355	-987
871.439	-296
871.523	-251
871.608	-421
871.692	-756
871.777	-249
871.861	-195
871.945	-457
872.030	-566
872.114	-1040
872.198	-759
872.282	-724
872.367	208
872.451	-767
872.535	-352
872.619	-1005
872.703	-1045
872.787	-525
872.871	-602
872.955	-536
873.039	-389
873.123	-1350
873.207	-862
873.291	-226
873.375	-1378
873.459	-669
873.543	-471
873.627	-829
873.711	-683
873.794	-176
873.878	-1024
873.962	-600
874.045	-1525
874.129	-725
874.137	-748
874.213	-975
874.245	-943
874.296	-890
874.352	-635
874.380	-515
874.460	-535
874.464	-536
874.547	-656
874.568	-679
874.631	-771
874.676	-704
874.714	-639
874.784	-414
874.798	-376
874.881	292
874.892	207
874.965	-309
874.999	-497
875.048	-796
875.107	-329
875.131	-136
875.215	-461
875.215	-461
875.298	-462
875.323	-404
875.381	-215
875.430	-251
875.465	-299
875.538	-120
875.548	-98
875.631	-1118
875.646	-1003
875.714	-444
875.753	-523
875.798	-574
875.861	-236
875.881	-145
875.964	-262
875.968	-272
876.047	-503
876.076	-394
876.130	-45
876.183	-427
876.213	-723
876.291	209
876.296	274
876.379	-113
876.398	-51
876.462	187
876.506	-15
876.545	-201
876.613	-149
876.628	-104
876.711	55
876.721	143
876.794	589
876.828	-90
876.877	-969
876.935	-316
876.960	-68
877.043	72
877.043	72
877.125	275
877.150	98
877.208	-267
877.258	-272
877.291	-215
877.365	-163
877.374	-182
877.456	-739
877.472	-729
877.539	-443
877.579	-241
877.622	-60
877.687	430
877.704	535
877.787	114
877.794	72
877.869	-485
877.901	-63
877.952	795
878.008	293
878.034	23
878.115	-208
878.117	-210
878.199	-274
878.222	-122
878.282	370
878.329	547
878.364	565
878.437	540
878.447	536
878.529	-166
878.544	-182
878.611	-120
878.651	-174
878.694	-198
878.758	48
878.776	72
878.858	-64
878.865	-87
878.941	-198
878.972	-24
879.023	301
879.078	-205
879.105	-397
879.185	65
879.187	76
879.269	379
879.292	237
879.351	-326
879.399	-123
879.433	204
879.506	272
879.516	276
879.598	621
879.613	529
879.680	-8
879.720	48
879.762	122
879.827	-95
879.844	-100
879.926	851
879.933	871
880.007	782
880.040	542
880.089	401
880.147	519
880.171	569
880.253	1456
880.254	1451
880.335	1256
880.360	1500
880.417	2369
880.467	3364
880.499	4261
880.574	6032
880.580	5974
880.662	2752
880.680	2172
880.744	677
880.787	285
880.825	336
880.893	383
880.907	417
880.989	800
881.000	744
881.070	270
881.106	433
881.152	520
881.213	227
881.233	308
881.315	734
881.319	766
881.396	1025
881.426	862
881.478	398
881.532	367
881.559	596
881.639	1117
881.641	1117
881.722	538
881.745	442
881.803	670
881.852	643
881.885	562
881.958	1128
881.966	1184
882.047	1052
882.064	973
882.129	797
882.171	907
882.210	1029
882.277	1303
882.291	1406
882.372	1469
882.383	1431
882.454	587
882.489	609
882.535	974
882.596	1085
882.616	1155
882.697	1369
882.702	1374
882.778	1228
882.808	1154
882.859	1076
882.914	944
882.940	919
883.020	1054
883.021	1066
883.102	1240
883.127	1431
883.183	1365
883.233	1076
883.264	1061
883.339	1252
883.345	1265
883.426	922
883.445	961
883.507	1690
883.551	2120
883.587	1870
883.657	1146
883.668	1162
883.749	1366
883.763	1336
883.830	827
883.869	709
883.910	947
883.975	1220
883.991	1171
884.072	1159
884.081	1131
884.152	1432
884.187	1387
884.233	1170
884.292	1302
884.314	1333
884.394	952
884.398	942
884.475	1128
884.504	1144
884.555	1442
884.610	1667
884.636	1455
884.716	944
884.716	959
884.797	2039
884.821	2314
884.877	1730
884.927	1230
884.958	1235
885.033	1201
885.038	1213
885.118	1376
885.139	1352
885.199	1021
885.244	823
885.279	1012
885.350	1684
885.359	1796
885.439	2203
885.456	2296
885.520	1961
885.561	1901
885.600	1896
885.667	1553
885.680	1556
885.760	1634
885.773	1623
885.840	1549
885.878	1551
885.920	1557
885.984	1473
886.000	1542
886.080	2143
886.089	2148
886.160	1642
886.195	1472
886.240	1870
886.300	2368
886.320	2286
886.400	1812
886.406	1780
886.480	2124
886.511	2278
886.560	2096
886.616	1690
886.640	1777
886.720	2218
886.722	2213
886.800	2038
886.827	2006
886.879	2070
886.932	2227
886.959	2351
887.038	2609
887.039	2622
887.119	2671
887.143	2669
887.198	2241
887.248	1825
887.278	2019
887.354	2566
887.358	2542
887.437	1619
887.459	1403
887.517	2421
887.564	3237
887.596	3012
887.669	2385
887.676	2396
887.755	2435
887.774	2429
887.835	1919
887.880	1501
887.914	1780
887.985	2339
887.994	2289
888.073	1656
888.090	1541
888.153	2318
888.195	2820
888.232	2574
888.300	2014
888.311	2046
888.391	2215
888.405	2249
888.470	2171
888.510	2009
888.549	2182
888.615	2609
888.628	2631
888.708	2591
888.720	2574
888.787	2693
888.825	2741
888.866	2528
888.930	2190
888.945	2345
889.024	3093
889.035	3177
889.103	2741
889.140	2489
889.182	2490
889.245	2500
889.261	2680
889.340	3460
889.349	3535
889.419	2998
889.454	2723
889.498	2647
889.559	2512
889.577	2654
889.656	3238
889.664	3286
889.735	3248
889.768	3211
889.814	3355
889.873	3521
889.978	2420
890.083	3502
890.187	3241
890.292	3585
890.397	2391
890.501	3088
890.606	2386
890.710	3344
890.815	2613
890.919	3327
891.024	3216
891.128	3037
891.233	2429
891.337	3314
891.442	2471
891.546	2928
891.650	1952
891.755	2975
891.859	3297
891.963	2735
892.068	2959
892.172	3187
892.276	1070
892.380	3094
892.484	1851
892.589	3517
892.693	2420
892.797	2513
892.901	2982
893.005	2331
893.109	3618
893.213	3359
893.317	3247
893.421	2282
893.525	2209
893.629	2660
893.733	2453
893.837	3011
893.941	3367
894.045	4374
894.148	5520
894.252	13037
894.356	9555
894.460	3682
894.564	3206
894.667	3043
894.771	1839
894.875	1755
894.978	2263
895.082	2722
895.186	2890
895.289	2697
895.393	2666
895.496	2649
895.600	1689
895.703	1804
895.807	1551
895.910	2913
896.014	2924
896.117	3054
896.221	1620
896.324	2609
896.427	2078
896.531	2758
896.634	2162
896.737	2706
896.840	2750
896.944	2698
897.047	2420
897.150	3099
897.253	2437
897.356	1855
897.460	1754
897.563	2562
897.666	2911
897.769	3095
897.872	2305
897.975	2236
898.078	2581
898.181	2414
898.284	2729
898.387	3069
898.490	2302
898.593	2249
898.695	2657
898.798	2912
898.901	1410
899.004	2304
899.107	2531
899.209	2136
899.312	1665
899.415	2205
899.518	1226
899.620	2047
899.723	2256
899.826	2745
899.928	3467
900.031	2903
900.133	2196
900.236	1265
900.338	1815
900.441	1973
900.543	1368
900.646	1944
900.748	2121
900.851	2344
900.953	1665
901.055	2502
901.158	1464
901.260	3335
901.362	1612
901.465	2382
901.567	2658
901.669	2174
901.771	2555
901.873	2386
901.976	2286
902.078	1991
902.180	847
902.282	2657
902.384	2602
902.486	3056
902.588	2069
902.690	2421
902.792	1786
902.894	2413
902.996	2459
903.098	2854
903.200	1916
903.302	2285
903.404	1555
903.505	1426
903.607	2267
903.709	2626
903.811	2508
903.913	2312
904.014	2194
904.116	1712
904.218	1611
904.319	2874
904.421	1980
904.523	2479
904.624	1706
904.726	2305
904.827	1737
904.929	1613
905.030	1261
905.132	2242
905.233	2235
905.335	1674
905.436	1300
905.537	1664
905.639	1392
905.740	1410
905.841	2491
905.943	2151
906.044	2149
906.145	2443
906.247	1819
906.348	1146
906.449	874
906.550	2198
906.651	1965
906.752	2212
906.854	1781
906.955	1609
907.056	2259
907.157	2183
907.258	1511
907.359	1839
907.460	1331
907.561	2529
907.662	1911
907.762	1813
907.863	1909
907.964	2018
908.065	1878
908.166	1229
908.267	2148
908.367	1926
908.468	1357
908.569	2007
908.670	2698
908.770	1969
908.871	2586
908.971	2172
909.072	2390
909.173	1304
909.273	1922
909.374	1808
909.474	1729
909.575	1602
909.675	1521
909.776	2880
909.876	1629
909.977	2450
910.077	2133
910.177	2509
910.278	1574
910.378	2386
910.478	1487
910.579	1866
910.679	1655
910.779	1977
910.879	2187
910.980	2046
911.080	1814
911.180	1302
911.280	1702
911.380	1576
911.480	2021
911.580	1580
911.680	1196
911.780	2260
911.880	2244
911.980	2919
912.080	1800
912.180	2773
912.280	1528
912.380	2240
912.480	881
912.580	1859
912.679	1455
912.779	2426
912.879	1456
912.979	1510
913.078	1742
913.178	1815
913.278	1112
913.377	1499
913.477	1293
913.577	1818
913.676	1146
913.776	2008
913.875	1847
913.975	2627
914.074	1921
914.174	2613
914.273	1747
914.373	2071
914.472	1908
914.572	1840
914.671	1077
914.770	1859
914.870	1364
914.969	2155
915.068	1606
915.167	2227
915.267	1315
915.366	2299
915.465	1585
915.564	1511
915.663	1533
915.763	1542
915.862	1784
915.961	2267
916.060	442
916.159	2141
916.258	1354
916.357	1752
916.456	2317
916.555	1840
916.654	1794
916.752	2231
916.851	1559
916.950	1497
917.049	1691
917.148	1842
917.247	1936
917.345	1555
917.444	1009
917.543	1677
917.642	919
917.740	1962
917.839	1361
917.937	1607
918.036	1650
918.135	1306
918.233	775
918.332	1857
918.430	1578
918.529	2094
918.627	1563
918.726	2056
918.824	1931
918.923	972
919.021	1308
919.119	1685
919.218	765
919.316	1469
919.414	786
919.512	2302
919.611	2052
919.709	1585
919.807	1641
919.905	2545
920.003	1701
920.102	1550
920.200	1269
920.298	1671
920.396	1667
920.494	2169
920.592	2079
920.690	2743
920.788	1721
920.886	2270
920.984	1966
921.082	1851
921.180	1797
921.277	2208
921.375	1930
921.473	2525
921.571	2166
921.669	2471
921.766	2532
921.864	2615
921.962	2062
922.060	2757
922.157	2059
922.255	2841
922.352	2989
922.450	3360
922.548	2538
922.645	2886
922.743	2919
922.840	4646
922.938	4673
923.035	4927
923.133	4488
923.230	4894
923.327	4950
923.425	5618
923.522	4928
923.619	4728
923.717	3551
923.814	5261
923.911	4724
924.008	5895
924.106	4850
924.203	4859
924.300	4375
924.397	5797
924.494	4965
924.591	3799
924.688	4682
924.786	4579
924.883	4252
924.979	4622
925.077	3736
925.173	4752
925.270	4649
925.367	4343
925.464	4480
925.561	5024
925.658	4803
925.755	4396
925.852	4982
925.948	4943
926.045	4791
926.142	4800
926.239	4312
926.335	4983
926.432	4647
926.529	4977
926.625	5273
926.722	4582
926.818	4134
926.915	4732
927.011	4310
927.108	3518
927.204	3750
927.301	3832
927.397	4168
927.494	4135
927.590	3023
927.687	3653
927.783	4377
927.879	3728
927.976	3593
928.072	3928
928.168	4256
928.264	5306
928.361	3932
928.457	3230
928.553	3544
928.649	3547
928.745	3521
928.841	3235
928.937	3398
929.033	4087
929.129	4411
929.225	3698
929.321	3237
929.417	2942
929.513	4443
929.609	4043
929.705	2658
929.801	3799
929.897	3041
929.993	4233
930.089	3911
930.184	3333
930.280	4127
930.376	4805
930.471	3013
930.567	3970
930.663	2707
930.758	2831
930.854	3544
930.950	2905
931.045	3262
931.141	3774
931.236	3573
931.332	3452
931.427	3289
931.523	4019
931.618	3260
931.714	2898
931.809	3149
931.905	3236
932.000	2993
932.095	2501
932.191	3865
932.286	4264
932.381	2637
932.476	3372
932.572	3311
932.667	3687
932.762	2995
932.857	3450
932.952	3001
933.047	3470
933.142	2592
933.237	2534
933.332	3433
933.427	3640
933.522	2536
933.617	3500
933.712	3469
933.807	3865
933.902	3043
933.997	3272
934.092	2006
934.187	3134
934.282	2238
934.376	3589
934.471	3349
934.566	2811
934.661	2772
934.755	3148
934.850	3686
934.945	3011
935.039	2911
935.134	2349
935.228	2659
935.323	3807
935.417	2884
935.512	2720
935.606	2397
935.701	3413
935.795	2162
935.890	3099
935.984	2474
936.079	2479
936.173	2282
936.267	3273
936.362	2259
936.456	3061
936.550	3230
936.644	3245
936.738	2046
936.833	2573
936.927	2230
937.021	2609
937.115	2396
937.209	2025
937.303	3371
937.397	2660
937.491	2490
937.585	3261
937.679	2569
937.773	2313
937.867	2229
937.961	2138
938.055	3356
938.149	3695
938.243	2418
938.337	1755
938.430	1711
938.524	2405
938.618	2542
938.712	3590
938.805	2826
938.899	2619
938.993	3818
939.086	2661
939.180	2658
939.274	4029
939.367	3567
939.461	3008
939.554	2762
939.648	2066
939.741	1520
939.835	2547
939.928	2587
940.022	2607
940.115	2158
940.208	3200
940.302	3125
940.395	3269
940.488	1525
940.582	2331
940.675	1878
940.768	1969
940.861	2494
940.954	3287
941.048	1727
941.141	1591
941.234	2332
941.327	2683
941.420	2483
941.513	3050
941.606	1990
941.699	2423
941.792	2623
941.885	2415
941.978	1730
942.071	2267
942.164	1694
942.257	1795
942.349	1815
942.442	2551
942.535	2066
942.628	2454
942.721	1758
942.813	2000
942.906	2258
942.999	2675
943.091	1927
943.184	2007
943.277	1512
943.369	2416
943.462	1797
943.554	1920
943.647	2078
943.739	2164
943.832	1770
943.924	1609
944.017	1574
944.109	1754
944.201	1908
944.294	1969
944.386	1709
944.478	2149
944.571	1732
944.663	1359
944.755	1552
944.847	1992
944.940	1631
945.032	1703
945.124	1278
945.216	2481
945.308	1900
945.400	1769
945.492	1587
945.584	2770
945.676	1483
945.768	2697
945.860	1857
945.952	2121
946.044	1745
946.136	1254
946.228	1480
946.320	1969
946.412	1584
946.503	1891
946.595	2468
946.687	1506
946.779	1796
946.870	1684
946.962	1657
947.054	2313
947.145	1967
947.237	1684
947.329	1736
947.420	2763
947.512	1419
947.603	2286
947.695	1709
947.786	1604
947.878	920
947.969	2298
948.061	1585
948.152	2021
948.243	1296
948.335	1998
948.426	405
948.517	1303
948.609	1932
948.700	1982
948.791	1476
948.882	1760
948.973	1240
949.065	1375
949.156	932
949.247	1173
949.338	1444
949.429	1384
949.520	1292
949.611	1536
949.702	2223
949.793	1713
949.884	1577
949.975	1265
950.066	656
950.157	1571
950.247	1803
950.338	1221
950.429	1063
950.520	2145
950.611	703
950.701	1555
950.792	1594
950.883	1820
950.973	575
951.064	1333
951.155	1473
951.245	2179
951.336	1316
951.427	1936
951.517	1744
951.608	1162
951.698	894
951.788	863
951.879	1164
951.969	1060
952.060	964
952.150	2132
952.240	2213
952.331	779
952.421	1711
952.511	1254
952.602	1367
952.692	1388
952.782	898
952.872	879
952.962	753
953.052	1703
953.143	574
953.233	1494
953.323	996
953.413	767
953.503	1492
953.593	1808
953.683	811
953.773	1057
953.863	931
953.953	958
954.042	1044
954.132	870
954.222	1944
954.312	2343
954.402	1836
954.492	1445
954.581	1845
954.671	1767
954.761	1367
954.850	1844
954.940	1282
955.030	1037
955.119	620
955.209	1579
955.298	1548
955.388	715
955.477	1541
955.567	1410
955.656	617
955.746	1141
955.835	1008
955.925	1417
956.014	1588
956.103	1739
956.193	1689
956.282	1771
956.371	1787
956.461	1441
956.550	1311
956.639	1817
956.728	1049
956.817	1923
956.906	340
956.995	1610
957.085	669
957.174	1973
957.263	1876
957.352	1277
957.441	1311
957.530	1920
957.619	1749
957.708	1684
957.796	527
957.885	2270
957.974	1532
958.063	1699
958.152	1011
958.241	1803
958.329	113
958.418	2066
958.507	1477
958.596	2316
958.684	1231
958.773	2626
958.861	1486
958.950	1503
959.039	2441
959.127	1727
959.216	1939
959.304	2516
959.393	2495
959.481	2788
959.570	1557
959.658	2369
959.746	1542
959.835	2423
959.923	2795
960.011	2124
960.100	2042
960.188	2623
960.276	1473
960.365	1745
960.453	1705
960.541	1645
960.629	1484
960.717	1003
960.805	879
960.893	1232
960.981	1112
961.069	2401
961.158	1377
961.245	1767
961.333	1565
961.421	1465
961.509	1398
961.597	1162
961.685	793
961.773	1832
961.861	1541
961.949	1504
962.036	916
962.124	1528
962.212	1084
962.299	621
962.387	805
962.475	1854
962.562	-116
962.650	1230
962.738	1007
962.825	980
962.913	1008
963.000	1684
963.088	1306
963.175	1397
963.263	727
963.350	430
963.438	1076
963.525	809
963.612	1657
963.700	3436
963.787	5760
963.874	3865
963.962	1145
964.049	1647
964.136	423
964.223	351
964.310	1176
964.398	1094
964.485	1310
964.572	1433
964.659	1698
964.746	1874
964.833	811
964.920	911
965.007	497
965.094	1441
965.181	152
965.268	842
965.355	922
965.441	658
965.528	116
965.615	2054
965.702	718
965.789	1042
965.875	906
965.962	1339
966.049	737
966.136	1010
966.222	1062
966.309	1421
966.395	830
966.482	1557
966.569	659
966.655	304
966.742	299
966.828	1101
966.915	166
967.001	1194
967.087	214
967.174	1051
967.260	1418
967.347	1512
967.433	2073
967.519	4298
967.605	1605
967.692	832
967.778	545
967.864	1159
967.950	492
968.036	418
968.123	348
968.209	1184
968.295	-167
968.381	1675
968.467	651
968.553	686
968.639	1007
968.725	340
968.811	1531
968.897	1095
968.983	384
969.069	951
969.154	813
969.240	650
969.326	773
969.412	-302
969.497	84
969.583	-397
969.669	1134
969.755	1182
969.840	633
969.926	1297
970.012	978
970.097	1920
970.183	1562
970.268	847
970.354	1604
970.439	1273
970.525	2523
970.610	703
970.696	542
970.781	294
970.866	561
970.952	1496
971.037	-63
971.122	772
971.208	1091
971.293	969
971.378	169
971.463	554
971.549	431
971.634	534
971.719	-309
971.804	627
971.889	719
971.974	607
972.059	368
972.144	1153
972.229	727
972.314	469
972.399	31
972.484	271
972.569	638
972.654	205
972.739	1119
972.824	1618
972.908	1362
972.993	-159
973.078	394
973.163	874
973.247	-244
973.332	-881
973.417	1141
973.501	-69
973.586	-30
973.671	210
973.755	142
973.840	1378
973.924	1032
974.009	436
974.093	53
974.178	979
974.262	923
974.346	476
974.431	690
974.515	332
974.600	929
974.684	1208
974.768	-50
974.852	1260
974.937	83
975.021	924
975.105	456
975.189	403
975.273	512
975.358	-131
975.442	-572
975.526	745
975.610	-80
975.694	-176
975.778	629
975.862	470
975.946	-158
976.030	1249
976.114	64
976.198	653
976.281	-150
976.365	941
976.449	-140
976.533	1066
976.617	-719
976.700	85
976.784	576
976.868	980
976.951	455
977.035	974
977.119	-293
977.202	751
977.286	346
977.369	381
977.453	480
977.536	734
977.620	499
977.703	1056
977.787	-133
977.870	1428
977.953	1159
978.037	-37
978.120	714
978.203	969
978.287	960
978.370	896
978.453	187
978.536	509
978.620	735
978.703	741
978.786	643
978.869	362
978.952	424
979.035	1070
979.118	451
979.201	350
979.284	-126
979.367	-200
979.450	-125
979.533	-118
979.616	-250
979.699	-941
979.782	-186
979.865	750
979.948	17
980.030	-1258
980.113	-324
980.196	-178
980.279	-85
980.361	151
980.444	502
980.526	878
980.609	867
980.692	27
980.774	872
980.857	-649
980.939	522
981.022	504
981.104	-643
981.187	31
981.269	490
981.352	230
981.434	-487
981.516	334
981.599	439
981.681	248
981.763	815
981.846	398
981.928	-825
982.010	219
982.092	-846
982.174	1171
982.256	673
982.339	-93
982.421	703
982.503	1003
982.585	-351
982.667	600
982.749	-570
982.831	582
982.913	-277
982.995	533
983.077	247
983.158	1413
983.240	-779
983.322	1172
983.404	1578
983.486	-533
983.568	672
983.649	1009
983.731	428
983.813	16
983.894	-651
983.976	400
984.058	-321
984.139	587
984.221	-13
984.302	776
984.384	953
984.465	-459
984.547	420
984.628	-179
984.710	-56
984.791	109
984.872	-236
984.954	800
985.035	-119
985.116	-369
985.198	-224
985.279	936
985.360	-593
985.441	247
985.522	-34
985.604	-34
985.685	-1471
985.766	294
985.847	658
985.928	328
986.009	8
986.090	117
986.171	-231
986.252	74
986.333	649
986.414	118
986.495	116
986.576	245
986.656	-60
986.737	1108
986.818	27
986.899	297
986.980	-305
987.060	605
987.141	-275
987.222	171
987.302	239
987.383	711
987.464	-317
987.544	776
987.625	337
987.705	1533
987.786	-335
987.866	-53
987.947	-444
988.027	282
988.108	-715
988.188	739
988.268	269
988.349	142
988.429	-137
988.509	536
988.589	-247
988.670	-287
988.750	716
988.830	-574
988.910	-143
988.990	-186
989.070	-53
989.151	82
989.231	-777
989.311	1117
989.391	205
989.471	680
989.551	-140
989.631	506
989.711	128
989.791	27
989.870	-533
989.950	989
990.030	-428
990.110	-237
990.190	-583
990.269	-371
990.349	-200
990.429	104
990.509	151
990.588	-415
990.668	-89
990.747	-548
990.827	-1056
990.907	875
990.986	-334
991.066	-532
991.145	-586
991.225	159
991.304	-230
991.383	55
991.463	127
991.542	751
991.622	-640
991.701	-613
991.780	108
991.859	-80
991.939	-497
992.018	47
992.097	670
992.176	-255
992.256	13
992.335	-965
992.414	-104
992.493	-11
992.572	-1170
992.651	420
992.730	-325
992.809	-250
992.888	-316
992.967	523
993.046	-273
993.125	-91
993.203	-695
993.282	381
993.361	34
993.440	132
993.519	-1434
993.597	-262
993.676	-545
993.755	-445
993.834	-403
993.912	-950
993.991	111
994.069	-83
994.148	-1290
994.226	-678
994.305	-126
994.384	-850
994.462	-239
994.540	-1024
994.619	-849
994.697	240
994.776	-540
994.854	-111
994.932	-1397
995.011	-562
995.089	-1378
995.167	-213
995.245	-634
995.324	-1638
995.402	-422
995.480	-17
995.558	-784
995.636	-1739
995.714	-1505
995.792	-658
995.870	-1403
995.948	-769
996.026	-1050
996.104	-1178
996.182	-1806
996.260	-712
996.338	480
996.416	-1135
996.494	-1191
996.572	234
996.649	-1318
996.727	-704
996.805	-532
996.883	-578
996.960	-1403
997.038	-676
997.116	-834
997.193	-587
997.271	337
997.348	-889
997.426	-479
997.504	-1004
997.581	-515
997.658	-388
997.736	-1401
997.813	-865
997.891	22
997.968	-378
998.046	-269
998.123	-97
998.200	-352
998.277	-568
998.355	-460
998.432	-1069
998.509	-585
998.586	-226
998.663	-526
998.741	-602
998.818	-1447
998.895	-1856
998.972	-290
999.049	-489
999.126	-1573
999.203	-627
999.280	-1295
999.357	-987
999.434	-1034
999.511	-658
999.587	73
999.664	-1079
999.741	-343
999.818	-387
999.895	-993
999.971	-623
1000.048	-1212
1000.125	-101
1000.202	-938
1000.278	-792
1000.355	-516
1000.431	-1249
1000.508	-1842
1000.584	-414
1000.661	-561
1000.738	-1098
1000.814	-794
1000.890	485
1000.967	-773
1001.043	-922
1001.120	-1580
1001.196	-1143
1001.272	-2005
1001.349	-1059
1001.425	-666
1001.501	-1282
1001.577	-1335
1001.654	-158
1001.730	-1120
1001.806	-1170
1001.882	-2080
1001.958	-160
1002.034	-1292
1002.110	-879
1002.186	-1201
1002.262	-920
1002.338	-1845
1002.414	164
1002.490	-763
1002.566	-1194
1002.642	-1492
1002.718	-284
1002.794	-1328
1002.870	-228
1002.945	-970
1003.021	-1347
1003.097	-1364
1003.173	-547
1003.248	-1627
1003.324	28
1003.400	-891
1003.475	-1351
1003.551	-785
1003.626	-794
1003.702	-1079
1003.777	-559
1003.853	-1128
1003.928	-988
1004.004	-1391
1004.079	95
1004.155	-1198
1004.230	-1379
1004.305	-1081
1004.381	-691
1004.456	-1141
1004.531	-1844
1004.607	-827
1004.682	-947
1004.757	-1227
1004.832	-525
1004.907	-1059
1004.982	-518
1005.057	-889
1005.133	-984
1005.208	-1338
1005.283	-579
1005.358	-1019
1005.433	-2118
1005.508	-1151
1005.583	-639
1005.657	-1377
1005.732	-259
1005.807	-1003
1005.882	-1054
1005.957	-1097
1006.032	-1173
1006.106	-1175
1006.181	-437
1006.256	-655
1006.331	-1086
1006.405	-1676
1006.480	-426
1006.554	-807
1006.629	-1199
1006.704	-1489
1006.778	-1017
1006.853	-1137
1006.927	-1022
1007.002	-1474
1007.076	-1176
1007.150	-637
1007.225	-1208
1007.299	-916
1007.373	-1814
1007.448	-1489
1007.522	-1031
1007.596	-1785
1007.671	-1050
1007.745	-1918
1007.819	-1042
1007.893	-991
1007.967	-515
1008.041	-1638
1008.115	-385
1008.190	-1358
1008.264	-333
1008.338	-1958
1008.412	-1072
1008.486	-1205
1008.560	-973
1008.633	-1442
1008.707	-1209
1008.781	-832
1008.855	-1424
1008.929	-959
1009.003	-807
1009.076	-1676
1009.150	-1407
1009.224	-778
1009.298	-301
1009.371	-1186
1009.445	-973
1009.519	-2338
1009.592	-671
1009.666	-1093
1009.739	-634
1009.813	-688
1009.886	-715
1009.960	-1434
1010.033	-1054
1010.107	-527
1010.180	-2401
1010.253	-755
1010.327	-1460
1010.400	-1722
1010.473	-828
1010.547	-195
1010.620	-891
1010.693	-977
1010.766	-1206
1010.840	-480
1010.913	-1113
1010.986	-1988
1011.059	-803
1011.132	-1618
1011.205	-459
1011.278	-1301
1011.351	-778
1011.424	-1294
1011.497	-928
1011.570	-1261
1011.643	-798
1011.716	-1635
1011.789	-805
1011.862	-1124
1011.934	-931
1012.007	-2222
1012.080	-687
1012.153	-1298
1012.225	-321
1012.298	-2178
1012.371	-1365
1012.443	-1146
1012.516	-1366
1012.588	-1933
1012.661	-1709
1012.733	-1780
1012.806	-9
1012.879	-1719
1012.951	-762
1013.023	-1784
1013.096	-549
1013.168	-1166
1013.241	-888
1013.313	-1296
1013.385	-1598
1013.458	-1603
1013.530	-824
1013.602	-3122
1013.674	-653
1013.746	-1596
1013.819	-1325
1013.891	-642
1013.963	-1033
1014.035	-1140
1014.107	-1536
1014.179	-857
1014.251	-1803
1014.323	-859
1014.395	-918
1014.467	-1797
1014.539	-1190
1014.611	-2076
1014.683	-368
1014.754	-1557
1014.826	-2502
1014.898	-1676
1014.970	-2156
1015.042	-1122
1015.113	-638
1015.185	-1525
1015.257	-2154
1015.328	-477
1015.400	-1211
1015.471	-1486
1015.543	-1307
1015.615	-1468
1015.686	-1420
1015.757	-2399
1015.829	-957
1015.901	-1454
1015.972	-685
1016.043	-1579
1016.115	-1367
1016.186	-589
1016.257	-1877
1016.328	-1962
1016.400	-1380
1016.471	-2419
1016.542	-1383
1016.613	-2015
1016.685	-1238
1016.756	-1218
1016.827	-1196
1016.898	-1950
1016.969	-1010
1017.040	-2397
1017.111	-1918
1017.182	-1872
1017.253	-1220
1017.324	-1279
1017.395	-1315
1017.466	-1189
1017.537	-732
1017.608	-1563
1017.678	-1349
1017.749	-1247
1017.820	-1060
1017.891	-1658
1017.961	-1627
1018.032	-1003
1018.103	-1089
1018.173	-1210
1018.244	-1221
1018.315	-1626
1018.385	-965
1018.456	-1609
1018.526	-1416
1018.597	-1814
1018.667	-1334
1018.738	-1735
1018.808	-1553
1018.878	-1802
1018.949	-1249
1019.019	-2128
1019.089	-1097
1019.160	-1867
1019.230	-1920
1019.300	-1770
1019.371	-1853
1019.441	-666
1019.511	-1064
1019.581	-1512
1019.651	-1909
1019.721	-1508
1019.791	-1756
1019.861	-2430
1019.931	-1303
1020.001	-2769
1020.071	-1476
1020.141	-1818
1020.211	-1549
1020.281	-1962
1020.351	-1117
1020.421	-919
1020.491	-1544
1020.560	-1726
1020.630	-1523
1020.700	-1209
1020.770	-1534
1020.839	-1440
1020.909	-1668
1020.979	-1745
1021.048	-1262
1021.118	-1600
1021.187	-1003
1021.257	-1257
1021.326	-986
1021.396	-1706
1021.465	-1389
1021.535	-1534
1021.604	-2036
1021.674	-1686
1021.743	-1914
1021.812	-1971
1021.882	-1767
1021.951	-1727
1022.020	-1402
1022.089	-1930
1022.159	-636
1022.228	-1522
1022.297	-1808
1022.366	-1892
1022.435	-1709
1022.504	-1768
1022.573	-1314
1022.642	-1701
1022.711	-1766
1022.781	-1534
1022.849	-1120
1022.918	-1842
1022.987	-1102
1023.056	-1877
1023.125	-1046
1023.194	-1884
1023.263	-932
1023.331	-1052
1023.400	-1535
1023.469	-1920
1023.538	-193
1023.606	-1630
1023.675	-771
1023.744	-1777
1023.812	-1596
1023.881	-1905
1023.949	-1411
1024.018	-1853
1024.086	-1582
1024.155	-2087
1024.223	-2376
1024.292	-1811
1024.360	-1555
1024.429	-1961
1024.497	-1102
1024.565	-1482
1024.634	-1532
1024.702	-1489
1024.770	-1051
1024.838	-1973
1024.907	-725
1024.975	-2331
1025.043	-1867
1025.111	-1534
1025.179	-1271
1025.247	-1981
1025.315	-1524
1025.383	-1949
1025.451	-1184
1025.519	-1752
1025.587	-1955
1025.655	-2809
1025.723	-1617
1025.791	-1800
1025.859	-756
1025.927	-1722
1025.995	-1599
1026.062	-2360
1026.130	-1163
1026.198	-1914
1026.266	-1775
1026.333	-1504
1026.401	-584
1026.469	-2079
1026.536	-1598
1026.604	-2376
1026.671	-1726
1026.739	-1619
1026.806	-1570
1026.874	-1761
1026.941	-1775
1027.009	-1769
1027.076	-1116
1027.144	-856
1027.211	-1943
1027.278	-2208
1027.345	-2291
1027.413	-2108
1027.480	-765
1027.547	-2609
1027.614	-1839
1027.682	-2068
1027.749	-1403
1027.816	-1414
1027.883	-1290
1027.950	-1671
1028.017	-2294
1028.084	-1267
1028.151	-1997
1028.218	-2324
1028.285	-2058
1028.352	-2178
1028.419	-2770
1028.486	-2330
1028.553	-2547
1028.619	-2066
1028.686	-1142
1028.753	-2209
1028.820	-1745
1028.886	-2198
1028.953	-1091
1029.020	-2367
1029.086	-1569
1029.153	-2292
1029.220	-2096
1029.286	-828
1029.353	-1412
1029.419	-2219
1029.486	-1904
1029.552	-2260
1029.619	-1358
1029.685	-1827
1029.751	-1655
1029.818	-1054
1029.884	-1452
1029.951	-751
1030.017	-2237
1030.083	-1395
1030.149	-1168
1030.216	-2183
1030.282	-1001
1030.348	-1767
1030.414	-1934
1030.480	-2021
1030.546	-1631
1030.612	-1502
1030.678	-2083
1030.744	-2008
1030.810	-2072
1030.876	-1860
1030.942	-1662
1031.008	-1935
1031.074	-2251
1031.140	-1970
1031.206	-1535
1031.272	-2655
1031.337	-1561
1031.403	-2075
1031.469	-1705
1031.534	-1832
1031.600	-1527
1031.666	-1701
1031.731	-2036
1031.797	-2136
1031.863	-1547
1031.928	-2571
1031.994	-2244
1032.059	-1579
1032.125	-1432
1032.190	-2380
1032.256	-2244
1032.321	-2696
1032.386	-2200
1032.452	-1808
1032.517	-1755
1032.582	-1967
1032.647	-2196
1032.713	-1889
1032.778	-1613
1032.843	-2145
1032.908	-2304
1032.974	-2308
1033.039	-1554
1033.104	-1417
1033.169	-2246
1033.234	-2532
1033.299	-756
1033.364	-946
1033.429	-1684
1033.494	-2157
1033.559	-1779
1033.624	-1767
1033.688	-1659
1033.753	-2847
1033.818	-1218
1033.883	-2301
1033.948	-1635
1034.013	-2260
1034.077	-1852
1034.142	-1453
1034.207	-1030
1034.271	-1566
1034.336	-451
1034.400	-544
1034.465	-1205
1034.530	-1322
1034.594	-1786
1034.658	-1957
1034.723	-2651
1034.787	-2289
1034.852	-1630
1034.916	-1836
1034.981	-1727
1035.045	-1386
1035.109	-2372
1035.173	-1609
1035.238	-2303
1035.302	-1593
1035.366	-1976
1035.430	-1687
1035.495	-2441
1035.559	-2867
1035.623	-1026
1035.687	-1655
1035.751	-1644
1035.815	-2587
1035.879	-1745
1035.943	-2420
1036.007	-1672
1036.071	-1883
1036.135	-907
1036.198	-2074
1036.262	-1713
1036.326	-2084
1036.390	-1706
1036.454	-2059
1036.517	-1860
1036.581	-1899
1036.645	-1821
1036.709	-1336
1036.772	-1955
1036.836	-2051
1036.900	-1576
1036.963	-2432
1037.026	-2387
1037.090	-1593
1037.154	-2007
1037.217	-1760
1037.280	-2196
1037.344	-1825
1037.407	-1837
1037.471	-1801
1037.534	-1591
1037.597	-2993
1037.661	-2022
1037.724	-2754
1037.787	-1422
1037.850	-1883
1037.913	-2254
1037.977	-1394
1038.040	-2476
1038.103	-1943
1038.166	-1886
1038.229	-2291
1038.292	-2628
1038.355	-2468
1038.418	-2054
1038.481	-920
1038.544	-1619
1038.607	-1898
1038.670	-2483
1038.732	-2007
1038.795	-1725
1038.858	-1964
1038.921	-1788
1038.984	-2411
1039.046	-1945
1039.109	-2332
1039.172	-1421
1039.234	-3054
1039.297	-2420
1039.360	-2485
1039.422	-2219
1039.485	-1404
1039.547	-2658
1039.610	-2202
1039.672	-2441
1039.734	-2565
1039.797	-1945
1039.859	-2077
1039.922	-2157
1039.984	-2825
1040.046	-1719
1040.109	-1887
1040.171	-2407
1040.233	-2444
1040.295	-2327
1040.358	-2169
1040.420	-1831
1040.482	-2391
1040.544	-1750
1040.606	-2332
1040.668	-1640
1040.730	-1593
1040.792	-2083
1040.854	-1795
1040.916	-1593
1040.978	-2596
1041.040	-1323
1041.102	-3292
1041.164	-1567
1041.225	-2215
1041.287	-2498
1041.349	-1883
1041.411	-1864
1041.472	-2395
1041.534	-2442
1041.596	-2794
1041.657	-2016
1041.719	-2467
1041.781	-2267
1041.842	-3095
1041.904	-1995
1041.965	-2440
1042.027	-2559
1042.088	-2158
1042.150	-1387
1042.211	-2320
1042.272	-1974
1042.334	-2208
1042.395	-1914
1042.456	-2588
1042.518	-2009
1042.579	-1413
1042.640	-1510
1042.701	-2221
1042.763	-2325
1042.824	-2978
1042.885	-1641
1042.946	-2821
1043.007	-1795
1043.068	-1790
1043.129	-1449
1043.190	-1778
1043.251	-1736
1043.312	-2834
1043.373	-1590
1043.434	-1804
1043.495	-1961
1043.556	-2720
1043.616	-1478
1043.677	-2148
1043.738	-1734
1043.799	-3101
1043.859	-1637
1043.920	-2058
1043.981	-2262
1044.041	-1715
1044.102	-1752
1044.162	-2999
1044.223	-2576
1044.284	-2003
1044.344	-2121
1044.405	-2960
1044.465	-1486
1044.525	-2150
1044.586	-2220
1044.646	-2008
1044.707	-1968
1044.767	-1587
1044.827	-2099
1044.887	-1769
1044.948	-1304
1045.008	-2354
1045.068	-1656
1045.128	-1282
1045.188	-1447
1045.249	-847
1045.309	-1515
1045.369	-1901
1045.429	-1364
1045.489	-1672
1045.549	-1879
1045.609	-2462
1045.669	-2248
1045.729	-2663
1045.789	-1729
1045.848	-2010
1045.908	-1558
1045.968	-1733
1046.028	-1568
1046.088	-1578
1046.147	-1899
1046.207	-1366
1046.267	-2031
1046.326	-2286
1046.386	-1795
1046.446	-1773
1046.505	-1249
1046.565	-936
1046.624	-703
1046.684	-853
1046.743	-711
1046.803	-1208
1046.862	-1080
1046.922	0
