'Start Wavelength	183.907
'End Wavelength	1046.922
'Gate Delay	5.000
'Gate Width (ms)	1.050
'Laser Output Level	0.000
'X Position	0.000
'Y Position	0.000
'Z Position	0.000
'Grid Point Number	1.000
'Shot Number	100.000
183.907	799.000
183.977	-123.000
184.047	463
184.116	277
184.186	248
184.256	439
184.325	751
184.395	-1189
184.465	949
184.534	259
184.604	25
184.674	-22
184.743	88
184.813	614
184.883	585
184.952	795
185.022	162
185.092	82
185.161	445
185.231	721
185.301	-282
185.370	1493
185.440	-25
185.509	188
185.579	401
185.649	567
185.718	757
185.788	1591
185.857	252
185.927	614
185.996	-32
186.066	707
186.136	788
186.205	208
186.275	167
186.344	474
186.414	607
186.483	22
186.553	1212
186.622	842
186.692	68
186.761	572
186.831	714
186.900	-181
186.970	412
187.039	869
187.109	662
187.178	1327
187.248	-137
187.317	485
187.387	731
187.456	52
187.526	443
187.595	594
187.664	498
187.734	861
187.803	1348
187.873	1069
187.942	1467
188.012	1738
188.081	354
188.150	950
188.220	1008
188.289	931
188.358	1220
188.428	634
188.497	606
188.567	1292
188.636	15
188.705	970
188.775	996
188.844	-212
188.913	1084
188.983	758
189.052	826
189.121	354
189.191	326
189.260	985
189.329	922
189.399	278
189.468	42
189.537	-103
189.606	739
189.676	1130
189.745	776
189.814	1608
189.883	914
189.953	1177
190.022	1491
190.091	1745
190.161	1737
190.230	1749
190.299	312
190.368	780
190.437	798
190.507	873
190.576	1028
190.645	945
190.714	888
190.783	266
190.853	1070
190.922	955
190.991	-235
191.060	824
191.129	-417
191.198	1481
191.268	527
191.337	902
191.406	1252
191.475	614
191.544	-165
191.613	1158
191.682	484
191.752	507
191.821	505
191.890	492
191.959	1261
192.028	458
192.097	1016
192.166	1108
192.235	401
192.304	1369
192.373	349
192.442	786
192.511	615
192.580	623
192.650	204
192.719	735
192.788	1141
192.857	394
192.926	971
192.995	646
193.064	1557
193.133	1913
193.202	1350
193.271	1877
193.340	1265
193.409	2035
193.478	1500
193.547	2474
193.615	2404
193.684	3186
193.753	2113
193.822	2360
193.891	891
193.960	1736
194.029	1252
194.098	1067
194.167	598
194.236	821
194.305	92
194.374	775
194.443	828
194.512	1098
194.580	1477
194.649	1519
194.718	1478
194.787	1759
194.856	258
194.925	1724
194.994	1077
195.062	1348
195.131	1495
195.200	2213
195.269	1851
195.338	1729
195.407	1133
195.475	774
195.544	1502
195.613	831
195.682	1350
195.751	2404
195.819	1137
195.888	2430
195.957	2165
196.026	1859
196.094	1918
196.163	2308
196.232	2672
196.301	2049
196.369	2175
196.438	1225
196.507	1420
196.576	967
196.644	1139
196.713	1349
196.782	1587
196.850	1777
196.919	1268
196.988	1140
197.056	1603
197.125	2105
197.194	862
197.262	1053
197.331	1076
197.400	645
197.468	1115
197.537	641
197.606	1378
197.674	2052
197.743	2677
197.812	494
197.880	2635
197.949	2380
198.017	2567
198.086	1801
198.155	1906
198.223	2284
198.292	3396
198.360	3285
198.429	1807
198.497	1514
198.566	2210
198.635	3470
198.703	1812
198.772	1745
198.840	3461
198.909	4118
198.977	2102
199.046	1616
199.114	2463
199.183	1736
199.251	1390
199.320	1165
199.388	1479
199.457	1300
199.525	1917
199.594	1903
199.662	1712
199.731	990
199.799	1493
199.867	1942
199.936	1323
200.004	1377
200.073	1603
200.141	1552
200.210	1302
200.278	2170
200.346	1909
200.415	1893
200.483	2271
200.552	2372
200.620	1269
200.688	1683
200.757	1606
200.825	1501
200.893	1729
200.962	2009
201.030	1220
201.098	1397
201.167	1656
201.235	1094
201.303	2040
201.372	2489
201.440	2029
201.508	2639
201.577	2449
201.645	2744
201.713	1857
201.781	1124
201.850	2765
201.918	1728
201.986	1691
202.055	2580
202.123	1706
202.191	1811
202.259	1710
202.327	2307
202.396	1764
202.464	2174
202.532	2119
202.600	6329
202.669	4801
202.737	2311
202.805	1459
202.873	2738
202.941	1927
203.009	2128
203.078	1620
203.146	2754
203.214	1574
203.282	476
203.350	2259
203.418	1952
203.487	2139
203.555	1370
203.623	1782
203.691	2395
203.759	1598
203.827	1262
203.895	1397
203.963	1945
204.031	1736
204.099	2010
204.168	1857
204.236	2579
204.304	2726
204.372	1456
204.440	1378
204.508	2172
204.576	834
204.644	2174
204.712	1400
204.780	2061
204.848	2569
204.916	1767
204.984	1833
205.052	1660
205.120	1890
205.188	2205
205.256	1900
205.324	2897
205.392	1748
205.460	2866
205.528	1960
205.596	3110
205.664	2312
205.732	1406
205.799	3700
205.867	6778
205.935	3033
206.003	4015
206.071	2498
206.139	1825
206.207	1746
206.275	2220
206.343	2099
206.411	2238
206.478	2194
206.546	2598
206.614	1833
206.682	2247
206.750	1780
206.818	3020
206.885	2383
206.953	1223
207.021	2117
207.089	2205
207.157	2116
207.225	3027
207.292	2106
207.360	2485
207.428	2267
207.496	2220
207.563	2320
207.631	2681
207.699	2351
207.767	2565
207.834	2652
207.902	2937
207.970	3048
208.038	2422
208.105	2759
208.173	2946
208.241	3980
208.309	4530
208.376	3224
208.444	4684
208.512	3205
208.579	1859
208.647	3541
208.715	3389
208.782	2259
208.850	2518
208.918	2490
208.985	3135
209.053	3171
209.120	3095
209.188	1699
209.256	3484
209.323	3051
209.391	3201
209.459	4315
209.526	2721
209.594	2502
209.661	2757
209.729	3224
209.796	3414
209.864	3220
209.932	3249
209.999	3999
210.067	3402
210.134	3865
210.202	3351
210.269	4534
210.337	4438
210.404	3647
210.472	2629
210.539	3159
210.607	3956
210.674	4550
210.742	3564
210.809	3088
210.877	4363
210.944	4543
211.012	2953
211.079	4519
211.146	3795
211.214	3473
211.281	4643
211.349	3795
211.416	4002
211.484	4333
211.551	3323
211.618	3498
211.686	4509
211.753	2896
211.821	3588
211.888	2990
211.955	3480
212.023	3555
212.090	3820
212.157	4083
212.225	3532
212.292	5486
212.359	9902
212.427	18127
212.494	10968
212.561	5826
212.629	5367
212.696	4148
212.763	5171
212.831	2888
212.898	3628
212.965	3878
213.032	4471
213.100	4774
213.167	3823
213.234	5205
213.301	4553
213.369	4609
213.436	4087
213.503	4109
213.570	5053
213.638	4785
213.705	3710
213.772	3378
213.839	4700
213.906	5393
213.973	5145
214.041	4352
214.108	4925
214.175	4066
214.242	4678
214.309	4243
214.376	4377
214.444	4311
214.511	4236
214.578	4282
214.645	5426
214.712	5002
214.779	5682
214.846	4608
214.913	5947
214.980	5090
215.048	5477
215.115	5644
215.182	5994
215.249	5229
215.316	5040
215.383	4801
215.450	4614
215.517	4692
215.584	4163
215.651	4903
215.718	4163
215.785	5666
215.852	5174
215.919	6487
215.986	5278
216.053	5007
216.120	4306
216.187	5452
216.254	5485
216.321	4334
216.388	5048
216.455	5186
216.522	4772
216.589	6663
216.656	8823
216.722	9138
216.789	6969
216.856	7285
216.923	6134
216.990	6656
217.057	6509
217.124	7789
217.191	7150
217.258	8061
217.324	8386
217.391	8142
217.458	7051
217.525	5753
217.592	6022
217.659	4530
217.725	6573
217.792	6806
217.859	8167
217.926	5253
217.993	5695
218.059	4977
218.126	5636
218.193	5214
218.260	4565
218.327	4194
218.393	4843
218.460	4285
218.527	4383
218.594	4291
218.660	7765
218.727	8406
218.794	5310
218.860	4938
218.927	3819
218.994	4367
219.061	4503
219.127	5953
219.194	7459
219.261	4750
219.327	4416
219.394	3596
219.461	3132
219.527	3612
219.594	5666
219.661	4983
219.727	3903
219.794	4366
219.860	4900
219.927	4942
219.994	7450
220.060	8924
220.127	8201
220.193	6791
220.260	6044
220.326	7835
220.393	10124
220.460	12957
220.526	9142
220.593	7878
220.659	9067
220.726	7515
220.792	14286
220.859	13955
220.925	15647
220.992	18064
221.058	19113
221.125	17343
221.191	13468
221.258	8254
221.324	7426
221.391	6677
221.457	5863
221.524	5772
221.590	7044
221.657	15227
221.723	12375
221.789	10192
221.856	10758
221.922	7717
221.989	6358
222.055	5368
222.121	4971
222.188	7599
222.254	6289
222.321	6358
222.387	4705
222.453	4720
222.520	4627
222.586	5144
222.652	4653
222.719	5193
222.785	6204
222.851	4983
222.918	5200
222.984	5048
223.050	5672
223.116	3024
223.183	4948
223.249	3692
223.315	3628
223.382	3822
223.448	4455
223.514	3856
223.580	2883
223.647	4055
223.713	4186
223.779	3547
223.845	4851
223.911	4389
223.978	2930
224.044	4683
224.110	4586
224.176	4480
224.242	4981
224.309	3504
224.375	4698
224.441	4368
224.507	3802
224.573	3244
224.639	4691
224.705	3450
224.772	4869
224.838	2828
224.904	5174
224.970	4170
225.036	3958
225.102	4220
225.168	5173
225.234	4568
225.300	4921
225.366	3739
225.432	4472
225.499	4174
225.565	4478
225.631	5310
225.697	6211
225.763	6246
225.829	6767
225.895	7283
225.961	9189
226.027	9558
226.093	8532
226.159	10744
226.225	14002
226.291	22609
226.357	29271
226.423	19523
226.489	15113
226.554	10686
226.620	9912
226.686	11916
226.752	17326
226.818	22806
226.884	34825
226.950	32457
227.016	17260
227.082	12766
227.148	10310
227.214	10534
227.279	9832
227.345	7740
227.411	7384
227.477	8083
227.543	13438
227.609	14341
227.674	9801
227.740	8443
227.806	6570
227.872	5509
227.938	6189
228.003	9665
228.069	6162
228.135	4141
228.201	5691
228.267	4800
228.332	6582
228.398	7049
228.464	6151
228.530	4615
228.595	5850
228.661	4838
228.727	8473
228.792	7648
228.858	5997
228.924	4319
228.990	7033
229.055	5883
229.121	7761
229.187	5733
229.252	6596
229.318	4466
229.384	5027
229.449	6607
229.515	4018
229.581	2694
229.646	5687
229.712	6190
229.777	10064
229.843	11098
229.909	10560
229.974	9881
230.040	9078
230.105	8941
230.171	7999
230.236	9172
230.302	11464
230.368	10748
230.433	7256
230.499	8016
230.564	9883
230.630	6626
230.695	6046
230.761	6845
230.826	5963
230.892	9333
230.957	6175
231.023	5469
231.088	7037
231.154	6858
231.219	7273
231.284	7869
231.350	9503
231.415	5487
231.481	6567
231.546	6291
231.612	5973
231.677	4584
231.742	4800
231.808	7161
231.873	4767
231.939	3824
232.004	8752
232.069	9552
232.135	6787
232.200	6382
232.265	5758
232.331	5415
232.396	5287
232.461	4890
232.527	4263
232.592	4449
232.657	5495
232.723	7580
232.788	6304
232.853	6062
232.918	5013
232.984	5486
233.049	5537
233.114	5303
233.179	7610
233.245	8622
233.310	9674
233.375	3928
233.440	5116
233.506	4663
233.571	4922
233.636	4280
233.701	4675
233.766	6620
233.832	8702
233.897	5428
233.962	5893
234.027	7440
234.092	7130
234.157	6227
234.222	6040
234.288	7679
234.353	17024
234.418	16374
234.483	12262
234.548	10954
234.613	9729
234.678	10231
234.743	9108
234.808	18082
234.873	13345
234.938	9621
235.004	8531
235.069	7826
235.134	7139
235.199	8500
235.264	7529
235.329	5557
235.394	7074
235.459	8398
235.524	7735
235.589	7894
235.654	7071
235.719	5293
235.784	6958
235.849	8084
235.913	11616
235.978	11794
236.043	12510
236.108	8619
236.173	6863
236.238	8353
236.303	7275
236.368	7609
236.433	9636
236.498	14021
236.563	12293
236.627	21071
236.692	50158
236.757	47076
236.822	23679
236.887	18217
236.952	16159
237.017	12890
237.081	15390
237.146	18004
237.211	30749
237.276	51063
237.341	70540
237.405	46682
237.470	24715
237.535	18203
237.600	13162
237.664	11385
237.729	10397
237.794	11812
237.859	20650
237.923	14678
237.988	10245
238.053	11665
238.118	12126
238.182	22263
238.247	21321
238.312	12539
238.376	10702
238.441	8793
238.506	10140
238.570	6021
238.635	7566
238.700	7059
238.764	6423
238.829	11729
238.893	14205
238.958	10183
239.023	10827
239.087	7776
239.152	8709
239.216	7304
239.281	7620
239.346	6897
239.410	6634
239.475	8567
239.539	20871
239.604	17378
239.668	10005
239.733	7253
239.797	11778
239.862	21102
239.926	22612
239.991	11413
240.055	7990
240.120	8253
240.184	7511
240.249	6757
240.313	7563
240.378	6374
240.442	14615
240.507	20015
240.571	9643
240.635	10109
240.700	15541
240.764	8430
240.829	6617
240.893	5377
240.957	7503
241.022	13122
241.086	19673
241.151	11992
241.215	7347
241.279	8975
241.344	13074
241.408	11249
241.472	10487
241.537	11491
241.601	10097
241.665	8321
241.730	9433
241.794	10933
241.858	9555
241.922	9178
241.987	10532
242.051	8762
242.115	8737
242.179	9073
242.244	8573
242.308	9194
242.372	9990
242.436	10281
242.501	9989
242.565	7459
242.629	7468
242.693	9006
242.757	7163
242.822	7654
242.886	9709
242.950	9347
243.014	8621
243.078	9496
243.142	10509
243.206	8786
243.271	9921
243.335	9069
243.399	12816
243.463	30619
243.527	68878
243.591	26835
243.655	15432
243.719	10397
243.783	12252
243.847	15178
243.911	18742
243.975	23431
244.040	17730
244.104	12469
244.168	9907
244.232	13634
244.296	16518
244.360	16944
244.424	11258
244.488	8541
244.552	9851
244.615	7593
244.679	8206
244.743	9746
244.807	11421
244.871	8462
244.935	7892
244.999	7013
245.063	8324
245.127	10627
245.191	12160
245.255	13088
245.319	11946
245.383	10799
245.446	10149
245.510	7601
245.574	8759
245.638	8848
245.702	7944
245.766	18755
245.829	13837
245.893	10207
245.957	10008
246.021	10091
246.085	11192
246.149	12065
246.212	23907
246.276	36502
246.340	19181
246.404	14382
246.467	13587
246.531	19137
246.595	14014
246.659	13016
246.722	11546
246.786	15691
246.850	14690
246.913	17351
246.977	10665
247.041	10295
247.104	11696
247.168	12170
247.232	23714
247.295	45011
247.359	26106
247.423	13748
247.486	21746
247.550	15621
247.614	12183
247.677	16094
247.741	12477
247.804	9969
247.868	11692
247.932	21928
247.995	45027
248.059	20453
248.122	12664
248.186	16165
248.249	26479
248.313	66549
248.376	73783
248.440	51597
248.503	23644
248.567	19807
248.630	26252
248.694	33973
248.757	43097
248.821	73392
248.884	52786
248.948	46053
249.011	63122
249.075	83030
249.138	75445
249.202	36992
249.265	24175
249.328	25155
249.392	21961
249.455	18745
249.519	15439
249.582	18254
249.645	26471
249.709	21723
249.772	15305
249.835	14626
249.899	16184
249.962	16122
250.025	15068
250.089	31207
250.152	42305
250.215	23726
250.279	18400
250.342	17236
250.405	16861
250.468	15938
250.532	19683
250.595	28374
250.658	68540
250.721	110368
250.785	49862
250.848	29556
250.911	20173
250.974	19069
251.038	25521
251.101	46932
251.164	27820
251.227	27615
251.290	25160
251.354	32817
251.417	92807
251.480	98935
251.543	74352
251.606	149888
251.669	129250
251.732	63911
251.795	63986
251.859	64472
251.922	106518
251.985	72125
252.048	32681
252.111	26657
252.174	27195
252.237	46266
252.300	88100
252.363	86949
252.426	134010
252.489	70169
252.552	39128
252.615	28240
252.678	31591
252.741	64547
252.804	78535
252.867	138645
252.930	99376
252.993	57913
253.056	36892
253.119	28733
253.182	21945
253.245	29908
253.308	27904
253.371	26089
253.434	24798
253.497	24071
253.559	41579
253.622	32151
253.685	38828
253.748	41030
253.811	21993
253.874	24769
253.937	22930
254.000	20976
254.062	32377
254.125	47845
254.188	40014
254.251	35802
254.314	20348
254.376	31816
254.439	36986
254.502	32551
254.565	33763
254.628	55850
254.690	35466
254.753	20956
254.816	18559
254.878	19553
254.941	32991
255.004	35445
255.067	18016
255.129	18701
255.192	12013
255.255	11767
255.317	13953
255.380	10245
255.443	7913
255.505	8293
255.568	8701
255.631	10129
255.693	10656
255.756	8572
255.819	8999
255.881	8065
255.944	7976
256.006	8178
256.069	9042
256.132	8933
256.194	11596
256.257	21003
256.319	16212
256.382	15074
256.444	14600
256.507	11484
256.569	10255
256.632	12247
256.694	17241
256.757	35510
256.819	87433
256.882	44382
256.944	22361
257.007	17722
257.069	20030
257.132	13307
257.194	13377
257.257	12113
257.319	12499
257.381	14933
257.444	30496
257.506	95457
257.569	117137
257.631	61507
257.693	35784
257.756	19476
257.818	17170
257.880	13504
257.943	12222
258.005	12049
258.067	11644
258.130	10871
258.192	13933
258.254	23199
258.317	15864
258.379	12753
258.441	25363
258.503	25606
258.566	23638
258.628	28535
258.690	12157
258.753	14686
258.815	24846
258.877	16090
258.939	11925
259.001	11521
259.064	11372
259.126	11987
259.188	15834
259.250	12880
259.312	15485
259.375	26321
259.437	20457
259.499	12771
259.561	10863
259.623	12017
259.685	12012
259.747	11884
259.809	22703
259.872	38468
259.934	54860
259.996	54582
260.058	21218
260.120	11368
260.182	10768
260.244	10095
260.306	8696
260.368	9999
260.430	9807
260.492	18264
260.554	29898
260.616	21544
260.678	34013
260.740	40405
260.802	15318
260.864	13820
260.926	11849
260.988	12488
261.050	13042
261.112	24085
261.174	45547
261.236	32266
261.298	16349
261.359	20179
261.421	25727
261.483	12562
261.545	12175
261.607	7755
261.669	10019
261.731	14055
261.793	30843
261.854	19786
261.916	14692
261.978	11331
262.040	12184
262.102	9861
262.164	12635
262.225	11493
262.287	10673
262.349	22622
262.411	19103
262.472	11416
262.534	13718
262.596	25270
262.658	12141
262.719	8932
262.781	10650
262.843	22671
262.904	13201
262.966	12458
263.028	14966
263.090	43542
263.151	100895
263.213	41165
263.275	28104
263.336	14838
263.398	11299
263.459	9479
263.521	10187
263.583	21663
263.644	17397
263.706	8671
263.767	7235
263.829	7073
263.891	6401
263.952	5845
264.014	6588
264.075	11110
264.137	25063
264.198	15182
264.260	7540
264.321	8692
264.383	18214
264.444	38845
264.506	14058
264.567	12017
264.629	17003
264.690	31027
264.752	15937
264.813	12243
264.875	9108
264.936	9532
264.998	8521
265.059	7338
265.120	8583
265.182	14606
265.243	47911
265.305	52752
265.366	17550
265.427	9965
265.489	9933
265.550	6876
265.611	9927
265.673	10081
265.734	8761
265.795	8037
265.857	8201
265.918	9377
265.979	19201
266.040	72813
266.102	69569
266.163	24882
266.224	20906
266.286	12783
266.347	9447
266.408	10400
266.469	9954
266.530	9193
266.592	8774
266.653	16183
266.714	26183
266.775	11042
266.836	9598
266.898	7818
266.959	13471
267.020	10792
267.081	9640
267.142	8494
267.203	8381
267.264	7824
267.326	10335
267.387	7810
267.448	7285
267.509	8917
267.570	7894
267.631	7490
267.692	6826
267.753	8686
267.814	8398
267.875	14750
267.936	29859
267.997	19229
268.058	18027
268.119	11490
268.180	10948
268.241	9095
268.302	8702
268.363	7914
268.424	9249
268.485	9033
268.546	8106
268.607	6094
268.668	6616
268.729	5981
268.790	7704
268.851	8734
268.912	19891
268.972	24471
269.033	15240
269.094	8024
269.155	7791
269.216	7474
269.277	9066
269.338	7465
269.398	8684
269.459	10439
269.520	14148
269.581	17530
269.642	19537
269.702	14596
269.763	12221
269.824	9365
269.885	12387
269.945	19357
270.006	10278
270.067	6569
270.128	7871
270.188	7042
270.249	8149
270.310	7239
270.370	8331
270.431	7653
270.492	7619
270.553	8600
270.613	16531
270.674	29962
270.734	14617
270.795	9551
270.856	13122
270.916	11796
270.977	8585
271.038	10952
271.098	11296
271.159	17054
271.219	17254
271.280	9008
271.340	8234
271.401	9246
271.462	15503
271.522	12486
271.583	9473
271.643	9514
271.704	9772
271.764	11598
271.825	26347
271.885	69327
271.946	93155
272.006	39399
272.066	45812
272.127	73136
272.187	28541
272.248	18091
272.308	17461
272.369	46910
272.429	31075
272.489	23877
272.550	24735
272.610	25942
272.671	20873
272.731	15166
272.791	22686
272.852	17992
272.912	15588
272.972	9699
273.033	9647
273.093	14257
273.153	15674
273.214	11845
273.274	13702
273.334	34010
273.394	66466
273.455	33655
273.515	29925
273.575	56957
273.635	28378
273.696	33895
273.756	62979
273.816	31030
273.876	20022
273.936	26843
273.997	38349
274.057	16479
274.117	16007
274.177	22807
274.237	76565
274.297	65393
274.358	41688
274.418	50317
274.478	43980
274.538	19324
274.598	15240
274.658	31134
274.718	40154
274.778	19423
274.838	14266
274.898	22435
274.958	49614
275.018	58958
275.078	44165
275.138	20236
275.198	12812
275.258	11234
275.318	12004
275.378	22833
275.438	25517
275.498	17674
275.558	28007
275.618	53622
275.678	44642
275.738	30366
275.798	24176
275.858	14032
275.918	9150
275.978	13208
276.038	13249
276.098	9995
276.157	19663
276.217	48665
276.277	25698
276.337	19404
276.397	11907
276.457	13936
276.517	10981
276.576	8917
276.636	8943
276.696	15717
276.756	30230
276.815	24220
276.875	12231
276.935	14513
276.995	13071
277.055	8723
277.114	10161
277.174	14002
277.234	37497
277.293	20378
277.353	12894
277.413	10177
277.472	12052
277.532	12758
277.592	13306
277.651	33725
277.711	58331
277.771	26086
277.830	67920
277.890	59118
277.950	43400
278.009	101472
278.069	46364
278.128	44989
278.188	63307
278.248	33981
278.307	67518
278.367	42184
278.426	17577
278.486	13407
278.545	11313
278.605	10673
278.664	10247
278.724	11836
278.783	26397
278.843	58174
278.902	22812
278.962	16385
279.021	17058
279.081	19748
279.140	19906
279.199	19385
279.259	18671
279.318	17738
279.378	23949
279.437	41233
279.496	111996
279.556	225819
279.615	180876
279.675	64025
279.734	42733
279.793	60067
279.853	84516
279.912	38242
279.971	24229
280.031	21919
280.090	35589
280.149	59449
280.208	50909
280.268	152106
280.327	159115
280.386	51164
280.445	38618
280.505	36133
280.564	20292
280.623	17934
280.682	23859
280.742	34540
280.801	14745
280.860	12040
280.919	11172
280.978	9787
281.037	10181
281.097	9189
281.156	11106
281.215	9931
281.274	12009
281.333	36871
281.392	31186
281.451	10744
281.510	9475
281.569	8739
281.628	8835
281.688	7699
281.747	10749
281.806	10190
281.865	8621
281.924	8070
281.983	8861
282.042	7110
282.101	7620
282.160	7917
282.219	8205
282.278	9522
282.337	25052
282.396	19599
282.454	11046
282.513	13020
282.572	37603
282.631	24503
282.690	11384
282.749	9467
282.808	12415
282.867	12271
282.926	12248
282.985	8894
283.043	7803
283.102	8387
283.161	11131
283.220	18253
283.279	38640
283.338	16571
283.396	11635
283.455	11434
283.514	12970
283.573	19654
283.631	14966
283.690	11666
283.749	11843
283.808	20762
283.866	23691
283.925	13675
283.984	11971
284.043	16114
284.101	17945
284.160	13111
284.219	15788
284.277	16741
284.336	22929
284.395	53335
284.453	45644
284.512	24306
284.570	31772
284.629	30590
284.688	30997
284.746	34134
284.805	39430
284.863	48619
284.922	63141
284.981	79848
285.039	113646
285.098	173370
285.156	261758
285.215	250306
285.273	253990
285.332	267513
285.390	196999
285.449	136142
285.507	98807
285.566	73684
285.624	59169
285.683	46899
285.741	38204
285.799	32897
285.858	28984
285.916	26626
285.975	22264
286.033	19670
286.091	18109
286.150	15876
286.208	15778
286.267	16290
286.325	17254
286.383	23553
286.442	21105
286.500	13304
286.558	12025
286.616	12161
286.675	14756
286.733	14560
286.791	12693
286.850	13695
286.908	16950
286.966	24996
287.024	13285
287.083	9976
287.141	10072
287.199	10286
287.257	15356
287.315	12410
287.374	11544
287.432	26122
287.490	17915
287.548	12461
287.606	10379
287.664	10045
287.723	12546
287.781	16082
287.839	11439
287.897	12374
287.955	15035
288.013	21429
288.071	42665
288.129	123733
288.187	276221
288.245	153831
288.303	56957
288.361	33686
288.419	25175
288.477	19027
288.535	15623
288.593	12470
288.651	10579
288.709	9440
288.767	8960
288.825	8465
288.883	7674
288.941	7700
288.999	7194
289.057	7283
289.115	6635
289.173	6506
289.231	8276
289.289	7434
289.346	7732
289.404	9624
289.462	15875
289.520	17024
289.578	8869
289.636	6731
289.694	6481
289.751	6092
289.809	6342
289.867	6825
289.925	9157
289.983	11403
290.040	7391
290.098	5852
290.156	9255
290.214	11022
290.271	7448
290.329	6413
290.387	6396
290.444	6048
290.502	6048
290.560	5267
290.617	6259
290.675	5548
290.733	6606
290.790	7788
290.848	6076
290.906	6820
290.963	7164
291.021	6609
291.078	6470
291.136	7896
291.194	19042
291.251	39003
291.309	14299
291.366	7571
291.424	7117
291.481	7723
291.539	7583
291.596	7372
291.654	5949
291.711	6024
291.769	8034
291.826	13961
291.884	11790
291.941	6532
291.999	6612
292.056	8429
292.114	9799
292.171	6918
292.228	8335
292.286	9027
292.343	16063
292.401	18748
292.458	11832
292.515	7755
292.573	11096
292.630	10241
292.687	8917
292.745	7780
292.802	10975
292.859	23833
292.917	40947
292.974	25987
293.031	11337
293.089	8774
293.146	7421
293.203	7908
293.260	7216
293.318	7901
293.375	11112
293.432	7682
293.489	7521
293.546	8676
293.604	12198
293.661	28709
293.718	66198
293.775	38130
293.832	20091
293.889	16263
293.947	15999
294.004	11496
294.061	12701
294.118	22088
294.175	41282
294.232	45726
294.289	22833
294.346	14755
294.403	15369
294.460	10517
294.517	10541
294.574	8420
294.631	9051
294.688	11332
294.745	23989
294.802	69822
294.859	74443
294.916	31806
294.973	19103
295.030	16922
295.087	15075
295.144	11403
295.201	10488
295.258	9497
295.315	12453
295.372	28263
295.429	52619
295.486	26501
295.542	17374
295.599	30593
295.656	50404
295.713	37686
295.770	49957
295.827	22025
295.883	13655
295.940	12675
295.997	18674
296.054	18605
296.111	10388
296.167	8079
296.224	7282
296.281	7383
296.338	7826
296.394	8060
296.451	11081
296.508	22200
296.564	43737
296.621	33971
296.678	59985
296.734	87766
296.791	38016
296.848	20982
296.904	22488
296.961	43712
297.018	57943
297.074	43729
297.131	19998
297.187	16830
297.244	22046
297.301	52676
297.357	91680
297.414	38453
297.470	17864
297.527	12351
297.583	11798
297.640	11610
297.696	9433
297.753	8240
297.809	8358
297.866	6616
297.922	7316
297.979	7259
298.035	9646
298.092	14309
298.148	33089
298.204	34004
298.261	20278
298.317	30687
298.374	72063
298.430	47089
298.486	22522
298.543	16724
298.599	15205
298.656	18341
298.712	26745
298.768	50889
298.824	35306
298.881	15826
298.937	11557
298.993	10748
299.050	13197
299.106	12133
299.162	11027
299.218	11965
299.275	10371
299.331	12171
299.387	21823
299.443	60858
299.500	68742
299.556	29978
299.612	17034
299.668	15679
299.724	18716
299.780	19231
299.837	14587
299.893	19381
299.949	51586
300.005	63510
300.061	52770
300.117	83311
300.173	45901
300.229	24664
300.285	29598
300.341	32424
300.397	18804
300.453	12482
300.510	11663
300.566	12366
300.622	14165
300.678	32961
300.734	59158
300.790	52923
300.845	61935
300.901	41425
300.957	54983
301.013	44475
301.069	20055
301.125	15283
301.181	17450
301.237	13553
301.293	9992
301.349	9557
301.405	9160
301.461	9376
301.516	12284
301.572	12659
301.628	21065
301.684	20038
301.740	24780
301.796	38900
301.851	29260
301.907	46100
301.963	49241
302.019	66700
302.074	152109
302.130	163807
302.186	83563
302.242	37612
302.297	26129
302.353	24758
302.409	39406
302.464	37186
302.520	30788
302.576	61903
302.631	73486
302.687	44762
302.743	21368
302.798	13995
302.854	12448
302.910	13886
302.965	15426
303.021	24599
303.076	24693
303.132	29490
303.187	37258
303.243	20050
303.299	12734
303.354	10816
303.410	10082
303.465	9121
303.521	9515
303.576	10055
303.632	13829
303.687	22177
303.743	54725
303.798	50177
303.853	22957
303.909	14566
303.964	14634
304.020	20447
304.075	29207
304.130	25552
304.186	43644
304.241	45125
304.297	36446
304.352	21000
304.358	20233
304.407	14020
304.449	13759
304.463	13679
304.518	14936
304.539	14475
304.573	13752
304.629	13212
304.630	13351
304.684	20298
304.720	35629
304.739	43179
304.794	64346
304.811	55660
304.850	34791
304.902	18557
304.905	17538
304.960	12406
304.992	12446
305.015	12467
305.071	13920
305.083	13659
305.126	12624
305.173	9614
305.181	9153
305.236	8119
305.264	8695
305.292	9312
305.347	12391
305.354	12455
305.402	12884
305.445	13700
305.457	13899
305.512	16149
305.535	16365
305.567	16767
305.622	17124
305.626	17486
305.678	27767
305.716	49500
305.733	56463
305.788	65600
305.807	57148
305.843	43841
305.897	55734
305.898	55825
305.953	56960
305.988	39192
306.008	29853
306.063	20336
306.078	18749
306.118	15097
306.168	10893
306.173	10564
306.228	9583
306.259	8615
306.283	7954
306.338	8233
306.349	8407
306.393	9286
306.440	10361
306.448	10524
306.503	11443
306.530	11818
306.558	14587
306.613	26675
306.620	28784
306.668	42783
306.711	56965
306.723	57891
306.778	46663
306.801	36187
306.833	24924
306.888	13872
306.892	13403
306.943	10561
306.982	9176
306.997	8726
307.052	9091
307.072	9021
307.107	9563
307.162	10831
307.163	10861
307.217	15108
307.253	17559
307.272	17739
307.327	18415
307.343	17675
307.381	17253
307.434	17522
307.436	18007
307.491	32353
307.524	45328
307.546	47400
307.600	49219
307.614	44383
307.655	28906
307.704	16686
307.710	16427
307.765	19189
307.795	22546
307.819	25119
307.874	33695
307.885	33907
307.929	29157
307.975	25865
307.984	27309
308.038	40654
308.065	50727
308.093	84220
308.148	165103
308.156	180844
308.202	244774
308.246	286252
308.257	278567
308.312	169538
308.336	124876
308.366	97392
308.421	62780
308.426	59495
308.475	39929
308.517	29192
308.530	27438
308.585	23609
308.607	22647
308.639	23264
308.694	25059
308.697	25244
308.748	36951
308.787	48489
308.803	47510
308.857	38247
308.877	34137
308.912	33710
308.967	36546
308.967	36596
309.021	54367
309.058	68829
309.076	85166
309.130	142164
309.148	163409
309.185	248699
309.238	382326
309.239	383257
309.293	392868
309.328	371166
309.348	329530
309.402	185251
309.418	147334
309.457	111205
309.508	74779
309.511	74369
309.566	76101
309.598	79451
309.620	92528
309.674	130585
309.688	140434
309.729	130274
309.778	108259
309.783	106022
309.837	76594
309.868	61565
309.892	69665
309.946	92308
309.959	99380
310.001	113966
310.049	125910
310.055	121692
310.109	72191
310.139	44866
310.163	36509
310.218	23251
310.229	21012
310.272	17687
310.319	14680
310.326	14347
310.381	12458
310.409	11637
310.435	10968
310.489	9603
310.499	9411
310.543	9901
310.589	10380
310.598	10346
310.652	10473
310.679	10533
310.706	9879
310.760	8069
310.769	7814
310.814	7192
310.859	6934
310.868	7016
310.923	7124
310.948	7325
310.977	8253
311.031	10063
311.038	10308
311.085	9526
311.128	8522
311.139	8499
311.193	8638
311.218	8596
311.247	8020
311.301	7080
311.308	6950
311.356	7251
311.398	7635
311.410	7461
311.464	6553
311.488	6157
311.518	6966
311.572	8461
311.578	8641
311.626	11804
311.668	14572
311.680	14241
311.734	12426
311.758	11589
311.788	11558
311.842	11616
311.847	11607
311.896	14771
311.937	17594
311.950	17198
312.004	15253
312.027	14367
312.058	12474
312.112	9105
312.117	8767
312.165	8594
312.207	8454
312.297	11517
312.386	9269
312.476	11565
312.566	24065
312.656	10863
312.745	7237
312.835	7390
312.925	9397
313.015	8394
313.104	7515
313.194	7590
313.284	9041
313.374	13929
313.463	10648
313.553	8248
313.643	6516
313.732	5633
313.822	6157
313.912	7947
314.001	9740
314.091	10768
314.180	14080
314.270	13651
314.360	15547
314.449	12151
314.539	6829
314.628	6966
314.718	9353
314.808	10679
314.897	7473
314.987	7957
315.076	12484
315.166	14387
315.255	12554
315.345	14288
315.434	12329
315.524	11407
315.613	14620
315.703	20569
315.792	28798
315.881	65629
315.971	26476
316.060	27379
316.150	31398
316.239	29209
316.328	11188
316.418	8597
316.507	9319
316.597	13121
316.686	11995
316.775	18636
316.865	28496
316.954	8606
317.043	6828
317.133	9436
317.222	7462
317.311	7360
317.400	7873
317.490	15419
317.579	15519
317.668	11120
317.757	19866
317.847	44699
317.936	118596
318.025	55717
318.114	32052
318.203	20481
318.293	27440
318.382	48071
318.471	38283
318.560	50411
318.649	72201
318.738	17729
318.828	17564
318.917	16623
319.006	20831
319.095	45352
319.184	99955
319.273	65134
319.362	36344
319.451	14879
319.540	14744
319.629	38947
319.718	52122
319.807	23720
319.896	47111
319.985	123629
320.074	46074
320.163	15145
320.252	20906
320.341	17575
320.430	16419
320.519	28765
320.608	14457
320.697	11762
320.786	13332
320.875	20206
320.964	26177
321.053	41774
321.142	61575
321.230	55547
321.319	48263
321.408	93260
321.497	35093
321.586	38391
321.675	38480
321.764	35130
321.852	28181
321.941	57683
322.030	35925
322.119	46710
322.207	98426
322.296	49033
322.385	29025
322.474	46035
322.562	123513
322.651	51931
322.740	48502
322.829	58561
322.917	46104
323.006	33490
323.095	29148
323.183	20878
323.272	34384
323.361	59927
323.449	123463
323.538	45102
323.626	93391
323.715	49057
323.804	29791
323.892	86505
323.981	45650
324.069	17835
324.158	45590
324.246	35356
324.335	24742
324.424	35307
324.512	14921
324.601	23122
324.689	58050
324.778	97646
324.866	37840
324.954	12866
325.043	13776
325.131	25622
325.220	34929
325.308	37481
325.397	32464
325.485	17524
325.574	8999
325.662	9032
325.750	10818
325.839	8220
325.927	7750
326.015	11586
326.104	16764
326.192	18738
326.280	8272
326.369	9113
326.457	17668
326.545	29984
326.634	10504
326.722	6751
326.810	9205
326.898	9180
326.987	11383
327.075	28358
327.163	23242
327.251	14343
327.340	41957
327.428	53821
327.516	11109
327.604	8062
327.692	8609
327.781	10321
327.869	15149
327.957	12550
328.045	13513
328.133	7012
328.221	10321
328.309	8775
328.397	8763
328.485	12336
328.574	22340
328.662	66025
328.750	28422
328.838	10944
328.926	8077
329.014	7863
329.102	15283
329.190	31584
329.278	20298
329.366	5647
329.454	5965
329.542	5825
329.630	5573
329.718	7130
329.806	11876
329.893	10421
329.981	11327
330.069	21387
330.157	78264
330.245	177850
330.333	86858
330.421	21395
330.509	27852
330.597	84688
330.684	44073
330.772	15842
330.860	17421
330.948	20599
331.036	10516
331.123	5163
331.211	5544
331.299	9176
331.387	22130
331.475	31645
331.562	10595
331.650	6975
331.738	8530
331.825	9520
331.913	6078
332.001	6527
332.089	9666
332.176	20021
332.264	43024
332.352	29385
332.439	11629
332.527	8616
332.614	7087
332.702	9432
332.790	10278
332.877	26362
332.965	42689
333.052	18784
333.140	25678
333.228	49612
333.315	14696
333.403	11883
333.490	28594
333.578	34343
333.665	70484
333.753	28221
333.840	10058
333.928	12523
334.015	29193
334.103	49861
334.190	114672
334.278	28779
334.365	14721
334.452	11238
334.540	9139
334.627	12149
334.715	16905
334.802	39055
334.889	153240
334.977	119192
335.064	19731
335.151	11999
335.239	11513
335.326	19117
335.413	68751
335.501	71217
335.588	14386
335.675	10011
335.762	13778
335.850	19459
335.937	18825
336.024	52161
336.111	151238
336.199	56206
336.286	15545
336.373	8988
336.460	6977
336.547	7820
336.635	11030
336.722	9390
336.809	8488
336.896	18895
336.983	50203
337.070	99641
337.157	120618
337.245	97760
337.332	53643
337.419	11110
337.506	7598
337.593	11172
337.680	37600
337.767	77523
337.854	28347
337.941	31175
338.028	36360
338.115	13567
338.202	16623
338.289	36344
338.376	92898
338.463	29885
338.550	55553
338.637	45881
338.724	22549
338.811	25663
338.898	7724
338.984	6213
339.071	9756
339.158	16603
339.245	38825
339.332	21442
339.419	24729
339.506	18233
339.593	6375
339.679	8175
339.766	7916
339.853	13619
339.940	27408
340.027	8570
340.113	10311
340.200	15158
340.287	10742
340.374	16630
340.460	24732
340.547	11875
340.634	25495
340.720	78284
340.807	36566
340.894	8064
340.980	8964
341.067	8191
341.154	10663
341.240	21454
341.327	36095
341.414	15354
341.500	16686
341.587	8886
341.674	10762
341.760	28822
341.847	28170
341.933	9016
342.020	4547
342.106	5102
342.193	11785
342.279	20091
342.366	17667
342.452	25937
342.539	15642
342.625	42170
342.712	79368
342.798	31655
342.885	11465
342.971	5339
343.058	4822
343.144	6472
343.230	7419
343.317	8819
343.403	6735
343.490	5137
343.576	5945
343.662	8112
343.749	9435
343.835	13034
343.921	29090
344.008	141098
344.094	234592
344.180	52346
344.267	29312
344.353	83358
344.439	70152
344.525	36423
344.612	16760
344.698	13957
344.784	8910
344.870	7969
344.957	9564
345.043	14647
345.129	12919
345.215	24441
345.301	15150
345.387	8702
345.474	4639
345.560	5507
345.646	7159
345.732	7859
345.818	12303
345.904	10077
345.990	11151
346.076	10744
346.162	17433
346.249	9086
346.335	6689
346.421	10185
346.507	39821
346.593	98027
346.679	21500
346.765	9191
346.851	8456
346.937	8303
347.023	7203
347.108	11107
347.194	9014
347.280	8581
347.366	13321
347.452	42409
347.538	125836
347.624	94222
347.710	66513
347.796	12090
347.882	8315
347.967	6657
348.053	9889
348.139	7503
348.225	6556
348.311	7916
348.397	6646
348.482	10704
348.568	11186
348.654	5806
348.740	9010
348.825	10163
348.911	19321
348.997	69891
349.083	98886
349.168	16848
349.254	11279
349.340	10415
349.425	6832
349.511	12977
349.597	13521
349.682	32482
349.768	80772
349.854	30400
349.939	7430
350.025	6398
350.110	6172
350.196	7039
350.282	4500
350.367	5204
350.453	12623
350.538	10920
350.624	12377
350.709	10483
350.795	6688
350.880	7667
350.966	9922
351.051	13359
351.137	8689
351.222	10401
351.308	36263
351.393	72040
351.479	20537
351.564	9068
351.649	8140
351.735	6283
351.820	5693
351.906	7004
351.991	13577
352.076	56731
352.162	64477
352.247	15220
352.332	13907
352.418	28664
352.503	37472
352.588	121016
352.673	82213
352.759	21030
352.844	11702
352.929	15439
353.014	17859
353.100	13113
353.185	24739
353.270	36271
353.355	27781
353.441	9417
353.526	11703
353.611	32584
353.696	31514
353.781	18530
353.866	9549
353.952	11946
354.037	33748
354.122	66083
354.207	55319
354.292	18321
354.377	8525
354.462	8685
354.547	12788
354.632	11066
354.717	17551
354.802	23912
354.887	9256
354.972	7149
355.057	5651
355.142	5662
355.227	10825
355.312	21686
355.397	51589
355.482	102469
355.567	44366
355.652	36885
355.737	38476
355.822	102582
355.907	64693
355.991	13160
356.076	7790
356.161	6917
356.246	5905
356.331	10700
356.416	30616
356.501	152217
356.585	125423
356.670	22614
356.755	17503
356.840	32302
356.924	141558
357.009	344322
357.094	117315
357.179	35167
357.263	21842
357.348	22674
357.433	21851
357.517	20928
357.602	16428
357.687	12340
357.771	24523
357.856	55226
357.941	37139
358.025	106632
358.110	322800
358.195	132860
358.279	27216
358.364	26136
358.448	91560
358.533	192734
358.617	136449
358.702	126381
358.787	45075
358.871	32531
358.956	22846
359.040	8435
359.125	7305
359.209	9797
359.294	27977
359.378	43004
359.462	24743
359.547	13419
359.631	8046
359.716	7840
359.800	8316
359.885	13635
359.969	9613
360.053	8195
360.138	8845
360.222	18334
360.306	32637
360.391	22404
360.475	44444
360.559	83783
360.644	80184
360.728	52832
360.812	99138
360.896	198770
360.981	92643
361.065	47265
361.149	15743
361.233	15341
361.318	13395
361.402	14400
361.486	13229
361.570	10777
361.654	16800
361.739	47959
361.823	162688
361.907	188275
361.991	37973
362.075	32279
362.159	62557
362.243	40017
362.327	36223
362.411	36060
362.495	21551
362.580	12686
362.664	9300
362.748	9752
362.832	12880
362.916	22889
363.000	70762
363.084	193694
363.168	225737
363.252	55319
363.336	25399
363.420	36686
363.503	100005
363.587	89134
363.671	23694
363.755	20875
363.839	27353
363.923	15383
364.007	34763
364.091	32384
364.175	48477
364.258	143549
364.342	105213
364.426	111865
364.510	58667
364.594	35423
364.677	56195
364.761	190135
364.845	111659
364.929	54698
365.013	41899
365.096	39447
365.180	39738
365.264	50373
365.347	132737
365.431	49239
365.515	17767
365.598	12042
365.682	11904
365.766	17979
365.849	18879
365.933	14265
366.017	16289
366.100	10002
366.184	5342
366.267	8184
366.351	8829
366.435	7056
366.518	6343
366.602	6000
366.685	8863
366.769	11633
366.852	19419
366.936	33336
367.019	19031
367.103	14154
367.186	19429
367.270	7933
367.353	5861
367.436	7923
367.520	7130
367.603	12994
367.687	23364
367.770	36345
367.853	22141
367.937	64335
368.020	83096
368.104	22947
368.187	30576
368.270	38592
368.353	32376
368.437	42865
368.520	69692
368.603	51114
368.687	85334
368.770	120079
368.853	31803
368.936	34583
369.020	26826
369.103	11628
369.186	9006
369.269	11698
369.352	27606
369.436	32741
369.519	19964
369.602	10037
369.685	13328
369.768	12475
369.851	11024
369.934	7260
370.018	15160
370.101	32478
370.184	21150
370.267	16437
370.350	29853
370.433	45792
370.516	106360
370.599	107821
370.682	46660
370.765	83429
370.848	97852
370.931	148319
371.014	47408
371.097	13830
371.180	11001
371.263	7357
371.346	5487
371.429	8215
371.511	10420
371.594	21729
371.677	28932
371.760	27842
371.843	35254
371.926	146774
372.009	248727
372.091	81121
372.174	72082
372.257	128172
372.340	48388
372.423	45020
372.505	39811
372.588	23271
372.671	67654
372.754	157615
372.836	67176
372.919	54178
373.002	79851
373.085	30861
373.167	35072
373.250	82582
373.332	143242
373.415	209468
373.498	345560
373.580	130676
373.663	195114
373.746	208160
373.828	54226
373.911	26151
373.993	32439
374.076	87515
374.159	67032
374.241	54242
374.324	141514
374.406	81419
374.489	129967
374.571	278330
374.654	103748
374.736	72388
374.819	190249
374.901	269107
374.983	230345
375.066	42161
375.148	22976
375.231	78812
375.313	117393
375.395	44156
375.478	12459
375.560	12292
375.643	20493
375.725	74653
375.807	233716
375.890	151729
375.972	63588
376.054	44655
376.136	52826
376.219	27287
376.301	85164
376.383	188658
376.465	69570
376.548	60061
376.630	75708
376.712	172727
376.794	64264
376.877	11438
376.959	8598
377.041	12269
377.123	19061
377.205	18116
377.287	5866
377.369	7257
377.452	8534
377.534	8736
377.616	8617
377.698	8360
377.780	6668
377.862	9757
377.944	9226
378.026	6223
378.108	6254
378.190	6344
378.272	6462
378.354	5137
378.436	6395
378.518	17615
378.600	45340
378.682	46338
378.764	102012
378.846	63031
378.928	24310
379.010	33308
379.091	16006
379.173	8946
379.255	9207
379.337	17034
379.419	60313
379.501	129170
379.583	43101
379.664	17976
379.746	47387
379.828	106171
379.910	131350
379.991	95684
380.073	17930
380.155	14367
380.237	10740
380.318	8623
380.400	11680
380.482	28807
380.564	38516
380.645	40141
380.727	33899
380.809	20024
380.890	14534
380.972	11214
381.053	11362
381.135	15592
381.217	45488
381.298	102253
381.380	47006
381.461	53581
381.543	194894
381.624	186700
381.706	38597
381.787	24611
381.869	28502
381.951	100757
382.032	280547
382.113	158235
382.195	43782
382.276	34967
382.358	78840
382.439	164609
382.521	184755
382.602	251814
382.684	145792
382.765	280235
382.846	377239
382.928	552306
383.009	293157
383.090	294225
383.172	812711
383.253	907291
383.334	339802
383.416	279268
383.497	149147
383.578	124265
383.659	259759
383.741	751100
383.822	1247405
383.903	626255
383.984	270856
384.066	330756
384.147	182246
384.228	52735
384.309	43911
384.390	31772
384.471	24654
384.553	27872
384.634	36016
384.715	34000
384.796	20863
384.877	32738
384.958	103142
385.039	104938
385.120	39198
385.201	21137
385.282	25175
385.363	25487
385.444	26438
385.525	48907
385.606	126327
385.687	86178
385.768	28149
385.849	44093
385.930	152370
386.011	200439
386.092	52398
386.173	17130
386.254	13330
386.335	14197
386.416	20591
386.496	70770
386.577	90144
386.658	31316
386.739	21029
386.820	17471
386.901	13805
386.981	14067
387.062	11040
387.143	32419
387.224	102030
387.304	75372
387.385	29639
387.466	18976
387.547	20703
387.627	17422
387.708	48157
387.789	172630
387.869	167400
387.950	39744
388.031	10226
388.111	10819
388.192	26154
388.273	33166
388.353	20888
388.434	17287
388.514	42736
388.595	148699
388.676	171372
388.756	90572
388.837	97214
388.917	49232
388.998	11786
389.078	11294
389.159	11269
389.239	11304
389.320	21014
389.400	17953
389.480	42672
389.561	92547
389.641	38767
389.722	21891
389.802	32903
389.883	49305
389.963	106025
390.043	56126
390.124	20270
390.204	47283
390.284	116555
390.365	64107
390.445	84366
390.525	199060
390.605	157986
390.686	52614
390.766	20687
390.846	11886
390.927	8514
391.007	10634
391.087	12003
391.167	13714
391.247	9791
391.328	17503
391.408	21435
391.488	14033
391.568	8447
391.648	17338
391.728	22579
391.808	21367
391.888	26778
391.969	61598
392.049	81220
392.129	33029
392.209	50234
392.289	101963
392.369	50198
392.449	40260
392.529	27782
392.609	26952
392.689	41115
392.769	107747
392.849	79366
392.929	68556
393.009	141230
393.089	102870
393.169	108948
393.248	350212
393.328	943899
393.408	861433
393.488	255799
393.568	84290
393.648	44131
393.728	29817
393.807	21968
393.887	20219
393.967	20759
394.047	24849
394.127	30488
394.206	53528
394.286	190602
394.366	601890
394.446	535468
394.525	135627
394.605	41785
394.685	35927
394.764	65444
394.844	96098
394.924	60487
395.003	26576
395.083	20462
395.163	17377
395.242	18338
395.322	16465
395.402	12489
395.481	20322
395.561	53347
395.640	114522
395.720	90451
395.799	117531
395.879	83362
395.958	79067
396.038	276228
396.117	772798
396.197	720067
396.276	231665
396.356	86196
396.435	60035
396.515	44836
396.594	57625
396.673	107289
396.753	365326
396.832	852789
396.912	595880
396.991	156577
397.070	49903
397.150	28157
397.229	21838
397.308	28575
397.388	41893
397.467	21674
397.546	12640
397.625	10543
397.705	17358
397.784	17616
397.863	8884
397.942	7491
398.022	11177
398.101	40997
398.180	87704
398.259	39682
398.338	14571
398.417	12281
398.497	8976
398.576	10315
398.655	6389
398.734	6498
398.813	8116
398.892	39344
398.971	98429
399.050	39051
399.129	7850
399.208	5247
399.287	5893
399.366	5135
399.445	5772
399.524	7303
399.603	6885
399.682	19642
399.761	50611
399.840	111124
399.919	64173
399.998	10394
400.077	4794
400.156	4860
400.235	8410
400.313	6437
400.392	14406
400.471	64041
400.550	80497
400.629	20146
400.708	9825
400.786	11178
400.865	23916
400.944	24369
401.023	13244
401.102	4302
401.180	4475
401.259	4829
401.338	7552
401.416	11497
401.495	9880
401.574	7388
401.652	6863
401.731	10708
401.810	9636
401.888	5098
401.967	3674
402.046	6590
402.124	10558
402.203	12918
402.281	7982
402.360	13103
402.438	29810
402.517	16544
402.596	8214
402.674	6449
402.753	5288
402.831	5033
402.910	10450
402.988	45862
403.066	115342
403.145	55947
403.223	45777
403.302	98377
403.380	70072
403.459	68541
403.537	25184
403.615	10128
403.694	3736
403.772	3967
403.850	3502
403.929	4305
404.007	6150
404.085	17422
404.164	17354
404.242	6101
404.320	10037
404.398	23616
404.477	69762
404.555	233046
404.633	156799
404.711	25737
404.789	9791
404.868	8614
404.946	5321
405.024	3282
405.102	3369
405.180	3661
405.258	2965
405.336	5127
405.415	7181
405.493	14414
405.571	13360
405.649	4494
405.727	4519
405.805	8953
405.883	8945
405.961	9632
406.039	9245
406.117	5785
406.195	15831
406.273	73412
406.351	198121
406.429	91386
406.507	16705
406.585	7606
406.663	9358
406.740	13368
406.818	9469
406.896	5565
406.974	8079
407.052	27411
407.130	134198
407.208	142564
407.285	25479
407.363	6488
407.441	7439
407.519	6010
407.596	8753
407.674	20252
407.752	44350
407.830	39461
407.907	18043
407.985	8154
408.063	4818
408.141	4330
408.218	9619
408.296	10258
408.373	8814
408.451	10556
408.529	8589
408.606	3714
408.684	3205
408.762	2297
408.839	2435
408.917	2678
408.994	3496
409.072	2801
409.149	4033
409.227	7946
409.304	8975
409.382	7484
409.459	8372
409.537	11067
409.614	10291
409.692	7125
409.769	8411
409.846	12352
409.924	16423
410.001	11657
410.079	8896
410.156	7344
410.233	6681
410.311	5823
410.388	5579
410.465	6723
410.543	6569
410.620	4940
410.697	8377
410.775	9293
410.852	3313
410.929	9255
411.006	10272
411.083	7172
411.161	16410
411.238	15609
411.315	6903
411.392	6114
411.469	9986
411.547	9000
411.624	4584
411.701	5149
411.778	10444
411.855	20256
411.932	9180
412.009	4756
412.086	4951
412.163	7169
412.240	7656
412.317	7688
412.394	6790
412.471	3455
412.548	4305
412.625	4593
412.702	8047
412.779	13138
412.856	6861
412.933	3090
413.010	4621
413.087	14285
413.164	61545
413.241	66366
413.318	15598
413.395	12880
413.471	18296
413.548	6615
413.625	6101
413.702	7285
413.779	4691
413.855	2014
413.932	2486
414.009	1828
414.086	3049
414.162	4576
414.239	13761
414.316	63204
414.393	106626
414.469	29570
414.546	5136
414.623	2210
414.699	3883
414.776	7217
414.853	3429
414.929	4842
415.006	4019
415.082	5160
415.159	4138
415.236	4016
415.312	7357
415.389	15226
415.465	18030
415.542	8036
415.618	7415
415.695	12150
415.771	7659
415.848	6693
415.924	5475
416.000	4224
416.077	3858
416.153	450
416.230	1020
416.306	2257
416.383	1829
416.459	2666
416.535	2727
416.612	2228
416.688	3038
416.764	3722
416.841	4168
416.917	3468
416.993	4339
417.069	6597
417.146	10062
417.222	12090
417.298	7167
417.374	4129
417.451	6577
417.527	9629
417.603	9367
417.679	6232
417.755	5499
417.831	2002
417.908	1870
417.984	2658
418.060	4723
418.136	17783
418.212	19114
418.288	6128
418.364	3774
418.440	5592
418.516	9270
418.592	12201
418.668	27523
418.744	39320
418.820	23740
418.896	5732
418.972	3164
419.048	6074
419.124	18737
419.200	10849
419.276	2882
419.352	1406
419.428	2998
419.504	5662
419.579	6970
419.655	4900
419.731	9111
419.807	30540
419.883	47592
419.959	26388
420.034	8633
420.110	23523
420.186	75274
420.262	42282
420.337	9663
420.413	7587
420.489	4137
420.565	3578
420.640	3632
420.716	5155
420.792	2517
420.867	5202
420.943	4734
421.019	11900
421.094	6791
421.170	3361
421.245	3450
421.321	4423
421.397	5057
421.472	10861
421.548	22804
421.623	16290
421.699	9213
421.774	8150
421.850	8848
421.925	16672
422.001	12846
422.076	9726
422.152	13385
422.227	21634
422.302	22893
422.378	34423
422.453	63089
422.529	157389
422.604	400549
422.679	550320
422.755	355969
422.830	131664
422.905	53610
422.981	28963
423.056	20058
423.131	14486
423.207	11613
423.282	15982
423.357	27140
423.432	15855
423.508	21304
423.583	42698
423.658	24766
423.733	10011
423.808	11103
423.883	13317
423.959	10557
424.034	7605
424.109	5535
424.184	3877
424.259	4246
424.334	3186
424.409	3090
424.484	4050
424.559	5370
424.634	4955
424.709	9264
424.784	9699
424.859	6434
424.934	15989
425.009	60510
425.084	80469
425.159	23484
425.234	4583
425.309	3501
425.384	13908
425.459	19881
425.534	6760
425.609	4298
425.683	2527
425.758	3158
425.833	4271
425.908	9133
425.983	43514
426.058	88251
426.132	28887
426.207	6622
426.282	10424
426.357	6848
426.431	2994
426.506	3217
426.581	3182
426.655	4091
426.730	4262
426.805	4697
426.879	4464
426.954	5370
427.029	19933
427.103	93576
427.178	168646
427.253	55300
427.327	9183
427.402	13070
427.476	25110
427.551	10940
427.625	5461
427.700	4580
427.774	3551
427.849	4112
427.923	1738
427.998	3491
428.072	4845
428.147	15119
428.221	63033
428.296	130669
428.370	53516
428.444	9587
428.519	13098
428.593	20942
428.667	16549
428.742	21294
428.816	26401
428.890	93795
428.965	115706
429.039	38454
429.113	23767
429.188	8351
429.262	5024
429.336	16262
429.410	40616
429.485	20777
429.559	18351
429.633	11328
429.707	6684
429.781	24357
429.855	107741
429.930	131776
430.004	71252
430.078	96294
430.152	90070
430.226	178642
430.300	138359
430.374	21996
430.448	11976
430.522	42164
430.596	92355
430.670	62905
430.744	182661
430.818	202165
430.892	38767
430.966	8581
431.040	3766
431.114	2117
431.188	2444
431.262	2866
431.336	3400
431.410	14528
431.484	30996
431.557	17732
431.631	4310
431.705	5849
431.779	33703
431.853	112508
431.927	60276
432.000	7786
432.074	3933
432.148	5091
432.222	3006
432.295	1889
432.369	3300
432.443	12710
432.516	82443
432.590	156372
432.664	44528
432.737	5512
432.811	2310
432.885	1358
432.958	2114
433.032	1794
433.106	657
433.179	974
433.253	1161
433.326	1529
433.400	1306
433.473	1282
433.547	574
433.620	3683
433.694	10300
433.767	7187
433.841	2387
433.914	1630
433.988	1686
434.061	1686
434.134	1731
434.208	868
434.281	797
434.355	1599
434.428	2289
434.501	1440
434.575	1919
434.648	1408
434.721	960
434.795	1534
434.868	964
434.941	942
435.014	1093
435.088	3137
435.161	6524
435.234	11619
435.307	12295
435.381	5547
435.454	4207
435.527	5162
435.600	4950
435.673	3815
435.746	3228
435.819	3280
435.892	2566
435.966	1522
436.039	2232
436.112	2709
436.185	933
436.258	1573
436.331	565
436.404	419
436.477	181
436.550	426
436.623	992
436.696	1651
436.769	3015
436.842	2448
436.915	3395
436.987	5219
437.060	1853
437.133	1467
437.206	858
437.279	1236
437.352	1959
437.425	2534
437.498	3428
437.570	10752
437.643	7417
437.716	2155
437.789	2554
437.861	8813
437.934	20241
438.007	6830
438.080	2361
438.152	4603
438.225	15810
438.298	104638
438.370	202460
438.443	70330
438.516	17755
438.588	3774
438.661	1396
438.734	2278
438.806	3850
438.879	4425
438.951	7171
439.024	9344
439.096	3031
439.169	1275
439.241	1444
439.314	1489
439.386	3927
439.459	7582
439.531	10519
439.604	2852
439.676	1905
439.749	960
439.821	699
439.893	1269
439.966	1988
440.038	3860
440.110	3842
440.183	2368
440.255	2473
440.327	7869
440.400	47647
440.472	145517
440.544	69942
440.617	10194
440.689	7565
440.761	12268
440.833	16849
440.905	9012
440.978	1425
441.050	774
441.122	873
441.194	1507
441.266	1186
441.338	1569
441.411	11708
441.483	60100
441.555	59861
441.627	10669
441.699	6414
441.771	5542
441.843	1762
441.915	1657
441.987	390
442.059	1620
442.131	3634
442.203	6155
442.275	7531
442.347	6892
442.419	11438
442.491	59467
442.563	114782
442.635	42881
442.706	30922
442.778	18090
442.850	3673
442.922	2188
442.994	4696
443.066	6764
443.137	5093
443.209	4261
443.281	7749
443.353	19759
443.425	81704
443.496	230689
443.568	181779
443.640	56626
443.711	12242
443.783	5295
443.855	3898
443.926	2460
443.998	3180
444.070	2938
444.141	4779
444.213	9775
444.285	10642
444.356	7816
444.428	4741
444.499	1692
444.571	1373
444.642	2145
444.714	4152
444.785	7607
444.857	8964
444.928	16620
445.000	9266
445.071	13010
445.143	13411
445.214	9922
445.285	18748
445.357	53152
445.428	177557
445.500	318922
445.571	175824
445.642	83446
445.714	35834
445.785	27471
445.856	10209
445.928	11427
445.999	8915
446.070	6362
446.141	8992
446.213	9972
446.284	4315
446.355	3920
446.426	3232
446.497	3126
446.569	6698
446.640	11134
446.711	7366
446.782	2362
446.853	4509
446.924	4693
446.995	3388
447.066	4466
447.138	5641
447.209	2951
447.280	1343
447.351	1029
447.422	922
447.493	3083
447.564	5629
447.635	8653
447.706	2482
447.777	1481
447.847	382
447.918	1394
447.989	3887
448.060	6289
448.131	12287
448.202	10976
448.273	7961
448.344	3400
448.414	2214
448.485	1827
448.556	695
448.627	1611
448.698	1291
448.768	1135
448.839	2258
448.910	5644
448.981	4480
449.051	2706
449.122	1195
449.193	747
449.263	1228
449.334	1434
449.405	6224
449.475	12192
449.546	6179
449.616	7553
449.687	4902
449.758	1841
449.828	2067
449.899	1809
449.969	695
450.040	1774
450.110	3632
450.181	3309
450.251	1375
450.322	1378
450.392	928
450.463	1349
450.533	1648
450.604	1268
450.674	1168
450.744	1629
450.815	785
450.885	1329
450.955	698
451.026	790
451.096	1216
451.166	2663
451.237	8513
451.307	15070
451.377	4745
451.447	1885
451.518	733
451.588	1481
451.658	2508
451.728	5020
451.799	20610
451.869	14654
451.939	2340
452.009	1158
452.079	1189
452.149	2068
452.219	7142
452.289	21339
452.360	9578
452.430	2289
452.500	3412
452.570	5687
452.640	6756
452.710	19873
452.780	23276
452.850	23490
452.920	17005
452.990	5060
453.060	4284
453.129	6284
453.199	7790
453.269	32993
453.339	47117
453.409	61282
453.479	80969
453.549	105236
453.619	96754
453.688	26394
453.758	5413
453.828	2278
453.898	1911
453.968	1711
454.037	948
454.087	1352
454.107	1497
454.168	1282
454.177	1227
454.247	1206
454.249	1229
454.316	1294
454.330	1809
454.386	3653
454.411	6706
454.456	11423
454.492	12002
454.525	12475
454.574	6871
454.595	4487
454.655	2037
454.665	1668
454.734	3146
454.736	3328
454.804	7974
454.817	10568
454.873	20208
454.898	19214
454.943	16853
454.979	11545
455.013	7018
455.060	4147
455.082	3253
455.141	4901
455.152	4950
455.221	15803
455.222	15968
455.291	20310
455.303	18412
455.360	9804
455.384	10412
455.430	11713
455.465	12100
455.499	11968
455.546	16094
455.569	17469
455.627	10226
455.638	9018
455.707	2046
455.708	2069
455.777	1944
455.789	1950
455.846	1959
455.869	2053
455.916	2209
455.950	1951
455.985	1627
456.031	2527
456.054	2885
456.112	2087
456.124	1962
456.193	1891
456.193	1869
456.262	2506
456.274	2822
456.332	3958
456.355	3971
456.401	3726
456.436	3108
456.470	2454
456.516	1707
456.540	1366
456.597	1614
456.609	1674
456.678	2187
456.678	2169
456.747	1685
456.759	1601
456.817	1230
456.840	1300
456.886	1492
456.920	1603
456.955	1784
457.001	2058
457.024	2302
457.082	3743
457.093	3952
457.162	5281
457.163	5315
457.232	5778
457.243	5374
457.301	2658
457.324	2062
457.370	1836
457.405	2093
457.439	2137
457.485	2295
457.508	2478
457.566	3035
457.577	3155
457.646	4301
457.647	4334
457.715	7182
457.727	7797
457.784	11514
457.808	14536
457.853	18612
457.889	20926
457.922	20568
457.969	14375
457.991	14087
458.050	17932
458.060	18523
458.129	30769
458.130	31040
458.198	30342
458.211	27467
458.267	13884
458.292	9982
458.336	7414
458.372	7106
458.405	9295
458.453	13082
458.474	16332
458.533	30863
458.543	32204
458.611	50312
458.614	50455
458.680	31066
458.694	25385
458.749	12109
458.775	8758
458.818	5883
458.855	5186
458.887	4751
458.936	3966
458.955	3720
459.016	3782
459.024	3844
459.093	4668
459.097	4683
459.162	4882
459.177	5114
459.230	5909
459.257	6658
459.299	7421
459.338	7264
459.368	7207
459.418	7811
459.437	7393
459.499	4948
459.505	4892
459.574	4539
459.579	4595
459.643	4761
459.659	4651
459.711	4762
459.740	5045
459.780	5248
459.820	5504
459.849	5774
459.900	6284
459.917	6376
459.981	7428
459.986	7483
460.054	6524
460.061	6561
460.123	7493
460.141	7779
460.191	9661
460.222	11072
460.260	12163
460.302	13700
460.328	13049
460.382	9677
460.397	9200
460.462	8027
460.465	8077
460.534	10103
460.543	10355
460.602	23252
460.623	28374
460.671	40342
460.703	52349
460.739	51031
460.783	41700
460.808	33524
460.864	8782
460.876	7044
460.944	5593
460.945	5585
461.013	6029
461.024	6183
461.081	6226
461.104	6310
461.150	6349
461.184	6168
461.218	6160
461.264	5650
461.286	5342
461.345	5113
461.355	5144
461.423	6005
461.425	6006
461.491	6034
461.505	6183
461.559	10312
461.585	12224
461.628	19345
461.665	27096
461.696	30561
461.745	36608
461.764	32063
461.825	10211
461.832	9691
461.901	7127
461.905	7146
461.969	6499
461.985	6097
462.037	6246
462.065	6346
462.105	6596
462.145	7037
462.173	10009
462.225	15884
462.241	17242
462.305	24132
462.310	23598
462.378	13317
462.385	11943
462.446	7798
462.465	6965
462.514	6986
462.545	7074
462.582	6795
462.625	6579
462.650	6424
462.705	5918
462.718	6056
462.785	6969
462.786	7015
462.854	9135
462.865	9620
462.922	12621
462.945	13787
462.990	10541
463.025	7335
463.058	6479
463.104	5608
463.126	5774
463.184	6591
463.194	6648
463.262	6788
463.264	6797
463.330	7167
463.344	7197
463.398	7699
463.424	7991
463.466	7925
463.504	7774
463.533	7755
463.583	7810
463.601	8209
463.663	9198
463.669	9364
463.737	12019
463.743	12215
463.805	18269
463.823	20030
463.873	28499
463.903	34083
463.940	36540
463.982	39286
464.008	31848
464.062	13618
464.076	12411
464.142	7232
464.144	7211
464.211	7164
464.221	7121
464.279	7455
464.301	7683
464.347	8603
464.381	9317
464.414	10068
464.461	11070
464.482	11504
464.540	12774
464.550	12546
464.617	10335
464.620	10252
464.685	12119
464.699	12529
464.753	15143
464.779	16491
464.820	16972
464.859	17162
464.888	16637
464.938	15681
464.956	15962
465.018	17015
465.023	16731
465.091	12612
465.098	12152
465.158	12178
465.177	12283
465.226	12563
465.257	12598
465.293	13221
465.336	13950
465.361	15342
465.416	18402
465.428	19454
465.495	25200
465.496	25304
465.563	35225
465.575	37022
465.631	44873
465.654	48159
465.698	31946
465.734	17520
465.765	15233
465.813	12256
465.833	12374
465.893	13038
465.900	13115
465.968	13610
465.972	13614
466.035	13304
466.052	13196
466.102	13728
466.131	14011
466.170	14354
466.210	14706
466.237	15416
466.290	16732
466.304	16705
466.369	16329
466.372	16405
466.439	17843
466.449	18016
466.506	19707
466.528	20293
466.573	26337
466.607	30821
466.641	42162
466.687	57860
466.708	63141
466.766	77752
466.775	72701
466.842	33146
466.845	31212
466.909	24586
466.925	23039
466.977	21887
467.004	21235
467.044	21638
467.083	21989
467.111	23148
467.163	25205
467.178	25987
467.242	29019
467.245	28919
467.312	25713
467.321	25240
467.379	24848
467.400	24635
467.446	25593
467.480	26198
467.559	23723
467.638	21188
467.717	20672
467.796	23588
467.875	26436
467.955	23150
468.034	30773
468.113	63047
468.192	88438
468.271	30823
468.350	20265
468.429	23071
468.508	22420
468.588	19619
468.667	18163
468.746	19347
468.825	18410
468.904	16692
468.983	19545
469.062	27899
469.141	34572
469.220	17572
469.299	16332
469.378	19312
469.456	22719
469.535	20524
469.614	18703
469.693	18737
469.772	25736
469.851	30538
469.930	26311
470.009	20065
470.088	19903
470.166	25016
470.245	39288
470.324	49959
470.403	36309
470.482	25392
470.560	21612
470.639	21798
470.718	24625
470.797	20604
470.875	21439
470.954	27396
471.033	30290
471.111	15689
471.190	14498
471.269	13565
471.347	14648
471.426	16031
471.505	17605
471.583	19460
471.662	17891
471.740	16070
471.819	15812
471.898	15204
471.976	17044
472.055	16193
472.133	16572
472.212	22065
472.290	22420
472.369	15376
472.447	14752
472.526	14327
472.604	15114
472.683	16204
472.761	17951
472.839	16945
472.918	15863
472.996	16124
473.075	18108
473.153	17406
473.231	15079
473.310	17727
473.388	17861
473.466	16774
473.545	19213
473.623	27492
473.701	28395
473.780	17024
473.858	15461
473.936	17976
474.014	15198
474.093	17395
474.171	24718
474.249	31178
474.327	24407
474.405	13911
474.484	14251
474.562	15184
474.640	15818
474.718	17026
474.796	17120
474.874	16132
474.952	14844
475.030	14760
475.108	16584
475.187	19456
475.265	21827
475.343	29388
475.421	33858
475.499	17514
475.577	17044
475.655	19750
475.733	36403
475.811	60161
475.889	53685
475.966	40377
476.044	15795
476.122	21056
476.200	27616
476.278	23408
476.356	14140
476.434	15246
476.512	20533
476.590	26275
476.667	24071
476.745	14187
476.823	15251
476.901	14377
476.979	14948
477.056	14959
477.134	14997
477.212	16032
477.290	15565
477.367	12525
477.445	13560
477.523	13536
477.601	13316
477.678	13449
477.756	15815
477.834	18118
477.911	14042
477.989	13626
478.066	13101
478.144	14979
478.222	19542
478.299	31644
478.377	33250
478.454	13999
478.532	13555
478.609	14279
478.687	15620
478.764	13501
478.842	14677
478.919	16949
478.997	14943
479.074	12041
479.152	15571
479.229	17842
479.307	13488
479.384	10766
479.461	10872
479.539	12257
479.616	14618
479.694	12592
479.771	13830
479.848	13526
479.926	18585
480.003	22806
480.080	13172
480.157	11254
480.235	12548
480.312	11860
480.389	14514
480.467	21295
480.544	26501
480.621	16316
480.698	14299
480.775	16301
480.853	16533
480.930	13292
481.007	13514
481.084	15262
481.161	17415
481.238	15878
481.315	11991
481.392	12597
481.470	12336
481.547	13685
481.624	12090
481.701	12467
481.778	13403
481.855	13936
481.932	21437
482.009	34255
482.086	27851
482.163	14628
482.240	22228
482.317	41557
482.393	37163
482.470	14673
482.547	14482
482.624	12636
482.701	14466
482.778	13548
482.855	10814
482.932	11203
483.009	12152
483.085	14051
483.162	17137
483.239	17141
483.316	12918
483.393	12522
483.469	12699
483.546	14685
483.623	15493
483.699	12525
483.776	12460
483.853	16058
483.930	20618
484.006	52577
484.083	87094
484.160	54600
484.236	67298
484.313	56116
484.389	41472
484.466	37053
484.543	35913
484.619	35540
484.696	37425
484.772	38234
484.849	40205
484.925	34294
485.002	33612
485.078	34156
485.155	35945
485.231	32432
485.308	32302
485.384	33285
485.461	38112
485.537	59650
485.614	72116
485.690	35256
485.766	31115
485.843	34793
485.919	50246
485.995	56923
486.072	30279
486.148	29450
486.224	28146
486.301	30079
486.377	35285
486.453	37254
486.530	33746
486.606	40680
486.682	49661
486.758	55190
486.835	64074
486.911	51843
486.987	78033
487.063	103887
487.139	136549
487.215	99297
487.292	47748
487.368	34915
487.444	38660
487.520	46126
487.596	46969
487.672	59179
487.748	133643
487.824	207097
487.900	101062
487.976	45159
488.052	40358
488.128	47595
488.204	40290
488.280	32968
488.356	35584
488.432	67383
488.508	103049
488.584	48059
488.660	32460
488.736	31696
488.812	33327
488.888	42005
488.964	56550
489.039	124421
489.115	208216
489.191	139003
489.267	36021
489.343	29328
489.418	26644
489.494	24963
489.570	23430
489.646	26505
489.722	25966
489.797	26528
489.873	35600
489.949	73629
490.024	71646
490.100	26526
490.176	25648
490.251	33868
490.327	45210
490.403	29958
490.478	23703
490.554	22050
490.629	21885
490.705	22689
490.781	24240
490.856	22800
490.932	28399
491.007	30077
491.083	27966
491.158	23937
491.234	30915
491.309	58260
491.385	66102
491.460	27089
491.536	27162
491.611	25692
491.686	27859
491.762	38707
491.837	83312
491.913	143383
491.988	193339
492.063	266259
492.139	80376
492.214	37511
492.289	22270
492.365	21863
492.440	26127
492.515	24920
492.590	25319
492.666	20342
492.741	26797
492.816	37963
492.891	25307
492.967	20283
493.042	17988
493.117	17269
493.192	17579
493.267	22813
493.342	40707
493.418	47678
493.493	21839
493.568	17543
493.643	18861
493.718	23736
493.793	34778
493.868	45233
493.943	32362
494.018	21124
494.093	18795
494.168	18341
494.243	17329
494.318	17310
494.393	17088
494.468	17045
494.543	17230
494.618	21701
494.693	20300
494.768	16831
494.842	19365
494.917	17028
494.992	18679
495.067	18600
495.142	16655
495.217	18933
495.292	21158
495.366	24284
495.441	28850
495.516	34909
495.591	48105
495.665	172181
495.740	431373
495.815	239678
495.890	35816
495.964	23830
496.039	26328
496.114	23433
496.188	25691
496.263	26486
496.338	23804
496.412	24850
496.487	30693
496.561	33855
496.636	36861
496.710	27804
496.785	29688
496.860	33363
496.934	29449
497.009	29284
497.083	30454
497.158	33456
497.232	38720
497.307	43748
497.381	39157
497.455	43484
497.530	52136
497.604	43878
497.679	44487
497.753	63434
497.827	83452
497.902	80341
497.976	83454
498.050	143470
498.125	468364
498.199	558678
498.273	138248
498.348	102962
498.422	86992
498.496	79281
498.570	75796
498.645	55785
498.719	49114
498.793	53266
498.867	68723
498.941	83267
499.016	191872
499.090	505105
499.164	246315
499.238	39702
499.312	33198
499.386	40867
499.460	40209
499.534	32483
499.609	38625
499.683	50451
499.757	47400
499.831	81631
499.905	322549
499.979	369263
500.053	66361
500.127	63352
500.201	54957
500.275	35212
500.349	29764
500.422	33279
500.496	49159
500.570	100848
500.644	215671
500.718	370129
500.792	117955
500.866	29157
500.940	32876
501.013	31297
501.087	29690
501.161	53082
501.235	70995
501.309	106099
501.382	303102
501.456	323219
501.530	77195
501.603	103480
501.677	56017
501.751	22684
501.825	27375
501.898	43600
501.972	122231
502.046	100579
502.119	28038
502.193	58253
502.266	137753
502.340	85735
502.413	58844
502.487	121745
502.561	77392
502.634	32629
502.708	23758
502.781	21963
502.855	19501
502.928	14290
503.002	15537
503.075	15227
503.149	16509
503.222	17057
503.295	19037
503.369	22560
503.442	28834
503.516	87232
503.589	238268
503.662	184033
503.736	55925
503.809	106667
503.882	106015
503.956	126742
504.029	143486
504.102	97489
504.175	125650
504.249	58138
504.322	33186
504.395	27514
504.468	19911
504.542	18499
504.615	15593
504.688	15189
504.761	13292
504.834	19261
504.907	25983
504.980	45570
505.053	26964
505.127	27914
505.200	35279
505.273	23602
505.346	18698
505.419	14310
505.492	13809
505.565	11986
505.638	12150
505.711	12515
505.784	11973
505.857	12003
505.930	14686
506.003	12817
506.076	15504
506.149	17244
506.221	22486
506.294	21395
506.367	46104
506.440	166173
506.513	121685
506.586	26773
506.659	18886
506.731	14834
506.804	19364
506.877	29873
506.950	21509
507.022	14500
507.095	15948
507.168	23399
507.241	16879
507.313	12841
507.386	15676
507.459	24606
507.531	17782
507.604	13007
507.677	14360
507.749	10213
507.822	18580
507.894	35596
507.967	46163
508.040	25900
508.112	20491
508.185	19362
508.257	19392
508.330	30676
508.402	21288
508.475	16930
508.547	19428
508.620	17781
508.692	28300
508.765	21119
508.837	14962
508.909	14286
508.982	15016
509.054	19106
509.127	16960
509.199	14388
509.271	14171
509.344	13380
509.416	14280
509.488	15079
509.560	14813
509.633	16953
509.705	19666
509.777	19044
509.849	29091
509.922	21588
509.994	14751
510.066	14999
510.138	16693
510.210	31720
510.283	30815
510.355	25868
510.427	21900
510.499	21437
510.571	23630
510.643	20545
510.715	34917
510.787	36669
510.859	21896
510.931	24257
511.003	34611
511.076	35413
511.148	19542
511.219	17910
511.291	25728
511.363	34342
511.435	19783
511.507	15155
511.579	17076
511.651	17151
511.723	17222
511.795	16802
511.867	17267
511.939	20202
512.010	36083
512.082	36729
512.154	19337
512.226	19492
512.298	26975
512.369	42926
512.441	35008
512.513	32915
512.585	27003
512.656	25900
512.728	29510
512.800	23996
512.871	20706
512.943	21657
513.015	18656
513.086	22152
513.158	24403
513.230	24273
513.301	36096
513.373	43761
513.444	26425
513.516	20757
513.588	20690
513.659	23709
513.731	29986
513.802	26574
513.874	52863
513.945	106954
514.016	45915
514.088	21775
514.159	23628
514.231	31257
514.302	42228
514.374	30032
514.445	27799
514.516	44958
514.588	40279
514.659	26185
514.730	42627
514.802	42760
514.873	35493
514.944	38911
515.016	32457
515.087	35860
515.158	37638
515.229	51773
515.301	37974
515.372	50133
515.443	38561
515.514	29595
515.585	23520
515.656	23413
515.728	22355
515.799	20579
515.870	23226
515.941	24903
516.012	24853
516.083	31003
516.154	36534
516.225	46301
516.296	48058
516.367	44288
516.438	49477
516.509	61643
516.580	84492
516.651	253620
516.722	950430
516.793	589289
516.864	104369
516.935	85676
517.006	89265
517.077	117858
517.148	259396
517.219	925309
517.289	1638085
517.360	495502
517.431	149068
517.502	51689
517.573	42171
517.643	40066
517.714	41474
517.785	45829
517.856	47368
517.926	58293
517.997	68319
518.068	87076
518.138	114141
518.209	169850
518.280	585498
518.350	2022955
518.421	1162286
518.492	181589
518.562	78423
518.633	61534
518.703	53891
518.774	72543
518.845	139716
518.915	150791
518.986	70060
519.056	54517
519.127	82640
519.197	121931
519.268	226664
519.338	163949
519.408	45859
519.479	56584
519.549	48929
519.620	29293
519.690	23009
519.760	22312
519.831	25043
519.901	25924
519.971	20017
520.042	20810
520.112	24970
520.182	29675
520.253	38253
520.323	24361
520.393	28341
520.463	47025
520.534	30880
520.604	58854
520.674	35798
520.744	29846
520.814	63014
520.885	70692
520.955	62919
521.025	223635
521.095	123395
521.165	25577
521.235	22216
521.305	19230
521.375	18855
521.445	21700
521.515	31952
521.585	36988
521.655	40165
521.725	29221
521.795	27022
521.865	18374
521.935	27457
522.005	27061
522.075	18056
522.145	20038
522.215	22080
522.285	29365
522.355	37413
522.424	66999
522.494	66772
522.564	39398
522.634	69640
522.704	230977
522.774	123928
522.843	26642
522.913	23925
522.983	30157
523.053	25693
523.122	23374
523.192	31850
523.262	114844
523.331	152683
523.401	33512
523.471	17973
523.540	19612
523.610	15757
523.680	14842
523.749	15904
523.819	19314
523.888	20772
523.958	14724
524.027	15924
524.097	18578
524.166	18046
524.236	19202
524.305	20567
524.375	15401
524.444	14763
524.514	16984
524.583	17402
524.653	20994
524.722	24070
524.791	17256
524.861	18014
524.930	15231
524.999	17254
525.069	26410
525.138	21046
525.207	23378
525.277	18267
525.346	18232
525.415	18105
525.484	18565
525.554	21713
525.623	22415
525.692	19437
525.761	21887
525.830	23468
525.900	25710
525.969	36618
526.038	54500
526.107	93980
526.176	279488
526.245	280611
526.314	104025
526.383	153077
526.452	226864
526.522	317401
526.591	418965
526.660	165008
526.729	83889
526.797	68634
526.867	128805
526.935	547790
527.004	895385
527.073	575308
527.142	76203
527.211	32757
527.280	29761
527.349	32030
527.418	17328
527.487	17176
527.555	14975
527.624	14245
527.693	13175
527.762	15444
527.831	13210
527.899	14970
527.968	14974
528.037	14249
528.106	19265
528.174	39165
528.243	32583
528.312	39208
528.380	65196
528.449	23434
528.518	15236
528.586	11662
528.655	12996
528.723	12529
528.792	12140
528.861	14312
528.929	12226
528.998	13096
529.066	11600
529.135	12820
529.203	11302
529.272	10518
529.340	13344
529.409	14702
529.477	12525
529.545	16504
529.614	20154
529.682	18172
529.751	24337
529.819	23642
529.887	18860
529.956	13320
530.024	14713
530.092	12307
530.161	16899
530.229	31040
530.297	20919
530.365	13743
530.434	13204
530.502	11475
530.570	12387
530.638	11193
530.707	14707
530.775	17027
530.843	12145
530.911	12445
530.979	11904
531.047	12209
531.115	13515
531.183	12870
531.252	13250
531.320	13301
531.388	12939
531.456	13974
531.524	11054
531.592	13786
531.660	15606
531.728	13040
531.796	12349
531.864	13087
531.932	12759
532.000	14015
532.067	14617
532.135	17572
532.203	20531
532.271	20417
532.339	34121
532.407	102965
532.475	79866
532.542	29923
532.610	29349
532.678	36999
532.746	139250
532.814	445185
532.881	153188
532.949	27273
533.017	19802
533.084	16100
533.152	14493
533.220	15079
533.287	18772
533.355	15176
533.423	14524
533.490	12983
533.558	14369
533.625	15098
533.693	16565
533.761	17491
533.828	17542
533.896	16195
533.963	33078
534.031	46595
534.098	65343
534.166	36586
534.233	16364
534.300	16549
534.368	17062
534.435	16200
534.503	16360
534.570	19611
534.637	19657
534.705	20158
534.772	22507
534.840	33534
534.907	123192
534.974	206360
535.041	39252
535.109	22437
535.176	17321
535.243	15073
535.310	16869
535.378	16801
535.445	14410
535.512	14640
535.579	14799
535.646	14179
535.714	15320
535.781	18917
535.848	18167
535.915	17363
535.982	16142
536.049	16734
536.116	18458
536.183	17673
536.250	18069
536.317	19250
536.384	21989
536.451	33500
536.518	36887
536.585	25576
536.652	29854
536.719	44990
536.786	38509
536.853	28711
536.920	38752
536.987	63440
537.053	61383
537.120	210062
537.187	241905
537.254	31071
537.321	19337
537.388	19582
537.454	16328
537.521	15770
537.588	16066
537.654	18406
537.721	21060
537.788	22201
537.855	18077
537.921	19078
537.988	19480
538.055	20140
538.121	18451
538.188	21474
538.254	32804
538.321	68896
538.388	46575
538.454	22462
538.521	18839
538.587	17153
538.654	17436
538.720	17609
538.787	17682
538.853	18928
538.920	22784
538.986	24594
539.053	20331
539.119	22131
539.185	21463
539.252	25318
539.318	41836
539.385	33557
539.451	27070
539.517	26912
539.583	29840
539.650	59569
539.716	191027
539.782	71448
539.849	24812
539.915	22805
539.981	22564
540.047	28187
540.114	26869
540.180	25685
540.246	25656
540.312	34187
540.378	66126
540.444	72005
540.510	66302
540.576	211332
540.643	91370
540.709	24314
540.775	20800
540.841	20559
540.907	25903
540.973	40045
541.039	39458
541.105	42624
541.171	26910
541.237	22169
541.303	23034
541.369	27073
541.435	34413
541.500	58828
541.566	41681
541.632	22852
541.698	20116
541.764	20415
541.830	18178
541.896	19126
541.961	19530
542.027	20607
542.093	21036
542.159	22729
542.224	25309
542.290	37084
542.356	58926
542.421	71612
542.487	34964
542.553	24530
542.618	25268
542.684	24458
542.750	23867
542.815	26046
542.881	43767
542.947	167859
543.012	163863
543.078	27260
543.143	20935
543.209	23615
543.274	23695
543.340	26997
543.405	62162
543.471	129302
543.536	34969
543.602	21222
543.667	20077
543.732	20937
543.798	19578
543.863	20112
543.928	18159
543.994	18247
544.059	19115
544.124	20017
544.190	20762
544.255	21627
544.320	22948
544.386	24075
544.451	33162
544.516	39018
544.581	36873
544.646	98993
544.712	204778
544.777	47379
544.842	26346
544.907	26856
544.972	24149
545.037	22985
545.102	26076
545.168	25001
545.233	27259
545.298	28270
545.363	32559
545.428	36758
545.493	60024
545.558	154859
545.623	78708
545.688	29301
545.753	26342
545.818	25640
545.883	26016
545.947	25165
546.012	27359
546.077	28788
546.142	27929
546.207	28293
546.272	36846
546.337	39691
546.401	32189
546.466	29154
546.531	26933
546.596	29241
546.661	30299
546.725	29865
546.790	27069
546.855	28560
546.919	28801
546.984	31091
547.049	34067
547.113	38290
547.178	37036
547.243	41707
547.307	45086
547.372	52000
547.436	55572
547.501	47389
547.565	50597
547.630	56671
547.695	56377
547.759	54475
547.823	51521
547.888	46927
547.952	45461
548.017	47115
548.081	54044
548.146	60623
548.210	58961
548.274	51744
548.339	51457
548.403	47509
548.468	45820
548.532	45444
548.596	45912
548.660	46925
548.725	50197
548.789	57453
548.853	58458
548.917	51966
548.982	57162
549.046	59276
549.110	44065
549.174	43841
549.238	45715
549.303	49447
549.367	52425
549.431	50591
549.495	47826
549.559	48291
549.623	53073
549.687	61845
549.751	77879
549.815	70883
549.879	64913
549.943	61426
550.007	65442
550.071	67024
550.135	74330
550.199	67208
550.263	58404
550.327	58570
550.391	67202
550.455	63795
550.519	63506
550.582	68848
550.646	86016
550.710	96967
550.774	74471
550.838	74209
550.901	76292
550.965	81181
551.029	83755
551.093	92596
551.156	104531
551.220	144949
551.284	169791
551.347	111852
551.411	134336
551.475	152318
551.538	85119
551.602	73685
551.666	71143
551.729	65303
551.793	64143
551.856	63630
551.920	61593
551.983	63449
552.047	61240
552.110	61366
552.174	62706
552.237	64330
552.301	61724
552.364	58131
552.428	58887
552.491	60749
552.554	63975
552.618	63861
552.681	67166
552.745	72196
552.808	101758
552.871	144642
552.934	106714
552.998	75330
553.061	67428
553.124	61533
553.187	58851
553.251	60786
553.314	62395
553.377	58687
553.440	64159
553.503	78260
553.567	96540
553.630	65939
553.693	63145
553.756	61942
553.819	59082
553.882	58436
553.945	58161
554.008	57721
554.071	56936
554.134	58794
554.197	57384
554.260	55893
554.323	58815
554.386	58881
554.449	58815
554.512	59428
554.575	55656
554.638	57573
554.701	55957
554.764	56075
554.827	54392
554.889	52198
554.952	49168
555.015	49635
555.078	49002
555.141	51093
555.203	49964
555.266	49814
555.329	49512
555.391	48430
555.454	49461
555.517	49746
555.580	46236
555.642	45046
555.705	44174
555.768	44124
555.830	44815
555.893	41900
555.955	41532
556.018	41187
556.080	41570
556.143	41978
556.206	42880
556.268	42820
556.330	44190
556.393	43224
556.455	41957
556.518	50900
556.580	55196
556.643	40343
556.705	39238
556.767	38173
556.830	38848
556.892	42597
556.955	63911
557.017	53646
557.079	39199
557.142	38647
557.204	42824
557.266	76139
557.328	75861
557.391	36233
557.453	33799
557.515	35403
557.577	41610
557.639	47301
557.701	35673
557.764	33529
557.826	35486
557.888	38583
557.950	38675
558.012	41065
558.074	48135
558.136	92200
558.198	247404
558.260	119404
558.322	48209
558.384	49765
558.446	52883
558.508	60595
558.570	71685
558.632	108661
558.694	168607
558.756	152872
558.818	388647
558.880	1096663
558.942	445696
559.003	274151
559.065	166803
559.127	66884
559.189	63276
559.251	67781
559.312	83293
559.374	186766
559.436	679313
559.498	438648
559.559	82732
559.621	63508
559.683	65062
559.744	100162
559.806	296154
559.868	544677
559.929	135459
559.991	67027
560.052	84815
560.114	227212
560.176	181853
560.237	129477
560.299	250639
560.360	79779
560.422	35607
560.483	32551
560.545	29392
560.606	29629
560.667	27538
560.729	27619
560.790	26897
560.852	27182
560.913	27329
560.974	27082
561.036	26515
561.097	27591
561.158	28471
561.220	28968
561.281	29060
561.342	29572
561.403	32461
561.465	41916
561.526	91093
561.587	144549
561.648	48530
561.709	30333
561.771	29093
561.832	27743
561.893	27772
561.954	26329
562.015	25580
562.076	26458
562.137	27137
562.198	27381
562.259	28181
562.320	27812
562.381	31160
562.442	44339
562.503	38472
562.564	27036
562.625	26378
562.686	25952
562.747	29292
562.808	29117
562.869	24786
562.930	30867
562.991	29245
563.051	28739
563.112	26547
563.173	26634
563.234	25478
563.294	26035
563.355	26090
563.416	27381
563.477	27467
563.537	27348
563.598	27956
563.659	27416
563.720	27028
563.780	27597
563.841	30325
563.901	27477
563.962	25856
564.023	26699
564.083	27165
564.144	27446
564.204	27183
564.265	26366
564.325	29555
564.386	48528
564.446	48031
564.507	27690
564.567	26632
564.628	26635
564.688	27443
564.749	26932
564.809	29423
564.869	34461
564.930	30518
564.990	28008
565.050	27147
565.111	28066
565.171	27130
565.231	27584
565.292	28036
565.352	27585
565.412	28639
565.472	30179
565.532	31143
565.593	29490
565.653	27870
565.713	30394
565.773	32140
565.833	36252
565.893	47163
565.953	35415
566.013	31326
566.074	33083
566.134	36723
566.194	50251
566.254	56829
566.314	43754
566.374	34329
566.434	36115
566.494	36319
566.554	36282
566.614	38809
566.673	39188
566.733	42104
566.793	43412
566.853	44719
566.913	45664
566.973	46736
567.033	47640
567.092	48853
567.152	46555
567.212	47736
567.272	47992
567.331	49525
567.391	50789
567.451	53025
567.511	60720
567.570	62377
567.630	49458
567.690	48279
567.749	48359
567.809	51150
567.868	57860
567.928	63243
567.988	72072
568.047	82041
568.107	98348
568.166	128706
568.226	193975
568.285	271211
568.345	253798
568.404	214118
568.464	185938
568.523	171739
568.582	169932
568.642	183629
568.701	214848
568.761	290958
568.820	441548
568.879	459659
568.939	373008
568.998	288816
569.057	229521
569.116	183691
569.176	153414
569.235	128565
569.294	109719
569.353	95954
569.413	84884
569.472	77643
569.531	69837
569.590	61788
569.649	57093
569.708	53764
569.767	51788
569.827	56018
569.886	49613
569.945	43502
570.004	41768
570.063	41107
570.122	40168
570.181	40912
570.240	40401
570.299	40785
570.358	42691
570.417	36006
570.475	32875
570.534	32663
570.593	35155
570.652	34899
570.711	35154
570.770	32303
570.829	32856
570.887	32801
570.946	37601
571.005	29972
571.064	28963
571.122	33088
571.181	34156
571.240	28987
571.299	26949
571.357	27911
571.416	28795
571.475	30415
571.533	31707
571.592	27574
571.650	27052
571.709	24576
571.768	25675
571.826	25935
571.885	24476
571.943	24173
572.002	24496
572.060	24555
572.119	23858
572.177	23278
572.236	22245
572.294	22779
572.352	23741
572.411	23642
572.469	22427
572.528	22697
572.586	22908
572.644	25032
572.703	32853
572.761	26559
572.819	23151
572.877	21456
572.936	20844
572.994	20582
573.052	21748
573.110	23244
573.169	22211
573.227	22275
573.285	22110
573.343	20480
573.401	21626
573.459	21203
573.517	21001
573.576	20740
573.634	21636
573.692	21998
573.750	22077
573.808	21313
573.866	21793
573.924	24972
573.982	25473
574.040	21260
574.098	18936
574.155	20152
574.213	19834
574.271	20516
574.329	20225
574.387	20455
574.445	19058
574.503	19318
574.560	18121
574.618	19798
574.676	17986
574.734	19730
574.792	20290
574.849	19903
574.907	19332
574.965	18410
575.022	17452
575.080	17662
575.138	19446
575.195	19198
575.253	20057
575.311	22206
575.368	19405
575.426	18820
575.483	19739
575.541	18787
575.598	17710
575.656	19500
575.713	19653
575.771	19540
575.828	19447
575.886	18729
575.943	20489
576.001	20448
576.058	19653
576.115	21128
576.173	23001
576.230	25183
576.287	27832
576.345	24185
576.402	20283
576.459	19825
576.517	20914
576.574	20581
576.631	21364
576.688	19816
576.746	19684
576.803	19267
576.860	19283
576.917	19102
576.974	20021
577.031	18971
577.089	20346
577.146	19777
577.203	19458
577.260	21018
577.317	20049
577.374	22018
577.431	22018
577.488	19839
577.545	18701
577.602	19625
577.659	19833
577.716	19544
577.773	18360
577.830	19511
577.886	19038
577.943	17987
578.000	19902
578.057	20724
578.114	19964
578.171	19669
578.227	20461
578.284	19035
578.341	19871
578.398	19587
578.454	20902
578.511	21093
578.568	22693
578.625	21417
578.681	19857
578.738	19307
578.794	18788
578.851	20274
578.908	20103
578.964	21728
579.021	20754
579.077	20763
579.134	19849
579.190	19700
579.247	19632
579.303	19279
579.360	19040
579.416	19872
579.473	19034
579.529	18742
579.586	19283
579.642	18693
579.698	18948
579.755	19937
579.811	20893
579.867	19096
579.924	19095
579.980	18923
580.036	19658
580.093	20230
580.149	21417
580.205	21571
580.261	20599
580.317	21349
580.374	20938
580.430	23699
580.486	23614
580.542	22011
580.598	22227
580.619	21979
580.654	21576
580.692	20868
580.710	20555
580.765	21397
580.767	21450
580.823	21457
580.838	21343
580.879	21118
580.911	20622
580.935	20299
580.984	19858
580.991	19823
581.047	21092
581.057	21073
581.103	21115
581.130	21410
581.159	21738
581.203	20928
581.215	20754
581.270	21144
581.276	21033
581.326	20088
581.349	20391
581.382	20942
581.422	20696
581.438	20591
581.494	22227
581.494	22202
581.550	21643
581.567	21853
581.606	22339
581.640	21360
581.661	20770
581.713	21995
581.717	22117
581.773	20388
581.786	20567
581.829	21184
581.859	21398
581.885	21619
581.932	22359
581.940	22494
581.996	22744
582.004	22581
582.052	21761
582.077	21787
582.107	21893
582.150	21720
582.163	21656
582.219	22413
582.223	22359
582.274	22057
582.296	22052
582.330	21875
582.368	22746
582.386	23213
582.441	22383
582.441	22389
582.497	21933
582.514	21877
582.552	21919
582.587	22171
582.608	22306
582.659	22384
582.663	22401
582.719	22801
582.732	22663
582.774	22146
582.805	22591
582.830	23007
582.877	22956
582.885	22949
582.941	22244
582.950	22196
582.996	21885
583.023	22590
583.052	23527
583.095	22931
583.107	22760
583.162	23373
583.168	23458
583.218	23943
583.240	23393
583.273	22755
583.313	22946
583.328	23029
583.384	23340
583.385	23347
583.439	23337
583.458	23347
583.494	23341
583.531	23046
583.549	23077
583.603	23737
583.605	23737
583.660	23019
583.676	22985
583.715	23117
583.748	23352
583.770	23506
583.820	24419
583.825	24495
583.881	24150
583.893	24202
583.936	24405
583.965	23953
583.991	23550
584.038	23928
584.046	23985
584.101	24653
584.110	24614
584.156	24725
584.183	25013
584.211	24985
584.255	24822
584.266	24822
584.321	24347
584.328	24434
584.376	25334
584.400	25351
584.431	25222
584.472	25561
584.486	25599
584.541	25545
584.545	25609
584.596	26808
584.617	26717
584.651	26770
584.689	27258
584.706	27253
584.761	28055
584.762	28061
584.816	27873
584.834	28132
584.871	28592
584.906	28763
584.926	28849
584.978	29297
584.980	29314
585.035	30788
585.051	31269
585.090	32124
585.123	32808
585.145	33277
585.195	34158
585.200	34303
585.254	36615
585.267	36972
585.309	37570
585.340	38644
585.364	39559
585.412	42704
585.419	43237
585.473	47628
585.484	48618
585.528	53617
585.556	60283
585.583	72344
585.628	102036
585.637	112476
585.692	210014
585.700	229921
585.747	305634
585.772	263257
585.801	182004
585.845	83359
585.856	68932
585.910	50627
585.917	49245
585.965	44615
585.989	43316
586.019	42296
586.061	41651
586.074	41543
586.128	41695
586.133	41806
586.183	43091
586.205	43732
586.237	43888
586.277	43134
586.292	43054
586.346	43191
586.349	43283
586.401	44414
586.421	44998
586.455	46105
586.493	47499
586.509	48623
586.564	53464
586.565	53791
586.618	68295
586.637	68987
586.672	64785
586.709	57126
586.727	54452
586.781	55049
586.781	55014
586.835	54545
586.853	54425
586.889	54397
586.925	54265
586.944	54306
586.996	56678
586.998	56713
587.052	58909
587.068	59673
587.106	61446
587.140	62241
587.161	62357
587.212	64828
587.215	64932
587.269	67515
587.284	68210
587.323	69971
587.356	71899
587.377	73152
587.427	76732
587.431	76889
587.485	79871
587.499	80758
587.539	83694
587.571	86128
587.593	87853
587.643	93081
587.648	93552
587.702	100075
587.715	101787
587.755	106627
587.786	110607
587.810	113963
587.858	122283
587.864	123148
587.917	133474
587.930	136195
587.971	145401
588.001	152951
588.025	159444
588.073	172567
588.079	174213
588.133	193044
588.145	197686
588.187	215568
588.217	229981
588.241	242791
588.288	271519
588.295	275666
588.348	315482
588.360	325008
588.402	364048
588.431	394028
588.456	421820
588.503	481606
588.510	491761
588.564	586784
588.575	609130
588.617	711722
588.646	790564
588.671	884787
588.718	1080488
588.725	1121059
588.778	1452578
588.789	1520018
588.832	1824648
588.861	1996748
588.886	2024249
588.932	1969224
588.939	1941418
588.993	1725173
589.004	1721434
589.047	1944217
589.075	2059996
589.100	1937422
589.147	1605499
589.154	1568256
589.207	1255742
589.218	1196703
589.261	1097155
589.290	1048021
589.314	1065862
589.361	1129926
589.368	1158420
589.421	1428308
589.433	1488074
589.475	1766915
589.504	1923865
589.528	1905367
589.576	1786288
589.582	1775217
589.635	1808889
589.647	1804481
589.689	1511547
589.718	1250804
589.742	1085657
589.790	758349
589.795	735790
589.849	557246
589.861	520497
589.902	443591
589.932	391457
589.955	359784
590.004	299856
590.009	295056
590.062	255130
590.075	246440
590.115	223424
590.146	207529
590.168	198083
590.218	179337
590.222	177676
590.275	161087
590.289	157356
590.328	148086
590.360	141109
590.381	136505
590.431	126849
590.435	126158
590.488	118280
590.503	116323
590.541	110693
590.574	106496
590.594	104275
590.645	99221
590.647	98846
590.700	92482
590.716	90794
590.753	87882
590.787	85649
590.806	84373
590.859	81199
590.859	81055
590.912	78817
590.930	78140
590.965	75949
591.001	74207
591.018	73358
591.071	71059
591.072	71118
591.124	69658
591.143	69239
591.177	68402
591.214	67789
591.230	67233
591.283	65533
591.285	65514
591.336	64548
591.356	64466
591.389	63647
591.427	62218
591.442	61293
591.495	58379
591.498	58220
591.547	56685
591.569	56017
591.600	55588
591.640	55061
591.653	54884
591.706	54454
591.711	54453
591.759	53836
591.782	53557
591.811	54038
591.853	54816
591.864	54437
591.917	52593
591.924	52349
591.969	51141
591.995	50554
592.022	50576
592.066	50656
592.075	50785
592.127	51738
592.137	51972
592.180	51707
592.208	51454
592.233	50263
592.279	48008
592.285	47977
592.338	48056
592.350	48101
592.390	46661
592.421	45624
592.443	45686
592.491	45883
592.495	45866
592.548	45912
592.562	45945
592.600	45539
592.633	45207
592.653	44948
592.704	44074
592.705	44314
592.775	43767
592.846	44352
592.916	44985
592.987	46186
593.058	43636
593.128	42602
593.199	42350
593.270	41293
593.341	41570
593.411	41299
593.482	42679
593.553	41990
593.623	40214
593.694	42115
593.764	42041
593.835	41407
593.906	40152
593.976	40639
594.047	42084
594.117	44525
594.188	45304
594.258	42424
594.329	40769
594.399	40897
594.470	42440
594.540	42036
594.611	41276
594.681	41268
594.751	41924
594.822	43760
594.892	44002
594.963	44910
595.033	45316
595.103	44983
595.174	45903
595.244	51211
595.314	54717
595.384	45896
595.455	45627
595.525	46989
595.595	47109
595.665	48292
595.736	47333
595.806	47159
595.876	47856
595.946	47296
596.016	49358
596.087	49718
596.157	49139
596.227	49301
596.297	51306
596.367	52617
596.437	55854
596.507	60059
596.577	62932
596.647	56142
596.717	57039
596.787	57474
596.857	56630
596.927	57646
596.997	57466
597.067	57997
597.137	58475
597.207	58426
597.277	59552
597.347	56645
597.417	56464
597.487	57104
597.557	58701
597.626	58567
597.696	60989
597.766	61364
597.836	63632
597.906	54453
597.975	53457
598.045	53162
598.115	55013
598.185	57595
598.254	63784
598.324	67753
598.394	68060
598.464	67340
598.533	64808
598.603	61308
598.672	60181
598.742	59747
598.812	59943
598.881	60977
598.951	61522
599.020	61015
599.090	62576
599.159	64296
599.229	61541
599.299	60462
599.368	61117
599.437	61511
599.507	57929
599.576	56337
599.646	55288
599.715	55725
599.785	55390
599.854	52901
599.924	54787
599.993	53147
600.062	53459
600.132	55009
600.201	58133
600.270	65310
600.340	67137
600.409	64995
600.478	64847
600.547	65137
600.617	61433
600.686	52801
600.755	48412
600.824	47849
600.894	46253
600.963	45085
601.032	45059
601.101	43645
601.170	42353
601.239	42187
601.308	44851
601.378	42398
601.447	42998
601.516	41458
601.585	44506
601.654	45939
601.723	42724
601.792	44498
601.861	45812
601.930	47183
601.999	49541
602.068	46897
602.137	50222
602.206	49269
602.275	49383
602.343	51893
602.412	52542
602.481	48384
602.550	47874
602.619	48987
602.688	49774
602.756	49799
602.825	49522
602.894	51480
602.963	52585
603.032	51256
603.100	51844
603.169	52020
603.238	52524
603.307	52887
603.375	53275
603.444	52910
603.513	52979
603.581	55296
603.650	55677
603.719	53483
603.787	55170
603.856	56024
603.924	56915
603.993	58310
604.061	60469
604.130	63256
604.198	64126
604.267	65378
604.335	64817
604.404	64603
604.472	65216
604.541	66611
604.609	67292
604.678	67392
604.746	66404
604.815	69268
604.883	69445
604.951	71331
605.020	71194
605.088	71892
605.156	73815
605.225	75423
605.293	73086
605.361	75186
605.429	75028
605.498	77437
605.566	79069
605.634	81716
605.702	83850
605.771	85446
605.839	85865
605.907	83176
605.975	82032
606.043	80133
606.111	80277
606.180	79971
606.248	79461
606.316	78831
606.384	78421
606.452	82828
606.520	86886
606.588	85192
606.656	83178
606.724	80998
606.792	76154
606.860	69820
606.928	64679
606.996	62484
607.064	60263
607.132	62753
607.200	65297
607.267	67874
607.335	69111
607.403	71443
607.471	68182
607.539	66147
607.607	66941
607.674	58444
607.742	59978
607.810	60905
607.878	60408
607.946	60770
608.013	63833
608.081	64092
608.149	65630
608.216	66153
608.284	70618
608.352	68249
608.419	67497
608.487	70547
608.555	68017
608.622	66949
608.690	72053
608.757	76792
608.825	79460
608.893	78061
608.960	76456
609.028	75357
609.095	76186
609.163	70691
609.230	63445
609.298	61293
609.365	62660
609.432	67481
609.500	72760
609.567	82621
609.635	92290
609.702	97127
609.769	92462
609.837	75708
609.904	66462
609.971	71924
610.039	84274
610.106	112749
610.173	208606
610.241	468890
610.308	367267
610.375	192389
610.442	85572
610.509	71496
610.577	69845
610.644	68904
610.711	70174
610.778	71904
610.845	74417
610.912	78073
610.980	80155
611.047	81552
611.114	79743
611.181	74364
611.248	75589
611.315	80467
611.382	80503
611.449	83703
611.516	83886
611.583	84448
611.650	85098
611.717	86969
611.784	89450
611.851	95318
611.918	106488
611.984	123644
612.051	179194
612.118	360235
612.185	862718
612.252	479316
612.319	130741
612.386	109098
612.452	100779
612.519	97144
612.586	99106
612.653	96680
612.719	99661
612.786	94637
612.853	88131
612.919	85969
612.986	89241
613.053	82712
613.120	78001
613.186	74332
613.253	79416
613.319	76293
613.386	76811
613.453	78697
613.519	82036
613.586	84840
613.652	95210
613.719	87793
613.785	85004
613.852	80513
613.918	77719
613.985	78864
614.051	83640
614.118	87380
614.184	82267
614.250	78892
614.317	80031
614.383	77889
614.449	79744
614.516	80286
614.582	80456
614.648	77640
614.715	78654
614.781	75713
614.847	77425
614.914	76948
614.980	76311
615.046	75484
615.112	77919
615.179	79632
615.245	83112
615.311	90306
615.377	112766
615.443	110283
615.509	89983
615.575	86204
615.642	85683
615.708	89021
615.774	94287
615.840	103635
615.906	121442
615.972	166668
616.038	279031
616.104	495683
616.170	1076900
616.236	803766
616.302	188395
616.368	138169
616.434	104622
616.500	99836
616.565	108737
616.631	129452
616.697	107946
616.763	114902
616.829	164888
616.895	275048
616.961	244537
617.026	112005
617.092	86378
617.158	83009
617.224	81201
617.289	75133
617.355	72609
617.421	72416
617.487	73788
617.552	69238
617.618	69146
617.684	67818
617.749	70838
617.815	66352
617.880	64190
617.946	64180
618.012	68402
618.077	66951
618.143	65134
618.208	66874
618.274	70440
618.339	71429
618.405	60351
618.470	60704
618.536	61028
618.601	62231
618.667	58234
618.732	54618
618.798	54368
618.863	53786
618.928	53605
618.994	55704
619.059	57072
619.124	65431
619.190	57608
619.255	52475
619.320	54386
619.386	53261
619.451	52656
619.516	51858
619.581	52894
619.647	53277
619.712	53983
619.777	51220
619.842	54191
619.907	53615
619.972	53637
620.038	53493
620.103	52284
620.168	51281
620.233	52767
620.298	51671
620.363	53341
620.428	54121
620.493	54936
620.558	55881
620.623	56290
620.688	55834
620.753	54731
620.818	57052
620.883	56635
620.948	56497
621.013	56241
621.078	55206
621.143	56387
621.207	58541
621.272	57732
621.337	55625
621.402	56653
621.467	59311
621.532	60101
621.596	57397
621.661	54784
621.726	53618
621.791	54128
621.855	56351
621.920	56583
621.985	56941
622.049	59805
622.114	57499
622.179	58222
622.243	58757
622.308	59505
622.373	62469
622.437	60143
622.502	57454
622.566	56020
622.631	55805
622.695	59060
622.760	59157
622.824	57300
622.889	58932
622.953	61598
623.018	74623
623.082	70715
623.147	61240
623.211	60559
623.276	59840
623.340	56239
623.404	55382
623.469	55284
623.533	56605
623.597	54399
623.662	54603
623.726	51908
623.790	49100
623.854	48276
623.919	50042
623.983	49637
624.047	49813
624.111	49968
624.176	50470
624.240	53545
624.304	55799
624.368	50031
624.432	51650
624.496	53597
624.560	55637
624.625	58352
624.689	53590
624.753	56017
624.817	52588
624.881	51848
624.945	47861
625.009	47015
625.073	48350
625.137	50911
625.201	56822
625.265	56005
625.329	48951
625.393	52195
625.456	51450
625.520	51810
625.584	54494
625.648	57594
625.712	63826
625.776	87703
625.839	91424
625.903	54742
625.967	44537
626.031	55040
626.095	68508
626.158	48288
626.222	37575
626.286	37772
626.349	35633
626.413	34117
626.477	36357
626.540	34934
626.604	33360
626.668	34829
626.731	32415
626.795	33893
626.858	34220
626.922	32043
626.986	32606
627.049	32038
627.113	34289
627.176	33285
627.240	31073
627.303	31534
627.366	30949
627.430	33698
627.493	32653
627.557	30137
627.620	32408
627.684	32678
627.747	33964
627.810	28928
627.874	28800
627.937	26137
628.000	29922
628.064	28698
628.127	23876
628.190	25841
628.253	26210
628.317	24140
628.380	23946
628.443	24164
628.506	23579
628.569	23513
628.632	21156
628.696	22071
628.759	21297
628.822	20757
628.885	19900
628.948	20962
629.011	20211
629.074	21353
629.137	19064
629.200	20128
629.263	21553
629.326	19031
629.389	18571
629.452	20422
629.515	19556
629.578	19257
629.641	20553
629.704	19728
629.767	19684
629.830	19064
629.892	18556
629.955	18165
630.018	20497
630.081	20404
630.144	23183
630.207	18481
630.269	20148
630.332	18505
630.395	17939
630.458	17049
630.520	16347
630.583	17849
630.646	16617
630.708	16323
630.771	16502
630.834	19263
630.896	16434
630.959	17268
631.021	17060
631.084	16732
631.146	17354
631.209	18645
631.272	16153
631.334	16965
631.397	16448
631.459	17070
631.522	18845
631.584	18190
631.646	18365
631.709	19480
631.771	21629
631.834	19899
631.896	17773
631.958	16890
632.021	18047
632.083	16406
632.145	17204
632.208	16060
632.270	17494
632.332	15426
632.395	15272
632.457	16878
632.519	14685
632.581	16133
632.643	14952
632.706	16249
632.768	14458
632.830	15513
632.892	15309
632.954	15554
633.016	15930
633.078	15199
633.141	15308
633.203	14816
633.265	15834
633.327	15775
633.389	15111
633.451	16997
633.513	17955
633.575	18575
633.637	17215
633.698	16706
633.760	16861
633.822	17188
633.884	15962
633.946	16989
634.008	17183
634.070	16660
634.132	17168
634.193	17807
634.255	19339
634.317	18868
634.379	20332
634.441	17778
634.502	15659
634.564	16290
634.626	15308
634.687	15371
634.749	14926
634.811	15103
634.873	14225
634.934	14120
634.996	15111
635.057	13929
635.119	13649
635.181	14191
635.242	15539
635.304	12698
635.365	17158
635.427	14102
635.488	15608
635.550	14724
635.611	14762
635.673	12450
635.734	16128
635.796	15585
635.857	17866
635.918	16386
635.980	19353
636.041	18436
636.102	20459
636.164	20157
636.225	19979
636.286	16182
636.348	16245
636.409	15336
636.470	14476
636.531	15352
636.593	14995
636.654	14079
636.715	12722
636.776	13525
636.838	12481
636.899	14310
636.960	12365
637.021	12270
637.082	12817
637.143	13565
637.204	10785
637.265	11786
637.326	13045
637.387	13074
637.448	11518
637.509	12574
637.570	12238
637.631	13015
637.692	11075
637.753	10531
637.814	11373
637.875	11893
637.936	12000
637.997	11187
638.058	11931
638.119	12576
638.179	11115
638.240	10612
638.301	10805
638.362	10475
638.423	10882
638.483	12044
638.544	9828
638.605	11375
638.666	9999
638.726	11965
638.787	12307
638.848	10655
638.908	11391
638.969	11385
639.030	10070
639.090	10133
639.151	10339
639.211	12164
639.272	14076
639.332	19446
639.393	13759
639.453	9972
639.514	11305
639.574	11395
639.635	9598
639.695	11092
639.756	9205
639.816	11073
639.877	13252
639.937	18389
639.997	21948
640.058	11261
640.118	9103
640.178	11120
640.239	10121
640.299	10502
640.359	9500
640.420	10578
640.480	10873
640.540	11996
640.600	11962
640.661	11661
640.721	10474
640.781	13804
640.841	9362
640.901	11148
640.961	10589
641.021	11931
641.082	11667
641.142	15787
641.202	11731
641.262	7880
641.322	10062
641.382	8467
641.442	9823
641.502	9628
641.562	9085
641.622	9585
641.682	10087
641.742	10943
641.802	10230
641.861	9858
641.921	10053
641.981	11888
642.041	11277
642.101	13134
642.161	9154
642.221	9092
642.280	8262
642.340	9103
642.400	8616
642.460	10274
642.519	8959
642.579	8655
642.639	9652
642.698	7792
642.758	11982
642.818	10112
642.877	8801
642.937	9950
642.997	12400
643.056	14560
643.116	9250
643.175	11997
643.235	10189
643.294	9360
643.354	11374
643.414	12997
643.473	15015
643.532	18211
643.592	24305
643.651	40393
643.711	66359
643.770	130128
643.830	311765
643.889	633141
643.948	136803
644.008	25177
644.067	16572
644.126	13466
644.186	11020
644.245	11410
644.304	7705
644.363	12137
644.423	8381
644.482	10583
644.541	10152
644.600	9852
644.659	13364
644.719	14794
644.778	20622
644.837	33315
644.896	68473
644.955	148324
645.014	47583
645.073	14181
645.132	10551
645.191	11850
645.250	10042
645.309	10900
645.368	10888
645.427	12355
645.486	18838
645.545	30152
645.604	10758
645.663	10285
645.722	9864
645.781	11934
645.840	12686
645.898	16257
645.957	23598
646.016	35084
646.075	61837
646.134	115235
646.192	318650
646.251	440654
646.310	59543
646.369	19560
646.427	15360
646.486	12019
646.545	10528
646.603	9649
646.662	9005
646.721	9521
646.779	7653
646.838	9134
646.896	12212
646.955	14279
647.014	21545
647.072	36836
647.131	95410
647.189	43741
647.248	9349
647.306	9566
647.365	8149
647.423	6271
647.481	8855
647.540	6249
647.598	6863
647.657	6164
647.715	7441
647.773	5972
647.832	7559
647.890	6311
647.948	6831
648.007	7229
648.065	4775
648.123	6321
648.181	7580
648.240	7334
648.298	4938
648.356	6710
648.414	7256
648.472	6802
648.531	7146
648.589	6956
648.647	5583
648.705	6158
648.763	6608
648.821	7836
648.879	6587
648.937	8277
648.995	9703
649.053	11949
649.111	17932
649.169	28268
649.227	47906
649.285	97718
649.343	270291
649.401	122338
649.459	30422
649.516	19193
649.574	9614
649.632	12168
649.690	12043
649.748	12454
649.806	15045
649.863	26216
649.921	67406
649.979	42496
650.037	9303
650.094	5181
650.152	6764
650.210	5283
650.268	6236
650.325	6304
650.383	5672
650.440	3855
650.498	4802
650.556	5758
650.613	4876
650.671	5418
650.728	5307
650.786	5686
650.843	6639
650.901	4078
650.958	5279
651.016	5684
651.073	4446
651.131	4461
651.188	3057
651.246	4849
651.303	3930
651.360	4879
651.418	3637
651.475	4868
651.532	3838
651.590	4544
651.647	3686
651.704	4681
651.762	4219
651.819	5360
651.876	4088
651.933	4202
651.990	4486
652.048	3578
652.105	4326
652.162	5461
652.219	3954
652.276	3985
652.333	4451
652.390	3284
652.448	3800
652.505	3897
652.562	4202
652.619	3062
652.676	4237
652.733	4562
652.790	4156
652.847	3343
652.904	4579
652.961	2627
653.017	3256
653.074	4562
653.131	4474
653.188	3371
653.245	3617
653.302	4474
653.359	3749
653.415	4845
653.472	2921
653.529	4253
653.586	3381
653.642	3510
653.699	3776
653.756	3592
653.813	3383
653.869	3924
653.926	2757
653.983	3036
654.039	3263
654.096	4006
654.152	4468
654.209	2761
654.266	4436
654.322	3261
654.379	4348
654.435	5523
654.492	4802
654.548	5766
654.605	8303
654.661	5716
654.717	3914
654.774	4466
654.830	4170
654.887	3909
654.943	3706
655.000	4425
655.056	4202
655.112	4242
655.168	3216
655.225	3501
655.281	4756
655.337	5509
655.394	6327
655.450	4792
655.506	4991
655.562	7545
655.618	6438
655.675	4017
655.731	4002
655.787	3750
655.843	4491
655.899	3382
655.955	4073
656.011	4395
656.067	2938
656.123	4271
656.179	4633
656.235	5536
656.291	3690
656.347	4970
656.403	3814
656.459	3937
656.515	3971
656.571	4015
656.627	3755
656.683	4238
656.739	3903
656.795	3458
656.850	4153
656.906	5094
656.962	4298
657.018	2958
657.074	4489
657.129	5986
657.185	6438
657.241	10592
657.297	7235
657.352	4366
657.408	3553
657.464	5010
657.519	3570
657.575	4181
657.630	3247
657.686	3731
657.742	3666
657.797	3881
657.853	3541
657.908	4823
657.964	2779
658.019	3723
658.075	3712
658.130	3745
658.186	2303
658.241	3847
658.297	2828
658.352	3388
658.407	3031
658.463	3139
658.518	3542
658.573	4042
658.629	2668
658.684	2483
658.739	3879
658.795	2380
658.850	3622
658.905	2695
658.960	3060
659.016	2500
659.071	3787
659.126	3859
659.181	3945
659.236	7092
659.291	7014
659.346	4608
659.401	3651
659.457	4401
659.512	3378
659.567	4627
659.622	2891
659.677	3237
659.732	1987
659.787	3193
659.842	3112
659.897	4919
659.952	4466
660.007	3502
660.061	4032
660.116	2556
660.171	2665
660.226	3460
660.281	3449
660.336	3217
660.391	2958
660.445	2551
660.500	3418
660.555	4221
660.610	2734
660.664	4041
660.719	3521
660.774	4098
660.828	3317
660.883	3117
660.938	2919
660.992	2776
661.047	3414
661.101	2784
661.156	3244
661.211	2884
661.265	3106
661.320	3146
661.374	2578
661.429	3066
661.483	3478
661.538	2036
661.592	3021
661.647	3654
661.701	2712
661.755	4065
661.810	3834
661.864	3041
661.919	3025
661.973	3526
662.027	3147
662.081	2610
662.136	1966
662.190	3679
662.244	3028
662.299	3545
662.353	2563
662.407	2886
662.461	2815
662.515	3836
662.569	2823
662.624	3256
662.678	3267
662.732	3406
662.786	2938
662.840	3656
662.894	3259
662.948	2884
663.002	2567
663.056	3073
663.110	2739
663.164	2358
663.218	3075
663.272	3791
663.326	4505
663.380	3702
663.434	3907
663.488	2501
663.542	3673
663.595	3748
663.649	3027
663.703	2901
663.757	2968
663.811	2291
663.864	3344
663.918	3551
663.972	2877
664.026	3059
664.079	3098
664.133	3280
664.187	2730
664.240	2960
664.294	3126
664.348	2495
664.401	2465
664.455	2850
664.508	3526
664.562	3187
664.615	3461
664.669	2256
664.722	2616
664.776	2905
664.829	2887
664.883	2754
664.936	2927
664.990	3490
665.043	4510
665.097	2447
665.150	4029
665.203	2995
665.257	3346
665.310	3699
665.363	3112
665.417	3400
665.470	3001
665.523	3557
665.576	3002
665.630	3296
665.683	3608
665.736	3266
665.789	4460
665.842	2878
665.895	2738
665.949	3968
666.002	2708
666.055	3796
666.108	3961
666.161	3213
666.214	3893
666.267	4588
666.320	4000
666.373	4511
666.426	3286
666.479	3526
666.532	3368
666.585	4028
666.638	3811
666.691	3367
666.744	4787
666.796	3985
666.849	3598
666.902	4160
666.955	3283
667.008	2546
667.060	3105
667.113	2204
667.166	3179
667.219	3730
667.271	3220
667.324	3265
667.377	2890
667.430	3187
667.482	3258
667.535	4134
667.587	4053
667.640	4730
667.693	4240
667.745	6898
667.798	7108
667.850	3151
667.903	3564
667.955	3854
668.008	3110
668.060	3715
668.113	3469
668.165	3876
668.218	3512
668.270	3381
668.322	3076
668.375	3105
668.427	3511
668.479	3182
668.532	3539
668.584	3407
668.636	3538
668.689	4488
668.741	3467
668.793	3178
668.845	2533
668.898	3917
668.950	3007
669.002	4221
669.054	3077
669.106	3134
669.158	3926
669.211	3501
669.263	3688
669.315	4146
669.367	4498
669.419	4198
669.471	5117
669.523	5073
669.575	6643
669.627	5368
669.679	3581
669.731	4480
669.783	5185
669.835	5579
669.886	5051
669.938	5386
669.990	4774
670.042	5252
670.094	6448
670.146	6902
670.197	8773
670.249	11281
670.301	13878
670.353	20546
670.404	29493
670.456	42666
670.508	63466
670.560	97156
670.611	154618
670.663	265961
670.715	583666
670.766	829449
670.818	328717
670.869	76643
670.921	35108
670.972	23710
671.024	16804
671.075	12877
671.127	11110
671.178	9177
671.230	8245
671.281	7370
671.333	6288
671.384	7985
671.436	7159
671.487	8351
671.538	8921
671.590	11322
671.641	15941
671.692	26273
671.744	46055
671.795	30345
671.846	11735
671.897	6755
671.949	5537
672.000	4467
672.051	4614
672.102	5055
672.153	3984
672.204	3723
672.256	3869
672.307	4695
672.358	3863
672.409	3910
672.460	3380
672.511	2984
672.562	3418
672.613	3635
672.664	2631
672.715	3543
672.766	3169
672.817	3298
672.868	2658
672.919	2974
672.970	3333
673.021	3748
673.071	2915
673.122	2692
673.173	2674
673.224	3158
673.275	3074
673.326	3357
673.376	3327
673.427	2961
673.478	2433
673.528	3797
673.579	3748
673.630	3245
673.680	3667
673.731	3255
673.782	2776
673.832	2627
673.883	2763
673.934	2703
673.984	2662
674.035	3233
674.085	3174
674.136	3548
674.186	2996
674.237	4107
674.287	5025
674.338	3849
674.388	2499
674.438	2465
674.489	2560
674.539	3453
674.589	3109
674.640	3346
674.690	3420
674.740	3116
674.791	3171
674.841	3355
674.891	3270
674.942	2872
674.992	3059
675.042	2961
675.092	2308
675.142	2282
675.193	3074
675.243	2422
675.293	2970
675.343	1789
675.393	2778
675.443	3245
675.493	2817
675.543	3112
675.593	2138
675.643	2128
675.693	3579
675.743	2110
675.793	2734
675.843	3457
675.893	2726
675.943	2191
675.993	1867
676.043	3045
676.093	2695
676.142	2969
676.192	2355
676.242	2343
676.292	2238
676.341	2460
676.391	2305
676.441	2023
676.491	2175
676.540	2437
676.590	2197
676.640	2756
676.689	2438
676.739	3021
676.789	2058
676.838	3182
676.888	2597
676.937	2006
676.987	2055
677.037	2077
677.086	2177
677.136	2427
677.185	2095
677.235	1932
677.284	1913
677.333	1866
677.383	1754
677.432	2009
677.482	1191
677.531	2843
677.580	1606
677.630	1674
677.679	1191
677.728	1283
677.778	2128
677.827	1862
677.876	2315
677.925	2284
677.975	2259
678.024	1550
678.073	2216
678.122	2614
678.171	2366
678.220	2078
678.269	2673
678.319	3135
678.368	1997
678.417	1879
678.466	2519
678.515	2716
678.564	2006
678.613	1695
678.662	2150
678.711	2651
678.760	2169
678.809	2061
678.857	1261
678.906	2909
678.955	2541
679.004	3218
679.053	2134
679.102	1809
679.151	2157
679.199	2017
679.248	1503
679.297	2172
679.346	2116
679.394	2011
679.443	1710
679.492	2828
679.540	1851
679.589	2587
679.638	1902
679.686	1728
679.735	2067
679.784	2211
679.832	2119
679.881	2217
679.929	1233
679.978	2154
680.026	2023
680.075	2133
680.123	1866
680.172	2146
680.220	1042
680.268	1639
680.317	1733
680.365	1627
680.414	1518
680.462	2138
680.510	2261
680.559	1216
680.607	1717
680.655	1895
680.703	1863
680.752	1721
680.800	927
680.848	1987
680.896	1386
680.945	1388
680.993	1191
681.041	1291
681.089	2051
681.137	1444
681.185	1477
681.233	1707
681.258	1456
681.281	1209
681.329	1715
681.377	401
681.380	476
681.425	1676
681.473	2154
681.502	1497
681.521	1017
681.569	1896
681.617	2041
681.624	2021
681.665	1809
681.713	1626
681.745	1370
681.761	1239
681.809	1375
681.857	1257
681.867	1392
681.904	1816
681.952	2220
681.989	2477
682.000	2549
682.048	2086
682.096	1827
682.111	1699
682.143	1369
682.191	2082
682.233	2019
682.239	2002
682.286	1897
682.334	1443
682.354	1804
682.382	2270
682.430	2777
682.476	2044
682.477	2020
682.525	2291
682.572	2035
682.598	1673
682.620	1357
682.667	2449
682.715	2472
682.720	2472
682.763	2371
682.810	2644
682.841	2408
682.857	2264
682.905	1667
682.952	3033
682.963	2827
683.000	2059
683.047	2094
683.085	2498
683.095	2613
683.142	2162
683.190	2219
683.206	2301
683.237	2394
683.284	2657
683.328	2470
683.332	2446
683.379	2669
683.426	2145
683.449	1968
683.473	1792
683.521	1513
683.568	2343
683.571	2357
683.615	2433
683.662	2452
683.693	2301
683.709	2203
683.757	2458
683.804	2509
683.814	2289
683.851	1453
683.898	2927
683.936	2674
683.945	2614
683.992	2781
684.039	2558
684.057	2573
684.086	2622
684.133	2872
684.179	2695
684.180	2678
684.227	3055
684.274	2772
684.300	2581
684.321	2424
684.368	2665
684.415	2539
684.422	2509
684.462	2401
684.509	2335
684.543	2529
684.556	2548
684.603	2497
684.649	2138
684.665	2202
684.696	2372
684.743	2844
684.786	3080
684.790	3108
684.837	2976
684.883	3169
684.908	3367
684.930	3439
684.977	3175
685.023	3003
685.029	2957
685.070	2636
685.117	2890
685.150	3414
685.164	3610
685.210	3049
685.257	3812
685.272	3614
685.303	3136
685.350	3119
685.393	2912
685.396	2903
685.443	3288
685.490	3823
685.514	3728
685.536	3596
685.583	3770
685.629	3024
685.636	3076
685.675	3278
685.722	3238
685.757	2999
685.768	2948
685.815	3510
685.861	3739
685.878	3446
685.908	2950
685.954	3634
686.000	3744
686.000	3742
686.047	3907
686.093	3825
686.121	4106
686.139	4271
686.185	3693
686.232	3971
686.242	3854
686.278	3393
686.324	3706
686.363	3640
686.370	3651
686.416	3318
686.463	3605
686.484	3771
686.509	3831
686.555	3036
686.601	3440
686.606	3437
686.647	3727
686.693	3287
686.727	3634
686.739	3663
686.785	3515
686.831	3384
686.848	3400
686.877	3561
686.923	3159
686.969	3621
686.969	3623
687.015	3492
687.061	4001
687.090	4102
687.107	4039
687.153	3640
687.199	3589
687.211	3457
687.245	3348
687.291	3769
687.332	3749
687.336	3734
687.382	3234
687.428	3926
687.453	3795
687.474	3671
687.520	3630
687.565	3730
687.574	3703
687.611	3750
687.657	3353
687.695	4108
687.702	4238
687.748	4112
687.794	4412
687.816	4555
687.839	4591
687.885	4375
687.931	3763
687.937	3727
687.976	3629
688.022	3693
688.058	3921
688.067	3995
688.113	4025
688.158	3726
688.179	3720
688.204	3623
688.249	4100
688.295	3393
688.300	3444
688.340	4123
688.386	4100
688.421	4334
688.431	4342
688.477	3996
688.522	4421
688.542	4265
688.567	4071
688.613	4374
688.658	4283
688.663	4236
688.703	3916
688.749	3963
688.784	4372
688.794	4505
688.839	3846
688.884	4371
688.905	4078
688.930	3726
688.975	4317
689.020	4475
689.026	4420
689.065	4035
689.110	4013
689.146	4134
689.155	4173
689.201	4084
689.246	3972
689.267	4026
689.291	4121
689.336	4334
689.381	3994
689.388	4023
689.426	4105
689.471	4083
689.509	4422
689.516	4489
689.561	3988
689.606	3951
689.630	4064
689.651	4243
689.696	4331
689.741	3920
689.750	4059
689.785	4485
689.830	4315
689.871	4102
689.875	4089
689.920	4135
689.965	4791
689.992	4399
690.010	4163
690.054	3898
690.099	3935
690.112	4024
690.144	4302
690.189	4325
690.233	4734
690.233	4741
690.278	4505
690.323	4529
690.354	4495
690.367	4464
690.412	4055
690.457	4166
690.474	4198
690.501	4359
690.546	4415
690.590	4625
690.595	4571
690.635	4098
690.680	4446
690.716	4210
690.724	4198
690.769	4674
690.813	4559
690.836	4735
690.857	4985
690.902	4901
690.946	5380
690.957	5498
690.991	6002
691.035	6415
691.077	7348
691.080	7362
691.124	6361
691.168	5652
691.198	5437
691.213	5393
691.257	5081
691.301	4404
691.318	4369
691.346	4622
691.390	4454
691.434	4878
691.439	4881
691.478	4939
691.522	5235
691.559	5132
691.567	5091
691.611	5173
691.655	5024
691.680	4952
691.699	4958
691.743	4967
691.787	4619
691.800	4642
691.831	4831
691.875	4922
691.919	5651
691.921	5639
691.964	5214
692.008	4996
692.041	4646
692.052	4649
692.096	5254
692.139	5421
692.162	5498
692.183	5426
692.227	5255
692.271	5180
692.282	5147
692.315	5147
692.359	5058
692.402	4943
692.403	4953
692.447	5115
692.490	5070
692.523	5116
692.534	5206
692.578	5367
692.622	5431
692.643	5681
692.666	5747
692.709	5515
692.753	5073
692.763	5051
692.797	5112
692.840	4847
692.884	5027
692.884	5040
692.928	5218
692.971	5265
693.004	5195
693.015	5126
693.059	5004
693.102	4935
693.124	4837
693.146	4928
693.189	4882
693.233	4753
693.245	4843
693.276	4908
693.320	4914
693.363	4555
693.365	4548
693.407	5137
693.450	5306
693.485	5721
693.493	5769
693.537	5731
693.580	5580
693.605	5684
693.624	6071
693.667	6562
693.710	7534
693.725	7778
693.753	8664
693.797	9846
693.840	11766
693.845	11876
693.883	10689
693.926	9271
693.966	8027
693.970	7934
694.013	6984
694.056	6078
694.086	5317
694.099	5290
694.142	5454
694.185	5467
694.206	5453
694.229	5618
694.272	5946
694.315	6335
694.326	6392
694.358	6199
694.401	5913
694.444	5741
694.446	5709
694.487	6066
694.530	6558
694.566	6985
694.573	6880
694.616	5909
694.659	5187
694.686	4808
694.702	4948
694.745	5038
694.787	5091
694.806	5183
694.830	5315
694.873	5342
694.916	5646
694.926	5601
694.959	5404
695.002	5437
695.044	5299
695.046	5297
695.087	5611
695.130	5440
695.166	5303
695.172	5318
695.215	5497
695.258	5702
695.286	5801
695.301	5746
695.343	5379
695.386	5266
695.406	5072
695.428	5107
695.471	5496
695.514	5423
695.526	5471
695.556	5753
695.599	6214
695.641	6396
695.646	6426
695.684	6355
695.726	6176
695.766	6003
695.769	6021
695.811	5931
695.854	5915
695.886	6030
695.896	6057
695.938	5857
695.981	5642
696.005	5558
696.023	5739
696.065	6271
696.108	6442
696.125	6630
696.150	6658
696.192	6804
696.235	6596
696.245	6523
696.277	6441
696.319	6451
696.361	6435
696.365	6430
696.404	6497
696.446	6239
696.485	6199
696.488	6253
696.530	6654
696.572	7094
696.604	7339
696.614	7264
696.656	7006
696.698	6586
696.724	6412
696.740	6437
696.783	6270
696.825	6314
696.844	6268
696.867	6298
696.909	6185
696.951	6264
696.964	6255
696.992	6406
697.034	6563
697.076	6808
697.083	6816
697.118	6679
697.160	6508
697.202	6420
697.203	6398
697.244	6431
697.286	6508
697.323	6466
697.327	6497
697.369	6677
697.411	6879
697.442	6976
697.453	7023
697.494	7179
697.536	7291
697.562	7378
697.578	7336
697.620	7092
697.661	6958
697.682	6825
697.703	6880
697.744	7021
697.786	7142
697.801	7152
697.828	7329
697.869	7586
697.911	7873
697.921	7922
697.952	7761
697.994	7489
698.035	7225
698.040	7177
698.077	7140
698.118	6981
698.160	6968
698.160	6950
698.201	6892
698.243	6838
698.279	6755
698.284	6788
698.325	6953
698.367	7072
698.399	7158
698.408	7209
698.449	7342
698.491	7516
698.518	7563
698.532	7549
698.573	7497
698.614	7407
698.638	7351
698.656	7393
698.697	7427
698.738	7472
698.757	7473
698.779	7379
698.820	7148
698.862	6931
698.877	6837
698.903	7256
698.944	7882
698.985	8511
698.996	8666
699.026	8357
699.067	7898
699.116	7334
699.235	7536
699.354	6701
699.474	6991
699.593	8148
699.713	7944
699.832	6947
699.951	8718
700.070	8389
700.190	7799
700.309	7798
700.428	7556
700.547	7395
700.667	6666
700.786	7258
700.905	6869
701.024	7002
701.143	7261
701.262	7039
701.381	5783
701.500	7364
701.619	8259
701.738	6621
701.857	6831
701.976	6900
702.095	6302
702.214	7734
702.333	6610
702.452	7662
702.571	6663
702.690	6925
702.809	6365
702.928	7002
703.047	6468
703.165	6552
703.284	7525
703.403	6472
703.522	6053
703.640	7358
703.759	7858
703.878	7580
703.997	6804
704.115	6869
704.234	5827
704.353	6120
704.471	6190
704.590	6121
704.708	6242
704.827	5735
704.946	5863
705.064	6270
705.183	6424
705.301	7599
705.420	8690
705.538	7443
705.656	6784
705.775	6533
705.893	8766
706.012	8586
706.130	7266
706.249	7377
706.367	7293
706.485	7723
706.604	7267
706.722	7225
706.840	7968
706.958	9222
707.077	7812
707.195	6832
707.313	7507
707.431	6571
707.549	7223
707.668	6108
707.786	6910
707.904	6124
708.022	7179
708.140	6941
708.258	6666
708.376	6475
708.494	6406
708.612	6868
708.730	9958
708.848	8415
708.966	8432
709.084	7909
709.202	7863
709.320	6970
709.438	7762
709.556	8015
709.674	8422
709.791	7326
709.909	6740
710.027	6993
710.145	7758
710.263	8347
710.380	7244
710.498	7045
710.616	7326
710.733	7861
710.851	7105
710.969	7880
711.086	7128
711.204	7774
711.322	6304
711.439	6945
711.557	6707
711.674	7085
711.792	7207
711.909	7472
712.027	6224
712.144	7028
712.262	6923
712.379	7820
712.497	10294
712.614	9987
712.732	8831
712.849	8139
712.966	9044
713.084	9197
713.201	8582
713.318	8823
713.436	7581
713.553	8044
713.670	9086
713.787	9099
713.905	8657
714.022	8543
714.139	8052
714.256	9967
714.373	12697
714.490	22065
714.608	58516
714.725	244255
714.842	174166
714.959	15438
715.076	9839
715.193	8588
715.310	8422
715.427	7913
715.544	7340
715.661	7430
715.778	8016
715.895	7705
716.011	7647
716.128	8232
716.245	8350
716.362	8800
716.479	8174
716.596	7121
716.713	6682
716.829	6464
716.946	6767
717.063	6185
717.180	6058
717.296	6798
717.413	6578
717.530	6942
717.646	6753
717.763	6174
717.880	6041
717.996	6126
718.113	5833
718.229	5622
718.346	5888
718.462	6469
718.579	7722
718.695	11628
718.812	8034
718.928	8233
719.045	6417
719.161	5805
719.277	5887
719.394	6150
719.510	7173
719.626	6503
719.743	8711
719.859	9619
719.975	18182
720.092	69026
720.208	116902
720.324	13096
720.440	6764
720.557	7593
720.673	10522
720.789	10769
720.905	17403
721.021	7430
721.137	5781
721.253	6024
721.369	5182
721.486	6473
721.602	6508
721.718	5833
721.834	4567
721.950	5729
722.066	5239
722.181	4646
722.297	6356
722.413	5272
722.529	5682
722.645	5725
722.761	5116
722.877	4572
722.993	4807
723.108	4853
723.224	5041
723.340	4247
723.456	4875
723.571	5236
723.687	4425
723.803	4931
723.918	4725
724.034	5320
724.150	4305
724.265	5675
724.381	8225
724.497	8975
724.612	4511
724.728	4673
724.843	4252
724.959	5989
725.074	8827
725.190	7779
725.305	5413
725.421	4346
725.536	4807
725.651	4641
725.767	4496
725.882	3956
725.997	4527
726.113	3759
726.228	4095
726.343	4028
726.459	3630
726.574	3933
726.689	3195
726.804	3964
726.920	4272
727.035	4634
727.150	4003
727.265	4642
727.380	4928
727.495	5072
727.610	3539
727.725	4673
727.841	3937
727.956	5611
728.071	5155
728.186	3764
728.301	4185
728.416	4455
728.531	3305
728.645	3793
728.760	3790
728.875	4755
728.990	4756
729.105	4192
729.220	4698
729.335	4112
729.449	4050
729.564	3307
729.679	3298
729.794	3026
729.908	4867
730.023	4227
730.138	3984
730.253	3221
730.367	3072
730.482	3824
730.596	4087
730.711	4047
730.826	4643
730.940	3894
731.055	4188
731.169	3362
731.284	4282
731.398	3620
731.513	3748
731.627	3502
731.742	5252
731.856	4148
731.970	4417
732.085	5693
732.199	6855
732.313	9384
732.428	25395
732.542	72625
732.656	31457
732.771	6360
732.885	4714
732.999	4656
733.113	5517
733.227	5129
733.342	4536
733.456	4857
733.570	3778
733.684	4083
733.798	4295
733.912	4162
734.026	3675
734.140	3012
734.254	4511
734.368	5702
734.482	5514
734.596	4329
734.710	4358
734.824	3493
734.938	3723
735.052	4374
735.166	4360
735.280	4091
735.393	3542
735.507	3987
735.621	5104
735.735	6221
735.849	4385
735.962	4798
736.076	4472
736.190	4199
736.303	4745
736.417	4660
736.531	4381
736.644	3415
736.758	3564
736.872	3873
736.985	4073
737.099	3490
737.212	3135
737.326	4385
737.439	4305
737.553	3954
737.666	3598
737.780	2914
737.893	3091
738.007	3481
738.120	3280
738.233	4547
738.347	3731
738.460	3350
738.573	3444
738.687	3832
738.800	3660
738.913	5092
739.026	3641
739.140	3366
739.253	3421
739.366	3028
739.479	1917
739.592	2912
739.705	3065
739.818	3726
739.932	3170
740.045	3261
740.158	3510
740.271	3963
740.384	3850
740.497	3935
740.610	3001
740.723	3554
740.836	2959
740.949	4038
741.062	4824
741.174	4117
741.287	3303
741.400	2918
741.513	3550
741.626	4292
741.739	3152
741.851	2849
741.964	2026
742.077	2943
742.189	2950
742.302	3291
742.415	4153
742.527	2316
742.640	2673
742.753	3545
742.865	2722
742.978	2483
743.090	2543
743.203	2270
743.316	2585
743.428	1817
743.541	2901
743.653	1714
743.766	2090
743.878	2798
743.990	3854
744.103	3985
744.215	3741
744.327	2365
744.440	4389
744.552	5245
744.664	3236
744.777	3325
744.889	2505
745.001	3224
745.113	1317
745.226	1582
745.338	3083
745.450	1712
745.562	2653
745.674	2362
745.786	2281
745.898	2378
746.010	2820
746.122	1981
746.234	2100
746.347	3545
746.459	3153
746.570	2415
746.682	3338
746.794	4413
746.906	3165
747.018	2314
747.130	2554
747.242	3566
747.354	2565
747.466	2734
747.577	1853
747.689	3119
747.801	2842
747.913	1783
748.024	2616
748.136	2665
748.248	1768
748.359	2745
748.471	2767
748.583	1748
748.694	2429
748.806	2579
748.918	2831
749.029	2811
749.141	2424
749.252	2406
749.364	3985
749.475	5628
749.587	3460
749.698	2579
749.809	2668
749.921	2486
750.032	2118
750.144	2026
750.255	1855
750.366	1932
750.478	1888
750.589	2061
750.700	1802
750.811	2337
750.923	3081
751.034	6756
751.145	4491
751.256	1782
751.367	1358
751.479	2312
751.590	1904
751.701	2175
751.812	1637
751.923	2078
752.034	2179
752.145	1042
752.256	1667
752.367	1450
752.478	2472
752.589	1670
752.700	1484
752.811	1820
752.922	2375
753.032	2236
753.143	1655
753.254	1651
753.365	2805
753.476	2184
753.586	2133
753.697	1871
753.808	2229
753.919	1771
754.029	1987
754.140	1737
754.251	2480
754.361	1376
754.472	2065
754.582	1669
754.693	1142
754.804	1769
754.914	1639
755.025	1501
755.135	2159
755.246	828
755.356	544
755.466	1946
755.577	1580
755.687	1280
755.798	1814
755.908	779
756.018	2419
756.129	1090
756.239	1972
756.349	2748
756.460	1547
756.570	2190
756.680	1190
756.790	1399
756.900	2475
757.011	1187
757.121	1631
757.231	1480
757.341	2841
757.451	1391
757.561	1813
757.671	2185
757.781	432
757.891	2187
758.001	1941
758.111	2178
758.221	2523
758.331	1739
758.441	1780
758.551	2742
758.661	1842
758.771	2059
758.880	498
758.990	1864
759.100	1867
759.210	2160
759.320	2990
759.429	2423
759.539	2615
759.649	1827
759.758	2203
759.868	2468
759.978	1556
760.087	2122
760.197	2126
760.307	1580
760.416	1959
760.526	1730
760.635	2599
760.745	2524
760.854	2621
760.964	3165
761.073	2544
761.182	2773
761.292	1437
761.401	2286
761.511	1355
761.620	1352
761.729	1593
761.839	1566
761.948	2882
762.057	1927
762.166	1969
762.276	863
762.385	2822
762.494	2623
762.603	1233
762.712	2888
762.822	1806
762.931	2504
763.040	688
763.149	1295
763.258	2044
763.367	1910
763.476	2801
763.585	2424
763.694	1763
763.803	2004
763.912	3067
764.021	3311
764.130	2010
764.238	1987
764.347	1929
764.456	1954
764.565	2586
764.674	2241
764.783	2570
764.891	2028
765.000	4145
765.109	2816
765.217	3382
765.326	3915
765.435	4573
765.543	5079
765.652	6019
765.761	7418
765.869	11727
765.978	18400
766.086	34170
766.195	73381
766.303	203888
766.412	489480
766.520	327731
766.629	81550
766.737	31305
766.846	18398
766.954	12622
767.062	11416
767.171	7153
767.279	6158
767.387	4811
767.496	4882
767.604	4205
767.712	3546
767.820	3738
767.928	3647
768.037	2949
768.145	3165
768.253	3477
768.361	2579
768.469	3235
768.577	2806
768.685	3673
768.793	3666
768.901	2549
769.009	4852
769.117	3980
769.225	5275
769.333	8425
769.441	14585
769.549	28782
769.657	71490
769.765	238138
769.873	375861
769.981	100680
770.088	23939
770.196	12625
770.304	8448
770.412	7750
770.519	5429
770.627	4923
770.735	3534
770.842	3615
770.950	3347
771.058	3687
771.165	3155
771.273	3578
771.380	3145
771.488	3531
771.595	2876
771.703	3096
771.810	2819
771.918	3152
772.025	3023
772.133	2952
772.240	2323
772.348	3377
772.455	3165
772.562	2013
772.670	2578
772.777	3364
772.884	2812
772.991	1772
773.099	3036
773.206	2355
773.313	2564
773.420	3026
773.528	1894
773.635	2414
773.742	3212
773.849	3063
773.956	2994
774.063	1620
774.170	1956
774.277	2657
774.384	2097
774.491	1498
774.598	2663
774.705	3357
774.812	2965
774.919	3151
775.026	2793
775.133	1880
775.239	2293
775.346	1839
775.453	2002
775.560	1862
775.667	2572
775.773	1693
775.880	2757
775.987	1425
776.093	2184
776.200	1278
776.307	1838
776.413	3273
776.520	2449
776.627	2472
776.733	2379
776.840	2107
776.946	5016
777.053	4305
777.159	6099
777.266	3205
777.372	6708
777.478	4888
777.585	3284
777.691	2029
777.798	2496
777.904	2410
778.010	3241
778.117	2974
778.223	2545
778.329	1466
778.435	1969
778.542	1706
778.648	1353
778.754	1196
778.860	1831
778.966	2195
779.072	1168
779.178	2629
779.284	2212
779.391	1629
779.497	1644
779.603	3310
779.708	1209
779.815	5306
779.920	12655
780.026	15596
780.132	2902
780.238	1065
780.344	2464
780.450	1577
780.556	1475
780.661	988
780.767	977
780.873	1662
780.979	2397
781.085	920
781.190	753
781.296	1267
781.402	1188
781.507	1539
781.613	1423
781.719	1752
781.824	1861
781.930	1963
782.035	1534
782.141	2017
782.246	1415
782.352	1550
782.457	1280
782.563	1363
782.668	1058
782.773	1950
782.879	452
782.984	1703
783.090	3256
783.195	2588
783.300	2117
783.405	1704
783.511	1593
783.616	1085
783.721	2346
783.826	1339
783.932	1648
784.037	1771
784.142	666
784.247	1337
784.352	1712
784.457	1437
784.562	1904
784.667	1139
784.772	769
784.877	837
784.982	1772
785.087	595
785.192	1431
785.297	1708
785.402	596
785.507	1389
785.611	1242
785.716	1587
785.821	1157
785.926	1033
786.031	488
786.135	803
786.240	2047
786.345	-100
786.450	1957
786.554	1054
786.659	375
786.763	-404
786.868	769
786.973	1620
787.077	790
787.182	1120
787.286	1295
787.391	413
787.495	618
787.600	1085
787.704	155
787.809	1379
787.913	958
788.017	1430
788.122	1120
788.226	982
788.330	289
788.435	1189
788.539	1422
788.643	1709
788.747	892
788.852	1128
788.956	409
789.060	1442
789.164	1259
789.268	122
789.372	1024
789.476	1024
789.580	835
789.684	208
789.788	1400
789.892	437
789.996	1950
790.100	1346
790.204	1959
790.308	1106
790.412	429
790.516	1379
790.620	545
790.724	1942
790.828	668
790.931	-287
791.035	1623
791.139	413
791.242	294
791.346	1535
791.450	1181
791.554	508
791.657	-758
791.761	1684
791.864	2245
791.968	1303
792.072	714
792.175	729
792.279	342
792.382	1663
792.486	626
792.589	759
792.693	1257
792.796	23
792.899	1445
793.003	644
793.106	-103
793.209	553
793.313	1763
793.416	-662
793.519	1487
793.623	2193
793.726	1514
793.829	737
793.932	629
794.035	4
794.138	1741
794.242	1026
794.345	586
794.448	1719
794.551	1625
794.654	6694
794.757	7353
794.860	1596
794.963	472
795.066	746
795.169	830
795.272	304
795.375	964
795.477	139
795.580	269
795.683	-54
795.786	226
795.889	-235
795.991	1660
796.094	1357
796.197	-888
796.300	1193
796.402	510
796.505	-84
796.608	24
796.710	1849
796.813	57
796.915	251
797.018	590
797.120	1322
797.223	-908
797.326	1214
797.428	98
797.530	-449
797.633	688
797.735	1268
797.838	1125
797.940	1313
798.042	-229
798.145	535
798.247	612
798.349	-1492
798.452	999
798.554	128
798.656	-355
798.758	927
798.860	7
798.962	212
799.065	-93
799.167	-558
799.269	979
799.371	1106
799.473	635
799.575	457
799.677	582
799.779	2752
799.881	852
799.983	687
800.085	258
800.187	1052
800.289	-617
800.390	195
800.492	391
800.594	1202
800.696	210
800.798	1257
800.899	885
801.001	731
801.103	-127
801.205	572
801.306	774
801.408	-606
801.509	779
801.611	716
801.713	337
801.814	-561
801.916	192
802.017	-154
802.119	-245
802.220	732
802.322	-1406
802.423	1537
802.525	-764
802.626	16
802.727	325
802.829	684
802.930	-1361
803.031	1779
803.133	-123
803.234	1130
803.335	554
803.436	-746
803.538	-473
803.639	-578
803.740	847
803.841	-593
803.942	727
804.043	757
804.144	-108
804.245	-246
804.346	-126
804.447	195
804.548	928
804.649	1461
804.750	562
804.851	-275
804.952	212
805.053	-39
805.154	-823
805.255	605
805.355	267
805.456	-24
805.557	-499
805.658	-762
805.758	235
805.859	809
805.960	-195
806.061	-41
806.161	-621
806.262	923
806.362	-49
806.463	-196
806.564	935
806.664	-430
806.765	328
806.865	-114
806.966	323
807.066	-490
807.166	-39
807.267	68
807.367	-250
807.468	248
807.568	-756
807.668	828
807.769	1426
807.869	-834
807.969	827
808.069	-455
808.170	-167
808.270	289
808.370	730
808.470	373
808.570	-704
808.670	-516
808.770	306
808.870	-558
808.970	-428
809.070	-102
809.170	239
809.271	-19
809.370	-533
809.470	292
809.570	-486
809.670	-722
809.770	-392
809.870	75
809.970	-766
810.070	-471
810.169	749
810.269	-1028
810.369	811
810.469	49
810.568	-1
810.668	61
810.768	-889
810.867	477
810.967	-643
811.066	-407
811.166	288
811.265	129
811.365	-205
811.464	-844
811.564	-197
811.663	446
811.763	-1683
811.862	30
811.962	400
812.061	-430
812.160	-240
812.260	180
812.359	1176
812.458	2321
812.557	6090
812.657	5191
812.756	1979
812.855	153
812.954	-394
813.053	621
813.153	204
813.252	-363
813.351	223
813.450	321
813.549	-794
813.648	-83
813.747	-624
813.846	636
813.945	-89
814.044	190
814.143	434
814.242	1088
814.341	-160
814.439	385
814.538	752
814.637	134
814.736	-404
814.835	1376
814.933	-130
815.032	1008
815.131	37
815.229	1683
815.328	1859
815.427	652
815.525	818
815.624	322
815.722	45
815.821	847
815.919	547
816.018	775
816.116	1050
816.215	907
816.313	1098
816.412	1690
816.510	1140
816.609	1480
816.707	1450
816.805	1265
816.904	469
817.002	1673
817.100	3214
817.198	1915
817.296	1839
817.395	2290
817.493	3759
817.591	3170
817.689	4823
817.787	7022
817.885	14095
817.983	26072
818.081	61665
818.179	154739
818.277	345163
818.375	199129
818.473	42899
818.571	18129
818.669	12507
818.767	12949
818.865	13356
818.963	16542
819.061	27039
819.158	50944
819.256	116567
819.354	282473
819.452	499600
819.549	227623
819.647	56004
819.745	23518
819.842	15353
819.940	10810
820.038	7651
820.135	6128
820.233	5841
820.330	3125
820.428	2681
820.525	4283
820.623	2784
820.720	2225
820.818	2210
820.915	2677
821.012	2133
821.110	206
821.207	1338
821.304	1339
821.402	1845
821.499	2851
821.596	3664
821.693	2423
821.791	1383
821.888	2069
821.985	3550
822.082	1335
822.179	1843
822.276	1738
822.373	567
822.470	679
822.567	1327
822.664	-551
822.761	933
822.858	-195
822.955	177
823.052	446
823.149	-28
823.246	-213
823.343	239
823.440	723
823.536	-35
823.633	240
823.730	301
823.827	-83
823.923	274
824.020	1674
824.117	241
824.213	957
824.310	260
824.407	213
824.503	-138
824.600	209
824.696	-185
824.793	1189
824.889	-486
824.986	251
825.082	-404
825.179	984
825.275	-295
825.371	-433
825.468	1181
825.564	-318
825.660	206
825.757	526
825.853	382
825.949	551
826.045	286
826.142	-278
826.238	-50
826.334	472
826.430	-838
826.526	485
826.622	-917
826.718	840
826.814	-436
826.910	-70
827.006	-469
827.102	-885
827.198	361
827.294	-47
827.390	448
827.486	-104
827.582	-909
827.678	-1290
827.774	519
827.869	-1068
827.965	582
828.061	-868
828.157	112
828.252	-767
828.348	-189
828.444	223
828.539	-1262
828.635	388
828.731	275
828.826	-397
828.922	673
829.017	-30
829.113	977
829.208	-538
829.304	-31
829.399	1159
829.495	5
829.590	770
829.685	-978
829.781	27
829.876	-825
829.971	-286
830.066	-412
830.162	-886
830.257	-56
830.352	-308
830.447	571
830.543	-694
830.638	-1051
830.733	738
830.828	178
830.923	786
831.018	-519
831.113	-214
831.208	-256
831.303	-902
831.398	-957
831.493	-889
831.588	171
831.683	-1330
831.778	147
831.873	-275
831.967	-191
832.062	-369
832.157	-897
832.252	366
832.346	-18
832.441	1269
832.536	1151
832.631	3121
832.725	843
832.820	-652
832.914	-882
833.009	-674
833.104	-71
833.198	101
833.293	-1108
833.387	-428
833.482	-481
833.576	-1234
833.670	-189
833.765	-778
833.859	-30
833.954	123
834.048	-393
834.142	221
834.237	-1030
834.331	-648
834.425	-133
834.519	-617
834.613	-533
834.708	-1076
834.802	-122
834.896	-1430
834.990	-1035
835.084	-572
835.178	-799
835.272	-694
835.366	-380
835.460	-288
835.554	-602
835.648	-123
835.742	-133
835.836	34
835.930	-1290
836.024	-425
836.117	291
836.211	-560
836.305	31
836.399	786
836.493	-1274
836.586	-270
836.680	-263
836.774	-300
836.867	275
836.961	-766
837.055	-1393
837.148	-529
837.242	-299
837.335	-718
837.429	-138
837.522	-718
837.616	-598
837.709	1076
837.803	-805
837.896	893
837.989	-701
838.083	385
838.176	907
838.269	-413
838.363	272
838.456	60
838.549	934
838.642	1092
838.735	1801
838.829	1003
838.922	-1433
839.015	-218
839.108	-1519
839.201	-793
839.294	47
839.387	294
839.480	-1117
839.573	-424
839.666	-930
839.759	-253
839.852	-609
839.945	-1302
840.038	-893
840.131	-1103
840.223	-856
840.316	121
840.409	-591
840.502	-1528
840.594	-203
840.687	-1383
840.780	-13
840.873	-774
840.965	-775
841.058	-96
841.150	598
841.243	-607
841.336	-321
841.428	-466
841.521	-1112
841.613	-1270
841.706	-1230
841.798	-173
841.890	-17
841.983	-1785
842.075	622
842.167	-505
842.260	-568
842.352	297
842.444	-86
842.537	1329
842.629	1168
842.721	-331
842.813	135
842.905	-1708
842.997	-444
843.090	30
843.182	8
843.274	-221
843.366	3255
843.458	5627
843.550	2159
843.642	-168
843.734	-472
843.826	-292
843.918	-1349
844.009	266
844.101	-755
844.193	-147
844.285	-243
844.377	504
844.469	221
844.560	886
844.652	297
844.744	-194
844.835	-304
844.927	-125
845.019	-723
845.110	-376
845.202	-188
845.293	-746
845.385	-507
845.476	-858
845.568	18
845.659	-508
845.751	-125
845.842	-824
845.934	-1087
846.025	-861
846.116	-103
846.208	-707
846.299	-835
846.390	-606
846.482	-616
846.573	-478
846.664	115
846.755	-626
846.846	334
846.937	-1753
847.029	193
847.120	-1139
847.211	-425
847.302	54
847.393	-1685
847.484	-477
847.575	-814
847.666	-1338
847.757	-977
847.847	81
847.938	-319
848.029	-461
848.120	-965
848.211	-909
848.302	-1054
848.392	-1972
848.483	-919
848.574	-798
848.664	-1471
848.755	-605
848.846	-1100
848.936	-1081
849.027	-153
849.118	-1100
849.208	-1194
849.299	-352
849.389	156
849.480	2073
849.570	5646
849.661	13270
849.751	18992
849.841	4062
849.932	69
850.022	-447
850.112	-80
850.203	-1325
850.293	-491
850.383	-1372
850.474	-1020
850.564	-275
850.654	-739
850.744	-1577
850.834	-1114
850.924	-679
851.014	-6
851.104	-597
851.194	-963
851.284	-46
851.374	-140
851.464	-1054
851.554	-704
851.644	-39
851.734	-587
851.824	-1435
851.914	-977
852.004	362
852.094	-814
852.183	-541
852.273	-810
852.363	-591
852.452	-1277
852.542	-973
852.632	-767
852.721	-708
852.811	-837
852.901	-51
852.990	49
853.080	-838
853.169	-592
853.259	-1145
853.348	31
853.438	320
853.527	1084
853.617	1244
853.706	4719
853.795	9028
853.885	23252
853.974	45228
854.063	87425
854.152	121005
854.242	33168
854.331	4012
854.420	1320
854.509	1044
854.598	1348
854.687	114
854.777	-902
854.866	-193
854.955	119
855.044	-1180
855.133	-667
855.222	-1473
855.311	-1509
855.400	381
855.488	-1459
855.577	-1634
855.666	-539
855.755	-101
855.844	-184
855.933	-932
856.021	29
856.110	-256
856.199	-1842
856.288	-862
856.376	-1463
856.465	-1659
856.554	-84
856.642	-1253
856.731	-180
856.819	-378
856.908	-661
856.996	-1145
857.085	-1092
857.173	-687
857.262	-641
857.350	-185
857.438	-634
857.527	-686
857.615	-1020
857.703	-305
857.792	-902
857.880	-666
857.968	-1552
858.056	-985
858.145	-622
858.233	-796
858.321	-809
858.409	2
858.497	-1384
858.585	-1413
858.673	-763
858.761	-1255
858.849	-1034
858.937	-850
859.025	-364
859.113	387
859.201	-1438
859.289	-494
859.377	-685
859.465	-700
859.552	-1685
859.640	-1452
859.728	-1386
859.816	-873
859.903	-1041
859.991	-1352
860.079	-990
860.166	-753
860.254	-1500
860.342	-223
860.429	-1472
860.517	-1987
860.604	-297
860.692	-966
860.779	-757
860.867	-688
860.954	-863
861.042	-730
861.129	-578
861.216	-697
861.304	-1180
861.391	-1481
861.478	-661
861.565	-798
861.653	-820
861.740	-879
861.827	-1109
861.914	-323
862.001	-993
862.089	-329
862.176	-1128
862.263	-564
862.350	-1179
862.437	-1066
862.524	-1692
862.611	-543
862.698	-110
862.785	-252
862.871	-603
862.958	-1462
863.045	-1250
863.132	-1129
863.219	-498
863.306	-2080
863.392	-834
863.479	-181
863.566	-1243
863.652	-379
863.739	-1573
863.826	-636
863.912	-374
863.999	-1651
864.086	-971
864.172	-806
864.259	-1076
864.345	-769
864.432	-1376
864.518	-579
864.604	-604
864.691	-761
864.777	-912
864.863	-697
864.950	-186
865.036	-797
865.122	920
865.209	847
865.295	-217
865.381	606
865.467	397
865.553	1226
865.639	1556
865.726	4134
865.812	10225
865.898	21635
865.984	31193
866.070	65825
866.156	58211
866.242	10997
866.328	2232
866.414	300
866.499	315
866.585	738
866.671	-75
866.757	946
866.843	503
866.928	244
867.014	-667
867.100	-586
867.186	-40
867.271	509
867.357	856
867.442	-516
867.528	-730
867.614	-518
867.699	537
867.785	688
867.870	1147
867.956	1927
868.041	1160
868.127	375
868.212	1021
868.297	1042
868.383	132
868.468	1071
868.553	1501
868.639	2110
868.724	4531
868.809	2128
868.894	-173
868.979	18
869.065	646
869.150	-933
869.235	-474
869.320	-1109
869.405	25
869.490	-505
869.575	-1641
869.660	-311
869.745	99
869.830	-1225
869.915	-262
870.000	-15
870.085	-852
870.169	-343
870.254	-147
870.339	-111
870.424	-1285
870.509	-1003
870.593	182
870.678	-1174
870.763	-699
870.847	-92
870.932	-350
871.016	95
871.101	270
871.186	-640
871.270	-1206
871.355	-1470
871.439	-326
871.523	-89
871.608	-602
871.692	471
871.777	-515
871.861	-633
871.945	-959
872.030	-296
872.114	-1896
872.198	-206
872.282	-1046
872.367	-389
872.451	-117
872.535	-242
872.619	-726
872.703	-353
872.787	-970
872.871	-767
872.955	-524
873.039	-1059
873.123	-969
873.207	-357
873.291	-838
873.375	-686
873.459	-604
873.543	-310
873.627	604
873.711	-1258
873.794	-382
873.878	-1204
873.962	-717
874.045	-1132
874.129	-960
874.137	-966
874.213	-1022
874.245	-780
874.296	-397
874.352	-762
874.380	-941
874.460	-343
874.464	-320
874.547	-817
874.568	-727
874.631	-459
874.676	-347
874.714	-258
874.784	-564
874.798	-624
874.881	310
874.892	182
874.965	-696
874.999	-760
875.048	-869
875.107	-590
875.131	-485
875.215	-610
875.215	-609
875.298	-299
875.323	-543
875.381	-1179
875.430	-846
875.465	-615
875.538	-831
875.548	-855
875.631	-121
875.646	-233
875.714	-815
875.753	-788
875.798	-732
875.861	-1063
875.881	-1177
875.964	-469
875.968	-479
876.047	-583
876.076	-668
876.130	-818
876.183	-675
876.213	-598
876.291	-130
876.296	-102
876.379	489
876.398	341
876.462	-219
876.506	-507
876.545	-668
876.613	-176
876.628	-92
876.711	-396
876.721	-292
876.794	662
876.828	385
876.877	-162
876.935	-171
876.960	-146
877.043	897
877.043	892
877.125	14
877.150	268
877.208	931
877.258	1199
877.291	1242
877.365	453
877.374	367
877.456	284
877.472	397
877.539	1026
877.579	501
877.622	-59
877.687	762
877.704	955
877.787	590
877.794	573
877.869	456
877.901	573
877.952	706
878.008	288
878.034	227
878.115	227
878.117	225
878.199	378
878.222	582
878.282	1077
878.329	1044
878.364	1018
878.437	992
878.447	979
878.529	173
878.544	151
878.611	291
878.651	517
878.694	804
878.758	794
878.776	716
878.858	342
878.865	322
878.941	120
878.972	119
879.023	306
879.078	273
879.105	394
879.185	1506
879.187	1517
879.269	570
879.292	760
879.351	1557
879.399	916
879.433	482
879.506	538
879.516	539
879.598	502
879.613	601
879.680	980
879.720	696
879.762	737
879.827	1434
879.844	1433
879.926	662
879.933	679
880.007	1611
880.040	1717
880.089	1945
880.147	2644
880.171	2943
880.253	4755
880.254	4755
880.335	7409
880.360	8153
880.417	13343
880.467	19898
880.499	23495
880.574	26691
880.580	25629
880.662	9791
880.680	6882
880.744	3846
880.787	1791
880.825	1258
880.893	1293
880.907	1358
880.989	1049
881.000	1151
881.070	1653
881.106	1097
881.152	617
881.213	936
881.233	991
881.315	1332
881.319	1300
881.396	1228
881.426	1263
881.478	1288
881.532	1317
881.559	1211
881.639	889
881.641	900
881.722	1509
881.745	1583
881.803	1876
881.852	1886
881.885	1723
881.958	1711
881.966	1739
882.047	2209
882.064	2212
882.129	2887
882.171	3368
882.210	4184
882.277	6050
882.291	5848
882.372	3170
882.383	2849
882.454	1725
882.489	1363
882.535	1514
882.596	1384
882.616	1328
882.697	1373
882.702	1368
882.778	1391
882.808	1268
882.859	1150
882.914	1398
882.940	1680
883.020	2153
883.021	2160
883.102	1839
883.127	1678
883.183	2071
883.233	2328
883.264	2148
883.339	1808
883.345	1824
883.426	1853
883.445	1911
883.507	1975
883.551	1818
883.587	1998
883.657	2398
883.668	2399
883.749	2533
883.763	2478
883.830	1741
883.869	1356
883.910	1477
883.975	1748
883.991	1775
884.072	1565
884.081	1594
884.152	2193
884.187	2350
884.233	2464
884.292	2277
884.314	2127
884.394	1998
884.398	1971
884.475	1889
884.504	1953
884.555	2011
884.610	1507
884.636	1527
884.716	2479
884.716	2497
884.797	2686
884.821	2846
884.877	2135
884.927	1297
884.958	1423
885.033	1959
885.038	1980
885.118	1963
885.139	1928
885.199	2020
885.244	2251
885.279	2250
885.350	2181
885.359	2253
885.439	2411
885.456	2498
885.520	2750
885.561	2834
885.600	2595
885.667	2254
885.680	2381
885.760	2751
885.773	2865
885.840	2261
885.878	1741
885.920	1986
885.984	2435
886.000	2531
886.080	3031
886.089	3058
886.160	3118
886.195	3154
886.240	2919
886.300	2439
886.320	2523
886.400	2869
886.406	2895
886.480	3396
886.511	3516
886.560	4216
886.616	4879
886.640	4436
886.720	2871
886.722	2820
886.800	3032
886.827	3098
886.879	3120
886.932	3015
886.959	3012
887.038	3049
887.039	3059
887.119	2581
887.143	2492
887.198	2893
887.248	3197
887.278	3366
887.354	3707
887.358	3724
887.437	3678
887.459	3667
887.517	3748
887.564	3764
887.596	3499
887.669	2798
887.676	2792
887.755	2613
887.774	2510
887.835	2926
887.880	3409
887.914	3328
887.985	2898
887.994	2987
888.073	3702
888.090	3822
888.153	3510
888.195	3300
888.232	3169
888.300	2910
888.311	3011
888.391	3550
888.405	3647
888.470	3116
888.510	2659
888.549	2790
888.615	3192
888.628	3210
888.708	3130
888.720	3104
888.787	3135
888.825	3093
888.866	2988
888.930	2853
888.945	2918
889.024	3170
889.035	3193
889.103	3283
889.140	3288
889.182	3531
889.245	3879
889.261	3822
889.340	3469
889.349	3411
889.419	3427
889.454	3423
889.498	3381
889.559	3279
889.577	3406
889.656	3909
889.664	3946
889.735	3832
889.768	3759
889.814	3704
889.873	3601
889.978	3023
890.083	3092
890.187	4238
890.292	4182
890.397	4624
890.501	3264
890.606	3996
890.710	3686
890.815	3218
890.919	3451
891.024	3788
891.128	4568
891.233	3579
891.337	3390
891.442	4189
891.546	3064
891.650	3231
891.755	3710
891.859	4280
891.963	4640
892.068	4000
892.172	3958
892.276	3968
892.380	3774
892.484	4221
892.589	4061
892.693	4238
892.797	3742
892.901	3532
893.005	3528
893.109	3656
893.213	4047
893.317	4052
893.421	2900
893.525	3530
893.629	3758
893.733	3089
893.837	3591
893.941	3507
894.045	3869
894.148	3260
894.252	3225
894.356	3762
894.460	4762
894.564	3196
894.667	3176
894.771	3325
894.875	3157
894.978	3710
895.082	3875
895.186	3699
895.289	4194
895.393	3492
895.496	4023
895.600	3214
895.703	3138
895.807	3281
895.910	3784
896.014	3511
896.117	3399
896.221	3213
896.324	3810
896.427	3391
896.531	2942
896.634	3191
896.737	3630
896.840	3383
896.944	3044
897.047	3905
897.150	3543
897.253	3066
897.356	3804
897.460	3384
897.563	2942
897.666	4001
897.769	3532
897.872	3744
897.975	2230
898.078	3380
898.181	2756
898.284	3097
898.387	4740
898.490	3779
898.593	3743
898.695	3534
898.798	2741
898.901	3841
899.004	4031
899.107	3639
899.209	3325
899.312	3577
899.415	3488
899.518	2870
899.620	3241
899.723	4681
899.826	7684
899.928	7825
900.031	2930
900.133	3618
900.236	2515
900.338	2714
900.441	2654
900.543	3381
900.646	3422
900.748	3117
900.851	3276
900.953	3186
901.055	3498
901.158	3990
901.260	3045
901.362	3442
901.465	3054
901.567	2762
901.669	3541
901.771	2527
901.873	3414
901.976	3365
902.078	2822
902.180	2474
902.282	3447
902.384	3488
902.486	3314
902.588	3616
902.690	3130
902.792	3088
902.894	4030
902.996	2853
903.098	3837
903.200	3282
903.302	2529
903.404	2998
903.505	2429
903.607	2726
903.709	3794
903.811	3165
903.913	2609
904.014	2803
904.116	3750
904.218	3798
904.319	3069
904.421	3676
904.523	2738
904.624	2848
904.726	3364
904.827	2699
904.929	3362
905.030	3766
905.132	3558
905.233	2967
905.335	2219
905.436	2908
905.537	2776
905.639	2503
905.740	2823
905.841	2609
905.943	3042
906.044	3080
906.145	3807
906.247	3035
906.348	2831
906.449	2595
906.550	3360
906.651	3684
906.752	2558
906.854	2335
906.955	2930
907.056	2755
907.157	3706
907.258	3336
907.359	2107
907.460	2627
907.561	2583
907.662	3122
907.762	3205
907.863	3388
907.964	2745
908.065	3311
908.166	2883
908.267	3163
908.367	2400
908.468	2965
908.569	3365
908.670	4414
908.770	5785
908.871	5431
908.971	4323
909.072	3743
909.173	2622
909.273	3423
909.374	3769
909.474	2718
909.575	2630
909.675	3765
909.776	2749
909.876	2839
909.977	3432
910.077	3869
910.177	2907
910.278	2972
910.378	2697
910.478	3452
910.579	2927
910.679	3050
910.779	3576
910.879	3464
910.980	3210
911.080	2482
911.180	2319
911.280	3674
911.380	2797
911.480	3654
911.580	3110
911.680	3460
911.780	3543
911.880	3982
911.980	2575
912.080	2187
912.180	2471
912.280	3630
912.380	3350
912.480	2686
912.580	2774
912.679	2287
912.779	3335
912.879	1611
912.979	2680
913.078	2327
913.178	2464
913.278	2540
913.377	2641
913.477	2592
913.577	3553
913.676	3505
913.776	2716
913.875	3245
913.975	3035
914.074	3022
914.174	2809
914.273	2502
914.373	2785
914.472	3323
914.572	1673
914.671	2393
914.770	2808
914.870	3229
914.969	2593
915.068	2929
915.167	2683
915.267	1578
915.366	2235
915.465	3116
915.564	2778
915.663	2538
915.763	2533
915.862	3064
915.961	2172
916.060	2790
916.159	2670
916.258	2326
916.357	3138
916.456	3799
916.555	2511
916.654	2572
916.752	3109
916.851	2346
916.950	3087
917.049	2648
917.148	2030
917.247	2881
917.345	2680
917.444	2883
917.543	2744
917.642	2669
917.740	2106
917.839	1987
917.937	3493
918.036	3986
918.135	1904
918.233	2175
918.332	2090
918.430	2218
918.529	2406
918.627	1771
918.726	2617
918.824	2984
918.923	2722
919.021	2145
919.119	1741
919.218	2083
919.316	2572
919.414	2378
919.512	2856
919.611	2551
919.709	2481
919.807	2393
919.905	2393
920.003	2437
920.102	2676
920.200	2916
920.298	2483
920.396	1924
920.494	2846
920.592	2220
920.690	2761
920.788	2527
920.886	2533
920.984	2928
921.082	2077
921.180	3206
921.277	3333
921.375	3129
921.473	3511
921.571	2993
921.669	2705
921.766	3031
921.864	3175
921.962	3105
922.060	3706
922.157	3068
922.255	3413
922.352	2461
922.450	3416
922.548	2420
922.645	3264
922.743	3763
922.840	5343
922.938	5259
923.035	4587
923.133	5101
923.230	5700
923.327	5909
923.425	5803
923.522	5716
923.619	4971
923.717	4366
923.814	4944
923.911	4294
924.008	4644
924.106	4540
924.203	4583
924.300	5421
924.397	4428
924.494	5251
924.591	5222
924.688	4333
924.786	5613
924.883	5373
924.979	4101
925.077	4171
925.173	4978
925.270	5080
925.367	4835
925.464	4910
925.561	5790
925.658	5520
925.755	5752
925.852	5649
925.948	5636
926.045	5091
926.142	5146
926.239	5466
926.335	4885
926.432	4675
926.529	5328
926.625	4740
926.722	5117
926.818	5181
926.915	4366
927.011	4223
927.108	4546
927.204	4584
927.301	3449
927.397	4187
927.494	4292
927.590	4000
927.687	4270
927.783	3903
927.879	4260
927.976	4981
928.072	4842
928.168	3991
928.264	4339
928.361	3794
928.457	4330
928.553	3823
928.649	4464
928.745	4689
928.841	3946
928.937	4081
929.033	4472
929.129	4306
929.225	4727
929.321	4868
929.417	3924
929.513	3579
929.609	3296
929.705	4205
929.801	4059
929.897	3791
929.993	2958
930.089	2841
930.184	4293
930.280	4497
930.376	5172
930.471	3844
930.567	3419
930.663	4154
930.758	3538
930.854	3441
930.950	3673
931.045	3121
931.141	4507
931.236	4600
931.332	3750
931.427	3308
931.523	4570
931.618	3926
931.714	3126
931.809	4289
931.905	3784
932.000	3319
932.095	3791
932.191	4786
932.286	3834
932.381	3561
932.476	3407
932.572	2985
932.667	3462
932.762	3764
932.857	3936
932.952	3742
933.047	3771
933.142	2889
933.237	3644
933.332	3269
933.427	3679
933.522	3577
933.617	1916
933.712	4192
933.807	3532
933.902	4319
933.997	3892
934.092	3199
934.187	3154
934.282	3458
934.376	3499
934.471	3234
934.566	1857
934.661	3039
934.755	3945
934.850	3471
934.945	3707
935.039	3380
935.134	2659
935.228	3795
935.323	3518
935.417	2450
935.512	2974
935.606	2987
935.701	2845
935.795	3937
935.890	3713
935.984	3195
936.079	2062
936.173	3783
936.267	2683
936.362	3306
936.456	3442
936.550	3348
936.644	3123
936.738	3124
936.833	2595
936.927	3144
937.021	3104
937.115	3297
937.209	2306
937.303	3814
937.397	2988
937.491	3327
937.585	2767
937.679	1859
937.773	3127
937.867	1945
937.961	3300
938.055	3310
938.149	3625
938.243	2580
938.337	2938
938.430	2598
938.524	3139
938.618	3385
938.712	2981
938.805	3152
938.899	3389
938.993	2963
939.086	2270
939.180	2018
939.274	3222
939.367	3064
939.461	2929
939.554	1969
939.648	2523
939.741	2617
939.835	2948
939.928	3464
940.022	3661
940.115	3395
940.208	3320
940.302	3440
940.395	2692
940.488	2413
940.582	3051
940.675	2489
940.768	2969
940.861	3167
940.954	3404
941.048	1996
941.141	3010
941.234	3021
941.327	4803
941.420	5064
941.513	3851
941.606	2957
941.699	3597
941.792	3370
941.885	3567
941.978	3867
942.071	2090
942.164	1129
942.257	3072
942.349	2373
942.442	3083
942.535	2783
942.628	3165
942.721	2905
942.813	1774
942.906	2316
942.999	2425
943.091	2483
943.184	2575
943.277	1791
943.369	2521
943.462	3306
943.554	2144
943.647	2698
943.739	2945
943.832	1825
943.924	1452
944.017	2446
944.109	1932
944.201	2486
944.294	2215
944.386	1657
944.478	2238
944.571	2697
944.663	2178
944.755	2088
944.847	2595
944.940	2365
945.032	1408
945.124	2547
945.216	3449
945.308	2758
945.400	2290
945.492	2509
945.584	3175
945.676	2547
945.768	2117
945.860	3423
945.952	2096
946.044	2755
946.136	2179
946.228	2746
946.320	2057
946.412	2351
946.503	3208
946.595	2450
946.687	1887
946.779	944
946.870	2404
946.962	2469
947.054	2644
947.145	2992
947.237	2002
947.329	2640
947.420	2035
947.512	2342
947.603	2647
947.695	1819
947.786	1824
947.878	1192
947.969	1871
948.061	1618
948.152	1704
948.243	2382
948.335	1746
948.426	1960
948.517	1524
948.609	2253
948.700	1576
948.791	1668
948.882	1742
948.973	1782
949.065	2738
949.156	2054
949.247	1491
949.338	1856
949.429	1117
949.520	1324
949.611	1367
949.702	1504
949.793	1434
949.884	1905
949.975	2234
950.066	2262
950.157	1414
950.247	2305
950.338	1414
950.429	1394
950.520	2030
950.611	1541
950.701	2386
950.792	2266
950.883	1513
950.973	1674
951.064	2048
951.155	2628
951.245	1977
951.336	1332
951.427	789
951.517	1777
951.608	1395
951.698	1725
951.788	932
951.879	938
951.969	902
952.060	1622
952.150	1855
952.240	2307
952.331	890
952.421	2422
952.511	1919
952.602	1433
952.692	1788
952.782	880
952.872	1490
952.962	1840
953.052	1374
953.143	1521
953.233	2087
953.323	1234
953.413	1039
953.503	832
953.593	1717
953.683	1518
953.773	357
953.863	1779
953.953	829
954.042	1392
954.132	1005
954.222	2035
954.312	1202
954.402	1903
954.492	3168
954.581	2239
954.671	1318
954.761	1061
954.850	1569
954.940	1092
955.030	702
955.119	787
955.209	981
955.298	1070
955.388	1296
955.477	2003
955.567	701
955.656	1159
955.746	1145
955.835	1496
955.925	1075
956.014	897
956.103	954
956.193	1888
956.282	896
956.371	1142
956.461	1391
956.550	521
956.639	1415
956.728	743
956.817	1636
956.906	1918
956.995	1297
957.085	888
957.174	621
957.263	436
957.352	819
957.441	632
957.530	1375
957.619	1447
957.708	1580
957.796	387
957.885	1124
957.974	1444
958.063	1040
958.152	563
958.241	1561
958.329	888
958.418	455
958.507	653
958.596	1995
958.684	482
958.773	1263
958.861	643
958.950	1266
959.039	248
959.127	703
959.216	871
959.304	643
959.393	1045
959.481	1257
959.570	722
959.658	342
959.746	1112
959.835	2785
959.923	2872
960.011	1113
960.100	1785
960.188	1417
960.276	708
960.365	1168
960.453	144
960.541	319
960.629	513
960.717	500
960.805	316
960.893	1384
960.981	211
961.069	1816
961.158	1097
961.245	2121
961.333	368
961.421	184
961.509	1425
961.597	1247
961.685	57
961.773	431
961.861	594
961.949	1227
962.036	512
962.124	2219
962.212	793
962.299	-25
962.387	521
962.475	735
962.562	619
962.650	2236
962.738	77
962.825	627
962.913	671
963.000	196
963.088	893
963.175	1200
963.263	796
963.350	1003
963.438	1438
963.525	2121
963.612	4865
963.700	11478
963.787	15017
963.874	4462
963.962	267
964.049	1213
964.136	630
964.223	599
964.310	1474
964.398	1458
964.485	1190
964.572	1555
964.659	3842
964.746	2216
964.833	633
964.920	1023
965.007	1282
965.094	855
965.181	668
965.268	526
965.355	728
965.441	457
965.528	-282
965.615	1416
965.702	920
965.789	-461
965.875	959
965.962	1008
966.049	834
966.136	1270
966.222	905
966.309	1832
966.395	509
966.482	451
966.569	572
966.655	1046
966.742	88
966.828	845
966.915	-422
967.001	-72
967.087	1177
967.174	1056
967.260	3015
967.347	3621
967.433	7770
967.519	7918
967.605	2181
967.692	447
967.778	807
967.864	72
967.950	241
968.036	-283
968.123	971
968.209	390
968.295	177
968.381	1130
968.467	1228
968.553	-33
968.639	1929
968.725	225
968.811	1842
968.897	1036
968.983	426
969.069	780
969.154	729
969.240	1180
969.326	274
969.412	-487
969.497	-164
969.583	505
969.669	1075
969.755	441
969.840	-70
969.926	930
970.012	1333
970.097	2573
970.183	1464
970.268	1461
970.354	3046
970.439	4262
970.525	5717
970.610	375
970.696	903
970.781	771
970.866	-1163
970.952	1272
971.037	-413
971.122	432
971.208	450
971.293	-104
971.378	-290
971.463	-207
971.549	530
971.634	1845
971.719	911
971.804	267
971.889	2120
971.974	215
972.059	-52
972.144	362
972.229	527
972.314	102
972.399	1268
972.484	39
972.569	1641
972.654	984
972.739	4588
972.824	1829
972.908	-120
972.993	641
973.078	866
973.163	535
973.247	140
973.332	-829
973.417	1396
973.501	-573
973.586	616
973.671	1067
973.755	-205
973.840	1052
973.924	1423
974.009	1050
974.093	948
974.178	2820
974.262	2636
974.346	1774
974.431	133
974.515	-348
974.600	271
974.684	250
974.768	488
974.852	787
974.937	-729
975.021	785
975.105	-1131
975.189	-409
975.273	1057
975.358	-749
975.442	-369
975.526	-79
975.610	-86
975.694	-320
975.778	986
975.862	-45
975.946	-1900
976.030	991
976.114	-724
976.198	-10
976.281	-251
976.365	1096
976.449	19
976.533	15
976.617	-1228
976.700	-426
976.784	235
976.868	121
976.951	1704
977.035	680
977.119	-120
977.202	1014
977.286	884
977.369	684
977.453	449
977.536	-723
977.620	-681
977.703	449
977.787	-674
977.870	391
977.953	1221
978.037	-1172
978.120	1834
978.203	2664
978.287	2667
978.370	702
978.453	698
978.536	163
978.620	2296
978.703	1437
978.786	-146
978.869	139
978.952	-1305
979.035	1754
979.118	-146
979.201	-1186
979.284	21
979.367	-319
979.450	-565
979.533	-984
979.616	-303
979.699	-758
979.782	874
979.865	-372
979.948	165
980.030	-403
980.113	891
980.196	-1010
980.279	-194
980.361	-988
980.444	-394
980.526	671
980.609	111
980.692	259
980.774	256
980.857	-1376
980.939	1157
981.022	-421
981.104	39
981.187	-497
981.269	243
981.352	-803
981.434	-1132
981.516	-143
981.599	562
981.681	-371
981.763	209
981.846	-841
981.928	119
982.010	365
982.092	-929
982.174	69
982.256	-1122
982.339	-319
982.421	-557
982.503	-155
982.585	-991
982.667	-697
982.749	-616
982.831	179
982.913	-999
982.995	214
983.077	-472
983.158	828
983.240	-1449
983.322	676
983.404	511
983.486	-1501
983.568	330
983.649	-311
983.731	190
983.813	-506
983.894	-254
983.976	-924
984.058	-905
984.139	22
984.221	-1682
984.302	613
984.384	-74
984.465	-1510
984.547	273
984.628	-494
984.710	354
984.791	-264
984.872	-637
984.954	-533
985.035	397
985.116	-1710
985.198	-679
985.279	54
985.360	206
985.441	-890
985.522	-519
985.604	-512
985.685	-2357
985.766	306
985.847	569
985.928	-1174
986.009	10
986.090	-756
986.171	496
986.252	-1052
986.333	52
986.414	-92
986.495	180
986.576	-77
986.656	-179
986.737	317
986.818	-535
986.899	-1311
986.980	-396
987.060	-135
987.141	-794
987.222	-137
987.302	-359
987.383	-310
987.464	-201
987.544	-887
987.625	145
987.705	-363
987.786	388
987.866	-1201
987.947	98
988.027	-666
988.108	-838
988.188	-180
988.268	-266
988.349	233
988.429	-1261
988.509	-639
988.589	-374
988.670	-1564
988.750	675
988.830	-806
988.910	-601
988.990	-433
989.070	-282
989.151	-232
989.231	-954
989.311	-688
989.391	93
989.471	-628
989.551	-523
989.631	-544
989.711	291
989.791	-1064
989.870	-509
989.950	816
990.030	-1390
990.110	-35
990.190	-1525
990.269	-955
990.349	-565
990.429	-265
990.509	-838
990.588	-960
990.668	-575
990.747	-560
990.827	-624
990.907	-71
990.986	-131
991.066	104
991.145	-877
991.225	880
991.304	-579
991.383	-1357
991.463	-469
991.542	-13
991.622	-991
991.701	-821
991.780	-1512
991.859	286
991.939	-593
992.018	-767
992.097	-198
992.176	-1612
992.256	-607
992.335	-1521
992.414	-226
992.493	-1366
992.572	-896
992.651	438
992.730	-837
992.809	-1040
992.888	-938
992.967	-951
993.046	-389
993.125	-1666
993.203	-661
993.282	-758
993.361	-768
993.440	-580
993.519	-1435
993.597	-827
993.676	-1662
993.755	-113
993.834	-794
993.912	-2359
993.991	-134
994.069	-1757
994.148	-1262
994.226	-667
994.305	-1157
994.384	-916
994.462	1089
994.540	-1948
994.619	-1938
994.697	-1152
994.776	-1459
994.854	-968
994.932	-1860
995.011	-1033
995.089	-1016
995.167	-1661
995.245	-347
995.324	-1807
995.402	-288
995.480	-286
995.558	-123
995.636	-2029
995.714	-1361
995.792	-373
995.870	-1645
995.948	-1125
996.026	448
996.104	-1722
996.182	-384
996.260	-1053
996.338	-776
996.416	-1231
996.494	-1793
996.572	-680
996.649	-1564
996.727	-1756
996.805	-902
996.883	-1287
996.960	-1398
997.038	-1679
997.116	-1297
997.193	-1721
997.271	-818
997.348	-1333
997.426	-1027
997.504	-2638
997.581	-870
997.658	-210
997.736	-1637
997.813	-1267
997.891	-251
997.968	-525
998.046	-1334
998.123	-725
998.200	-184
998.277	-1442
998.355	-869
998.432	-2261
998.509	-910
998.586	-287
998.663	-1170
998.741	-1547
998.818	-1460
998.895	-1131
998.972	-257
999.049	-982
999.126	-1240
999.203	-514
999.280	-263
999.357	-1307
999.434	-1591
999.511	-1181
999.587	-873
999.664	-1080
999.741	-945
999.818	-896
999.895	-1217
999.971	-1926
1000.048	-490
1000.125	-701
1000.202	-1930
1000.278	-1486
1000.355	-11
1000.431	-315
1000.508	-1383
1000.584	-477
1000.661	-258
1000.738	-2248
1000.814	-905
1000.890	-779
1000.967	-1153
1001.043	-811
1001.120	-1471
1001.196	-1444
1001.272	-1852
1001.349	-1151
1001.425	-598
1001.501	-1207
1001.577	-2241
1001.654	-1181
1001.730	-1918
1001.806	-1168
1001.882	-1724
1001.958	-596
1002.034	-138
1002.110	-1327
1002.186	-1473
1002.262	-1286
1002.338	-1449
1002.414	-631
1002.490	-792
1002.566	-2089
1002.642	-959
1002.718	-554
1002.794	-1062
1002.870	-1561
1002.945	-1561
1003.021	-2098
1003.097	-1102
1003.173	425
1003.248	-1514
1003.324	-1647
1003.400	-1131
1003.475	-2323
1003.551	-1209
1003.626	-1248
1003.702	-1334
1003.777	-1119
1003.853	-1235
1003.928	-1568
1004.004	-1232
1004.079	-1218
1004.155	-1440
1004.230	-1800
1004.305	-606
1004.381	-1716
1004.456	-1447
1004.531	-1000
1004.607	-951
1004.682	-382
1004.757	-1631
1004.832	-1086
1004.907	-1838
1004.982	-835
1005.057	-802
1005.133	-1303
1005.208	-1246
1005.283	-1269
1005.358	-885
1005.433	-1892
1005.508	-513
1005.583	-1862
1005.657	-2027
1005.732	-295
1005.807	-1656
1005.882	-1952
1005.957	-1886
1006.032	-1272
1006.106	-1169
1006.181	-956
1006.256	-1087
1006.331	-2181
1006.405	-1591
1006.480	-1333
1006.554	-1602
1006.629	-1608
1006.704	-1368
1006.778	-945
1006.853	-997
1006.927	-1549
1007.002	-664
1007.076	-276
1007.150	-1812
1007.225	-863
1007.299	-1089
1007.373	-2498
1007.448	-668
1007.522	-905
1007.596	-723
1007.671	-1658
1007.745	-1565
1007.819	-1666
1007.893	-1071
1007.967	-856
1008.041	-2487
1008.115	-418
1008.190	-1691
1008.264	-477
1008.338	-2215
1008.412	-945
1008.486	-1119
1008.560	-1031
1008.633	-989
1008.707	-1239
1008.781	-475
1008.855	-1939
1008.929	-1303
1009.003	-2606
1009.076	-1035
1009.150	-1484
1009.224	-1661
1009.298	-718
1009.371	-1720
1009.445	-689
1009.519	-1509
1009.592	-2537
1009.666	-725
1009.739	-957
1009.813	-1715
1009.886	-1296
1009.960	-2161
1010.033	-724
1010.107	-784
1010.180	-2102
1010.253	-1132
1010.327	-1752
1010.400	-1030
1010.473	-1590
1010.547	616
1010.620	-1243
1010.693	-902
1010.766	-1437
1010.840	-1487
1010.913	-761
1010.986	-2566
1011.059	-1524
1011.132	-1199
1011.205	-937
1011.278	-1326
1011.351	-1838
1011.424	-1040
1011.497	-1801
1011.570	-676
1011.643	-1933
1011.716	-1566
1011.789	-1655
1011.862	-1528
1011.934	-816
1012.007	-1952
1012.080	-1968
1012.153	-1710
1012.225	-705
1012.298	-1404
1012.371	-1761
1012.443	-912
1012.516	-2037
1012.588	-1229
1012.661	-861
1012.733	-1964
1012.806	-1383
1012.879	-1438
1012.951	-1025
1013.023	-1395
1013.096	-1653
1013.168	-1604
1013.241	-395
1013.313	-1287
1013.385	-1929
1013.458	-1555
1013.530	-1430
1013.602	-2193
1013.674	-1054
1013.746	-1930
1013.819	-1959
1013.891	-424
1013.963	-1435
1014.035	-1785
1014.107	-1401
1014.179	-866
1014.251	-1011
1014.323	-1063
1014.395	-960
1014.467	-1483
1014.539	-1337
1014.611	-1512
1014.683	-1131
1014.754	-1745
1014.826	-1316
1014.898	-1106
1014.970	-2135
1015.042	-578
1015.113	-1531
1015.185	-2070
1015.257	-1993
1015.328	-1108
1015.400	-1830
1015.471	-1426
1015.543	-2615
1015.615	-1356
1015.686	-1423
1015.757	-1819
1015.829	-1266
1015.901	-924
1015.972	-1224
1016.043	-1680
1016.115	-1334
1016.186	-1660
1016.257	-2076
1016.328	-930
1016.400	-1238
1016.471	-2225
1016.542	-2186
1016.613	-1602
1016.685	-1477
1016.756	-465
1016.827	-1799
1016.898	-2109
1016.969	-1276
1017.040	-1753
1017.111	-1273
1017.182	-1962
1017.253	-2115
1017.324	-1942
1017.395	-1312
1017.466	-943
1017.537	-1809
1017.608	-2204
1017.678	-1280
1017.749	-1640
1017.820	-1218
1017.891	-2166
1017.961	-1552
1018.032	-1749
1018.103	-2242
1018.173	-1782
1018.244	-1552
1018.315	-1451
1018.385	-1139
1018.456	-1994
1018.526	-2279
1018.597	-1972
1018.667	-1698
1018.738	-1802
1018.808	-1124
1018.878	-1401
1018.949	-1652
1019.019	-1122
1019.089	-1877
1019.160	-1838
1019.230	-2297
1019.300	-1257
1019.371	-2790
1019.441	-1574
1019.511	-1622
1019.581	-1659
1019.651	-2024
1019.721	-1120
1019.791	-1365
1019.861	-1905
1019.931	-1031
1020.001	-1434
1020.071	-1416
1020.141	-1481
1020.211	-1670
1020.281	-2765
1020.351	-2114
1020.421	-1701
1020.491	-1466
1020.560	-2206
1020.630	-1676
1020.700	-1126
1020.770	-2093
1020.839	-1988
1020.909	-1336
1020.979	-2273
1021.048	-1613
1021.118	-1597
1021.187	-2000
1021.257	-1434
1021.326	-1678
1021.396	-1239
1021.465	-1649
1021.535	-1417
1021.604	-1635
1021.674	-1442
1021.743	-1866
1021.812	-799
1021.882	-2639
1021.951	-1481
1022.020	-1937
1022.089	-1080
1022.159	-1625
1022.228	-1218
1022.297	-1395
1022.366	-1880
1022.435	-1912
1022.504	-2280
1022.573	-2083
1022.642	-1669
1022.711	-1593
1022.781	-1647
1022.849	-1761
1022.918	-2739
1022.987	-2221
1023.056	-1521
1023.125	-2920
1023.194	-2087
1023.263	-1113
1023.331	-1766
1023.400	-1985
1023.469	-2337
1023.538	-996
1023.606	-2299
1023.675	-2244
1023.744	-1819
1023.812	-2209
1023.881	-1485
1023.949	-1546
1024.018	-1631
1024.086	-1411
1024.155	-2013
1024.223	-1839
1024.292	-1958
1024.360	-1538
1024.429	-1864
1024.497	-2032
1024.565	-1188
1024.634	-1791
1024.702	-1564
1024.770	-1552
1024.838	-1894
1024.907	-1506
1024.975	-2372
1025.043	-1668
1025.111	-2316
1025.179	-959
1025.247	-1613
1025.315	-1494
1025.383	-1771
1025.451	-1951
1025.519	-2914
1025.587	-1794
1025.655	-2285
1025.723	-1358
1025.791	-1881
1025.859	-2095
1025.927	-1289
1025.995	-1652
1026.062	-1570
1026.130	-2445
1026.198	-2176
1026.266	-2052
1026.333	-2205
1026.401	-1672
1026.469	-1292
1026.536	-2194
1026.604	-2404
1026.671	-1849
1026.739	-993
1026.806	-1994
1026.874	-1762
1026.941	-962
1027.009	-2034
1027.076	-1867
1027.144	-1550
1027.211	-2360
1027.278	-2849
1027.345	-932
1027.413	-1863
1027.480	-1759
1027.547	-1685
1027.614	-1922
1027.682	-1698
1027.749	-1416
1027.816	-1702
1027.883	-1356
1027.950	-1838
1028.017	-3029
1028.084	-1982
1028.151	-1623
1028.218	-1765
1028.285	-1222
1028.352	-2549
1028.419	-2075
1028.486	-2300
1028.553	-1759
1028.619	-2094
1028.686	-1392
1028.753	-2224
1028.820	-2086
1028.886	-2307
1028.953	-2240
1029.020	-1673
1029.086	-2113
1029.153	-2585
1029.220	-2043
1029.286	-1062
1029.353	-1716
1029.419	-1686
1029.486	-1999
1029.552	-1920
1029.619	-1597
1029.685	-2264
1029.751	-1864
1029.818	-1508
1029.884	-1898
1029.951	-812
1030.017	-2244
1030.083	-1957
1030.149	-1522
1030.216	-1373
1030.282	-1202
1030.348	-1927
1030.414	-2062
1030.480	-2015
1030.546	-1724
1030.612	-1589
1030.678	-2158
1030.744	-1951
1030.810	-2071
1030.876	-1659
1030.942	-1269
1031.008	-1424
1031.074	-1525
1031.140	-1969
1031.206	-2248
1031.272	-1659
1031.337	-2518
1031.403	-1022
1031.469	-2056
1031.534	-2275
1031.600	-1982
1031.666	-1057
1031.731	-1891
1031.797	-2241
1031.863	-1865
1031.928	-1579
1031.994	-2453
1032.059	-1685
1032.125	-1547
1032.190	-1377
1032.256	-1574
1032.321	-2681
1032.386	-1340
1032.452	-1605
1032.517	-1400
1032.582	-2114
1032.647	-1588
1032.713	-2136
1032.778	-2317
1032.843	-1770
1032.908	-1285
1032.974	-1061
1033.039	-1720
1033.104	-1837
1033.169	-1660
1033.234	-1183
1033.299	-1058
1033.364	-294
1033.429	-1142
1033.494	-680
1033.559	-1942
1033.624	-1806
1033.688	-1271
1033.753	-2104
1033.818	-1741
1033.883	-519
1033.948	-857
1034.013	-1232
1034.077	-1719
1034.142	-746
1034.207	-473
1034.271	324
1034.336	871
1034.400	-40
1034.465	628
1034.530	-444
1034.594	-1053
1034.658	-1721
1034.723	-1473
1034.787	-1640
1034.852	-907
1034.916	-1436
1034.981	-1684
1035.045	-1478
1035.109	-1345
1035.173	-1078
1035.238	-3165
1035.302	-1302
1035.366	-2217
1035.430	-1375
1035.495	-1338
1035.559	-1271
1035.623	-2243
1035.687	-1727
1035.751	-425
1035.815	-1465
1035.879	-1378
1035.943	-917
1036.007	-2001
1036.071	-1655
1036.135	-1077
1036.198	-1971
1036.262	-1596
1036.326	-1491
1036.390	-1262
1036.454	-1191
1036.517	-829
1036.581	-750
1036.645	613
1036.709	-95
1036.772	-1025
1036.836	-1976
1036.900	-1302
1036.963	-2256
1037.026	-1458
1037.090	-2023
1037.154	-1616
1037.217	-1716
1037.280	-2061
1037.344	-1884
1037.407	-1934
1037.471	-1549
1037.534	-1908
1037.597	-1040
1037.661	-2615
1037.724	-2022
1037.787	-1501
1037.850	-2557
1037.913	-1306
1037.977	-994
1038.040	-1610
1038.103	-1956
1038.166	-1715
1038.229	-1375
1038.292	-1879
1038.355	-1749
1038.418	-2132
1038.481	-1595
1038.544	-1666
1038.607	-1538
1038.670	-2642
1038.732	-1308
1038.795	-2124
1038.858	-1766
1038.921	-1482
1038.984	-848
1039.046	-1930
1039.109	-1460
1039.172	-1583
1039.234	-1210
1039.297	-2480
1039.360	-1749
1039.422	-1731
1039.485	-1656
1039.547	-2381
1039.610	-1463
1039.672	-2291
1039.734	-2070
1039.797	-2135
1039.859	-1094
1039.922	-2331
1039.984	-1816
1040.046	-2555
1040.109	-1766
1040.171	-2428
1040.233	-2504
1040.295	-1812
1040.358	-996
1040.420	-2450
1040.482	-2026
1040.544	-2529
1040.606	-2336
1040.668	-1616
1040.730	-1566
1040.792	-1857
1040.854	-2256
1040.916	-1672
1040.978	-1924
1041.040	-1367
1041.102	-1563
1041.164	-1898
1041.225	-2317
1041.287	-2215
1041.349	-2809
1041.411	-1891
1041.472	-991
1041.534	-1706
1041.596	-1623
1041.657	-1982
1041.719	-1308
1041.781	-2114
1041.842	-1936
1041.904	-1569
1041.965	-978
1042.027	-1924
1042.088	-2039
1042.150	-1547
1042.211	-1952
1042.272	-1818
1042.334	-1317
1042.395	-2209
1042.456	-1149
1042.518	-1678
1042.579	-1144
1042.640	-1236
1042.701	-2267
1042.763	-2484
1042.824	-1176
1042.885	-1951
1042.946	-1812
1043.007	-1915
1043.068	-2038
1043.129	-1883
1043.190	-1662
1043.251	-2263
1043.312	-1174
1043.373	-1642
1043.434	-1014
1043.495	-2405
1043.556	-1628
1043.616	-2349
1043.677	-2028
1043.738	-1599
1043.799	-2335
1043.859	-2001
1043.920	-1403
1043.981	-1803
1044.041	-1779
1044.102	-1860
1044.162	-1492
1044.223	-2442
1044.284	-2046
1044.344	-1449
1044.405	-1895
1044.465	-1657
1044.525	-1601
1044.586	-1797
1044.646	-1365
1044.707	-1786
1044.767	-1365
1044.827	-1141
1044.887	-1838
1044.948	-1763
1045.008	-1399
1045.068	-2029
1045.128	-1574
1045.188	-1941
1045.249	-1180
1045.309	-2038
1045.369	-1648
1045.429	-1335
1045.489	-2301
1045.549	-1737
1045.609	-1466
1045.669	-2051
1045.729	-1605
1045.789	-2365
1045.848	-1352
1045.908	-1834
1045.968	-1626
1046.028	-1121
1046.088	-582
1046.147	-1240
1046.207	-1586
1046.267	-1392
1046.326	-1574
1046.386	-1197
1046.446	-1217
1046.505	-796
1046.565	-727
1046.624	-882
1046.684	-339
1046.743	-477
1046.803	-363
1046.862	261
1046.922	0
