'Start Wavelength	183.907
'End Wavelength	1046.922
'Gate Delay	5.000
'Gate Width (ms)	1.050
'Laser Output Level	0.000
'X Position	0.000
'Y Position	0.000
'Z Position	0.000
'Grid Point Number	1.000
'Shot Number	100.000
183.907	-221.000
183.977	-692.000
184.047	-441
184.116	545
184.186	182
184.256	-778
184.325	-18
184.395	-736
184.465	1218
184.534	-369
184.604	-591
184.674	434
184.743	-144
184.813	-168
184.883	729
184.952	312
185.022	106
185.092	189
185.161	-107
185.231	-770
185.301	-70
185.370	455
185.440	-11
185.509	57
185.579	326
185.649	612
185.718	450
185.788	-169
185.857	-235
185.927	482
185.996	96
186.066	-247
186.136	-289
186.205	-304
186.275	83
186.344	575
186.414	375
186.483	-308
186.553	654
186.622	74
186.692	-365
186.761	60
186.831	797
186.900	-250
186.970	63
187.039	439
187.109	149
187.178	-329
187.248	151
187.317	-195
187.387	157
187.456	596
187.526	719
187.595	380
187.664	493
187.734	594
187.803	384
187.873	-180
187.942	521
188.012	-97
188.081	91
188.150	245
188.220	1087
188.289	868
188.358	193
188.428	775
188.497	-357
188.567	1118
188.636	-71
188.705	-166
188.775	330
188.844	-376
188.913	1006
188.983	-681
189.052	1068
189.121	141
189.191	-119
189.260	205
189.329	-272
189.399	579
189.468	277
189.537	221
189.606	231
189.676	-56
189.745	148
189.814	505
189.883	296
189.953	702
190.022	31
190.091	935
190.161	772
190.230	685
190.299	472
190.368	-177
190.437	196
190.507	361
190.576	344
190.645	265
190.714	516
190.783	1
190.853	205
190.922	252
190.991	-366
191.060	1127
191.129	-138
191.198	787
191.268	-29
191.337	308
191.406	498
191.475	-32
191.544	290
191.613	33
191.682	-64
191.752	502
191.821	271
191.890	133
191.959	417
192.028	-309
192.097	525
192.166	385
192.235	231
192.304	-43
192.373	-104
192.442	-650
192.511	117
192.580	-518
192.650	-396
192.719	-411
192.788	-148
192.857	-18
192.926	383
192.995	717
193.064	1230
193.133	953
193.202	1394
193.271	234
193.340	1334
193.409	597
193.478	1193
193.547	1350
193.615	998
193.684	2280
193.753	968
193.822	748
193.891	-1
193.960	1019
194.029	368
194.098	470
194.167	520
194.236	662
194.305	626
194.374	268
194.443	1122
194.512	455
194.580	560
194.649	242
194.718	841
194.787	256
194.856	157
194.925	305
194.994	703
195.062	1132
195.131	607
195.200	453
195.269	606
195.338	606
195.407	1213
195.475	-259
195.544	140
195.613	133
195.682	679
195.751	-112
195.819	498
195.888	800
195.957	1168
196.026	669
196.094	706
196.163	318
196.232	1140
196.301	1106
196.369	359
196.438	558
196.507	187
196.576	107
196.644	406
196.713	16
196.782	142
196.850	1015
196.919	-360
196.988	253
197.056	-100
197.125	822
197.194	732
197.262	-556
197.331	717
197.400	601
197.468	726
197.537	243
197.606	888
197.674	1128
197.743	2099
197.812	552
197.880	899
197.949	454
198.017	961
198.086	54
198.155	642
198.223	-203
198.292	613
198.360	535
198.429	712
198.497	553
198.566	1057
198.635	1084
198.703	455
198.772	732
198.840	1699
198.909	1257
198.977	800
199.046	808
199.114	927
199.183	890
199.251	458
199.320	296
199.388	127
199.457	321
199.525	467
199.594	327
199.662	406
199.731	992
199.799	573
199.867	747
199.936	-451
200.004	188
200.073	1076
200.141	0
200.210	124
200.278	331
200.346	65
200.415	420
200.483	1986
200.552	503
200.620	268
200.688	454
200.757	458
200.825	541
200.893	757
200.962	43
201.030	339
201.098	1016
201.167	351
201.235	419
201.303	166
201.372	631
201.440	709
201.508	599
201.577	967
201.645	747
201.713	492
201.781	1
201.850	965
201.918	208
201.986	385
202.055	1380
202.123	388
202.191	308
202.259	631
202.327	191
202.396	1061
202.464	995
202.532	614
202.600	599
202.669	860
202.737	462
202.805	284
202.873	554
202.941	884
203.009	729
203.078	700
203.146	410
203.214	-91
203.282	126
203.350	116
203.418	-246
203.487	418
203.555	859
203.623	804
203.691	473
203.759	255
203.827	551
203.895	1193
203.963	1208
204.031	935
204.099	1754
204.168	1017
204.236	684
204.304	467
204.372	140
204.440	1570
204.508	77
204.576	-98
204.644	940
204.712	-216
204.780	458
204.848	902
204.916	283
204.984	782
205.052	681
205.120	874
205.188	991
205.256	330
205.324	813
205.392	980
205.460	517
205.528	250
205.596	1557
205.664	889
205.732	757
205.799	2437
205.867	1985
205.935	1466
206.003	1044
206.071	580
206.139	72
206.207	985
206.275	120
206.343	86
206.411	615
206.478	1592
206.546	577
206.614	245
206.682	-67
206.750	133
206.818	1373
206.885	1149
206.953	-369
207.021	1731
207.089	1105
207.157	308
207.225	825
207.292	926
207.360	436
207.428	995
207.496	315
207.563	597
207.631	1088
207.699	1263
207.767	1158
207.834	246
207.902	1066
207.970	-108
208.038	487
208.105	486
208.173	1735
208.241	1794
208.309	1428
208.376	1266
208.444	1636
208.512	1574
208.579	444
208.647	1597
208.715	2318
208.782	605
208.850	712
208.918	1720
208.985	1961
209.053	1421
209.120	1067
209.188	-540
209.256	1537
209.323	796
209.391	1175
209.459	2622
209.526	1099
209.594	1246
209.661	511
209.729	451
209.796	1202
209.864	1953
209.932	92
209.999	2392
210.067	1104
210.134	1523
210.202	1440
210.269	1559
210.337	1307
210.404	1326
210.472	672
210.539	1539
210.607	1239
210.674	1167
210.742	1288
210.809	731
210.877	741
210.944	1639
211.012	1159
211.079	2557
211.146	1551
211.214	994
211.281	1806
211.349	1704
211.416	1591
211.484	1688
211.551	-15
211.618	1523
211.686	1102
211.753	1329
211.821	1364
211.888	1044
211.955	1737
212.023	1928
212.090	1243
212.157	713
212.225	1405
212.292	3144
212.359	4444
212.427	8303
212.494	3686
212.561	2106
212.629	2462
212.696	503
212.763	1867
212.831	1223
212.898	987
212.965	1312
213.032	1419
213.100	2058
213.167	1110
213.234	1822
213.301	1049
213.369	1236
213.436	796
213.503	1234
213.570	1975
213.638	1890
213.705	877
213.772	1133
213.839	889
213.906	2524
213.973	1134
214.041	1092
214.108	1241
214.175	1335
214.242	1355
214.309	2161
214.376	2092
214.444	2023
214.511	1296
214.578	1455
214.645	1736
214.712	1767
214.779	2215
214.846	986
214.913	2266
214.980	2383
215.048	1919
215.115	2598
215.182	1693
215.249	1402
215.316	1111
215.383	2135
215.450	1685
215.517	1381
215.584	1145
215.651	1245
215.718	1881
215.785	1584
215.852	1113
215.919	3302
215.986	1169
216.053	1375
216.120	189
216.187	1889
216.254	2242
216.321	1774
216.388	957
216.455	1748
216.522	1799
216.589	2584
216.656	2744
216.722	2451
216.789	2095
216.856	2760
216.923	2199
216.990	2098
217.057	2340
217.124	2576
217.191	2552
217.258	3311
217.324	2778
217.391	4293
217.458	3163
217.525	2552
217.592	1885
217.659	1408
217.725	2315
217.792	2251
217.859	2958
217.926	2346
217.993	2317
218.059	1795
218.126	1020
218.193	862
218.260	1003
218.327	1044
218.393	1122
218.460	1999
218.527	1038
218.594	2611
218.660	2500
218.727	2887
218.794	852
218.860	1155
218.927	888
218.994	1640
219.061	1268
219.127	1595
219.194	1599
219.261	1146
219.327	672
219.394	905
219.461	212
219.527	1267
219.594	1562
219.661	1607
219.727	-766
219.794	2118
219.860	1112
219.927	1944
219.994	2430
220.060	4411
220.127	3253
220.193	2925
220.260	1499
220.326	3977
220.393	5301
220.460	6220
220.526	4151
220.593	2629
220.659	4443
220.726	3210
220.792	6177
220.859	5560
220.925	7156
220.992	9457
221.058	8485
221.125	7617
221.191	6477
221.258	2378
221.324	1875
221.391	2058
221.457	1540
221.524	2251
221.590	2347
221.657	5885
221.723	3642
221.789	3374
221.856	4726
221.922	2213
221.989	2472
222.055	1212
222.121	557
222.188	4381
222.254	1826
222.321	1061
222.387	884
222.453	1282
222.520	611
222.586	1569
222.652	1686
222.719	1417
222.785	1088
222.851	1477
222.918	142
222.984	960
223.050	1709
223.116	-23
223.183	2111
223.249	1139
223.315	107
223.382	1287
223.448	902
223.514	-88
223.580	594
223.647	665
223.713	488
223.779	1378
223.845	-19
223.911	1350
223.978	-152
224.044	1291
224.110	662
224.176	1020
224.242	1011
224.309	609
224.375	1973
224.441	942
224.507	250
224.573	607
224.639	629
224.705	478
224.772	164
224.838	1080
224.904	521
224.970	327
225.036	403
225.102	319
225.168	1302
225.234	1678
225.300	714
225.366	490
225.432	616
225.499	1744
225.565	872
225.631	212
225.697	536
225.763	1893
225.829	2095
225.895	1793
225.961	2125
226.027	2810
226.093	2193
226.159	4490
226.225	6637
226.291	10041
226.357	15297
226.423	9761
226.489	5441
226.554	4328
226.620	3083
226.686	4591
226.752	7255
226.818	10442
226.884	17988
226.950	17000
227.016	8448
227.082	5502
227.148	4546
227.214	3501
227.279	2771
227.345	2961
227.411	2468
227.477	2521
227.543	5410
227.609	5039
227.674	3135
227.740	1956
227.806	1913
227.872	1432
227.938	1918
228.003	3483
228.069	1058
228.135	1192
228.201	923
228.267	1019
228.332	1583
228.398	1393
228.464	1546
228.530	1124
228.595	1736
228.661	943
228.727	1025
228.792	3113
228.858	383
228.924	452
228.990	1915
229.055	1109
229.121	1552
229.187	1968
229.252	682
229.318	1417
229.384	1620
229.449	1656
229.515	-788
229.581	-512
229.646	2174
229.712	1289
229.777	2661
229.843	2542
229.909	1637
229.974	3607
230.040	2747
230.105	2007
230.171	809
230.236	3465
230.302	3162
230.368	2409
230.433	1342
230.499	1928
230.564	2218
230.630	1053
230.695	1845
230.761	1757
230.826	-104
230.892	3044
230.957	777
231.023	1200
231.088	1468
231.154	1051
231.219	1257
231.284	1424
231.350	1794
231.415	1130
231.481	1089
231.546	1536
231.612	1316
231.677	-16
231.742	125
231.808	1836
231.873	613
231.939	-226
232.004	2647
232.069	2469
232.135	1423
232.200	1137
232.265	1483
232.331	1003
232.396	276
232.461	1060
232.527	-108
232.592	732
232.657	1079
232.723	1270
232.788	747
232.853	1949
232.918	413
232.984	-170
233.049	-52
233.114	367
233.179	1409
233.245	1968
233.310	2521
233.375	-111
233.440	1199
233.506	1740
233.571	965
233.636	1242
233.701	414
233.766	1658
233.832	1981
233.897	669
233.962	379
234.027	2596
234.092	1207
234.157	1294
234.222	1023
234.288	1604
234.353	5351
234.418	4979
234.483	3375
234.548	1866
234.613	2123
234.678	2114
234.743	2048
234.808	6490
234.873	2877
234.938	3537
235.004	1142
235.069	1335
235.134	148
235.199	1195
235.264	1209
235.329	289
235.394	1165
235.459	2781
235.524	450
235.589	2399
235.654	1437
235.719	787
235.784	1235
235.849	978
235.913	3241
235.978	3147
236.043	3166
236.108	1775
236.173	254
236.238	3043
236.303	1639
236.368	1707
236.433	3140
236.498	5014
236.563	4793
236.627	8257
236.692	23758
236.757	21571
236.822	9470
236.887	6020
236.952	5679
237.017	4256
237.081	5776
237.146	6345
237.211	13936
237.276	24909
237.341	34376
237.405	18728
237.470	9084
237.535	5612
237.600	4175
237.664	4223
237.729	2302
237.794	3869
237.859	9485
237.923	5135
237.988	2718
238.053	4361
238.118	3532
238.182	8526
238.247	7077
238.312	2386
238.376	4052
238.441	434
238.506	3122
238.570	372
238.635	2576
238.700	2213
238.764	709
238.829	3580
238.893	4035
238.958	3122
239.023	2339
239.087	1985
239.152	1860
239.216	696
239.281	1812
239.346	2071
239.410	1321
239.475	1440
239.539	6817
239.604	5710
239.668	2344
239.733	2490
239.797	3784
239.862	9423
239.926	9222
239.991	3970
240.055	1316
240.120	1601
240.184	1239
240.249	1282
240.313	1386
240.378	2325
240.442	3609
240.507	6964
240.571	2536
240.635	2909
240.700	4299
240.764	2403
240.829	1645
240.893	564
240.957	1766
241.022	4105
241.086	7138
241.151	2405
241.215	300
241.279	2501
241.344	2006
241.408	2946
241.472	1805
241.537	3435
241.601	2617
241.665	1254
241.730	857
241.794	3526
241.858	1713
241.922	2216
241.987	2019
242.051	1602
242.115	1813
242.179	2281
242.244	538
242.308	2253
242.372	2171
242.436	1944
242.501	2204
242.565	1513
242.629	1557
242.693	2181
242.757	663
242.822	1988
242.886	1970
242.950	3125
243.014	1775
243.078	2183
243.142	2000
243.206	1383
243.271	2993
243.335	2383
243.399	4049
243.463	12083
243.527	31425
243.591	10084
243.655	4230
243.719	2560
243.783	3980
243.847	4714
243.911	6241
243.975	6040
244.040	4553
244.104	4521
244.168	2018
244.232	3015
244.296	4511
244.360	5830
244.424	2351
244.488	2031
244.552	2979
244.615	528
244.679	1198
244.743	2301
244.807	1554
244.871	1130
244.935	2192
244.999	1047
245.063	1383
245.127	2175
245.191	3234
245.255	3006
245.319	3497
245.383	1904
245.446	3263
245.510	810
245.574	1308
245.638	2708
245.702	682
245.766	5832
245.829	3680
245.893	1502
245.957	1673
246.021	1951
246.085	2355
246.149	2970
246.212	6834
246.276	10130
246.340	4239
246.404	3563
246.467	3599
246.531	3523
246.595	4283
246.659	3879
246.722	2432
246.786	4396
246.850	3669
246.913	4855
246.977	1394
247.041	2609
247.104	3038
247.168	2142
247.232	6632
247.295	13656
247.359	6669
247.423	2339
247.486	6271
247.550	4111
247.614	1951
247.677	3821
247.741	2863
247.804	1855
247.868	3799
247.932	5768
247.995	13284
248.059	5622
248.122	1793
248.186	5007
248.249	7402
248.313	20617
248.376	21540
248.440	14382
248.503	4965
248.567	5528
248.630	6055
248.694	9374
248.757	11579
248.821	23277
248.884	14359
248.948	13418
249.011	17604
249.075	25398
249.138	22512
249.202	10876
249.265	4950
249.328	7029
249.392	4949
249.455	5047
249.519	4305
249.582	4553
249.645	7466
249.709	6304
249.772	4141
249.835	5176
249.899	3658
249.962	4548
250.025	3095
250.089	8529
250.152	12205
250.215	5958
250.279	4281
250.342	5351
250.405	4627
250.468	3671
250.532	5904
250.595	10218
250.658	28344
250.721	47401
250.785	18645
250.848	10829
250.911	6016
250.974	6140
251.038	6905
251.101	15397
251.164	8458
251.227	9374
251.290	7958
251.354	12553
251.417	41403
251.480	41801
251.543	30617
251.606	70813
251.669	55714
251.732	23622
251.795	22647
251.859	21556
251.922	46485
251.985	29769
252.048	12285
252.111	10987
252.174	7727
252.237	13835
252.300	28555
252.363	31347
252.426	59142
252.489	25415
252.552	12824
252.615	8677
252.678	10103
252.741	21813
252.804	28281
252.867	61131
252.930	37146
252.993	19472
253.056	12447
253.119	8353
253.182	6094
253.245	11120
253.308	9585
253.371	6240
253.434	7067
253.497	7138
253.559	12438
253.622	8916
253.685	10622
253.748	10642
253.811	4985
253.874	7046
253.937	6055
254.000	4527
254.062	8550
254.125	14083
254.188	13456
254.251	11190
254.314	5309
254.376	9063
254.439	10150
254.502	9465
254.565	7744
254.628	16249
254.690	9214
254.753	5482
254.816	4017
254.878	5195
254.941	9068
255.004	9877
255.067	4136
255.129	4498
255.192	2105
255.255	1982
255.317	2913
255.380	2780
255.443	874
255.505	1232
255.568	825
255.631	2568
255.693	2536
255.756	759
255.819	2376
255.881	1854
255.944	1571
256.006	1691
256.069	1577
256.132	1712
256.194	2274
256.257	5481
256.319	4612
256.382	3986
256.444	3761
256.507	3170
256.569	3228
256.632	2742
256.694	5011
256.757	15497
256.819	43696
256.882	19543
256.944	7655
257.007	5784
257.069	4226
257.132	4118
257.194	4168
257.257	4006
257.319	4322
257.381	5429
257.444	13045
257.506	47471
257.569	53867
257.631	27410
257.693	13312
257.756	6734
257.818	4370
257.880	4060
257.943	3728
258.005	2697
258.067	2859
258.130	3195
258.192	3176
258.254	6098
258.317	3676
258.379	3464
258.441	8497
258.503	8641
258.566	8152
258.628	10722
258.690	2560
258.753	2697
258.815	6747
258.877	3195
258.939	3436
259.001	2783
259.064	2859
259.126	2929
259.188	3716
259.250	2926
259.312	4266
259.375	10687
259.437	7393
259.499	3579
259.561	2485
259.623	2945
259.685	3357
259.747	3850
259.809	7695
259.872	13329
259.934	21514
259.996	21613
260.058	7165
260.120	2309
260.182	2497
260.244	2731
260.306	1897
260.368	2222
260.430	1546
260.492	5827
260.554	11785
260.616	7425
260.678	10585
260.740	14299
260.802	3735
260.864	3949
260.926	2806
260.988	3022
261.050	2646
261.112	8881
261.174	19560
261.236	12392
261.298	4002
261.359	5520
261.421	9056
261.483	2757
261.545	4074
261.607	900
261.669	2222
261.731	4113
261.793	10037
261.854	4276
261.916	3535
261.978	3589
262.040	3278
262.102	2728
262.164	2496
262.225	2458
262.287	2645
262.349	6389
262.411	5757
262.472	3533
262.534	3176
262.596	8198
262.658	2539
262.719	1656
262.781	3078
262.843	6823
262.904	3766
262.966	3940
263.028	4283
263.090	16893
263.151	47151
263.213	16302
263.275	9278
263.336	3734
263.398	2378
263.459	2079
263.521	2111
263.583	6294
263.644	4171
263.706	2127
263.767	457
263.829	1502
263.891	1079
263.952	1215
264.014	1284
264.075	4052
264.137	11200
264.198	5234
264.260	1272
264.321	2330
264.383	5658
264.444	16277
264.506	5553
264.567	2355
264.629	6113
264.690	13287
264.752	4870
264.813	2353
264.875	1669
264.936	2436
264.998	2074
265.059	2404
265.120	2749
265.182	4867
265.243	23726
265.305	27544
265.366	6972
265.427	2253
265.489	2747
265.550	1606
265.611	2218
265.673	2846
265.734	1966
265.795	2655
265.857	1535
265.918	2709
265.979	7246
266.040	38040
266.102	33663
266.163	10300
266.224	6826
266.286	3364
266.347	2009
266.408	2375
266.469	1913
266.530	1837
266.592	1742
266.653	5051
266.714	6109
266.775	2297
266.836	1749
266.898	498
266.959	3391
267.020	2523
267.081	2684
267.142	1405
267.203	933
267.264	803
267.326	2417
267.387	767
267.448	1014
267.509	1014
267.570	2102
267.631	635
267.692	329
267.753	2089
267.814	669
267.875	4338
267.936	9489
267.997	5032
268.058	5036
268.119	2511
268.180	1494
268.241	1085
268.302	1794
268.363	1208
268.424	748
268.485	2128
268.546	1342
268.607	637
268.668	654
268.729	626
268.790	1109
268.851	1427
268.912	5707
268.972	7019
269.033	2693
269.094	2143
269.155	1828
269.216	557
269.277	1044
269.338	961
269.398	1388
269.459	1110
269.520	2298
269.581	4559
269.642	4279
269.702	3016
269.763	2027
269.824	1572
269.885	2734
269.945	4745
270.006	1466
270.067	1696
270.128	1362
270.188	273
270.249	97
270.310	1824
270.370	2410
270.431	1646
270.492	1381
270.553	486
270.613	2893
270.674	8465
270.734	3399
270.795	2458
270.856	2483
270.916	2567
270.977	2025
271.038	2340
271.098	2232
271.159	4377
271.219	3910
271.280	2136
271.340	1160
271.401	1544
271.462	3323
271.522	2219
271.583	1699
271.643	1966
271.704	2007
271.764	3543
271.825	6387
271.885	20728
271.946	28195
272.006	10216
272.066	12441
272.127	20765
272.187	7606
272.248	4134
272.308	3485
272.369	14017
272.429	8451
272.489	5728
272.550	5790
272.610	7120
272.671	5721
272.731	3966
272.791	6005
272.852	3779
272.912	3395
272.972	2189
273.033	1116
273.093	2376
273.153	3823
273.214	2501
273.274	2554
273.334	12035
273.394	20721
273.455	8256
273.515	8300
273.575	19811
273.635	7388
273.696	9605
273.756	18713
273.816	7677
273.876	4105
273.936	8131
273.997	13895
274.057	5326
274.117	2891
274.177	5812
274.237	25623
274.297	20804
274.358	12029
274.418	15833
274.478	13136
274.538	5327
274.598	2754
274.658	9768
274.718	13380
274.778	5896
274.838	3519
274.898	5702
274.958	17056
275.018	18765
275.078	12708
275.138	5303
275.198	3134
275.258	2578
275.318	3644
275.378	6029
275.438	6560
275.498	4971
275.558	8245
275.618	18831
275.678	13591
275.738	9558
275.798	8038
275.858	4016
275.918	2357
275.978	3290
276.038	2661
276.098	1736
276.157	4485
276.217	15076
276.277	6300
276.337	4764
276.397	2646
276.457	3321
276.517	1833
276.576	1630
276.636	1609
276.696	2931
276.756	8974
276.815	6039
276.875	2680
276.935	2439
276.995	2416
277.055	1487
277.114	2155
277.174	3311
277.234	10353
277.293	4796
277.353	3317
277.413	1541
277.472	2507
277.532	2501
277.592	2986
277.651	7461
277.711	13550
277.771	5137
277.830	18673
277.890	16466
277.950	10140
278.009	30276
278.069	11364
278.128	10826
278.188	15795
278.248	6065
278.307	16465
278.367	10921
278.426	3388
278.486	2911
278.545	1056
278.605	1993
278.664	1642
278.724	2216
278.783	7869
278.843	18738
278.902	6875
278.962	3224
279.021	3851
279.081	4245
279.140	3868
279.199	4832
279.259	4815
279.318	5115
279.378	6522
279.437	11508
279.496	35345
279.556	77025
279.615	56105
279.675	15682
279.734	9875
279.793	16668
279.853	29447
279.912	12425
279.971	7291
280.031	6324
280.090	12892
280.149	23460
280.208	13207
280.268	51119
280.327	51563
280.386	13390
280.445	10704
280.505	9925
280.564	4560
280.623	4533
280.682	6940
280.742	10253
280.801	2916
280.860	2851
280.919	2587
280.978	2377
281.037	1038
281.097	2333
281.156	2327
281.215	1696
281.274	1977
281.333	13365
281.392	10287
281.451	2599
281.510	1227
281.569	1441
281.628	1143
281.688	1367
281.747	2073
281.806	1798
281.865	1402
281.924	563
281.983	1733
282.042	1247
282.101	369
282.160	1331
282.219	672
282.278	1669
282.337	7857
282.396	5876
282.454	2394
282.513	2490
282.572	11508
282.631	6610
282.690	2181
282.749	1706
282.808	2220
282.867	1448
282.926	2500
282.985	1496
283.043	736
283.102	889
283.161	1979
283.220	5322
283.279	12373
283.338	4577
283.396	1578
283.455	1402
283.514	2591
283.573	4190
283.631	3466
283.690	1826
283.749	1219
283.808	5259
283.866	5886
283.925	1646
283.984	2259
284.043	3020
284.101	2902
284.160	1855
284.219	3420
284.277	3432
284.336	3950
284.395	15477
284.453	12997
284.512	4618
284.570	5660
284.629	4660
284.688	3730
284.746	4335
284.805	5274
284.863	7692
284.922	8782
284.981	10609
285.039	15901
285.098	26661
285.156	56068
285.215	102449
285.273	97024
285.332	64270
285.390	35550
285.449	21134
285.507	14236
285.566	10248
285.624	7481
285.683	6605
285.741	4717
285.799	4738
285.858	4265
285.916	4609
285.975	2950
286.033	2737
286.091	1638
286.150	2054
286.208	2029
286.267	2281
286.325	1953
286.383	5237
286.442	3833
286.500	1446
286.558	1693
286.616	1724
286.675	2807
286.733	2874
286.791	1962
286.850	2590
286.908	3325
286.966	6819
287.024	2755
287.083	1641
287.141	844
287.199	1620
287.257	3062
287.315	2820
287.374	1435
287.432	6992
287.490	4740
287.548	2693
287.606	1457
287.664	1614
287.723	2308
287.781	4779
287.839	3568
287.897	3137
287.955	5683
288.013	8803
288.071	15458
288.129	58687
288.187	142843
288.245	73343
288.303	24783
288.361	14186
288.419	8781
288.477	6135
288.535	4883
288.593	4338
288.651	2751
288.709	1744
288.767	2804
288.825	1560
288.883	1217
288.941	2308
288.999	505
289.057	1840
289.115	1050
289.173	1631
289.231	1792
289.289	1143
289.346	1309
289.404	1646
289.462	3132
289.520	3177
289.578	1606
289.636	943
289.694	406
289.751	1518
289.809	907
289.867	895
289.925	1956
289.983	2377
290.040	914
290.098	913
290.156	1499
290.214	2200
290.271	469
290.329	1655
290.387	152
290.444	524
290.502	-240
290.560	577
290.617	1116
290.675	1704
290.733	813
290.790	1256
290.848	738
290.906	1007
290.963	1467
291.021	1306
291.078	1408
291.136	1443
291.194	6546
291.251	15406
291.309	4311
291.366	1909
291.424	1490
291.481	1618
291.539	1178
291.596	1242
291.654	-140
291.711	1197
291.769	907
291.826	3685
291.884	2822
291.941	1308
291.999	840
292.056	1414
292.114	1318
292.171	1016
292.228	1711
292.286	2060
292.343	3711
292.401	4834
292.458	2790
292.515	1828
292.573	2962
292.630	2281
292.687	2408
292.745	1631
292.802	2511
292.859	9224
292.917	14990
292.974	7761
293.031	1671
293.089	1597
293.146	1325
293.203	975
293.260	1153
293.318	2234
293.375	4988
293.432	2238
293.489	1747
293.546	2504
293.604	2173
293.661	7465
293.718	22730
293.775	12465
293.832	5078
293.889	4247
293.947	4256
294.004	3469
294.061	3398
294.118	6190
294.175	15669
294.232	22888
294.289	8417
294.346	4325
294.403	4690
294.460	3400
294.517	2506
294.574	1859
294.631	1921
294.688	3277
294.745	6473
294.802	27138
294.859	34783
294.916	13536
294.973	6362
295.030	5444
295.087	4075
295.144	2349
295.201	2657
295.258	2327
295.315	3011
295.372	8762
295.429	18026
295.486	8480
295.542	5453
295.599	14186
295.656	26286
295.713	15719
295.770	17903
295.827	7579
295.883	4173
295.940	2765
295.997	5730
296.054	5415
296.111	3124
296.167	2719
296.224	1782
296.281	1991
296.338	1173
296.394	2181
296.451	2327
296.508	8040
296.564	15358
296.621	11379
296.678	20465
296.734	30567
296.791	12489
296.848	5866
296.904	5898
296.961	12662
297.018	19995
297.074	15775
297.131	5828
297.187	5058
297.244	5911
297.301	18570
297.357	33413
297.414	12111
297.470	5531
297.527	2993
297.583	2632
297.640	3101
297.696	2288
297.753	1705
297.809	1185
297.866	1548
297.922	1969
297.979	1091
298.035	2346
298.092	3781
298.148	10959
298.204	11497
298.261	5309
298.317	8905
298.374	24852
298.430	14793
298.486	6800
298.543	4638
298.599	4743
298.656	5386
298.712	8167
298.768	21592
298.824	16455
298.881	5610
298.937	2951
298.993	3281
299.050	3922
299.106	4096
299.162	2686
299.218	3406
299.275	2502
299.331	2786
299.387	5680
299.443	20859
299.500	24956
299.556	12446
299.612	6037
299.668	5084
299.724	7575
299.780	9252
299.837	4254
299.893	5744
299.949	19445
300.005	24229
300.061	20109
300.117	33419
300.173	16235
300.229	6872
300.285	8632
300.341	9809
300.397	5313
300.453	3280
300.510	3358
300.566	3226
300.622	4730
300.678	15259
300.734	26680
300.790	20196
300.845	22312
300.901	15180
300.957	22761
301.013	17397
301.069	5770
301.125	4083
301.181	4887
301.237	3851
301.293	2217
301.349	2458
301.405	2392
301.461	2259
301.516	3989
301.572	3310
301.628	6645
301.684	6130
301.740	8681
301.796	14071
301.851	9848
301.907	15817
301.963	14948
302.019	21426
302.074	56165
302.130	57964
302.186	28173
302.242	11451
302.297	8284
302.353	7792
302.409	13048
302.464	11653
302.520	9588
302.576	21395
302.631	26121
302.687	15256
302.743	6697
302.798	4670
302.854	3636
302.910	3871
302.965	4459
303.021	8568
303.076	7036
303.132	8874
303.187	12017
303.243	6412
303.299	3992
303.354	2786
303.410	3433
303.465	2900
303.521	1768
303.576	2913
303.632	3415
303.687	6661
303.743	19044
303.798	17401
303.853	6934
303.909	4610
303.964	4244
304.020	5981
304.075	7898
304.130	7310
304.186	13067
304.241	15218
304.297	12795
304.352	7477
304.358	7173
304.407	4705
304.449	4885
304.463	4950
304.518	4137
304.539	4413
304.573	4841
304.629	3393
304.630	3441
304.684	5942
304.720	12204
304.739	15223
304.794	22885
304.811	19522
304.850	11470
304.902	5670
304.905	5313
304.960	4075
304.992	4340
305.015	4496
305.071	4421
305.083	4294
305.126	3787
305.173	2630
305.181	2454
305.236	2452
305.264	2608
305.292	2790
305.347	3474
305.354	3586
305.402	4353
305.445	5174
305.457	5368
305.512	6158
305.535	6230
305.567	6420
305.622	5381
305.626	5568
305.678	10855
305.716	20882
305.733	23937
305.788	25329
305.807	21598
305.843	16126
305.897	21544
305.898	21585
305.953	20766
305.988	14237
306.008	10903
306.063	6640
306.078	6171
306.118	5324
306.168	3496
306.173	3336
306.228	3138
306.259	2799
306.283	2666
306.338	2809
306.349	2928
306.393	3368
306.440	4180
306.448	4330
306.503	4901
306.530	4693
306.558	5719
306.613	11823
306.620	12924
306.668	19947
306.711	25429
306.723	25417
306.778	18223
306.801	13625
306.833	9473
306.888	5559
306.892	5355
306.943	3835
306.982	4019
306.997	4065
307.052	3874
307.072	3679
307.107	3860
307.162	5432
307.163	5449
307.217	8080
307.253	9912
307.272	10102
307.327	9977
307.343	9144
307.381	7998
307.434	7681
307.436	7932
307.491	15005
307.524	22432
307.546	23617
307.600	22127
307.614	19751
307.655	13228
307.704	7597
307.710	7500
307.765	9337
307.795	11442
307.819	12956
307.874	19601
307.885	19612
307.929	16840
307.975	14907
307.984	15694
308.038	23146
308.065	28043
308.093	47727
308.148	97437
308.156	107216
308.202	143463
308.246	163121
308.257	157990
308.312	95431
308.336	68637
308.366	52423
308.421	31814
308.426	30015
308.475	19901
308.517	14366
308.530	13392
308.585	11330
308.607	10679
308.639	10771
308.694	11465
308.697	11602
308.748	19683
308.787	27555
308.803	27013
308.857	20489
308.877	17251
308.912	15682
308.967	16414
308.967	16429
309.021	23673
309.058	29867
309.076	38428
309.130	66971
309.148	78121
309.185	128577
309.238	211459
309.239	211860
309.293	206591
309.328	187529
309.348	165042
309.402	89692
309.418	69500
309.457	50081
309.508	30942
309.511	30385
309.566	24847
309.598	22308
309.620	22702
309.674	25297
309.688	26249
309.729	25270
309.778	22086
309.783	21748
309.837	17683
309.868	15610
309.892	20668
309.946	33866
309.959	37747
310.001	44880
310.049	50201
310.055	48420
310.109	28388
310.139	16916
310.163	13628
310.218	8729
310.229	7849
310.272	7045
310.319	6424
310.326	6239
310.381	5228
310.409	4780
310.435	4803
310.489	4815
310.499	4781
310.543	4681
310.589	4797
310.598	4878
310.652	5570
310.679	5706
310.706	5170
310.760	4055
310.769	3886
310.814	3513
310.859	3125
310.868	3155
310.923	3486
310.948	3519
310.977	3889
311.031	4929
311.038	5034
311.085	4314
311.128	3580
311.139	3727
311.193	4494
311.218	4810
311.247	4520
311.301	4019
311.308	3941
311.356	4208
311.398	4486
311.410	4403
311.464	3959
311.488	3725
311.518	3795
311.572	3885
311.578	3897
311.626	5293
311.668	6538
311.680	6647
311.734	6971
311.758	7103
311.788	6621
311.842	5727
311.847	5621
311.896	8958
311.937	11907
311.950	11429
312.004	9146
312.027	8106
312.058	7223
312.112	5666
312.117	5503
312.165	4791
312.207	4178
312.297	7911
312.386	5293
312.476	6044
312.566	11182
312.656	5034
312.745	3805
312.835	4891
312.925	5236
313.015	4831
313.104	4774
313.194	5050
313.284	5261
313.374	7234
313.463	5213
313.553	4185
313.643	3655
313.732	3996
313.822	3776
313.912	4739
314.001	5177
314.091	6694
314.180	9043
314.270	7421
314.360	7817
314.449	6236
314.539	4305
314.628	4223
314.718	5085
314.808	6433
314.897	4666
314.987	5206
315.076	5481
315.166	7222
315.255	6710
315.345	7330
315.434	5845
315.524	6682
315.613	6639
315.703	9017
315.792	12655
315.881	28904
315.971	10425
316.060	12820
316.150	17496
316.239	15968
316.328	6601
316.418	4793
316.507	4998
316.597	7342
316.686	5867
316.775	9768
316.865	16521
316.954	4869
317.043	4218
317.133	4684
317.222	3744
317.311	4485
317.400	2813
317.490	7514
317.579	5799
317.668	5330
317.757	8153
317.847	20079
317.936	49048
318.025	21919
318.114	13648
318.203	9589
318.293	15175
318.382	27499
318.471	19894
318.560	31025
318.649	54266
318.738	10480
318.828	8123
318.917	8158
319.006	9744
319.095	24891
319.184	70701
319.273	31973
319.362	15581
319.451	7104
319.540	6784
319.629	15575
319.718	20473
319.807	11334
319.896	25798
319.985	83962
320.074	23607
320.163	9023
320.252	12090
320.341	11967
320.430	9463
320.519	12630
320.608	6595
320.697	7514
320.786	6892
320.875	8684
320.964	10300
321.053	15922
321.142	23365
321.230	22507
321.319	19350
321.408	41683
321.497	15425
321.586	17170
321.675	18821
321.764	17926
321.852	12349
321.941	24733
322.030	14665
322.119	19647
322.207	41706
322.296	26572
322.385	15088
322.474	19082
322.562	51132
322.651	22519
322.740	20286
322.829	27649
322.917	23758
323.006	14096
323.095	13203
323.183	11161
323.272	15354
323.361	28360
323.449	69234
323.538	21346
323.626	53182
323.715	25589
323.804	14559
323.892	46886
323.981	21881
324.069	9442
324.158	27293
324.246	19997
324.335	10801
324.424	14608
324.512	6494
324.601	9775
324.689	22258
324.778	36911
324.866	18215
324.954	6598
325.043	5838
325.131	12097
325.220	19684
325.308	19987
325.397	15859
325.485	9220
325.574	4588
325.662	5195
325.750	4815
325.839	5142
325.927	3816
326.015	6511
326.104	9141
326.192	10334
326.280	4559
326.369	4859
326.457	6467
326.545	13358
326.634	4560
326.722	4055
326.810	3838
326.898	4596
326.987	4931
327.075	11520
327.163	10786
327.251	7251
327.340	16834
327.428	20688
327.516	4419
327.604	5088
327.692	3831
327.781	5994
327.869	8077
327.957	6302
328.045	5851
328.133	3104
328.221	4828
328.309	4930
328.397	3889
328.485	6217
328.574	8837
328.662	26640
328.750	13308
328.838	5300
328.926	4796
329.014	5422
329.102	6114
329.190	19730
329.278	9752
329.366	3674
329.454	3498
329.542	4256
329.630	4219
329.718	5229
329.806	5609
329.893	7853
329.981	8327
330.069	16989
330.157	66440
330.245	150737
330.333	71677
330.421	15157
330.509	12333
330.597	33967
330.684	18349
330.772	9453
330.860	11630
330.948	17450
331.036	6328
331.123	3550
331.211	4150
331.299	5586
331.387	15456
331.475	22018
331.562	6125
331.650	3983
331.738	4671
331.825	6756
331.913	3570
332.001	4298
332.089	5213
332.176	11300
332.264	23800
332.352	16219
332.439	5356
332.527	5458
332.614	4526
332.702	5822
332.790	4051
332.877	12089
332.965	19047
333.052	5686
333.140	6582
333.228	11386
333.315	3742
333.403	5090
333.490	13657
333.578	10107
333.665	12179
333.753	7583
333.840	3999
333.928	6211
334.015	15419
334.103	30344
334.190	78904
334.278	18540
334.365	9978
334.452	7848
334.540	5903
334.627	7742
334.715	9595
334.802	20159
334.889	91125
334.977	70085
335.064	11775
335.151	7861
335.239	7966
335.326	11102
335.413	49565
335.501	50175
335.588	8571
335.675	6794
335.762	9868
335.850	16034
335.937	12600
336.024	31133
336.111	97633
336.199	34621
336.286	9734
336.373	7454
336.460	4283
336.547	5022
336.635	6363
336.722	5948
336.809	5361
336.896	9094
336.983	29562
337.070	66142
337.157	81481
337.245	58361
337.332	31916
337.419	5621
337.506	4627
337.593	6901
337.680	26187
337.767	61075
337.854	16942
337.941	19581
338.028	19327
338.115	7491
338.202	10485
338.289	19899
338.376	51708
338.463	17070
338.550	42093
338.637	34491
338.724	12647
338.811	14917
338.898	4330
338.984	3959
339.071	5313
339.158	7061
339.245	15766
339.332	9502
339.419	13428
339.506	10057
339.593	2366
339.679	4168
339.766	2905
339.853	6834
339.940	10562
340.027	3797
340.113	4406
340.200	5978
340.287	4555
340.374	6817
340.460	10078
340.547	5487
340.634	9241
340.720	30342
340.807	13775
340.894	4428
340.980	4030
341.067	3431
341.154	4969
341.240	8371
341.327	14313
341.414	6803
341.500	6984
341.587	4684
341.674	3694
341.760	11080
341.847	11078
341.933	3300
342.020	1640
342.106	2890
342.193	4918
342.279	7631
342.366	6376
342.452	9590
342.539	4884
342.625	14364
342.712	30448
342.798	12777
342.885	4886
342.971	2708
343.058	2287
343.144	3001
343.230	2766
343.317	4372
343.403	2249
343.490	2151
343.576	2205
343.662	3214
343.749	4290
343.835	5448
343.921	10620
344.008	64666
344.094	111090
344.180	23077
344.267	11662
344.353	38042
344.439	32545
344.525	16522
344.612	11216
344.698	10013
344.784	6176
344.870	4378
344.957	3860
345.043	6865
345.129	4216
345.215	10759
345.301	6162
345.387	4371
345.474	2139
345.560	2629
345.646	3305
345.732	3919
345.818	4414
345.904	4738
345.990	4450
346.076	4885
346.162	8924
346.249	5328
346.335	3104
346.421	4684
346.507	16542
346.593	45498
346.679	9550
346.765	5428
346.851	3655
346.937	3825
347.023	4024
347.108	4863
347.194	3503
347.280	3909
347.366	5552
347.452	18399
347.538	57618
347.624	43176
347.710	31791
347.796	5299
347.882	4145
347.967	4097
348.053	5798
348.139	3826
348.225	2851
348.311	3722
348.397	3072
348.482	4516
348.568	5444
348.654	2390
348.740	4673
348.825	5693
348.911	9300
348.997	31148
349.083	46724
349.168	8123
349.254	4959
349.340	4718
349.425	2357
349.511	5086
349.597	5776
349.682	12025
349.768	35067
349.854	14298
349.939	4875
350.025	3317
350.110	4622
350.196	4188
350.282	2446
350.367	3173
350.453	4748
350.538	4724
350.624	5565
350.709	5315
350.795	2686
350.880	4105
350.966	4099
351.051	6857
351.137	3867
351.222	4352
351.308	13174
351.393	30711
351.479	7824
351.564	4246
351.649	3723
351.735	2528
351.820	2718
351.906	3128
351.991	4874
352.076	22469
352.162	27695
352.247	6033
352.332	5344
352.418	10964
352.503	13126
352.588	48223
352.673	32054
352.759	8108
352.844	3974
352.929	6049
353.014	6082
353.100	6405
353.185	12255
353.270	13616
353.355	10488
353.441	4530
353.526	4340
353.611	11134
353.696	9896
353.781	7571
353.866	2670
353.952	4921
354.037	10403
354.122	22587
354.207	19577
354.292	6983
354.377	3207
354.462	4479
354.547	3826
354.632	5722
354.717	10423
354.802	14225
354.887	5104
354.972	3553
355.057	2368
355.142	2366
355.227	4279
355.312	7229
355.397	16784
355.482	35084
355.567	15872
355.652	13173
355.737	14588
355.822	43333
355.907	28774
355.991	6137
356.076	3586
356.161	4420
356.246	2632
356.331	4554
356.416	10981
356.501	67525
356.585	56754
356.670	9365
356.755	8224
356.840	11376
356.924	60329
357.009	150032
357.094	48770
357.179	13151
357.263	7996
357.348	9149
357.433	9077
357.517	8335
357.602	7126
357.687	5795
357.771	13059
357.856	32625
357.941	17665
358.025	44260
358.110	144459
358.195	59792
358.279	10997
358.364	9541
358.448	32058
358.533	77222
358.617	55343
358.702	54290
358.787	17826
358.871	11922
358.956	9206
359.040	3348
359.125	3328
359.209	5273
359.294	15808
359.378	23375
359.462	10463
359.547	6390
359.631	4178
359.716	2491
359.800	4356
359.885	6989
359.969	3750
360.053	4665
360.138	3731
360.222	6034
360.306	10088
360.391	8875
360.475	19758
360.559	34800
360.644	30190
360.728	20557
360.812	42896
360.896	91544
360.981	41202
361.065	21127
361.149	7650
361.233	6467
361.318	4352
361.402	5728
361.486	5431
361.570	4414
361.654	5722
361.739	17601
361.823	68059
361.907	87819
361.991	17100
362.075	12498
362.159	22837
362.243	18938
362.327	18944
362.411	21558
362.495	11111
362.580	7165
362.664	5510
362.748	5630
362.832	8721
362.916	17903
363.000	46712
363.084	97493
363.168	107401
363.252	27206
363.336	11348
363.420	17932
363.503	63482
363.587	61088
363.671	11431
363.755	9251
363.839	12709
363.923	7499
364.007	14220
364.091	16396
364.175	31590
364.258	101509
364.342	76773
364.426	77593
364.510	38248
364.594	22197
364.677	25628
364.761	85717
364.845	52540
364.929	20636
365.013	15524
365.096	15460
365.180	16111
365.264	32329
365.347	91180
365.431	35692
365.515	9499
365.598	4773
365.682	5605
365.766	11880
365.849	11835
365.933	6475
366.017	9913
366.100	6761
366.184	2285
366.267	5307
366.351	3755
366.435	4438
366.518	2279
366.602	3523
366.685	3461
366.769	5008
366.852	9357
366.936	16256
367.019	7929
367.103	8317
367.186	14640
367.270	4343
367.353	2350
367.436	4547
367.520	2269
367.603	4825
367.687	6834
367.770	12128
367.853	8163
367.937	28608
368.020	37392
368.104	9044
368.187	10316
368.270	15205
368.353	13526
368.437	18352
368.520	34051
368.603	21893
368.687	34686
368.770	52963
368.853	12507
368.936	14908
369.020	14338
369.103	4960
369.186	4283
369.269	4685
369.352	9568
369.436	13295
369.519	8297
369.602	4299
369.685	5920
369.768	4626
369.851	4288
369.934	3931
370.018	5138
370.101	10419
370.184	9976
370.267	8046
370.350	12632
370.433	20161
370.516	47022
370.599	49272
370.682	16006
370.765	32326
370.848	40253
370.931	65823
371.014	25179
371.097	5577
371.180	5120
371.263	3328
371.346	1342
371.429	3039
371.511	3361
371.594	7893
371.677	13253
371.760	15989
371.843	13182
371.926	63111
372.009	114961
372.091	37236
372.174	29339
372.257	59179
372.340	21176
372.423	21272
372.505	24519
372.588	10974
372.671	24537
372.754	64439
372.836	30917
372.919	32078
373.002	52587
373.085	15901
373.167	12505
373.250	31719
373.332	60785
373.415	89863
373.498	154614
373.580	56880
373.663	87651
373.746	97688
373.828	22734
373.911	11926
373.993	15664
374.076	56540
374.159	45454
374.241	22531
374.324	56268
374.406	37172
374.489	54931
374.571	126502
374.654	47817
374.736	30815
374.819	83138
374.901	120668
374.983	106607
375.066	20474
375.148	11336
375.231	50408
375.313	78995
375.395	28699
375.478	6884
375.560	5922
375.643	7700
375.725	31839
375.807	103212
375.890	75802
375.972	30262
376.054	19537
376.136	27004
376.219	13158
376.301	36254
376.383	84544
376.465	30839
376.548	21118
376.630	31116
376.712	74683
376.794	30752
376.877	5432
376.959	2758
377.041	6043
377.123	13253
377.205	14229
377.287	3792
377.369	4065
377.452	3879
377.534	3645
377.616	3522
377.698	3980
377.780	2363
377.862	3857
377.944	3854
378.026	1850
378.108	1935
378.190	2914
378.272	2263
378.354	2296
378.436	2802
378.518	8178
378.600	23886
378.682	21368
378.764	40083
378.846	29135
378.928	9949
379.010	13133
379.091	7489
379.173	4830
379.255	2542
379.337	5595
379.419	22301
379.501	54201
379.583	20506
379.664	6947
379.746	15604
379.828	42303
379.910	53942
379.991	43644
380.073	8215
380.155	5195
380.237	3310
380.318	3289
380.400	4100
380.482	9472
380.564	13833
380.645	16633
380.727	13947
380.809	8044
380.890	5282
380.972	4599
381.053	3107
381.135	5216
381.217	15907
381.298	40981
381.380	18933
381.461	19994
381.543	80803
381.624	85491
381.706	16303
381.787	10144
381.869	10704
381.951	41091
382.032	119240
382.113	70812
382.195	15497
382.276	15358
382.358	32320
382.439	66841
382.521	77229
382.602	106963
382.684	52937
382.765	96514
382.846	89559
382.928	87370
383.009	47200
383.090	46390
383.172	147561
383.253	184549
383.334	81406
383.416	99736
383.497	48201
383.578	21717
383.659	41395
383.741	146606
383.822	296538
383.903	142264
383.984	74772
384.066	127268
384.147	72990
384.228	16266
384.309	12393
384.390	9915
384.471	7960
384.553	8407
384.634	10882
384.715	11717
384.796	5924
384.877	10453
384.958	37717
385.039	42759
385.120	14398
385.201	8075
385.282	9654
385.363	10915
385.444	8495
385.525	19109
385.606	53947
385.687	42461
385.768	12890
385.849	18480
385.930	65870
386.011	93508
386.092	26089
386.173	8449
386.254	6408
386.335	7972
386.416	9157
386.496	28897
386.577	38637
386.658	16033
386.739	10556
386.820	10317
386.901	8323
386.981	8220
387.062	6049
387.143	12691
387.224	39806
387.304	35699
387.385	14520
387.466	9442
387.547	12773
387.627	8607
387.708	18783
387.789	72268
387.869	75645
387.950	21439
388.031	6474
388.111	5945
388.192	18146
388.273	24515
388.353	13435
388.434	7852
388.514	17343
388.595	63804
388.676	76732
388.756	38592
388.837	37464
388.917	22268
388.998	4994
389.078	6374
389.159	4835
389.239	3674
389.320	8804
389.400	6515
389.480	18465
389.561	39581
389.641	19282
389.722	8122
389.802	12750
389.883	21906
389.963	47017
390.043	28661
390.124	10474
390.204	18516
390.284	45344
390.365	29861
390.445	43814
390.525	90085
390.605	69802
390.686	21970
390.766	8480
390.846	6382
390.927	4405
391.007	4214
391.087	6254
391.167	6438
391.247	3783
391.328	8233
391.408	14151
391.488	10151
391.568	2699
391.648	6506
391.728	9325
391.808	9631
391.888	9592
391.969	25695
392.049	34959
392.129	18271
392.209	21806
392.289	46727
392.369	26265
392.449	26974
392.529	16267
392.609	13400
392.689	18679
392.769	46728
392.849	38672
392.929	36941
393.009	71769
393.089	54749
393.169	59069
393.248	193162
393.328	545572
393.408	512841
393.488	155128
393.568	48988
393.648	25680
393.728	16504
393.807	11372
393.887	12103
393.967	11331
394.047	13058
394.127	15794
394.206	30182
394.286	107658
394.366	340941
394.446	325459
394.525	90169
394.605	27064
394.685	23064
394.764	41201
394.844	63905
394.924	41778
395.003	13325
395.083	9845
395.163	8396
395.242	7806
395.322	9122
395.402	6453
395.481	12300
395.561	30500
395.640	69861
395.720	57593
395.799	78118
395.879	59667
395.958	47521
396.038	157062
396.117	433157
396.197	428475
396.276	156383
396.356	57103
396.435	39357
396.515	26986
396.594	29279
396.673	54534
396.753	201536
396.832	487532
396.912	341274
396.991	87607
397.070	27567
397.150	14007
397.229	13268
397.308	17844
397.388	28770
397.467	14907
397.546	7596
397.625	4552
397.705	8796
397.784	7876
397.863	4890
397.942	3768
398.022	6779
398.101	25096
398.180	62838
398.259	29443
398.338	9348
398.417	5823
398.497	4774
398.576	4675
398.655	3246
398.734	3425
398.813	5659
398.892	24205
398.971	66675
399.050	29429
399.129	4189
399.208	2159
399.287	3680
399.366	2540
399.445	4229
399.524	2774
399.603	2376
399.682	7690
399.761	24595
399.840	70772
399.919	49320
399.998	6160
400.077	1916
400.156	1163
400.235	5077
400.313	3303
400.392	5737
400.471	23103
400.550	33150
400.629	8091
400.708	5090
400.786	4770
400.865	16600
400.944	15464
401.023	7255
401.102	1497
401.180	2618
401.259	2388
401.338	3394
401.416	5069
401.495	4027
401.574	4180
401.652	2706
401.731	5845
401.810	4338
401.888	2609
401.967	1585
402.046	2295
402.124	5014
402.203	5334
402.281	4603
402.360	6612
402.438	20601
402.517	12546
402.596	5365
402.674	4282
402.753	2859
402.831	2389
402.910	5378
402.988	23717
403.066	63639
403.145	34079
403.223	25057
403.302	56554
403.380	44063
403.459	42122
403.537	17300
403.615	6925
403.694	1934
403.772	2347
403.850	1693
403.929	1401
404.007	3558
404.085	10082
404.164	10645
404.242	5639
404.320	17069
404.398	46193
404.477	54995
404.555	102064
404.633	83436
404.711	36810
404.789	20628
404.868	7193
404.946	4368
405.024	2229
405.102	1992
405.180	931
405.258	1574
405.336	3010
405.415	2822
405.493	7899
405.571	8116
405.649	2443
405.727	2571
405.805	6045
405.883	5030
405.961	5855
406.039	6203
406.117	2032
406.195	5812
406.273	27435
406.351	83455
406.429	46141
406.507	8724
406.585	3531
406.663	3836
406.740	4553
406.818	3399
406.896	2273
406.974	4599
407.052	9494
407.130	53445
407.208	63735
407.285	12756
407.363	2441
407.441	2604
407.519	2641
407.596	4039
407.674	13236
407.752	40964
407.830	35724
407.907	14033
407.985	4586
408.063	2641
408.141	1715
408.218	5709
408.296	5746
408.373	5193
408.451	3517
408.529	3136
408.606	1721
408.684	1812
408.762	967
408.839	1174
408.917	998
408.994	1304
409.072	1272
409.149	1649
409.227	4795
409.304	5368
409.382	3986
409.459	5529
409.537	6667
409.614	5793
409.692	4550
409.769	4667
409.846	6848
409.924	10323
410.001	6805
410.079	6700
410.156	5272
410.233	5056
410.311	4160
410.388	2887
410.465	3119
410.543	3919
410.620	1752
410.697	3733
410.775	3092
410.852	749
410.929	3435
411.006	5942
411.083	2885
411.161	7882
411.238	9557
411.315	4481
411.392	2231
411.469	4742
411.547	5065
411.624	1489
411.701	2602
411.778	3480
411.855	6301
411.932	3589
412.009	1686
412.086	2191
412.163	2561
412.240	3825
412.317	4553
412.394	4046
412.471	1817
412.548	1119
412.625	1816
412.702	3986
412.779	6742
412.856	5629
412.933	1069
413.010	1924
413.087	5427
413.164	22133
413.241	26390
413.318	6230
413.395	4588
413.471	5721
413.548	3048
413.625	3299
413.702	1802
413.779	3042
413.855	518
413.932	1489
414.009	386
414.086	1383
414.162	1440
414.239	5020
414.316	21620
414.393	42861
414.469	13399
414.546	2515
414.623	1205
414.699	2310
414.776	1432
414.853	1492
414.929	1696
415.006	1867
415.082	3081
415.159	2141
415.236	2028
415.312	2613
415.389	4543
415.465	5402
415.542	2431
415.618	2321
415.695	4030
415.771	3201
415.848	1939
415.924	2402
416.000	1281
416.077	1841
416.153	-1049
416.230	391
416.306	658
416.383	1003
416.459	1463
416.535	677
416.612	1096
416.688	1379
416.764	535
416.841	1027
416.917	719
416.993	1758
417.069	2094
417.146	4152
417.222	5248
417.298	3352
417.374	1140
417.451	2778
417.527	2568
417.603	2222
417.679	1704
417.755	2562
417.831	435
417.908	1670
417.984	611
418.060	1294
418.136	4958
418.212	6995
418.288	2641
418.364	2324
418.440	1164
418.516	4741
418.592	6196
418.668	10709
418.744	12633
418.820	8447
418.896	2294
418.972	794
419.048	1830
419.124	6774
419.200	3590
419.276	1242
419.352	-234
419.428	1692
419.504	1593
419.579	3248
419.655	1933
419.731	2203
419.807	7660
419.883	15568
419.959	9483
420.034	4108
420.110	8643
420.186	27458
420.262	19136
420.337	3997
420.413	3012
420.489	2165
420.565	1623
420.640	2067
420.716	2433
420.792	1318
420.867	2212
420.943	1942
421.019	3954
421.094	3656
421.170	2207
421.245	1610
421.321	3307
421.397	3770
421.472	9440
421.548	20333
421.623	13124
421.699	5340
421.774	4527
421.850	4939
421.925	7814
422.001	7946
422.076	7756
422.152	9869
422.227	13944
422.302	18817
422.378	28614
422.453	53621
422.529	125421
422.604	283629
422.679	361996
422.755	264838
422.830	116355
422.905	51144
422.981	28385
423.056	18441
423.131	13240
423.207	10280
423.282	9670
423.357	12700
423.432	9188
423.508	10195
423.583	15794
423.658	11503
423.733	4961
423.808	5327
423.883	5762
423.959	6705
424.034	4429
424.109	3761
424.184	2164
424.259	2513
424.334	2171
424.409	1445
424.484	2278
424.559	2742
424.634	1763
424.709	3198
424.784	3580
424.859	3397
424.934	4967
425.009	19378
425.084	29762
425.159	10509
425.234	2420
425.309	1893
425.384	8628
425.459	12869
425.534	3987
425.609	1998
425.683	1662
425.758	2197
425.833	2329
425.908	3546
425.983	12626
426.058	30671
426.132	12715
426.207	3473
426.282	5902
426.357	5318
426.431	1006
426.506	1598
426.581	2053
426.655	2408
426.730	1155
426.805	1510
426.879	2296
426.954	2023
427.029	6669
427.103	33361
427.178	69244
427.253	27758
427.327	3811
427.402	7248
427.476	16891
427.551	8376
427.625	2299
427.700	2726
427.774	1087
427.849	2523
427.923	1061
427.998	1737
428.072	2169
428.147	8624
428.221	35865
428.296	88592
428.370	42343
428.444	7853
428.519	8436
428.593	14814
428.667	12557
428.742	16309
428.816	18015
428.890	65083
428.965	85554
429.039	27160
429.113	16367
429.188	5919
429.262	2543
429.336	5749
429.410	14289
429.485	10828
429.559	12617
429.633	9260
429.707	3664
429.781	16251
429.855	68894
429.930	89405
430.004	48053
430.078	69828
430.152	68916
430.226	121119
430.300	106082
430.374	17541
430.448	7813
430.522	27874
430.596	64085
430.670	43021
430.744	97072
430.818	115205
430.892	21849
430.966	3542
431.040	1956
431.114	1379
431.188	840
431.262	1799
431.336	994
431.410	7992
431.484	17156
431.557	11283
431.631	1780
431.705	3990
431.779	22883
431.853	79274
431.927	48222
432.000	6749
432.074	1574
432.148	2758
432.222	1702
432.295	1882
432.369	1656
432.443	5784
432.516	32344
432.590	69404
432.664	22811
432.737	4106
432.811	642
432.885	851
432.958	1145
433.032	1030
433.106	319
433.179	1017
433.253	224
433.326	588
433.400	-340
433.473	752
433.547	-146
433.620	1244
433.694	2832
433.767	3320
433.841	965
433.914	864
433.988	518
434.061	1426
434.134	882
434.208	414
434.281	-421
434.355	408
434.428	602
434.501	516
434.575	691
434.648	390
434.721	470
434.795	658
434.868	-114
434.941	-243
435.014	121
435.088	502
435.161	1654
435.234	3686
435.307	3644
435.381	2178
435.454	1631
435.527	2530
435.600	2704
435.673	3067
435.746	1164
435.819	2126
435.892	1179
435.966	1440
436.039	1190
436.112	939
436.185	291
436.258	320
436.331	-714
436.404	411
436.477	-80
436.550	497
436.623	499
436.696	364
436.769	451
436.842	1441
436.915	1522
436.987	1900
437.060	289
437.133	-66
437.206	-430
437.279	1302
437.352	446
437.425	468
437.498	1558
437.570	3388
437.643	2728
437.716	784
437.789	323
437.861	4384
437.934	9737
438.007	3946
438.080	682
438.152	1783
438.225	5978
438.298	43292
438.370	90964
438.443	35690
438.516	8804
438.588	2313
438.661	550
438.734	1436
438.806	1092
438.879	2971
438.951	2618
439.024	4676
439.096	1732
439.169	1426
439.241	154
439.314	894
439.386	2375
439.459	3960
439.531	5389
439.604	1843
439.676	1250
439.749	396
439.821	126
439.893	1242
439.966	553
440.038	1982
440.110	912
440.183	1021
440.255	220
440.327	3682
440.400	19219
440.472	62281
440.544	34114
440.617	3922
440.689	3667
440.761	5906
440.833	8180
440.905	5670
440.978	483
441.050	1274
441.122	587
441.194	638
441.266	938
441.338	461
441.411	3093
441.483	22100
441.555	25743
441.627	5656
441.699	3922
441.771	3456
441.843	740
441.915	1356
441.987	690
442.059	525
442.131	2064
442.203	4011
442.275	4418
442.347	5194
442.419	8806
442.491	45311
442.563	89699
442.635	35780
442.706	20415
442.778	12739
442.850	2938
442.922	2046
442.994	2775
443.066	3868
443.137	3404
443.209	3293
443.281	5194
443.353	15227
443.425	60996
443.496	172666
443.568	147170
443.640	50109
443.711	10292
443.783	4873
443.855	3173
443.926	2316
443.998	2007
444.070	3233
444.141	2879
444.213	3808
444.285	4454
444.356	3824
444.428	2368
444.499	1339
444.571	1090
444.642	1970
444.714	1110
444.785	3626
444.857	5824
444.928	12777
445.000	6869
445.071	8946
445.143	10661
445.214	8137
445.285	14392
445.357	41751
445.428	131978
445.500	240372
445.571	145170
445.642	71844
445.714	29461
445.785	22389
445.856	6295
445.928	7113
445.999	4348
446.070	3899
446.141	3878
446.213	5216
446.284	1879
446.355	3322
446.426	1816
446.497	2339
446.569	4293
446.640	6410
446.711	3506
446.782	1948
446.853	1440
446.924	2394
446.995	1053
447.066	2280
447.138	4051
447.209	2192
447.280	1121
447.351	469
447.422	317
447.493	1896
447.564	1677
447.635	2934
447.706	751
447.777	242
447.847	642
447.918	526
447.989	2528
448.060	3186
448.131	7751
448.202	6942
448.273	4023
448.344	1869
448.414	1066
448.485	1222
448.556	1635
448.627	826
448.698	631
448.768	371
448.839	995
448.910	4562
448.981	2979
449.051	1567
449.122	596
449.193	-291
449.263	967
449.334	1157
449.405	2076
449.475	4349
449.546	3706
449.616	5116
449.687	3687
449.758	1226
449.828	1047
449.899	1318
449.969	636
450.040	997
450.110	2008
450.181	1638
450.251	535
450.322	1574
450.392	853
450.463	355
450.533	642
450.604	1660
450.674	650
450.744	1544
450.815	648
450.885	1293
450.955	437
451.026	66
451.096	607
451.166	2372
451.237	5942
451.307	12864
451.377	3941
451.447	713
451.518	496
451.588	848
451.658	626
451.728	4424
451.799	15080
451.869	14020
451.939	2595
452.009	1060
452.079	466
452.149	2169
452.219	4319
452.289	17832
452.360	9638
452.430	2001
452.500	1673
452.570	3220
452.640	4564
452.710	14239
452.780	18156
452.850	12309
452.920	8273
452.990	3527
453.060	1750
453.129	3589
453.199	4445
453.269	23358
453.339	38021
453.409	52734
453.479	60459
453.549	85966
453.619	82792
453.688	27716
453.758	4023
453.828	2500
453.898	1209
453.968	1210
454.037	761
454.087	880
454.107	914
454.168	557
454.177	487
454.247	609
454.249	614
454.316	178
454.330	840
454.386	3148
454.411	5063
454.456	7978
454.492	9325
454.525	10558
454.574	5157
454.595	2842
454.655	2076
454.665	1988
454.734	2680
454.736	2825
454.804	5359
454.817	7458
454.873	15137
454.898	14998
454.943	14802
454.979	8871
455.013	3730
455.060	3523
455.082	3668
455.141	4874
455.152	5033
455.221	15199
455.222	15438
455.291	23330
455.303	24234
455.360	27409
455.384	35676
455.430	47890
455.465	35307
455.499	24411
455.546	18303
455.569	15067
455.627	8317
455.638	7249
455.707	1121
455.708	1145
455.777	2302
455.789	2130
455.846	1135
455.869	1329
455.916	1669
455.950	1707
455.985	1696
456.031	1523
456.054	1450
456.112	1235
456.124	1197
456.193	1122
456.193	1102
456.262	1787
456.274	1943
456.332	2775
456.355	2764
456.401	2241
456.436	2167
456.470	2270
456.516	1425
456.540	984
456.597	1044
456.609	1032
456.678	857
456.678	844
456.747	834
456.759	750
456.817	538
456.840	969
456.886	1491
456.920	1437
456.955	1607
457.001	1737
457.024	1797
457.082	2023
457.093	2016
457.162	3463
457.163	3482
457.232	3138
457.243	3051
457.301	2532
457.324	2113
457.370	1409
457.405	2059
457.439	2904
457.485	1860
457.508	1250
457.566	2522
457.577	2855
457.646	3756
457.647	3784
457.715	5749
457.727	6290
457.784	9324
457.808	11643
457.853	14470
457.889	16650
457.922	17285
457.969	13510
457.991	13465
458.050	15496
458.060	15858
458.129	24039
458.130	24293
458.198	23185
458.211	20882
458.267	12569
458.292	9314
458.336	7003
458.372	7004
458.405	8930
458.453	13057
458.474	15500
458.533	25598
458.543	26307
458.611	37641
458.614	37792
458.680	24684
458.694	19841
458.749	9736
458.775	7437
458.818	4627
458.855	3621
458.887	3139
458.936	3118
458.955	3238
459.016	3148
459.024	3049
459.093	3057
459.097	3037
459.162	3303
459.177	3447
459.230	3808
459.257	4038
459.299	3903
459.338	3766
459.368	3901
459.418	4467
459.437	4488
459.499	3880
459.505	3845
459.574	2935
459.579	2967
459.643	2953
459.659	2927
459.711	3175
459.740	3133
459.780	3243
459.820	3630
459.849	3762
459.900	4040
459.917	4121
459.981	4235
459.986	4207
460.054	4031
460.061	3991
460.123	4364
460.141	4573
460.191	5084
460.222	5425
460.260	5622
460.302	6008
460.328	5928
460.382	5237
460.397	5175
460.462	5147
460.465	5450
460.534	12413
460.543	13409
460.602	28220
460.623	34125
460.671	51328
460.703	68676
460.739	59820
460.783	38625
460.808	32904
460.864	10041
460.876	7525
460.944	4101
460.945	4068
461.013	4522
461.024	4453
461.081	4148
461.104	4461
461.150	4273
461.184	3631
461.218	3597
461.264	3562
461.286	3582
461.345	3958
461.355	3937
461.423	4155
461.425	4138
461.491	4979
461.505	5397
461.559	10939
461.585	13301
461.628	18407
461.665	23955
461.696	24729
461.745	27672
461.764	24631
461.825	7658
461.832	7259
461.901	5126
461.905	5149
461.969	4439
461.985	4062
462.037	4249
462.065	4717
462.105	5978
462.145	7060
462.173	9099
462.225	13186
462.241	14297
462.305	19793
462.310	19204
462.378	9438
462.385	7996
462.446	5312
462.465	5123
462.514	5054
462.545	4786
462.582	4480
462.625	4512
462.650	4704
462.705	5012
462.718	5144
462.785	5761
462.786	5799
462.854	7890
462.865	8309
462.922	9866
462.945	10546
462.990	7891
463.025	5194
463.058	4801
463.104	4335
463.126	4205
463.184	4669
463.194	4777
463.262	4420
463.264	4436
463.330	4764
463.344	4784
463.398	5961
463.424	6388
463.466	5888
463.504	5683
463.533	5951
463.583	6338
463.601	6471
463.663	6637
463.669	6801
463.737	9094
463.743	9252
463.805	15006
463.823	16857
463.873	24421
463.903	29182
463.940	28905
463.982	29127
464.008	23320
464.062	8310
464.076	7756
464.142	5427
464.144	5402
464.211	5140
464.221	5204
464.279	6089
464.301	6253
464.347	7256
464.381	8148
464.414	8238
464.461	8381
464.482	8657
464.540	9333
464.550	9049
464.617	6751
464.620	6657
464.685	8027
464.699	8388
464.753	9666
464.779	10452
464.820	11347
464.859	11810
464.888	11314
464.938	10441
464.956	10590
465.018	11204
465.023	11090
465.091	9313
465.098	9108
465.158	8765
465.177	8743
465.226	9014
465.257	9002
465.293	9326
465.336	9776
465.361	10655
465.416	12507
465.428	13702
465.495	20188
465.496	20283
465.563	30070
465.575	31833
465.631	35830
465.654	37467
465.698	22884
465.734	10000
465.765	9405
465.813	8763
465.833	8833
465.893	9455
465.900	9468
465.968	9484
465.972	9470
466.035	9800
466.052	9843
466.102	10061
466.131	10248
466.170	10240
466.210	10071
466.237	10180
466.290	10394
466.304	10578
466.369	11260
466.372	11286
466.439	11626
466.449	11624
466.506	13549
466.528	14299
466.573	21198
466.607	26291
466.641	34042
466.687	44807
466.708	47267
466.766	54027
466.775	49942
466.842	18238
466.845	16702
466.909	14270
466.925	13761
466.977	13750
467.004	13730
467.044	14382
467.083	15019
467.111	15738
467.163	16996
467.178	17369
467.242	18781
467.245	18745
467.312	17321
467.321	17104
467.379	17102
467.400	17050
467.446	18067
467.480	18747
467.559	16691
467.638	14361
467.717	14343
467.796	16116
467.875	15459
467.955	16699
468.034	29089
468.113	52462
468.192	70483
468.271	16498
468.350	14119
468.429	16288
468.508	15392
468.588	14029
468.667	13754
468.746	14311
468.825	13171
468.904	11397
468.983	15232
469.062	21935
469.141	23483
469.220	11635
469.299	11683
469.378	12285
469.456	15865
469.535	13655
469.614	13045
469.693	14194
469.772	17378
469.851	24773
469.930	13819
470.009	12417
470.088	10518
470.166	11911
470.245	14173
470.324	14340
470.403	12523
470.482	11543
470.560	10663
470.639	11735
470.718	12528
470.797	11340
470.875	14533
470.954	19781
471.033	18921
471.111	9958
471.190	9711
471.269	8894
471.347	9059
471.426	10769
471.505	12198
471.583	13540
471.662	12266
471.740	11317
471.819	11018
471.898	10682
471.976	9971
472.055	10488
472.133	13299
472.212	16502
472.290	15884
472.369	10322
472.447	10454
472.526	9263
472.604	10793
472.683	11091
472.761	10968
472.839	9565
472.918	9535
472.996	9925
473.075	11890
473.153	11474
473.231	10419
473.310	11849
473.388	10658
473.466	9649
473.545	12073
473.623	14220
473.701	14081
473.780	10692
473.858	9658
473.936	13083
474.014	10851
474.093	12955
474.171	18745
474.249	23747
474.327	12614
474.405	8767
474.484	9392
474.562	9848
474.640	9521
474.718	10063
474.796	10460
474.874	10405
474.952	9669
475.030	9629
475.108	10595
475.187	12064
475.265	14295
475.343	18492
475.421	19267
475.499	10599
475.577	11279
475.655	16070
475.733	28510
475.811	49737
475.889	41957
475.966	22816
476.044	11104
476.122	14638
476.200	18318
476.278	13206
476.356	9501
476.434	10783
476.512	13849
476.590	17266
476.667	13423
476.745	8377
476.823	9663
476.901	9619
476.979	10119
477.056	9705
477.134	9602
477.212	10492
477.290	9620
477.367	9129
477.445	8332
477.523	8542
477.601	7750
477.678	9912
477.756	11388
477.834	12243
477.911	9047
477.989	8720
478.066	9660
478.144	10827
478.222	13892
478.299	21517
478.377	18023
478.454	9188
478.532	8174
478.609	9194
478.687	9531
478.764	7412
478.842	8112
478.919	8507
478.997	8982
479.074	8883
479.152	11457
479.229	13514
479.307	8526
479.384	7122
479.461	7893
479.539	9131
479.616	10346
479.694	8562
479.771	10520
479.848	10808
479.926	12643
480.003	14341
480.080	8803
480.157	6574
480.235	8028
480.312	7729
480.389	9502
480.467	16274
480.544	18593
480.621	9728
480.698	9345
480.775	11209
480.853	10531
480.930	8788
481.007	10118
481.084	12741
481.161	14570
481.238	10727
481.315	7289
481.392	7823
481.470	8512
481.547	9340
481.624	7668
481.701	8017
481.778	8736
481.855	11549
481.932	17846
482.009	26772
482.086	15193
482.163	10082
482.240	16793
482.317	27492
482.393	17858
482.470	8868
482.547	9164
482.624	8257
482.701	8646
482.778	8050
482.855	7619
482.932	7505
483.009	8171
483.085	10291
483.162	11466
483.239	11281
483.316	7532
483.393	9337
483.469	9091
483.546	9363
483.623	9916
483.699	8044
483.776	8429
483.853	11216
483.930	19108
484.006	44325
484.083	68353
484.160	33241
484.236	43835
484.313	33141
484.389	25017
484.466	24078
484.543	22901
484.619	22803
484.696	24532
484.772	26090
484.849	26448
484.925	21280
485.002	20790
485.078	22761
485.155	23581
485.231	19577
485.308	19568
485.384	20955
485.461	28305
485.537	44004
485.614	46519
485.690	20166
485.766	19180
485.843	21663
485.919	25343
485.995	25424
486.072	18571
486.148	17573
486.224	18115
486.301	19530
486.377	22155
486.453	23079
486.530	21128
486.606	28058
486.682	30893
486.758	37849
486.835	42006
486.911	35663
486.987	54804
487.063	48880
487.139	53647
487.215	41126
487.292	23767
487.368	21913
487.444	24807
487.520	30460
487.596	30016
487.672	50320
487.748	105305
487.824	139208
487.900	55974
487.976	28849
488.052	26211
488.128	28702
488.204	21971
488.280	21243
488.356	27557
488.432	53009
488.508	70245
488.584	22720
488.660	17992
488.736	17774
488.812	18609
488.888	22242
488.964	29980
489.039	56272
489.115	73040
489.191	40519
489.267	19106
489.343	18201
489.418	15796
489.494	15568
489.570	13879
489.646	16396
489.722	16000
489.797	18308
489.873	32347
489.949	57746
490.024	41280
490.100	14714
490.176	15461
490.251	17721
490.327	21340
490.403	13521
490.478	14882
490.554	13096
490.629	13613
490.705	12519
490.781	15095
490.856	13617
490.932	16349
491.007	15779
491.083	14352
491.158	14164
491.234	23645
491.309	44874
491.385	38307
491.460	13983
491.536	16266
491.611	13402
491.686	15235
491.762	20061
491.837	36004
491.913	59979
491.988	78961
492.063	86470
492.139	31582
492.214	19818
492.289	11111
492.365	10983
492.440	14384
492.515	14408
492.590	14425
492.666	11680
492.741	19058
492.816	24967
492.891	13919
492.967	12936
493.042	10836
493.117	12172
493.192	15131
493.267	37137
493.342	105189
493.418	118551
493.493	16809
493.568	11222
493.643	11697
493.718	15012
493.793	21656
493.868	19733
493.943	12106
494.018	10463
494.093	10135
494.168	10505
494.243	8941
494.318	8908
494.393	9167
494.468	8610
494.543	9150
494.618	10460
494.693	10288
494.768	9895
494.842	10086
494.917	8663
494.992	9372
495.067	8514
495.142	8791
495.217	10163
495.292	9871
495.366	11195
495.441	13457
495.516	17354
495.591	26161
495.665	80995
495.740	152799
495.815	52251
495.890	15277
495.964	11967
496.039	15253
496.114	13611
496.188	16423
496.263	15327
496.338	12371
496.412	15329
496.487	16857
496.561	17057
496.636	17568
496.710	15512
496.785	17335
496.860	19407
496.934	15454
497.009	15454
497.083	15213
497.158	17341
497.232	20641
497.307	22886
497.381	20336
497.455	25876
497.530	32273
497.604	24168
497.679	27499
497.753	39930
497.827	45287
497.902	40968
497.976	52405
498.050	135650
498.125	379023
498.199	297894
498.273	54872
498.348	45605
498.422	41827
498.496	38085
498.570	35503
498.645	29677
498.719	28219
498.793	32585
498.867	43444
498.941	63335
499.016	186032
499.090	374147
499.164	96704
499.238	20710
499.312	18512
499.386	21797
499.460	18654
499.534	18257
499.609	22306
499.683	29743
499.757	30996
499.831	91073
499.905	274071
499.979	198942
500.053	36130
500.127	34489
500.201	22173
500.275	16664
500.349	16321
500.422	17866
500.496	26516
500.570	59746
500.644	165114
500.718	249519
500.792	43200
500.866	17700
500.940	22756
501.013	18327
501.087	18027
501.161	29165
501.235	39068
501.309	109127
501.382	259814
501.456	170935
501.530	49953
501.603	77122
501.677	24620
501.751	12430
501.825	18566
501.898	42578
501.972	101079
502.046	48399
502.119	18869
502.193	51745
502.266	104545
502.340	43055
502.413	53345
502.487	88404
502.561	44832
502.634	16159
502.708	12480
502.781	9747
502.855	9928
502.928	8834
503.002	9502
503.075	9883
503.149	10757
503.222	10982
503.295	11428
503.369	14451
503.442	25607
503.516	89122
503.589	184258
503.662	100531
503.736	40824
503.809	88648
503.882	68587
503.956	106642
504.029	83633
504.102	63195
504.175	71070
504.249	30578
504.322	20621
504.395	16017
504.468	11378
504.542	10926
504.615	8582
504.688	7897
504.761	6890
504.834	11470
504.907	13000
504.980	16964
505.053	9446
505.127	11230
505.200	16536
505.273	14994
505.346	9291
505.419	7754
505.492	7927
505.565	5390
505.638	6970
505.711	6452
505.784	6853
505.857	5823
505.930	9005
506.003	6425
506.076	10239
506.149	11827
506.221	12532
506.294	16209
506.367	50027
506.440	131978
506.513	51116
506.586	14330
506.659	8525
506.731	7554
506.804	9681
506.877	13144
506.950	9708
507.022	7706
507.095	10900
507.168	12183
507.241	6957
507.313	6217
507.386	7502
507.459	9993
507.531	7596
507.604	6262
507.677	6581
507.749	5600
507.822	10404
507.894	17884
507.967	19575
508.040	11814
508.112	10518
508.185	10179
508.257	8782
508.330	15328
508.402	8962
508.475	10001
508.547	10895
508.620	11869
508.692	17807
508.765	10865
508.837	7732
508.909	7709
508.982	8574
509.054	8784
509.127	8444
509.199	7576
509.271	6291
509.344	6812
509.416	7713
509.488	8253
509.560	7748
509.633	7918
509.705	10397
509.777	9984
509.849	13483
509.922	9352
509.994	8688
510.066	10029
510.138	10408
510.210	20541
510.283	16123
510.355	13220
510.427	12666
510.499	12086
510.571	11886
510.643	10342
510.715	17194
510.787	12128
510.859	11826
510.931	14004
511.003	16124
511.076	14940
511.148	9267
511.219	11217
511.291	20027
511.363	18906
511.435	10538
511.507	8043
511.579	10125
511.651	9588
511.723	8703
511.795	8179
511.867	9113
511.939	14420
512.010	25566
512.082	17569
512.154	8759
512.226	10322
512.298	16487
512.369	19368
512.441	15517
512.513	15190
512.585	11137
512.656	13642
512.728	13080
512.800	10567
512.871	10708
512.943	11265
513.015	9146
513.086	9962
513.158	10920
513.230	10426
513.301	15913
513.373	14954
513.444	10330
513.516	9975
513.588	9966
513.659	10746
513.731	11914
513.802	11792
513.874	24749
513.945	32567
514.016	11508
514.088	9949
514.159	10324
514.231	15671
514.302	17345
514.374	14110
514.445	13961
514.516	31255
514.588	18536
514.659	16102
514.730	27476
514.802	19204
514.873	15466
514.944	18276
515.016	15135
515.087	15226
515.158	22003
515.229	25120
515.301	18514
515.372	24066
515.443	17658
515.514	12797
515.585	10009
515.656	11450
515.728	10182
515.799	9435
515.870	10101
515.941	10764
516.012	11033
516.083	15492
516.154	14237
516.225	17873
516.296	15752
516.367	14194
516.438	14085
516.509	16942
516.580	25712
516.651	80434
516.722	209532
516.793	81287
516.864	24319
516.935	22837
517.006	25147
517.077	34239
517.148	82392
517.219	245784
517.289	307494
517.360	146408
517.431	42198
517.502	15492
517.573	15363
517.643	15195
517.714	17180
517.785	17840
517.856	16987
517.926	18951
517.997	20267
518.068	21064
518.138	27423
518.209	47283
518.280	189161
518.350	499171
518.421	155244
518.492	29347
518.562	23149
518.633	24914
518.703	26536
518.774	52821
518.845	99390
518.915	78336
518.986	32679
519.056	26464
519.127	37820
519.197	64227
519.268	149909
519.338	71907
519.408	21777
519.479	23249
519.549	16148
519.620	14059
519.690	10927
519.760	11090
519.831	11394
519.901	10548
519.971	10426
520.042	11732
520.112	13535
520.182	14228
520.253	14598
520.323	11500
520.393	15791
520.463	22858
520.534	17973
520.604	31568
520.674	15291
520.744	17972
520.814	36012
520.885	31107
520.955	62551
521.025	170172
521.095	46828
521.165	13128
521.235	11661
521.305	9698
521.375	9710
521.445	10777
521.515	12495
521.585	15922
521.655	12598
521.725	12586
521.795	11951
521.865	8591
521.935	18244
522.005	12126
522.075	8842
522.145	10607
522.215	12196
522.285	18273
522.355	25449
522.424	46088
522.494	33394
522.564	17286
522.634	36552
522.704	78717
522.774	24356
522.843	10544
522.913	11013
522.983	11778
523.053	9154
523.122	10616
523.192	14814
523.262	46653
523.331	33324
523.401	11037
523.471	8353
523.540	8587
523.610	6416
523.680	7253
523.749	8437
523.819	11949
523.888	10711
523.958	7148
524.027	8308
524.097	9427
524.166	8153
524.236	8031
524.305	10505
524.375	8126
524.444	7765
524.514	9740
524.583	8543
524.653	11309
524.722	12607
524.791	8065
524.861	9257
524.930	7287
524.999	8031
525.069	11871
525.138	11942
525.207	12224
525.277	9485
525.346	8937
525.415	9235
525.484	9603
525.554	11762
525.623	11840
525.692	13166
525.761	13313
525.830	13831
525.900	15619
525.969	24425
526.038	39363
526.107	89138
526.176	213682
526.245	143848
526.314	58186
526.383	122567
526.452	145572
526.522	267945
526.591	205260
526.660	57172
526.729	30345
526.797	35825
526.867	91173
526.935	323974
527.004	531106
527.073	225984
527.142	29105
527.211	16936
527.280	15903
527.349	12744
527.418	8099
527.487	9383
527.555	7690
527.624	7412
527.693	6945
527.762	8394
527.831	6346
527.899	8020
527.968	7388
528.037	5984
528.106	9529
528.174	15577
528.243	14332
528.312	21086
528.380	21649
528.449	8388
528.518	7789
528.586	5292
528.655	7037
528.723	5995
528.792	5937
528.861	6366
528.929	4935
528.998	7599
529.066	6968
529.135	7104
529.203	6936
529.272	8223
529.340	9330
529.409	10656
529.477	8730
529.545	11387
529.614	13897
529.682	15178
529.751	15924
529.819	16984
529.887	12170
529.956	9703
530.024	11237
530.092	8250
530.161	12659
530.229	14793
530.297	10479
530.365	11116
530.434	11046
530.502	9531
530.570	10040
530.638	7842
530.707	9565
530.775	10080
530.843	8308
530.911	9425
530.979	10291
531.047	9820
531.115	10291
531.183	9803
531.252	10423
531.320	9000
531.388	9018
531.456	11218
531.524	8625
531.592	10789
531.660	13148
531.728	10089
531.796	9851
531.864	10614
531.932	11489
532.000	10619
532.067	11966
532.135	11189
532.203	13786
532.271	14267
532.339	23162
532.407	40513
532.475	22581
532.542	14269
532.610	16184
532.678	24093
532.746	91089
532.814	146706
532.881	32925
532.949	13756
533.017	12225
533.084	12254
533.152	10298
533.220	10921
533.287	11992
533.355	10177
533.423	10958
533.490	11131
533.558	11394
533.625	11141
533.693	12819
533.761	11608
533.828	11937
533.896	11806
533.963	20894
534.031	23564
534.098	28381
534.166	14947
534.233	12014
534.300	14179
534.368	13826
534.435	11830
534.503	12999
534.570	13272
534.637	13160
534.705	13543
534.772	16566
534.840	31588
534.907	117075
534.974	101816
535.041	18547
535.109	14160
535.176	10836
535.243	10543
535.310	10728
535.378	8922
535.445	9236
535.512	8898
535.579	9251
535.646	8656
535.714	9974
535.781	11747
535.848	11581
535.915	13127
535.982	11964
536.049	11573
536.116	13514
536.183	11089
536.250	10936
536.317	10523
536.384	12462
536.451	15205
536.518	14961
536.585	10546
536.652	16658
536.719	18091
536.786	13334
536.853	11951
536.920	18245
536.987	24295
537.053	27051
537.120	94795
537.187	54508
537.254	10347
537.321	9639
537.388	10980
537.454	7977
537.521	8309
537.588	7671
537.654	10784
537.721	11355
537.788	11266
537.855	9623
537.921	9548
537.988	9092
538.055	9801
538.121	8361
538.188	10347
538.254	14836
538.321	22606
538.388	13492
538.454	10014
538.521	8864
538.587	8009
538.654	8257
538.720	8851
538.787	8756
538.853	10069
538.920	11512
538.986	11617
539.053	9997
539.119	10230
539.185	10870
539.252	12404
539.318	14211
539.385	13654
539.451	11648
539.517	11733
539.583	14569
539.650	34178
539.716	57869
539.782	15132
539.849	9041
539.915	10651
539.981	10500
540.047	10812
540.114	10427
540.180	10752
540.246	10409
540.312	14927
540.378	23255
540.444	22372
540.510	34444
540.576	67623
540.643	17927
540.709	8844
540.775	9489
540.841	9557
540.907	15518
540.973	19921
541.039	15201
541.105	14253
541.171	10206
541.237	9116
541.303	9875
541.369	12697
541.435	14856
541.500	20162
541.566	11300
541.632	9533
541.698	8117
541.764	10349
541.830	8171
541.896	8358
541.961	9769
542.027	9185
542.093	8833
542.159	10181
542.224	10948
542.290	15881
542.356	21202
542.421	21141
542.487	13018
542.553	11248
542.618	11483
542.684	9840
542.750	8766
542.815	12970
542.881	23898
542.947	68398
543.012	34891
543.078	9998
543.143	8719
543.209	9976
543.274	9596
543.340	12634
543.405	30132
543.471	33159
543.536	9889
543.602	9953
543.667	8395
543.732	9375
543.798	7997
543.863	9674
543.928	8521
543.994	7409
544.059	9134
544.124	9015
544.190	8918
544.255	9726
544.320	9984
544.386	9527
544.451	12835
544.516	13553
544.581	16169
544.646	48556
544.712	51232
544.777	12692
544.842	13028
544.907	11858
544.972	11005
545.037	10868
545.102	12746
545.168	10761
545.233	12470
545.298	14114
545.363	14668
545.428	16799
545.493	30368
545.558	48573
545.623	18901
545.688	12267
545.753	11505
545.818	11908
545.883	12099
545.947	12770
546.012	14208
546.077	14068
546.142	14821
546.207	12890
546.272	16938
546.337	14825
546.401	14789
546.466	14351
546.531	13012
546.596	14737
546.661	14460
546.725	15517
546.790	14141
546.855	13894
546.919	13980
546.984	15912
547.049	18236
547.113	20820
547.178	18942
547.243	22958
547.307	25602
547.372	30112
547.436	29346
547.501	26428
547.565	26843
547.630	28273
547.695	27498
547.759	30299
547.823	27395
547.888	25838
547.952	25539
548.017	28625
548.081	33185
548.146	35860
548.210	32206
548.274	28043
548.339	27211
548.403	26486
548.468	24588
548.532	23813
548.596	24850
548.660	25351
548.725	28800
548.789	32745
548.853	31820
548.917	29447
548.982	35105
549.046	30668
549.110	22550
549.174	23631
549.238	26002
549.303	26927
549.367	28994
549.431	26691
549.495	25965
549.559	26422
549.623	30699
549.687	33873
549.751	38199
549.815	37395
549.879	35899
549.943	34315
550.007	37012
550.071	36544
550.135	37965
550.199	32990
550.263	31871
550.327	35592
550.391	38944
550.455	35863
550.519	36011
550.582	37937
550.646	47446
550.710	45650
550.774	41791
550.838	43424
550.901	45188
550.965	47093
551.029	49660
551.093	55873
551.156	68139
551.220	98767
551.284	89428
551.347	63189
551.411	92839
551.475	78530
551.538	46704
551.602	41347
551.666	39281
551.729	37302
551.793	37084
551.856	36599
551.920	37365
551.983	36980
552.047	35929
552.110	35262
552.174	37380
552.237	35341
552.301	32910
552.364	32693
552.428	33246
552.491	33006
552.554	33698
552.618	33838
552.681	35781
552.745	34333
552.808	40756
552.871	44105
552.934	38121
552.998	35887
553.061	36623
553.124	34445
553.187	35257
553.251	36761
553.314	38127
553.377	41723
553.440	60732
553.503	155186
553.567	165066
553.630	47095
553.693	37366
553.756	37418
553.819	35117
553.882	34011
553.945	34897
554.008	33465
554.071	34397
554.134	34048
554.197	32064
554.260	32243
554.323	34256
554.386	33076
554.449	34328
554.512	34827
554.575	31738
554.638	32959
554.701	32212
554.764	32179
554.827	30855
554.889	27956
554.952	27723
555.015	27288
555.078	28122
555.141	28509
555.203	28290
555.266	28006
555.329	28061
555.391	27981
555.454	27632
555.517	27624
555.580	25095
555.642	24471
555.705	24510
555.768	24785
555.830	23683
555.893	22616
555.955	23166
556.018	23134
556.080	22033
556.143	23262
556.206	22922
556.268	22613
556.330	23520
556.393	22164
556.455	23400
556.518	29767
556.580	26056
556.643	20661
556.705	20568
556.767	19410
556.830	20354
556.892	21668
556.955	26318
557.017	20966
557.079	19024
557.142	19553
557.204	21368
557.266	32809
557.328	26213
557.391	17522
557.453	17267
557.515	18217
557.577	20516
557.639	19961
557.701	17590
557.764	17771
557.826	18955
557.888	20790
557.950	20436
558.012	22954
558.074	33771
558.136	84929
558.198	152025
558.260	47033
558.322	25594
558.384	25417
558.446	29598
558.508	31880
558.570	38138
558.632	54424
558.694	73258
558.756	115645
558.818	391508
558.880	663031
558.942	188248
559.003	169785
559.065	67093
559.127	33078
559.189	32982
559.251	39597
559.312	66033
559.374	190640
559.436	474657
559.498	162930
559.559	37005
559.621	33207
559.683	42047
559.744	83669
559.806	265129
559.868	271977
559.929	49639
559.991	36407
560.052	68938
560.114	161196
560.176	84096
560.237	108256
560.299	126407
560.360	27430
560.422	16974
560.483	15515
560.545	15283
560.606	14223
560.667	15071
560.729	13945
560.790	12844
560.852	14278
560.913	12977
560.974	13689
561.036	13473
561.097	13783
561.158	13054
561.220	13227
561.281	12962
561.342	14099
561.403	15503
561.465	19046
561.526	39961
561.587	38053
561.648	14925
561.709	12075
561.771	13022
561.832	12577
561.893	12399
561.954	11758
562.015	12894
562.076	11553
562.137	12875
562.198	11600
562.259	11624
562.320	12962
562.381	14139
562.442	18539
562.503	14553
562.564	12675
562.625	12675
562.686	12516
562.747	12878
562.808	13437
562.869	13020
562.930	14423
562.991	14041
563.051	13539
563.112	13439
563.173	13049
563.234	11708
563.294	12087
563.355	12043
563.416	12839
563.477	12769
563.537	12845
563.598	12999
563.659	13336
563.720	12815
563.780	12970
563.841	13957
563.901	13037
563.962	12702
564.023	12694
564.083	12685
564.144	12393
564.204	12446
564.265	13038
564.325	17576
564.386	30812
564.446	21738
564.507	12667
564.567	12587
564.628	12539
564.688	12038
564.749	13556
564.809	15132
564.869	16813
564.930	12840
564.990	13620
565.050	11654
565.111	12838
565.171	12917
565.231	12071
565.292	13170
565.352	12898
565.412	13750
565.472	13794
565.532	14734
565.593	13782
565.653	12679
565.713	14591
565.773	14848
565.833	16580
565.893	18461
565.953	13786
566.013	13947
566.074	16282
566.134	20375
566.194	29028
566.254	26718
566.314	18983
566.374	16075
566.434	16583
566.494	15947
566.554	17402
566.614	17216
566.673	17578
566.733	19817
566.793	20565
566.853	20926
566.913	21273
566.973	21363
567.033	22818
567.092	22230
567.152	21732
567.212	22356
567.272	24143
567.331	25091
567.391	25054
567.451	27319
567.511	33240
567.570	28170
567.630	22959
567.690	22891
567.749	23406
567.809	25114
567.868	27938
567.928	31013
567.988	35604
568.047	39611
568.107	50222
568.166	65778
568.226	94815
568.285	118570
568.345	110543
568.404	95025
568.464	84986
568.523	77664
568.582	78930
568.642	85545
568.701	106145
568.761	147434
568.820	200234
568.879	197708
568.939	165209
568.998	127989
569.057	101559
569.116	82055
569.176	68658
569.235	56855
569.294	49181
569.353	42731
569.413	38432
569.472	34000
569.531	31201
569.590	28252
569.649	25872
569.708	24420
569.767	24561
569.827	24299
569.886	21898
569.945	19683
570.004	19406
570.063	18514
570.122	19498
570.181	19281
570.240	20386
570.299	20085
570.358	19026
570.417	15392
570.475	14712
570.534	15922
570.593	16137
570.652	15567
570.711	15780
570.770	15417
570.829	16163
570.887	14936
570.946	16637
571.005	13763
571.064	13620
571.122	14139
571.181	15149
571.240	13372
571.299	12576
571.357	14466
571.416	14844
571.475	16697
571.533	15761
571.592	14289
571.650	15054
571.709	12606
571.768	13268
571.826	13252
571.885	11550
571.943	12211
572.002	12959
572.060	12478
572.119	12213
572.177	11944
572.236	11883
572.294	11164
572.352	11633
572.411	11596
572.469	10879
572.528	11122
572.586	11870
572.644	13247
572.703	14895
572.761	12251
572.819	11278
572.877	11909
572.936	9872
572.994	10779
573.052	10988
573.110	12132
573.169	11441
573.227	10831
573.285	10240
573.343	10564
573.401	11253
573.459	11127
573.517	11494
573.576	11263
573.634	10930
573.692	11445
573.750	10976
573.808	10819
573.866	13171
573.924	14690
573.982	12338
574.040	11717
574.098	10530
574.155	10212
574.213	10644
574.271	10323
574.329	11154
574.387	9582
574.445	9695
574.503	10257
574.560	10005
574.618	8919
574.676	9593
574.734	8967
574.792	10823
574.849	9960
574.907	9866
574.965	9957
575.022	9030
575.080	9341
575.138	10663
575.195	9964
575.253	9892
575.311	11232
575.368	9593
575.426	10356
575.483	9254
575.541	9271
575.598	9603
575.656	10594
575.713	10369
575.771	10455
575.828	10066
575.886	10110
575.943	10879
576.001	10272
576.058	9991
576.115	12405
576.173	11668
576.230	13348
576.287	13687
576.345	11497
576.402	10263
576.459	11270
576.517	10918
576.574	11821
576.631	12914
576.688	11068
576.746	10589
576.803	9348
576.860	10294
576.917	10668
576.974	11553
577.031	10982
577.089	11167
577.146	11329
577.203	11197
577.260	12156
577.317	11616
577.374	13446
577.431	11829
577.488	11395
577.545	10857
577.602	11545
577.659	12296
577.716	14055
577.773	15426
577.830	12400
577.886	11889
577.943	10628
578.000	11399
578.057	11464
578.114	12653
578.171	14555
578.227	16476
578.284	16286
578.341	14554
578.398	14024
578.454	13434
578.511	14141
578.568	14178
578.625	11667
578.681	11604
578.738	10907
578.794	10876
578.851	10774
578.908	11852
578.964	12516
579.021	12360
579.077	12052
579.134	11429
579.190	11474
579.247	10646
579.303	11045
579.360	10856
579.416	10498
579.473	11031
579.529	10999
579.586	10986
579.642	11386
579.698	12289
579.755	12147
579.811	11757
579.867	11353
579.924	13016
579.980	13041
580.036	14708
580.093	18804
580.149	23246
580.205	23638
580.261	19669
580.317	17274
580.374	16764
580.430	16626
580.486	14071
580.542	12794
580.598	13431
580.619	13317
580.654	13124
580.692	13229
580.710	13293
580.765	13123
580.767	13123
580.823	14182
580.838	14110
580.879	13959
580.911	13525
580.935	13221
580.984	13127
580.991	13124
581.047	13568
581.057	13539
581.103	13377
581.130	14413
581.159	15535
581.203	16084
581.215	16223
581.270	15172
581.276	15091
581.326	14324
581.349	14123
581.382	13877
581.422	14434
581.438	14656
581.494	14464
581.494	14464
581.550	14539
581.567	14251
581.606	13648
581.640	14232
581.661	14541
581.713	15139
581.717	15202
581.773	14030
581.786	14017
581.829	13915
581.859	14369
581.885	14795
581.932	15138
581.940	15184
581.996	15173
582.004	15157
582.052	14932
582.077	15039
582.107	15298
582.150	15550
582.163	15619
582.219	15634
582.223	15689
582.274	16312
582.296	16061
582.330	15601
582.368	16193
582.386	16504
582.441	16148
582.441	16145
582.497	17556
582.514	17350
582.552	17018
582.587	18687
582.608	19551
582.659	17525
582.663	17369
582.719	18277
582.732	18019
582.774	17217
582.805	17591
582.830	17943
582.877	17729
582.885	17713
582.941	18454
582.950	18652
582.996	19666
583.023	20519
583.052	21564
583.095	22564
583.107	22847
583.162	25331
583.168	25424
583.218	25490
583.240	24661
583.273	23541
583.313	22500
583.328	22097
583.384	20980
583.385	20982
583.439	20985
583.458	20758
583.494	20477
583.531	20413
583.549	20353
583.603	19710
583.605	19699
583.660	19747
583.676	20117
583.715	20889
583.748	21025
583.770	21260
583.820	21535
583.825	21544
583.881	21003
583.893	20947
583.936	20872
583.965	20854
583.991	20745
584.038	21684
584.046	21910
584.101	21845
584.110	21941
584.156	22120
584.183	22246
584.211	22591
584.255	22672
584.266	22640
584.321	23290
584.328	23268
584.376	23630
584.400	24037
584.431	24406
584.472	24610
584.486	24710
584.541	25165
584.545	25218
584.596	26106
584.617	26161
584.651	26837
584.689	27588
584.706	27646
584.761	27920
584.762	27907
584.816	28378
584.834	28692
584.871	29316
584.906	29492
584.926	29731
584.978	30127
584.980	30168
585.035	32513
585.051	32510
585.090	32331
585.123	33531
585.145	34718
585.195	35780
585.200	35925
585.254	38843
585.267	39859
585.309	43881
585.340	46158
585.364	47342
585.412	46549
585.419	46457
585.473	49040
585.484	50033
585.528	57834
585.556	66077
585.583	80692
585.628	115312
585.637	128151
585.692	236092
585.700	250142
585.747	300005
585.772	269965
585.801	182087
585.845	90766
585.856	80636
585.910	56854
585.917	54298
585.965	50196
585.989	48825
586.019	48528
586.061	47683
586.074	47608
586.128	47830
586.133	47779
586.183	48529
586.205	48756
586.237	48893
586.277	49053
586.292	49373
586.346	50150
586.349	50177
586.401	51764
586.421	52182
586.455	53652
586.493	55954
586.509	58210
586.564	67008
586.565	67191
586.618	81150
586.637	81819
586.672	73278
586.709	65886
586.727	64564
586.781	64547
586.781	64645
586.835	64317
586.853	64436
586.889	65082
586.925	65556
586.944	66496
586.996	69112
586.998	69294
587.052	72465
587.068	73111
587.106	75391
587.140	76982
587.161	77948
587.212	80804
587.215	81147
587.269	85758
587.284	86646
587.323	89554
587.356	92147
587.377	93945
587.427	98313
587.431	98944
587.485	104364
587.499	106062
587.539	111543
587.571	115446
587.593	118703
587.643	124954
587.648	125910
587.702	134740
587.715	136817
587.755	144877
587.786	150440
587.810	155635
587.858	165685
587.864	167386
587.917	183514
587.930	186781
587.971	201097
588.001	211444
588.025	221192
588.073	239790
588.079	242972
588.133	269172
588.145	274628
588.187	302025
588.217	321755
588.241	341140
588.288	378577
588.295	385467
588.348	439379
588.360	450615
588.402	506681
588.431	546429
588.456	589245
588.503	672175
588.510	688934
588.564	820749
588.575	848416
588.617	996755
588.646	1101754
588.671	1222879
588.718	1456977
588.725	1499343
588.778	1812971
588.789	1871430
588.832	2010546
588.861	2068412
588.886	1955693
588.932	1648603
588.939	1623809
588.993	1493917
589.004	1491235
589.047	1903128
589.075	2116683
589.100	2101045
589.147	2001101
589.154	1969393
589.207	1692743
589.218	1636743
589.261	1530560
589.290	1466051
589.314	1495335
589.361	1560094
589.368	1589408
589.421	1820142
589.433	1864969
589.475	1959263
589.504	1980355
589.528	1862653
589.576	1602925
589.582	1625652
589.635	1906255
589.647	1943311
589.689	1838408
589.718	1734331
589.742	1557723
589.790	1205312
589.795	1180568
589.849	933189
589.861	875635
589.902	757577
589.932	668406
589.955	623012
590.004	524850
590.009	519510
590.062	449955
590.075	432122
590.115	395183
590.146	365154
590.168	351526
590.218	318865
590.222	317464
590.275	288545
590.289	280288
590.328	264265
590.360	250339
590.381	243802
590.431	225789
590.435	225470
590.488	210081
590.503	205169
590.541	197772
590.574	190478
590.594	186672
590.645	175219
590.647	175390
590.700	166632
590.716	163532
590.753	158551
590.787	153194
590.806	151462
590.859	145037
590.859	145366
590.912	139139
590.930	136807
590.965	133955
591.001	130344
591.018	129381
591.071	125112
591.072	124695
591.124	120695
591.143	118763
591.177	117175
591.214	114652
591.230	114587
591.283	113597
591.285	113201
591.336	110303
591.356	108740
591.389	107247
591.427	104579
591.442	104197
591.495	101707
591.498	101219
591.547	99544
591.569	98308
591.600	96969
591.640	94404
591.653	94601
591.706	94327
591.711	94006
591.759	93956
591.782	93486
591.811	94466
591.853	95145
591.864	94390
591.917	88937
591.924	87881
591.969	87460
591.995	86800
592.022	86697
592.066	85728
592.075	86365
592.127	88702
592.137	88881
592.180	90197
592.208	90372
592.233	87926
592.279	82600
592.285	82599
592.338	80389
592.350	79626
592.390	79187
592.421	78419
592.443	78604
592.491	78183
592.495	78362
592.548	77316
592.562	76778
592.600	75979
592.633	74834
592.653	75127
592.704	74845
592.705	75259
592.775	74354
592.846	73976
592.916	74714
592.987	73619
593.058	73218
593.128	70896
593.199	70399
593.270	68708
593.341	68957
593.411	69323
593.482	67777
593.553	68598
593.623	67689
593.694	68491
593.764	70189
593.835	66653
593.906	66139
593.976	66311
594.047	67097
594.117	71439
594.188	73575
594.258	64807
594.329	63771
594.399	63724
594.470	65095
594.540	65052
594.611	65264
594.681	64961
594.751	64898
594.822	65897
594.892	67841
594.963	67643
595.033	69027
595.103	68538
595.174	71728
595.244	83251
595.314	90083
595.384	71703
595.455	69716
595.525	70521
595.595	73946
595.665	72607
595.736	70146
595.806	72063
595.876	72170
595.946	70540
596.016	72810
596.087	73388
596.157	73760
596.227	73829
596.297	76414
596.367	80354
596.437	83670
596.507	91940
596.577	97708
596.647	83984
596.717	83615
596.787	84667
596.857	84085
596.927	84830
596.997	82741
597.067	87445
597.137	92065
597.207	91008
597.277	88569
597.347	86078
597.417	84419
597.487	85771
597.557	87537
597.626	87923
597.696	90720
597.766	94924
597.836	100310
597.906	85573
597.975	81337
598.045	82347
598.115	83276
598.185	88143
598.254	94593
598.324	99668
598.394	101149
598.464	99462
598.533	96952
598.603	93169
598.672	91905
598.742	93806
598.812	94192
598.881	95958
598.951	94861
599.020	95333
599.090	98989
599.159	100495
599.229	96621
599.299	94926
599.368	98367
599.437	97866
599.507	94787
599.576	96014
599.646	98547
599.715	99239
599.785	94626
599.854	94755
599.924	97276
599.993	95760
600.062	95350
600.132	96435
600.201	100747
600.270	110117
600.340	115137
600.409	111570
600.478	112237
600.547	114882
600.617	109383
600.686	99795
600.755	96124
600.824	95422
600.894	96394
600.963	96176
601.032	96161
601.101	96262
601.170	95715
601.239	96119
601.308	101094
601.378	101553
601.447	101057
601.516	101135
601.585	105633
601.654	110212
601.723	108163
601.792	111642
601.861	115382
601.930	124684
601.999	124228
602.068	120782
602.137	125245
602.206	125355
602.275	124292
602.343	125628
602.412	126229
602.481	123519
602.550	122737
602.619	126535
602.688	126431
602.756	128647
602.825	127688
602.894	131479
602.963	128464
603.032	131886
603.100	132098
603.169	128946
603.238	134372
603.307	128464
603.375	129714
603.444	133892
603.513	126642
603.581	131179
603.650	136025
603.719	118338
603.787	114246
603.856	118084
603.924	119172
603.993	122950
604.061	123819
604.130	129623
604.198	130534
604.267	131701
604.335	135319
604.404	134703
604.472	137413
604.541	137371
604.609	141991
604.678	143315
604.746	147232
604.815	153283
604.883	148730
604.951	145961
605.020	148614
605.088	142532
605.156	137437
605.225	136851
605.293	137477
605.361	137304
605.429	137338
605.498	141025
605.566	139383
605.634	144898
605.702	145762
605.771	147857
605.839	152432
605.907	141980
605.975	145358
606.043	140873
606.111	137812
606.180	150475
606.248	143393
606.316	144575
606.384	145823
606.452	129932
606.520	119025
606.588	113997
606.656	111464
606.724	109880
606.792	104399
606.860	96348
606.928	90707
606.996	87019
607.064	84615
607.132	86789
607.200	93721
607.267	96467
607.335	95756
607.403	97819
607.471	96183
607.539	92878
607.607	92742
607.674	84430
607.742	84910
607.810	85266
607.878	84086
607.946	85392
608.013	89254
608.081	91089
608.149	91208
608.216	91694
608.284	95100
608.352	95217
608.419	94391
608.487	101287
608.555	92771
608.622	93011
608.690	95302
608.757	100841
608.825	104285
608.893	102599
608.960	102556
609.028	101931
609.095	104551
609.163	97370
609.230	87360
609.298	81003
609.365	82728
609.432	88575
609.500	95476
609.567	107278
609.635	120914
609.702	125233
609.769	123937
609.837	102394
609.904	90275
609.971	95772
610.039	109374
610.106	144701
610.173	272345
610.241	606673
610.308	453004
610.375	193056
610.442	112843
610.509	97049
610.577	93588
610.644	92311
610.711	92429
610.778	96853
610.845	98630
610.912	105582
610.980	112999
611.047	126351
611.114	113067
611.181	101982
611.248	99883
611.315	105393
611.382	107906
611.449	111640
611.516	113538
611.583	111009
611.650	114403
611.717	114828
611.784	120091
611.851	126076
611.918	139100
611.984	166012
612.051	240044
612.118	488961
612.185	1147156
612.252	813350
612.319	221885
612.386	159002
612.452	140942
612.519	132706
612.586	139283
612.653	131006
612.719	134092
612.786	126923
612.853	118502
612.919	116100
612.986	116735
613.053	110864
613.120	105405
613.186	101975
613.253	104970
613.319	102912
613.386	103342
613.453	106130
613.519	107714
613.586	111396
613.652	122910
613.719	115065
613.785	112988
613.852	107915
613.918	107446
613.985	112658
614.051	128217
614.118	169453
614.184	162680
614.250	111845
614.317	109758
614.383	106615
614.449	108280
614.516	107205
614.582	109601
614.648	106233
614.715	105504
614.781	103624
614.847	106789
614.914	106863
614.980	102962
615.046	103373
615.112	105560
615.179	110532
615.245	114878
615.311	126864
615.377	160569
615.443	179483
615.509	143066
615.575	125024
615.642	120412
615.708	123523
615.774	131549
615.840	146492
615.906	171265
615.972	235342
616.038	396458
616.104	719786
616.170	1428699
616.236	1293798
616.302	360136
616.368	223712
616.434	169292
616.500	150615
616.565	156333
616.631	184955
616.697	165071
616.763	164107
616.829	222549
616.895	371076
616.961	384682
617.026	203186
617.092	133651
617.158	123088
617.224	116381
617.289	108741
617.355	105442
617.421	103534
617.487	104216
617.552	99244
617.618	98019
617.684	96207
617.749	97376
617.815	94834
617.880	92772
617.946	92912
618.012	94977
618.077	95010
618.143	92752
618.208	94775
618.274	99188
618.339	101682
618.405	86823
618.470	89216
618.536	89157
618.601	91187
618.667	86301
618.732	81507
618.798	81310
618.863	80636
618.928	79395
618.994	81673
619.059	84163
619.124	92924
619.190	84094
619.255	79252
619.320	80181
619.386	80323
619.451	79639
619.516	77773
619.581	78858
619.647	81809
619.712	80482
619.777	78119
619.842	79636
619.907	81893
619.972	81411
620.038	80795
620.103	79445
620.168	77699
620.233	79405
620.298	79004
620.363	79804
620.428	82014
620.493	83225
620.558	84720
620.623	84897
620.688	84022
620.753	84083
620.818	85308
620.883	86481
620.948	85357
621.013	84489
621.078	83459
621.143	86429
621.207	89552
621.272	85929
621.337	86686
621.402	87616
621.467	93840
621.532	95284
621.596	89787
621.661	87028
621.726	83954
621.791	84963
621.855	86728
621.920	88123
621.985	87827
622.049	93469
622.114	91000
622.179	88117
622.243	92086
622.308	92223
622.373	94339
622.437	94573
622.502	90067
622.566	89454
622.631	88862
622.695	90216
622.760	89982
622.824	89754
622.889	91934
622.953	92498
623.018	107542
623.082	105786
623.147	93721
623.211	91322
623.276	92889
623.340	86977
623.404	87141
623.469	86459
623.533	87394
623.597	84916
623.662	84040
623.726	81875
623.790	78351
623.854	77755
623.919	78801
623.983	78727
624.047	79840
624.111	80343
624.176	80907
624.240	83092
624.304	87083
624.368	80688
624.432	78157
624.496	80916
624.560	84596
624.625	86906
624.689	83628
624.753	83734
624.817	81334
624.881	79144
624.945	77814
625.009	74483
625.073	73774
625.137	77605
625.201	84750
625.265	83295
625.329	76997
625.393	78498
625.456	76088
625.520	79194
625.584	81303
625.648	89224
625.712	105113
625.776	162235
625.839	170834
625.903	92165
625.967	71875
626.031	91293
626.095	119955
626.158	76696
626.222	61477
626.286	58972
626.349	57737
626.413	55437
626.477	58051
626.540	54921
626.604	55114
626.668	54537
626.731	53151
626.795	56636
626.858	53852
626.922	51827
626.986	52592
627.049	50518
627.113	53220
627.176	51558
627.240	51239
627.303	50940
627.366	49983
627.430	49799
627.493	50813
627.557	49365
627.620	52311
627.684	51059
627.747	50114
627.810	46286
627.874	45736
627.937	44030
628.000	46976
628.064	45656
628.127	40291
628.190	41290
628.253	41512
628.317	39258
628.380	38295
628.443	39108
628.506	39120
628.569	38134
628.632	36032
628.696	36740
628.759	35022
628.822	34774
628.885	34098
628.948	33494
629.011	35131
629.074	33632
629.137	33408
629.200	33629
629.263	35394
629.326	31288
629.389	31661
629.452	33048
629.515	32364
629.578	31862
629.641	33079
629.704	32827
629.767	32630
629.830	30862
629.892	31847
629.955	30189
630.018	33833
630.081	31982
630.144	34839
630.207	30232
630.269	33287
630.332	32398
630.395	31012
630.458	28890
630.520	27909
630.583	29134
630.646	28325
630.708	28530
630.771	29391
630.834	29824
630.896	29203
630.959	28341
631.021	27976
631.084	28987
631.146	30647
631.209	32039
631.272	28351
631.334	27543
631.397	28190
631.459	27363
631.522	29317
631.584	28799
631.646	30052
631.709	31885
631.771	35147
631.834	31529
631.896	29706
631.958	27338
632.021	28782
632.083	27349
632.145	27662
632.208	26937
632.270	28924
632.332	25510
632.395	25867
632.457	26510
632.519	25537
632.581	27605
632.643	24591
632.706	26128
632.768	25644
632.830	25422
632.892	25747
632.954	26025
633.016	27754
633.078	25466
633.141	25217
633.203	25463
633.265	24772
633.327	25429
633.389	25370
633.451	27287
633.513	30403
633.575	30577
633.637	28646
633.698	27266
633.760	27225
633.822	26518
633.884	27942
633.946	27350
634.008	28760
634.070	30265
634.132	35040
634.193	32023
634.255	31556
634.317	31425
634.379	31671
634.441	28987
634.502	28673
634.564	27347
634.626	25487
634.687	25914
634.749	25684
634.811	24847
634.873	23171
634.934	23643
634.996	25106
635.057	24293
635.119	23871
635.181	24170
635.242	24881
635.304	23317
635.365	26303
635.427	24549
635.488	24715
635.550	23385
635.611	26196
635.673	23577
635.734	27509
635.796	27187
635.857	29763
635.918	28614
635.980	31203
636.041	30367
636.102	32902
636.164	32112
636.225	31070
636.286	27967
636.348	28278
636.409	27338
636.470	24891
636.531	25348
636.593	26699
636.654	25366
636.715	23016
636.776	23614
636.838	22221
636.899	22800
636.960	22492
637.021	22452
637.082	20975
637.143	22135
637.204	20075
637.265	20173
637.326	22291
637.387	22232
637.448	19963
637.509	21711
637.570	20216
637.631	22183
637.692	19583
637.753	19282
637.814	20293
637.875	19668
637.936	21218
637.997	20575
638.058	21223
638.119	21733
638.179	20534
638.240	19920
638.301	19995
638.362	20029
638.423	19398
638.483	21099
638.544	18430
638.605	19660
638.666	19883
638.726	20109
638.787	20031
638.848	19280
638.908	19129
638.969	19212
639.030	20193
639.090	17250
639.151	18951
639.211	20119
639.272	22165
639.332	29764
639.393	22734
639.453	19495
639.514	20756
639.574	18581
639.635	18393
639.695	19545
639.756	17815
639.816	19642
639.877	19698
639.937	27042
639.997	30357
640.058	19517
640.118	17526
640.178	18253
640.239	17811
640.299	18753
640.359	17524
640.420	18833
640.480	20230
640.540	20304
640.600	20974
640.661	21161
640.721	20498
640.781	25694
640.841	22053
640.901	20655
640.961	18505
641.021	19607
641.082	19143
641.142	23867
641.202	20380
641.262	15951
641.322	17842
641.382	15867
641.442	17681
641.502	17378
641.562	18573
641.622	17223
641.682	18808
641.742	18108
641.802	19606
641.861	18822
641.921	18028
641.981	18921
642.041	19015
642.101	20166
642.161	16151
642.221	15859
642.280	15988
642.340	16302
642.400	16649
642.460	17412
642.519	16574
642.579	16772
642.639	18444
642.698	14229
642.758	19367
642.818	17342
642.877	16859
642.937	17336
642.997	20217
643.056	23657
643.116	17686
643.175	19156
643.235	17657
643.294	18599
643.354	19314
643.414	20952
643.473	24893
643.532	27412
643.592	35839
643.651	53409
643.711	91023
643.770	172798
643.830	411931
643.889	826537
643.948	215891
644.008	45115
644.067	29698
644.126	23556
644.186	21813
644.245	19643
644.304	16638
644.363	19456
644.423	16751
644.482	17707
644.541	17395
644.600	16255
644.659	21743
644.719	23985
644.778	33583
644.837	53134
644.896	102772
644.955	231924
645.014	83382
645.073	28675
645.132	20791
645.191	20048
645.250	17570
645.309	20424
645.368	18484
645.427	23187
645.486	33289
645.545	50903
645.604	22163
645.663	17489
645.722	16795
645.781	18479
645.840	20694
645.898	24154
645.957	32985
646.016	49436
646.075	84675
646.134	162091
646.192	422982
646.251	606413
646.310	102425
646.369	32453
646.427	27050
646.486	20668
646.545	17802
646.603	17623
646.662	15469
646.721	16231
646.779	15126
646.838	15279
646.896	19043
646.955	23820
647.014	33537
647.072	58446
647.131	147170
647.189	73123
647.248	18101
647.306	16332
647.365	14410
647.423	12356
647.481	14719
647.540	12322
647.598	13095
647.657	12177
647.715	13674
647.773	11349
647.832	13010
647.890	11477
647.948	13144
648.007	13133
648.065	10750
648.123	12226
648.181	15151
648.240	16684
648.298	14511
648.356	12543
648.414	13399
648.472	11400
648.531	12912
648.589	11930
648.647	11664
648.705	11641
648.763	11068
648.821	12098
648.879	11970
648.937	14384
648.995	15633
649.053	18814
649.111	25264
649.169	40395
649.227	68710
649.285	138401
649.343	383912
649.401	187628
649.459	45199
649.516	32186
649.574	25730
649.632	43914
649.690	50674
649.748	28925
649.806	38476
649.863	62573
649.921	105813
649.979	69651
650.037	16969
650.094	11840
650.152	11542
650.210	10166
650.268	11978
650.325	12380
650.383	12611
650.440	10052
650.498	10483
650.556	9643
650.613	9962
650.671	9782
650.728	10267
650.786	10700
650.843	11185
650.901	8961
650.958	10037
651.016	9141
651.073	9407
651.131	8775
651.188	8573
651.246	9351
651.303	8067
651.360	8701
651.418	9002
651.475	8957
651.532	8281
651.590	9558
651.647	8710
651.704	8808
651.762	9344
651.819	9212
651.876	8461
651.933	9401
651.990	8917
652.048	7168
652.105	7810
652.162	8694
652.219	8072
652.276	7888
652.333	8649
652.390	8046
652.448	9725
652.505	8718
652.562	9555
652.619	10538
652.676	16876
652.733	17246
652.790	8663
652.847	6456
652.904	8478
652.961	7237
653.017	6767
653.074	9342
653.131	8502
653.188	7247
653.245	7118
653.302	7619
653.359	7700
653.415	7469
653.472	7927
653.529	8606
653.586	7708
653.642	7770
653.699	7610
653.756	6681
653.813	6796
653.869	7733
653.926	7447
653.983	6915
654.039	7998
654.096	6766
654.152	8719
654.209	7054
654.266	8776
654.322	7218
654.379	9148
654.435	9240
654.492	8953
654.548	11615
654.605	15584
654.661	10223
654.717	8229
654.774	8336
654.830	7968
654.887	7641
654.943	7903
655.000	8863
655.056	8845
655.112	8195
655.168	6129
655.225	7763
655.281	8824
655.337	9961
655.394	14197
655.450	10748
655.506	10849
655.562	14951
655.618	12931
655.675	6878
655.731	8202
655.787	7167
655.843	7805
655.899	6310
655.955	8147
656.011	6540
656.067	6590
656.123	7242
656.179	7404
656.235	8471
656.291	6605
656.347	7808
656.403	6913
656.459	7322
656.515	8006
656.571	8290
656.627	7813
656.683	7286
656.739	7919
656.795	7456
656.850	8000
656.906	7981
656.962	8366
657.018	6890
657.074	7240
657.129	9186
657.185	10839
657.241	17945
657.297	11695
657.352	7857
657.408	6665
657.464	8825
657.519	7296
657.575	5828
657.630	7023
657.686	6165
657.742	7141
657.797	7387
657.853	7146
657.908	7546
657.964	6194
658.019	7207
658.075	7183
658.130	7178
658.186	5899
658.241	6832
658.297	6358
658.352	6302
658.407	7050
658.463	6687
658.518	6674
658.573	7118
658.629	5045
658.684	7528
658.739	7364
658.795	5333
658.850	6623
658.905	5785
658.960	6718
659.016	6472
659.071	6288
659.126	6555
659.181	7138
659.236	11127
659.291	11492
659.346	9066
659.401	9425
659.457	10639
659.512	13569
659.567	9417
659.622	7399
659.677	6481
659.732	6897
659.787	6618
659.842	8115
659.897	9100
659.952	7513
660.007	6840
660.061	7194
660.116	6457
660.171	6264
660.226	6751
660.281	7134
660.336	6059
660.391	6831
660.445	6627
660.500	7456
660.555	7262
660.610	6169
660.664	6315
660.719	6306
660.774	6456
660.828	6147
660.883	6366
660.938	7327
660.992	5219
661.047	6573
661.101	6405
661.156	6550
661.211	5955
661.265	6405
661.320	6096
661.374	6145
661.429	5699
661.483	6438
661.538	6279
661.592	7487
661.647	7289
661.701	7694
661.755	7039
661.810	6685
661.864	5875
661.919	5931
661.973	6583
662.027	6215
662.081	6276
662.136	6712
662.190	7318
662.244	7586
662.299	6078
662.353	6102
662.407	6258
662.461	5789
662.515	7294
662.569	6721
662.624	7526
662.678	6645
662.732	6602
662.786	6675
662.840	6641
662.894	7106
662.948	6940
663.002	6153
663.056	6667
663.110	5805
663.164	6580
663.218	6545
663.272	6227
663.326	7096
663.380	6327
663.434	6761
663.488	5798
663.542	6647
663.595	6798
663.649	6692
663.703	6576
663.757	6498
663.811	6425
663.864	5748
663.918	6109
663.972	5954
664.026	6036
664.079	6141
664.133	7041
664.187	6337
664.240	6449
664.294	6368
664.348	7953
664.401	6477
664.455	5648
664.508	5221
664.562	6442
664.615	5949
664.669	4942
664.722	6395
664.776	6687
664.829	6909
664.883	5559
664.936	5715
664.990	6607
665.043	6935
665.097	6575
665.150	7778
665.203	6706
665.257	6009
665.310	7621
665.363	6316
665.417	6592
665.470	6530
665.523	6874
665.576	6059
665.630	6444
665.683	7207
665.736	6859
665.789	7032
665.842	6405
665.895	6954
665.949	7304
666.002	6702
666.055	7102
666.108	7395
666.161	6826
666.214	7483
666.267	7484
666.320	7606
666.373	7083
666.426	7475
666.479	5799
666.532	7149
666.585	7345
666.638	8182
666.691	7262
666.744	7870
666.796	7384
666.849	7340
666.902	7386
666.955	6723
667.008	6016
667.060	6138
667.113	5740
667.166	6024
667.219	6046
667.271	6032
667.324	6440
667.377	6240
667.430	6825
667.482	9009
667.535	8568
667.587	7738
667.640	7329
667.693	8065
667.745	11270
667.798	10616
667.850	7241
667.903	6484
667.955	5618
668.008	5785
668.060	7742
668.113	8102
668.165	7528
668.218	7751
668.270	6865
668.322	7121
668.375	7072
668.427	7493
668.479	6634
668.532	6851
668.584	6871
668.636	6616
668.689	6682
668.741	7200
668.793	7010
668.845	6660
668.898	6816
668.950	7038
669.002	6744
669.054	7381
669.106	6280
669.158	7779
669.211	6872
669.263	7393
669.315	9715
669.367	9638
669.419	8153
669.471	8338
669.523	8299
669.575	10523
669.627	9099
669.679	6510
669.731	7086
669.783	7693
669.835	7963
669.886	8188
669.938	8404
669.990	7407
670.042	7650
670.094	8369
670.146	9004
670.197	9862
670.249	10924
670.301	12464
670.353	17475
670.404	23352
670.456	31612
670.508	47895
670.560	77450
670.611	125162
670.663	217771
670.715	478947
670.766	683235
670.818	251392
670.869	55751
670.921	28847
670.972	20911
671.024	15809
671.075	12485
671.127	11261
671.178	10350
671.230	10358
671.281	9479
671.333	9143
671.384	10091
671.436	10707
671.487	12267
671.538	13267
671.590	17368
671.641	23771
671.692	34934
671.744	58157
671.795	48702
671.846	23088
671.897	14911
671.949	11944
672.000	9192
672.051	8571
672.102	8349
672.153	7291
672.204	7546
672.256	7537
672.307	7875
672.358	7188
672.409	7342
672.460	6264
672.511	6689
672.562	7129
672.613	6770
672.664	6429
672.715	6607
672.766	5767
672.817	6609
672.868	6366
672.919	6493
672.970	5923
673.021	6004
673.071	5687
673.122	6226
673.173	6209
673.224	6369
673.275	5866
673.326	5919
673.376	5579
673.427	5102
673.478	6253
673.528	6033
673.579	5936
673.630	5613
673.680	6042
673.731	5288
673.782	5425
673.832	5460
673.883	6376
673.934	4970
673.984	6446
674.035	5648
674.085	5561
674.136	6226
674.186	5635
674.237	7945
674.287	9756
674.338	7982
674.388	5643
674.438	6116
674.489	5925
674.539	6074
674.589	6649
674.640	5808
674.690	6467
674.740	5382
674.791	6744
674.841	6838
674.891	6637
674.942	5954
674.992	5429
675.042	5563
675.092	5593
675.142	4394
675.193	5232
675.243	5290
675.293	5784
675.343	5194
675.393	5367
675.443	5715
675.493	5153
675.543	4880
675.593	5784
675.643	5229
675.693	5618
675.743	5295
675.793	5122
675.843	5137
675.893	5193
675.943	4623
675.993	5584
676.043	5732
676.093	5022
676.142	4418
676.192	5158
676.242	4889
676.292	4492
676.341	5191
676.391	5123
676.441	4466
676.491	5354
676.540	4447
676.590	4588
676.640	5089
676.689	5034
676.739	4254
676.789	4233
676.838	4949
676.888	4802
676.937	4607
676.987	4003
677.037	3729
677.086	4706
677.136	4331
677.185	4764
677.235	4684
677.284	4509
677.333	3771
677.383	3677
677.432	4161
677.482	4565
677.531	4396
677.580	3290
677.630	4238
677.679	3839
677.728	4513
677.778	5486
677.827	4308
677.876	4759
677.925	3869
677.975	4497
678.024	4530
678.073	4329
678.122	4513
678.171	4746
678.220	4620
678.269	5200
678.319	5134
678.368	4719
678.417	4581
678.466	5300
678.515	5978
678.564	4943
678.613	3825
678.662	4436
678.711	4697
678.760	4742
678.809	4665
678.857	4173
678.906	5055
678.955	4653
679.004	4587
679.053	4798
679.102	4811
679.151	4681
679.199	4596
679.248	4669
679.297	4445
679.346	4216
679.394	3738
679.443	4234
679.492	4465
679.540	4147
679.589	4737
679.638	4575
679.686	4513
679.735	4467
679.784	4374
679.832	4584
679.881	3405
679.929	4605
679.978	3367
680.026	3677
680.075	4968
680.123	4112
680.172	3730
680.220	4275
680.268	4702
680.317	4027
680.365	4064
680.414	3487
680.462	2961
680.510	4056
680.559	3069
680.607	4010
680.655	3837
680.703	4601
680.752	3372
680.800	2837
680.848	3895
680.896	3388
680.945	3108
680.993	3732
681.041	3941
681.089	3191
681.137	4259
681.185	3176
681.233	3619
681.258	3717
681.281	3769
681.329	3414
681.377	4497
681.380	4504
681.425	3870
681.473	5265
681.502	4407
681.521	3744
681.569	5108
681.617	3926
681.624	3943
681.665	3762
681.713	4738
681.745	4773
681.761	4733
681.809	4212
681.857	4519
681.867	4627
681.904	4819
681.952	4273
681.989	5049
682.000	5238
682.048	5299
682.096	4387
682.111	4683
682.143	5170
682.191	4719
682.233	5758
682.239	5882
682.286	4966
682.334	4394
682.354	4916
682.382	5477
682.430	5902
682.476	6231
682.477	6205
682.525	4820
682.572	5585
682.598	5432
682.620	5239
682.667	5746
682.715	6395
682.720	6444
682.763	6503
682.810	6334
682.841	6251
682.857	6175
682.905	6017
682.952	6391
682.963	6549
683.000	6971
683.047	6123
683.085	7327
683.095	7600
683.142	7125
683.190	6722
683.206	6965
683.237	7354
683.284	7316
683.328	7017
683.332	6957
683.379	7317
683.426	7253
683.449	6952
683.473	6638
683.521	7460
683.568	6958
683.571	6992
683.615	6927
683.662	7865
683.693	7467
683.709	7207
683.757	7009
683.804	8272
683.814	8154
683.851	7617
683.898	8099
683.936	7737
683.945	7624
683.992	8154
684.039	8341
684.057	8319
684.086	8186
684.133	8204
684.179	8008
684.180	7979
684.227	8635
684.274	8861
684.300	8789
684.321	8661
684.368	8529
684.415	8820
684.422	8733
684.462	8183
684.509	7467
684.543	8646
684.556	9011
684.603	9095
684.649	8479
684.665	8564
684.696	8744
684.743	9440
684.786	9359
684.790	9325
684.837	9404
684.883	10423
684.908	9885
684.930	9479
684.977	10705
685.023	9982
685.029	10084
685.070	10357
685.117	9866
685.150	10664
685.164	11021
685.210	11091
685.257	11424
685.272	11364
685.303	11030
685.350	10762
685.393	10642
685.396	10622
685.443	10787
685.490	11018
685.514	11012
685.536	11002
685.583	11083
685.629	11235
685.636	11224
685.675	10977
685.722	10708
685.757	11298
685.768	11503
685.815	11720
685.861	11341
685.878	11354
685.908	11431
685.954	11490
686.000	11918
686.000	11911
686.047	12955
686.093	13133
686.121	13010
686.139	12861
686.185	12650
686.232	12116
686.242	12212
686.278	12557
686.324	12036
686.363	12208
686.370	12250
686.416	12332
686.463	13095
686.484	13014
686.509	12879
686.555	11817
686.601	12497
686.606	12572
686.647	13095
686.693	12259
686.727	12360
686.739	12439
686.785	12738
686.831	12661
686.848	13058
686.877	13520
686.923	12794
686.969	12370
686.969	12369
687.015	12800
687.061	13106
687.090	13410
687.107	13455
687.153	13322
687.199	13533
687.211	13514
687.245	13353
687.291	13160
687.332	13385
687.336	13447
687.382	14273
687.428	13747
687.453	14086
687.474	14141
687.520	14356
687.565	13737
687.574	13683
687.611	13820
687.657	14217
687.695	14139
687.702	14181
687.748	15230
687.794	16593
687.816	16262
687.839	15387
687.885	14959
687.931	14681
687.937	14536
687.976	14246
688.022	14529
688.058	14813
688.067	14880
688.113	14413
688.158	14825
688.179	14546
688.204	14277
688.249	14538
688.295	14965
688.300	14972
688.340	15100
688.386	15430
688.421	15159
688.431	15054
688.477	15179
688.522	15331
688.542	15344
688.567	15544
688.613	15515
688.658	15633
688.663	15613
688.703	15300
688.749	15845
688.784	15550
688.794	15510
688.839	15455
688.884	15638
688.905	15592
688.930	15573
688.975	15004
689.020	15833
689.026	15807
689.065	15853
689.110	16111
689.146	16203
689.155	16186
689.201	16444
689.246	16127
689.267	16149
689.291	16290
689.336	16278
689.381	16384
689.388	16298
689.426	15960
689.471	16649
689.509	16422
689.516	16382
689.561	16663
689.606	16509
689.630	16384
689.651	16274
689.696	16031
689.741	16240
689.750	16190
689.785	16440
689.830	16774
689.871	16643
689.875	16589
689.920	16409
689.965	15977
689.992	16015
690.010	16347
690.054	16904
690.099	17018
690.112	17021
690.144	16777
690.189	16798
690.233	16736
690.233	16758
690.278	17089
690.323	17092
690.354	17335
690.367	17537
690.412	17788
690.457	18046
690.474	18329
690.501	18584
690.546	18265
690.590	18509
690.595	18442
690.635	18544
690.680	19284
690.716	20042
690.724	20481
690.769	22185
690.813	24475
690.836	25419
690.857	27839
690.902	33077
690.946	38326
690.957	39819
690.991	52233
691.035	69582
691.077	85273
691.080	85284
691.124	79682
691.168	73034
691.198	69310
691.213	64611
691.257	51267
691.301	37171
691.318	32005
691.346	30070
691.390	26551
691.434	23494
691.439	23073
691.478	22234
691.522	21737
691.559	20815
691.567	20785
691.611	20756
691.655	20549
691.680	20316
691.699	20235
691.743	20516
691.787	20432
691.800	20332
691.831	20137
691.875	20273
691.919	20437
691.921	20404
691.964	20668
692.008	20530
692.041	20595
692.052	20608
692.096	20620
692.139	20650
692.162	20273
692.183	19980
692.227	20126
692.271	20048
692.282	19915
692.315	19853
692.359	20109
692.402	20571
692.403	20611
692.447	20494
692.490	20299
692.523	20396
692.534	20491
692.578	20672
692.622	20773
692.643	20688
692.666	20609
692.709	20956
692.753	20509
692.763	20528
692.797	20823
692.840	20637
692.884	20806
692.884	20850
692.928	21435
692.971	21755
693.004	21912
693.015	21934
693.059	21971
693.102	22217
693.124	22182
693.146	22278
693.189	22477
693.233	22439
693.245	22484
693.276	23362
693.320	24627
693.363	25517
693.365	25504
693.407	27144
693.450	28831
693.485	30133
693.493	30994
693.537	35116
693.580	39361
693.605	42003
693.624	47170
693.667	59026
693.710	71216
693.725	75657
693.753	98564
693.797	134956
693.840	171735
693.845	175393
693.883	164664
693.926	150992
693.966	139877
693.970	137121
694.013	105808
694.056	74882
694.086	53627
694.099	51471
694.142	44163
694.185	37121
694.206	33643
694.229	32573
694.272	30580
694.315	28500
694.326	27880
694.358	27243
694.401	26558
694.444	25465
694.446	25362
694.487	25052
694.530	25124
694.566	24671
694.573	24620
694.616	24067
694.659	23605
694.686	23254
694.702	23212
694.745	22842
694.787	22689
694.806	22507
694.830	22493
694.873	22601
694.916	22513
694.926	22465
694.959	22596
695.002	22540
695.044	22464
695.046	22421
695.087	22555
695.130	22307
695.166	22185
695.172	22280
695.215	22584
695.258	22705
695.286	22901
695.301	22926
695.343	22737
695.386	22780
695.406	22575
695.428	22675
695.471	22781
695.514	23176
695.526	23205
695.556	23590
695.599	24066
695.641	24521
695.646	24494
695.684	23921
695.726	23434
695.766	22836
695.769	22900
695.811	23155
695.854	23297
695.886	23432
695.896	23489
695.938	23266
695.981	23181
696.005	23174
696.023	23302
696.065	23345
696.108	23293
696.125	23249
696.150	23623
696.192	24169
696.235	24684
696.245	24771
696.277	24845
696.319	24814
696.361	24844
696.365	24783
696.404	25049
696.446	25200
696.485	25288
696.488	25327
696.530	25108
696.572	24909
696.604	24590
696.614	24618
696.656	24517
696.698	24499
696.724	24477
696.740	24533
696.783	24232
696.825	24201
696.844	24081
696.867	24205
696.909	24239
696.951	24408
696.964	24392
696.992	24402
697.034	24368
697.076	24289
697.083	24199
697.118	24547
697.160	24965
697.202	25337
697.203	25287
697.244	25373
697.286	25173
697.323	25061
697.327	25115
697.369	24943
697.411	24741
697.442	24636
697.453	24722
697.494	24672
697.536	24633
697.562	24612
697.578	24676
697.620	24654
697.661	24520
697.682	24429
697.703	24614
697.744	24844
697.786	25121
697.801	25143
697.828	25482
697.869	25886
697.911	26335
697.921	26377
697.952	26001
697.994	25372
698.035	24762
698.040	24626
698.077	24906
698.118	25110
698.160	25391
698.160	25327
698.201	25299
698.243	25213
698.279	25101
698.284	25235
698.325	25899
698.367	26466
698.399	26875
698.408	26849
698.449	26384
698.491	25983
698.518	25612
698.532	25684
698.573	25697
698.614	25722
698.638	25670
698.656	25901
698.697	26278
698.738	26657
698.757	26767
698.779	26771
698.820	26649
698.862	26517
698.877	26400
698.903	26463
698.944	26456
698.985	26451
698.996	26382
699.026	26551
699.067	26694
699.116	26796
699.235	26641
699.354	26682
699.474	25313
699.593	26683
699.713	26500
699.832	26002
699.951	26202
700.070	26152
700.190	24731
700.309	24904
700.428	25628
700.547	25447
700.667	25409
700.786	24084
700.905	24439
701.024	24532
701.143	24610
701.262	23824
701.381	24975
701.500	25242
701.619	24985
701.738	25441
701.857	23312
701.976	23467
702.095	23800
702.214	24288
702.333	24311
702.452	24421
702.571	23998
702.690	23650
702.809	24012
702.928	22656
703.047	22783
703.165	22780
703.284	23552
703.403	22506
703.522	22609
703.640	22925
703.759	24011
703.878	24415
703.997	21604
704.115	22170
704.234	22436
704.353	22314
704.471	22421
704.590	21726
704.708	21080
704.827	22582
704.946	21751
705.064	21561
705.183	21887
705.301	23621
705.420	29668
705.538	27876
705.656	26378
705.775	28960
705.893	54035
706.012	67433
706.130	27316
706.249	25395
706.367	25904
706.485	25386
706.604	25020
706.722	24943
706.840	26214
706.958	29142
707.077	26194
707.195	24452
707.313	23443
707.431	23585
707.549	23330
707.668	22933
707.786	23672
707.904	22656
708.022	22500
708.140	22165
708.258	22132
708.376	22908
708.494	22304
708.612	24291
708.730	30125
708.848	28480
708.966	26600
709.084	26482
709.202	24954
709.320	25989
709.438	26173
709.556	25866
709.674	24788
709.791	24168
709.909	24608
710.027	24771
710.145	24663
710.263	24708
710.380	24156
710.498	24490
710.616	24822
710.733	23727
710.851	24005
710.969	24722
711.086	23626
711.204	23213
711.322	23282
711.439	23418
711.557	23214
711.674	23399
711.792	23837
711.909	27015
712.027	29146
712.144	22630
712.262	23198
712.379	24873
712.497	31133
712.614	30403
712.732	27454
712.849	26774
712.966	26462
713.084	27773
713.201	27893
713.318	27177
713.436	26986
713.553	26448
713.670	26916
713.787	27212
713.905	26501
714.022	26396
714.139	25052
714.256	27077
714.373	29604
714.490	38439
714.608	71862
714.725	251755
714.842	220606
714.959	33115
715.076	26968
715.193	25179
715.310	24938
715.427	23317
715.544	22808
715.661	23321
715.778	22760
715.895	25217
716.011	25274
716.128	23151
716.245	23914
716.362	24196
716.479	23904
716.596	23000
716.713	22215
716.829	21350
716.946	22061
717.063	21427
717.180	21854
717.296	21419
717.413	21866
717.530	21147
717.646	20510
717.763	20991
717.880	19490
717.996	20031
718.113	20634
718.229	20411
718.346	19858
718.462	20545
718.579	20932
718.695	24661
718.812	23248
718.928	22104
719.045	20516
719.161	19410
719.277	20392
719.394	20560
719.510	20828
719.626	20522
719.743	23683
719.859	24626
719.975	32242
720.092	80409
720.208	150274
720.324	31327
720.440	20720
720.557	20923
720.673	22762
720.789	26383
720.905	35570
721.021	21641
721.137	19062
721.253	18749
721.369	19254
721.486	19022
721.602	21300
721.718	18006
721.834	16675
721.950	18520
722.066	17231
722.181	17918
722.297	18346
722.413	18046
722.529	17195
722.645	17682
722.761	16307
722.877	18123
722.993	17444
723.108	18193
723.224	16230
723.340	16623
723.456	16396
723.571	16445
723.687	16194
723.803	16845
723.918	16196
724.034	15860
724.150	17534
724.265	17148
724.381	22190
724.497	21580
724.612	16160
724.728	15709
724.843	15641
724.959	16173
725.074	21466
725.190	21052
725.305	15626
725.421	14888
725.536	15391
725.651	14944
725.767	15080
725.882	15543
725.997	15404
726.113	14835
726.228	15010
726.343	15163
726.459	14026
726.574	14330
726.689	13892
726.804	15108
726.920	15535
727.035	14502
727.150	14799
727.265	14801
727.380	15916
727.495	14983
727.610	14168
727.725	15509
727.841	18682
727.956	35400
728.071	26080
728.186	14212
728.301	12497
728.416	15048
728.531	13673
728.645	12671
728.760	14420
728.875	13485
728.990	13204
729.105	13866
729.220	12878
729.335	13330
729.449	13274
729.564	13192
729.679	13452
729.794	12680
729.908	13523
730.023	13134
730.138	12792
730.253	13165
730.367	12890
730.482	12694
730.596	12936
730.711	14068
730.826	14350
730.940	13484
731.055	13044
731.169	13102
731.284	12617
731.398	13422
731.513	13272
731.627	12844
731.742	14272
731.856	14828
731.970	14565
732.085	15402
732.199	16399
732.313	20662
732.428	36324
732.542	85398
732.656	47681
732.771	18202
732.885	15329
732.999	14956
733.113	14888
733.227	14556
733.342	14217
733.456	14570
733.570	14219
733.684	13666
733.798	14168
733.912	13426
734.026	13691
734.140	13201
734.254	13799
734.368	16650
734.482	16236
734.596	14278
734.710	12434
734.824	13563
734.938	12285
735.052	13297
735.166	13106
735.280	13510
735.393	12460
735.507	12735
735.621	14585
735.735	16029
735.849	13914
735.962	12970
736.076	12686
736.190	12473
736.303	13583
736.417	14383
736.531	12964
736.644	12379
736.758	11802
736.872	12055
736.985	11562
737.099	12855
737.212	11535
737.326	11553
737.439	12008
737.553	11961
737.666	12000
737.780	11489
737.893	11696
738.007	11177
738.120	11966
738.233	11477
738.347	11642
738.460	10831
738.573	11532
738.687	12121
738.800	11954
738.913	11693
739.026	11786
739.140	12644
739.253	13430
739.366	11455
739.479	11460
739.592	11395
739.705	11601
739.818	10661
739.932	11330
740.045	10812
740.158	11204
740.271	10809
740.384	11518
740.497	10705
740.610	11940
740.723	11133
740.836	12306
740.949	10477
741.062	11346
741.174	12111
741.287	10668
741.400	10499
741.513	10476
741.626	11642
741.739	10930
741.851	10345
741.964	10827
742.077	10701
742.189	10825
742.302	11231
742.415	10842
742.527	10525
742.640	9958
742.753	9541
742.865	9807
742.978	10173
743.090	10226
743.203	10919
743.316	10550
743.428	10971
743.541	10550
743.653	9085
743.766	9898
743.878	10141
743.990	11038
744.103	11282
744.215	10648
744.327	10551
744.440	10920
744.552	12791
744.664	10027
744.777	10452
744.889	9862
745.001	10374
745.113	10808
745.226	9859
745.338	10961
745.450	10181
745.562	10392
745.674	10400
745.786	9516
745.898	10211
746.010	10318
746.122	9585
746.234	9494
746.347	9995
746.459	10176
746.570	9118
746.682	10052
746.794	10037
746.906	9771
747.018	10317
747.130	10859
747.242	9678
747.354	9334
747.466	10161
747.577	9703
747.689	10131
747.801	10592
747.913	9569
748.024	8596
748.136	10429
748.248	9476
748.359	10799
748.471	9661
748.583	9565
748.694	11158
748.806	12591
748.918	9428
749.029	9658
749.141	9916
749.252	10321
749.364	9872
749.475	11693
749.587	10139
749.698	10521
749.809	9912
749.921	10650
750.032	9760
750.144	8619
750.255	9146
750.366	9190
750.478	9454
750.589	8741
750.700	8784
750.811	10005
750.923	10467
751.034	11919
751.145	12010
751.256	9014
751.367	10402
751.479	9354
751.590	9720
751.701	9131
751.812	9909
751.923	9455
752.034	10087
752.145	9207
752.256	9830
752.367	9949
752.478	9538
752.589	9599
752.700	9645
752.811	9184
752.922	9368
753.032	9671
753.143	9583
753.254	9439
753.365	9533
753.476	9859
753.586	9960
753.697	9679
753.808	9468
753.919	9356
754.029	9491
754.140	9579
754.251	9482
754.361	10195
754.472	9859
754.582	9780
754.693	10026
754.804	9684
754.914	9288
755.025	9955
755.135	9655
755.246	10682
755.356	9578
755.466	10102
755.577	10484
755.687	10077
755.798	10163
755.908	9490
756.018	9566
756.129	10076
756.239	9916
756.349	10972
756.460	10229
756.570	10783
756.680	10589
756.790	10226
756.900	10717
757.011	10376
757.121	10316
757.231	9919
757.341	10417
757.451	10789
757.561	10868
757.671	10300
757.781	10666
757.891	11391
758.001	10699
758.111	11609
758.221	11576
758.331	11876
758.441	11524
758.551	11309
758.661	11603
758.771	11420
758.880	11486
758.990	12581
759.100	12142
759.210	12619
759.320	12963
759.429	12013
759.539	13019
759.649	12894
759.758	13020
759.868	13245
759.978	13620
760.087	12779
760.197	14318
760.307	14065
760.416	13574
760.526	14091
760.635	15588
760.745	14233
760.854	15158
760.964	16275
761.073	15700
761.182	15618
761.292	15302
761.401	15718
761.511	16825
761.620	16525
761.729	17485
761.839	17523
761.948	17695
762.057	18651
762.166	18456
762.276	18306
762.385	20511
762.494	20149
762.603	20090
762.712	21239
762.822	21520
762.931	22359
763.040	21738
763.149	23677
763.258	24380
763.367	25361
763.476	27054
763.585	27852
763.694	29394
763.803	30140
763.912	32598
764.021	33773
764.130	36356
764.238	38010
764.347	40743
764.456	42614
764.565	47314
764.674	51151
764.783	54551
764.891	59467
765.000	68549
765.109	76652
765.217	87812
765.326	101993
765.435	118204
765.543	142055
765.652	173584
765.761	222069
765.869	293148
765.978	400058
766.086	562198
766.195	796986
766.303	1019889
766.412	837479
766.520	841761
766.629	886690
766.737	699727
766.846	512752
766.954	371227
767.062	281164
767.171	222268
767.279	172781
767.387	141147
767.496	118417
767.604	101438
767.712	89276
767.820	80019
767.928	73841
768.037	68050
768.145	65195
768.253	61364
768.361	60600
768.469	60330
768.577	61008
768.685	63948
768.793	67159
768.901	74622
769.009	84723
769.117	101735
769.225	130277
769.333	176502
769.441	255651
769.549	399153
769.657	653246
769.765	908214
769.873	769395
769.981	783374
770.088	575413
770.196	373729
770.304	256809
770.412	186355
770.519	143554
770.627	116056
770.735	93720
770.842	80430
770.950	70504
771.058	60917
771.165	54521
771.273	49841
771.380	44785
771.488	42159
771.595	38413
771.703	36772
771.810	34568
771.918	32255
772.025	31552
772.133	29706
772.240	27790
772.348	26899
772.455	26197
772.562	24667
772.670	24133
772.777	24445
772.884	21839
772.991	21152
773.099	21401
773.206	19495
773.313	20454
773.420	18904
773.528	17611
773.635	18402
773.742	18158
773.849	17875
773.956	16908
774.063	16358
774.170	15695
774.277	16823
774.384	16464
774.491	13923
774.598	15299
774.705	15292
774.812	15767
774.919	15010
775.026	15390
775.133	14141
775.239	14338
775.346	13098
775.453	13572
775.560	12535
775.667	13546
775.773	11946
775.880	13406
775.987	12565
776.093	13086
776.200	11733
776.307	11590
776.413	12681
776.520	11502
776.627	12296
776.733	11188
776.840	10875
776.946	12876
777.053	10409
777.159	10520
777.266	10326
777.372	12224
777.478	10359
777.585	11170
777.691	10571
777.798	10929
777.904	11964
778.010	13592
778.117	11929
778.223	10967
778.329	9596
778.435	9736
778.542	10124
778.648	10095
778.754	10206
778.860	9405
778.966	9867
779.072	9765
779.178	9156
779.284	9678
779.391	10308
779.497	11687
779.603	15521
779.708	19491
779.815	41428
779.920	143374
780.026	232338
780.132	45172
780.238	14621
780.344	12061
780.450	11769
780.556	9591
780.661	8451
780.767	8927
780.873	8410
780.979	9405
781.085	7877
781.190	8525
781.296	7825
781.402	7769
781.507	8776
781.613	8377
781.719	8254
781.824	7725
781.930	7856
782.035	7877
782.141	7772
782.246	8555
782.352	7444
782.457	7302
782.563	7920
782.668	6975
782.773	7612
782.879	7026
782.984	7669
783.090	8386
783.195	8314
783.300	7756
783.405	6667
783.511	7165
783.616	7483
783.721	7314
783.826	6802
783.932	7110
784.037	7216
784.142	7189
784.247	6684
784.352	7033
784.457	7044
784.562	6169
784.667	7060
784.772	6090
784.877	6126
784.982	7573
785.087	6225
785.192	6642
785.297	5589
785.402	6414
785.507	6205
785.611	6513
785.716	6702
785.821	6463
785.926	6358
786.031	6319
786.135	6262
786.240	6289
786.345	5503
786.450	5909
786.554	6701
786.659	5569
786.763	5034
786.868	6411
786.973	6566
787.077	5684
787.182	5358
787.286	5985
787.391	5742
787.495	5940
787.600	5795
787.704	5309
787.809	5888
787.913	5984
788.017	6087
788.122	5994
788.226	5816
788.330	4807
788.435	4802
788.539	5663
788.643	5349
788.747	4997
788.852	5119
788.956	4530
789.060	6736
789.164	5528
789.268	4618
789.372	5818
789.476	5352
789.580	5271
789.684	4491
789.788	6286
789.892	5517
789.996	5369
790.100	5281
790.204	5271
790.308	5655
790.412	4366
790.516	5543
790.620	5582
790.724	6235
790.828	5609
790.931	4569
791.035	6443
791.139	5723
791.242	4149
791.346	5652
791.450	5079
791.554	5489
791.657	4648
791.761	5609
791.864	5975
791.968	5186
792.072	4280
792.175	4557
792.279	4834
792.382	5198
792.486	5062
792.589	4253
792.693	6481
792.796	3931
792.899	5925
793.003	5146
793.106	4208
793.209	4186
793.313	5276
793.416	3337
793.519	5828
793.623	5908
793.726	5304
793.829	4195
793.932	5180
794.035	4135
794.138	7024
794.242	6747
794.345	8041
794.448	10881
794.551	22634
794.654	78027
794.757	146503
794.860	29560
794.963	8123
795.066	5430
795.169	6338
795.272	5088
795.375	5329
795.477	3886
795.580	5086
795.683	4042
795.786	5042
795.889	3641
795.991	4603
796.094	4882
796.197	4002
796.300	4994
796.402	3755
796.505	4188
796.608	4072
796.710	4636
796.813	3641
796.915	3719
797.018	4462
797.120	4783
797.223	2966
797.326	4924
797.428	3648
797.530	3626
797.633	4283
797.735	4109
797.838	4616
797.940	5312
798.042	4532
798.145	3760
798.247	5129
798.349	2245
798.452	5135
798.554	3290
798.656	3249
798.758	4103
798.860	3794
798.962	3890
799.065	3123
799.167	2564
799.269	5252
799.371	3769
799.473	3317
799.575	3213
799.677	4707
799.779	5109
799.881	3833
799.983	4360
800.085	3618
800.187	4134
800.289	3195
800.390	3381
800.492	4371
800.594	4608
800.696	3835
800.798	3748
800.899	2896
801.001	2307
801.103	3298
801.205	4058
801.306	3558
801.408	2835
801.509	4194
801.611	3569
801.713	3613
801.814	2590
801.916	3230
802.017	3195
802.119	2674
802.220	3372
802.322	2365
802.423	4872
802.525	2413
802.626	3266
802.727	3803
802.829	3486
802.930	1298
803.031	4024
803.133	3400
803.234	2807
803.335	3462
803.436	2209
803.538	2979
803.639	2158
803.740	3948
803.841	3554
803.942	3848
804.043	4061
804.144	3023
804.245	2691
804.346	2962
804.447	2359
804.548	3382
804.649	4985
804.750	3009
804.851	3250
804.952	2823
805.053	3138
805.154	2654
805.255	4380
805.355	3068
805.456	3652
805.557	2496
805.658	2166
805.758	4248
805.859	3295
805.960	2695
806.061	2652
806.161	3306
806.262	3226
806.362	2457
806.463	2246
806.564	3341
806.664	3047
806.765	3285
806.865	3088
806.966	2832
807.066	2717
807.166	3130
807.267	3180
807.367	2582
807.468	3256
807.568	1386
807.668	3357
807.769	3820
807.869	2915
807.969	3694
808.069	2758
808.170	3277
808.270	3117
808.370	2939
808.470	3322
808.570	1875
808.670	2363
808.770	3179
808.870	1707
808.970	2655
809.070	2204
809.170	2333
809.271	2973
809.370	2002
809.470	2949
809.570	3209
809.670	2285
809.770	2080
809.870	3974
809.970	2928
810.070	2834
810.169	3235
810.269	2467
810.369	3840
810.469	2320
810.568	1971
810.668	2082
810.768	2016
810.867	2771
810.967	2103
811.066	2407
811.166	2656
811.265	3688
811.365	2144
811.464	2995
811.564	3144
811.663	3161
811.763	2082
811.862	2698
811.962	4345
812.061	2134
812.160	2867
812.260	2395
812.359	2709
812.458	3888
812.557	5830
812.657	7436
812.756	4602
812.855	2523
812.954	2844
813.053	3185
813.153	3017
813.252	1712
813.351	3057
813.450	3364
813.549	3411
813.648	2840
813.747	2390
813.846	3226
813.945	2957
814.044	3289
814.143	2460
814.242	3367
814.341	2785
814.439	2891
814.538	3937
814.637	3490
814.736	2679
814.835	4478
814.933	3500
815.032	4584
815.131	4230
815.229	3848
815.328	4482
815.427	3997
815.525	4168
815.624	3622
815.722	4433
815.821	4558
815.919	4588
816.018	4082
816.116	5501
816.215	4374
816.313	4210
816.412	5229
816.510	5162
816.609	7378
816.707	5518
816.805	5880
816.904	5430
817.002	6186
817.100	7230
817.198	7216
817.296	6858
817.395	8463
817.493	10192
817.591	10624
817.689	13692
817.787	17911
817.885	27918
817.983	46743
818.081	92230
818.179	202006
818.277	405173
818.375	306581
818.473	121610
818.571	56911
818.669	38342
818.767	33047
818.865	32479
818.963	38253
819.061	52912
819.158	86935
819.256	166220
819.354	338857
819.452	524716
819.549	337786
819.647	156830
819.745	78665
819.842	49307
819.940	33618
820.038	25244
820.135	19834
820.233	16799
820.330	13559
820.428	11178
820.525	11322
820.623	10096
820.720	7607
820.818	8517
820.915	8068
821.012	7238
821.110	6588
821.207	6511
821.304	5189
821.402	5119
821.499	6044
821.596	4841
821.693	4655
821.791	5461
821.888	5504
821.985	7171
822.082	4405
822.179	5049
822.276	4638
822.373	4305
822.470	3654
822.567	4198
822.664	3300
822.761	4235
822.858	3014
822.955	3547
823.052	2887
823.149	3839
823.246	2914
823.343	2617
823.440	4034
823.536	3729
823.633	2938
823.730	4088
823.827	3753
823.923	2931
824.020	4000
824.117	2716
824.213	2675
824.310	3533
824.407	3164
824.503	3900
824.600	3420
824.696	2834
824.793	2958
824.889	2123
824.986	2401
825.082	2873
825.179	3273
825.275	2997
825.371	2470
825.468	3028
825.564	1332
825.660	2469
825.757	2860
825.853	4186
825.949	2305
826.045	2319
826.142	2687
826.238	2815
826.334	3145
826.430	1767
826.526	3887
826.622	2367
826.718	2612
826.814	2144
826.910	3871
827.006	2005
827.102	1172
827.198	2551
827.294	2103
827.390	2232
827.486	2858
827.582	1721
827.678	1740
827.774	3299
827.869	1421
827.965	3366
828.061	979
828.157	3361
828.252	1856
828.348	2242
828.444	2781
828.539	1906
828.635	2039
828.731	2886
828.826	1642
828.922	2655
829.017	3083
829.113	1899
829.208	1467
829.304	1662
829.399	3025
829.495	2490
829.590	3318
829.685	1812
829.781	2699
829.876	2719
829.971	1947
830.066	2402
830.162	2223
830.257	1826
830.352	2657
830.447	2545
830.543	2295
830.638	1146
830.733	2558
830.828	1779
830.923	2697
831.018	2222
831.113	2516
831.208	1235
831.303	1777
831.398	1759
831.493	2267
831.588	2425
831.683	1905
831.778	1025
831.873	2140
831.967	1935
832.062	1182
832.157	1123
832.252	2391
832.346	2057
832.441	2144
832.536	2566
832.631	4336
832.725	3181
832.820	1456
832.914	2814
833.009	1202
833.104	2346
833.198	3400
833.293	1906
833.387	2570
833.482	2187
833.576	1285
833.670	2724
833.765	1489
833.859	2066
833.954	2202
834.048	1714
834.142	2142
834.237	1163
834.331	1799
834.425	1697
834.519	1580
834.613	2079
834.708	1634
834.802	2693
834.896	1601
834.990	2076
835.084	2292
835.178	1860
835.272	1403
835.366	1448
835.460	2553
835.554	2035
835.648	1212
835.742	1246
835.836	1979
835.930	701
836.024	1771
836.117	2693
836.211	2501
836.305	2699
836.399	3060
836.493	1441
836.586	2410
836.680	1632
836.774	1484
836.867	3077
836.961	1013
837.055	1182
837.148	916
837.242	2143
837.335	2014
837.429	1826
837.522	1122
837.616	1846
837.709	3355
837.803	1821
837.896	2877
837.989	1903
838.083	1718
838.176	3100
838.269	2953
838.363	2170
838.456	2364
838.549	3054
838.642	2796
838.735	5608
838.829	2952
838.922	1861
839.015	2052
839.108	710
839.201	1760
839.294	1536
839.387	2769
839.480	1010
839.573	2400
839.666	2314
839.759	2258
839.852	1021
839.945	2576
840.038	1566
840.131	1400
840.223	1715
840.316	1895
840.409	2002
840.502	1365
840.594	3105
840.687	779
840.780	1836
840.873	1773
840.965	1099
841.058	1807
841.150	4058
841.243	1534
841.336	1622
841.428	1206
841.521	1004
841.613	1265
841.706	1587
841.798	1371
841.890	1343
841.983	343
842.075	2162
842.167	1268
842.260	1893
842.352	2656
842.444	2168
842.537	3159
842.629	4012
842.721	1608
842.813	2247
842.905	667
842.997	1532
843.090	1118
843.182	3051
843.274	2486
843.366	6719
843.458	9263
843.550	5940
843.642	1712
843.734	3303
843.826	1492
843.918	2670
844.009	1819
844.101	1109
844.193	1062
844.285	1184
844.377	1165
844.469	2014
844.560	209
844.652	1532
844.744	1911
844.835	1652
844.927	1212
845.019	1760
845.110	1518
845.202	1994
845.293	2113
845.385	1041
845.476	1781
845.568	1512
845.659	1400
845.751	1402
845.842	1261
845.934	1136
846.025	869
846.116	1779
846.208	1301
846.299	1461
846.390	997
846.482	1952
846.573	1484
846.664	1995
846.755	1800
846.846	2127
846.937	-41
847.029	2071
847.120	1291
847.211	1346
847.302	2248
847.393	801
847.484	1824
847.575	1391
847.666	590
847.757	1139
847.847	1998
847.938	2396
848.029	1724
848.120	1138
848.211	1106
848.302	1468
848.392	1185
848.483	1461
848.574	1038
848.664	816
848.755	753
848.846	1877
848.936	1273
849.027	1369
849.118	1815
849.208	917
849.299	1614
849.389	1742
849.480	2977
849.570	4435
849.661	6110
849.751	8605
849.841	3436
849.932	1806
850.022	930
850.112	1108
850.203	557
850.293	1472
850.383	840
850.474	973
850.564	1487
850.654	2135
850.744	1353
850.834	1669
850.924	1484
851.014	2338
851.104	1461
851.194	1728
851.284	1816
851.374	1719
851.464	949
851.554	1181
851.644	1451
851.734	2986
851.824	2958
851.914	4816
852.004	9686
852.094	9030
852.183	2566
852.273	1522
852.363	1293
852.452	1350
852.542	1946
852.632	1295
852.721	1171
852.811	616
852.901	1428
852.990	969
853.080	1429
853.169	1194
853.259	1099
853.348	434
853.438	1114
853.527	2083
853.617	2593
853.706	3275
853.795	5632
853.885	12257
853.974	20465
854.063	38154
854.152	48801
854.242	15494
854.331	3618
854.420	1904
854.509	2611
854.598	1814
854.687	1314
854.777	1800
854.866	1276
854.955	1322
855.044	536
855.133	900
855.222	1411
855.311	381
855.400	1379
855.488	1300
855.577	1420
855.666	1423
855.755	2126
855.844	2584
855.933	3233
856.021	2542
856.110	1623
856.199	671
856.288	1251
856.376	1047
856.465	1322
856.554	2102
856.642	907
856.731	1277
856.819	1473
856.908	1168
856.996	661
857.085	1748
857.173	634
857.262	1287
857.350	1454
857.438	1247
857.527	2130
857.615	934
857.703	1579
857.792	778
857.880	1689
857.968	1164
858.056	826
858.145	1224
858.233	802
858.321	432
858.409	1758
858.497	457
858.585	1369
858.673	1193
858.761	712
858.849	975
858.937	833
859.025	1533
859.113	1731
859.201	934
859.289	1523
859.377	1383
859.465	1058
859.552	1512
859.640	1271
859.728	908
859.816	1012
859.903	1571
859.991	489
860.079	649
860.166	1913
860.254	1546
860.342	1041
860.429	865
860.517	978
860.604	2391
860.692	1040
860.779	846
860.867	681
860.954	595
861.042	1275
861.129	391
861.216	615
861.304	982
861.391	741
861.478	973
861.565	2109
861.653	796
861.740	621
861.827	446
861.914	1210
862.001	1551
862.089	905
862.176	1221
862.263	579
862.350	1808
862.437	713
862.524	552
862.611	1450
862.698	964
862.785	835
862.871	1661
862.958	552
863.045	896
863.132	1101
863.219	521
863.306	-405
863.392	880
863.479	924
863.566	1465
863.652	715
863.739	957
863.826	1019
863.912	1342
863.999	736
864.086	679
864.172	1151
864.259	1713
864.345	939
864.432	1491
864.518	489
864.604	1195
864.691	522
864.777	1497
864.863	1641
864.950	1429
865.036	639
865.122	2291
865.209	3244
865.295	2791
865.381	2378
865.467	1844
865.553	2264
865.639	2049
865.726	4029
865.812	6675
865.898	11072
865.984	14578
866.070	28706
866.156	24989
866.242	5925
866.328	3164
866.414	1293
866.499	2364
866.585	1948
866.671	1596
866.757	2953
866.843	2389
866.928	1915
867.014	1456
867.100	3562
867.186	1206
867.271	2012
867.357	1984
867.442	2294
867.528	2433
867.614	1848
867.699	1913
867.785	1590
867.870	2785
867.956	1828
868.041	2399
868.127	1868
868.212	2020
868.297	1733
868.383	2831
868.468	2883
868.553	2411
868.639	3070
868.724	4799
868.809	4688
868.894	1831
868.979	1920
869.065	2001
869.150	813
869.235	1476
869.320	1447
869.405	1199
869.490	1261
869.575	1765
869.660	1038
869.745	1819
869.830	1052
869.915	1249
870.000	1322
870.085	1184
870.169	1693
870.254	1525
870.339	1360
870.424	876
870.509	1920
870.593	1706
870.678	2134
870.763	1627
870.847	838
870.932	1857
871.016	2345
871.101	718
871.186	1393
871.270	2232
871.355	496
871.439	1492
871.523	1008
871.608	598
871.692	1014
871.777	1971
871.861	1664
871.945	874
872.030	1575
872.114	1229
872.198	817
872.282	919
872.367	740
872.451	1142
872.535	1493
872.619	1141
872.703	679
872.787	1035
872.871	1509
872.955	920
873.039	1373
873.123	227
873.207	1379
873.291	1629
873.375	1553
873.459	1236
873.543	1019
873.627	1695
873.711	955
873.794	1524
873.878	-201
873.962	1109
874.045	1092
874.129	642
874.137	672
874.213	969
874.245	971
874.296	978
874.352	943
874.380	925
874.460	143
874.464	111
874.547	583
874.568	743
874.631	1222
874.676	1016
874.714	835
874.784	1058
874.798	1109
874.881	2417
874.892	2259
874.965	1128
874.999	1314
875.048	1595
875.107	1389
875.131	1289
875.215	705
875.215	705
875.298	1022
875.323	876
875.381	576
875.430	926
875.465	1176
875.538	1233
875.548	1230
875.631	254
875.646	290
875.714	485
875.753	683
875.798	954
875.861	1524
875.881	1699
875.964	1829
875.968	1769
876.047	638
876.076	767
876.130	1002
876.183	1147
876.213	1247
876.291	1473
876.296	1493
876.379	1251
876.398	1182
876.462	824
876.506	783
876.545	748
876.613	630
876.628	615
876.711	579
876.721	606
876.794	874
876.828	1156
876.877	1497
876.935	815
876.960	566
877.043	996
877.043	996
877.125	986
877.150	1095
877.208	1454
877.258	1021
877.291	750
877.365	1274
877.374	1314
877.456	1592
877.472	1440
877.539	816
877.579	908
877.622	1064
877.687	965
877.704	923
877.787	825
877.794	787
877.869	392
877.901	514
877.952	650
878.008	656
878.034	704
878.115	628
878.117	629
878.199	369
878.222	639
878.282	1193
878.329	1212
878.364	1240
878.437	1063
878.447	1032
878.529	239
878.544	351
878.611	945
878.651	1058
878.694	1194
878.758	1318
878.776	1320
878.858	490
878.865	501
878.941	642
878.972	454
879.023	188
879.078	424
879.105	508
879.185	304
879.187	308
879.269	1048
879.292	1029
879.351	529
879.399	587
879.433	738
879.506	773
879.516	766
879.598	431
879.613	449
879.680	793
879.720	925
879.762	1003
879.827	1038
879.844	985
879.926	971
879.933	956
880.007	889
880.040	754
880.089	686
880.147	870
880.171	923
880.253	1324
880.254	1324
880.335	962
880.360	953
880.417	1473
880.467	1805
880.499	2006
880.574	2866
880.580	2860
880.662	1526
880.680	1296
880.744	460
880.787	525
880.825	890
880.893	712
880.907	658
880.989	645
881.000	681
881.070	1067
881.106	1140
881.152	1101
881.213	909
881.233	867
881.315	996
881.319	986
881.396	826
881.426	634
881.478	143
881.532	447
881.559	730
881.639	486
881.641	474
881.722	765
881.745	597
881.803	331
881.852	256
881.885	312
881.958	1190
881.966	1248
882.047	1476
882.064	1407
882.129	911
882.171	697
882.210	743
882.277	1106
882.291	1160
882.372	1331
882.383	1241
882.454	604
882.489	679
882.535	814
882.596	1000
882.616	1004
882.697	605
882.702	563
882.778	172
882.808	252
882.859	173
882.914	143
882.940	278
883.020	275
883.021	274
883.102	588
883.127	547
883.183	479
883.233	644
883.264	737
883.339	754
883.345	760
883.426	885
883.445	868
883.507	550
883.551	421
883.587	519
883.657	982
883.668	1057
883.749	683
883.763	787
883.830	1040
883.869	886
883.910	767
883.975	809
883.991	778
884.072	573
884.081	554
884.152	786
884.187	843
884.233	947
884.292	907
884.314	716
884.394	308
884.398	281
884.475	-36
884.504	-8
884.555	763
884.610	981
884.636	688
884.716	535
884.716	539
884.797	759
884.821	783
884.877	778
884.927	853
884.958	755
885.033	231
885.038	222
885.118	294
885.139	274
885.199	334
885.244	454
885.279	630
885.350	1249
885.359	1287
885.439	1221
885.456	1174
885.520	868
885.561	783
885.600	669
885.667	440
885.680	483
885.760	1034
885.773	1023
885.840	932
885.878	1194
885.920	1304
885.984	975
886.000	876
886.080	886
886.089	867
886.160	1236
886.195	1352
886.240	1064
886.300	777
886.320	882
886.400	1172
886.406	1200
886.480	634
886.511	343
886.560	520
886.616	732
886.640	836
886.720	1371
886.722	1376
886.800	748
886.827	683
886.879	673
886.932	226
886.959	337
887.038	1101
887.039	1098
887.119	537
887.143	393
887.198	328
887.248	201
887.278	482
887.354	1298
887.358	1314
887.437	1607
887.459	1648
887.517	1177
887.564	834
887.596	892
887.669	948
887.676	919
887.755	591
887.774	501
887.835	619
887.880	779
887.914	746
887.985	545
887.994	574
888.073	863
888.090	917
888.153	1308
888.195	1597
888.232	1405
888.300	1065
888.311	1087
888.391	1162
888.405	1169
888.470	809
888.510	599
888.549	597
888.615	655
888.628	743
888.708	1175
888.720	1258
888.787	1105
888.825	949
888.866	713
888.930	428
888.945	469
889.024	642
889.035	669
889.103	696
889.140	714
889.182	735
889.245	763
889.261	806
889.340	999
889.349	1025
889.419	894
889.454	820
889.498	959
889.559	1161
889.577	1134
889.656	1017
889.664	1009
889.735	1209
889.768	1304
889.814	1357
889.873	1425
889.978	957
890.083	1476
890.187	894
890.292	859
890.397	177
890.501	1109
890.606	383
890.710	1745
890.815	1024
890.919	708
891.024	808
891.128	1334
891.233	843
891.337	1320
891.442	635
891.546	446
891.650	1290
891.755	163
891.859	2462
891.963	892
892.068	621
892.172	1313
892.276	926
892.380	1052
892.484	862
892.589	861
892.693	360
892.797	-102
892.901	597
893.005	1677
893.109	946
893.213	792
893.317	984
893.421	1285
893.525	172
893.629	983
893.733	268
893.837	188
893.941	767
894.045	1529
894.148	1121
894.252	3871
894.356	2273
894.460	1396
894.564	1209
894.667	-68
894.771	684
894.875	1342
894.978	291
895.082	95
895.186	1061
895.289	1188
895.393	1143
895.496	1090
895.600	80
895.703	516
895.807	1081
895.910	146
896.014	1116
896.117	843
896.221	619
896.324	904
896.427	836
896.531	613
896.634	359
896.737	1436
896.840	1085
896.944	280
897.047	633
897.150	504
897.253	-96
897.356	1104
897.460	206
897.563	532
897.666	549
897.769	352
897.872	7
897.975	1330
898.078	114
898.181	381
898.284	359
898.387	801
898.490	612
898.593	1241
898.695	390
898.798	861
898.901	490
899.004	1017
899.107	887
899.209	1362
899.312	818
899.415	34
899.518	367
899.620	318
899.723	997
899.826	1409
899.928	1312
900.031	947
900.133	614
900.236	-80
900.338	-3
900.441	1255
900.543	-192
900.646	560
900.748	456
900.851	1375
900.953	722
901.055	910
901.158	286
901.260	270
901.362	983
901.465	929
901.567	-86
901.669	132
901.771	800
901.873	471
901.976	630
902.078	979
902.180	587
902.282	661
902.384	-186
902.486	707
902.588	739
902.690	616
902.792	569
902.894	186
902.996	698
903.098	478
903.200	655
903.302	687
903.404	172
903.505	407
903.607	706
903.709	692
903.811	417
903.913	296
904.014	396
904.116	1230
904.218	29
904.319	962
904.421	1449
904.523	932
904.624	946
904.726	1261
904.827	847
904.929	-339
905.030	-7
905.132	1022
905.233	841
905.335	222
905.436	236
905.537	848
905.639	1187
905.740	1087
905.841	542
905.943	1179
906.044	1403
906.145	67
906.247	557
906.348	1130
906.449	570
906.550	941
906.651	1008
906.752	320
906.854	407
906.955	109
907.056	824
907.157	896
907.258	999
907.359	232
907.460	761
907.561	670
907.662	425
907.762	480
907.863	1142
907.964	568
908.065	955
908.166	1159
908.267	1027
908.367	772
908.468	523
908.569	710
908.670	992
908.770	1333
908.871	1425
908.971	1247
909.072	793
909.173	512
909.273	185
909.374	390
909.474	923
909.575	545
909.675	538
909.776	1366
909.876	1518
909.977	1328
910.077	1137
910.177	-86
910.278	730
910.378	158
910.478	1418
910.579	1128
910.679	543
910.779	1164
910.879	1505
910.980	1237
911.080	666
911.180	762
911.280	477
911.380	572
911.480	235
911.580	336
911.680	1322
911.780	959
911.880	359
911.980	924
912.080	580
912.180	407
912.280	644
912.380	587
912.480	1155
912.580	224
912.679	603
912.779	567
912.879	504
912.979	793
913.078	202
913.178	175
913.278	407
913.377	858
913.477	1003
913.577	413
913.676	546
913.776	838
913.875	1151
913.975	105
914.074	114
914.174	53
914.273	-378
914.373	917
914.472	111
914.572	-244
914.671	257
914.770	-359
914.870	95
914.969	525
915.068	151
915.167	341
915.267	930
915.366	376
915.465	197
915.564	479
915.663	799
915.763	341
915.862	-39
915.961	748
916.060	115
916.159	1078
916.258	125
916.357	535
916.456	394
916.555	1048
916.654	917
916.752	641
916.851	725
916.950	329
917.049	48
917.148	249
917.247	525
917.345	41
917.444	1150
917.543	-2
917.642	-53
917.740	674
917.839	82
917.937	1041
918.036	157
918.135	26
918.233	-273
918.332	374
918.430	12
918.529	-573
918.627	207
918.726	1224
918.824	275
918.923	76
919.021	248
919.119	193
919.218	898
919.316	-33
919.414	1413
919.512	408
919.611	250
919.709	698
919.807	961
919.905	791
920.003	315
920.102	565
920.200	438
920.298	757
920.396	811
920.494	566
920.592	573
920.690	691
920.788	296
920.886	179
920.984	1219
921.082	684
921.180	1363
921.277	533
921.375	309
921.473	556
921.571	931
921.669	837
921.766	440
921.864	948
921.962	744
922.060	804
922.157	806
922.255	891
922.352	964
922.450	345
922.548	905
922.645	1109
922.743	265
922.840	1859
922.938	1403
923.035	1015
923.133	1175
923.230	1067
923.327	1635
923.425	1619
923.522	2304
923.619	1168
923.717	1339
923.814	2029
923.911	1307
924.008	2522
924.106	1490
924.203	1477
924.300	1363
924.397	1516
924.494	1795
924.591	1308
924.688	1509
924.786	1220
924.883	2043
924.979	1379
925.077	2083
925.173	1457
925.270	1235
925.367	1871
925.464	2023
925.561	1837
925.658	1498
925.755	1446
925.852	683
925.948	1362
926.045	1772
926.142	1944
926.239	1224
926.335	1457
926.432	1424
926.529	1205
926.625	899
926.722	380
926.818	988
926.915	1420
927.011	1126
927.108	1115
927.204	1610
927.301	1263
927.397	1925
927.494	1683
927.590	1983
927.687	1019
927.783	1582
927.879	858
927.976	781
928.072	1211
928.168	883
928.264	980
928.361	865
928.457	1258
928.553	1237
928.649	1170
928.745	1553
928.841	773
928.937	1734
929.033	1010
929.129	1207
929.225	1436
929.321	1509
929.417	1386
929.513	1131
929.609	814
929.705	1147
929.801	1563
929.897	842
929.993	1062
930.089	1073
930.184	524
930.280	1210
930.376	1046
930.471	823
930.567	462
930.663	898
930.758	226
930.854	320
930.950	923
931.045	1019
931.141	630
931.236	1739
931.332	799
931.427	120
931.523	784
931.618	1262
931.714	1160
931.809	1496
931.905	2129
932.000	729
932.095	238
932.191	757
932.286	945
932.381	-85
932.476	574
932.572	1064
932.667	747
932.762	1017
932.857	66
932.952	1073
933.047	660
933.142	1002
933.237	433
933.332	771
933.427	1175
933.522	799
933.617	596
933.712	1394
933.807	881
933.902	1485
933.997	1846
934.092	1726
934.187	1135
934.282	1057
934.376	19
934.471	1070
934.566	1172
934.661	924
934.755	251
934.850	-158
934.945	1655
935.039	563
935.134	604
935.228	1775
935.323	801
935.417	388
935.512	502
935.606	177
935.701	588
935.795	670
935.890	379
935.984	556
936.079	3
936.173	252
936.267	141
936.362	990
936.456	1320
936.550	718
936.644	400
936.738	796
936.833	-22
936.927	773
937.021	1292
937.115	197
937.209	5
937.303	319
937.397	543
937.491	635
937.585	1514
937.679	1183
937.773	419
937.867	625
937.961	283
938.055	313
938.149	736
938.243	-276
938.337	552
938.430	-296
938.524	615
938.618	308
938.712	633
938.805	667
938.899	1281
938.993	1334
939.086	335
939.180	1038
939.274	227
939.367	976
939.461	295
939.554	155
939.648	-2
939.741	259
939.835	707
939.928	1088
940.022	1385
940.115	629
940.208	174
940.302	1472
940.395	632
940.488	-169
940.582	620
940.675	133
940.768	928
940.861	151
940.954	976
941.048	-56
941.141	49
941.234	688
941.327	618
941.420	1444
941.513	1002
941.606	313
941.699	29
941.792	1087
941.885	643
941.978	-279
942.071	-99
942.164	787
942.257	749
942.349	-332
942.442	738
942.535	-42
942.628	811
942.721	774
942.813	-358
942.906	1320
942.999	718
943.091	-29
943.184	-747
943.277	73
943.369	707
943.462	-2
943.554	141
943.647	-776
943.739	658
943.832	-260
943.924	-573
944.017	439
944.109	-139
944.201	417
944.294	117
944.386	-480
944.478	172
944.571	220
944.663	-238
944.755	-39
944.847	647
944.940	804
945.032	-231
945.124	214
945.216	1252
945.308	248
945.400	-77
945.492	480
945.584	543
945.676	444
945.768	289
945.860	226
945.952	196
946.044	8
946.136	152
946.228	415
946.320	-319
946.412	-508
946.503	148
946.595	1042
946.687	165
946.779	-186
946.870	406
946.962	-1037
947.054	-215
947.145	814
947.237	377
947.329	76
947.420	-234
947.512	-187
947.603	-402
947.695	518
947.786	-364
947.878	-100
947.969	727
948.061	-740
948.152	405
948.243	142
948.335	378
948.426	175
948.517	-220
948.609	54
948.700	-162
948.791	-197
948.882	245
948.973	-433
949.065	122
949.156	11
949.247	-65
949.338	754
949.429	-167
949.520	337
949.611	217
949.702	141
949.793	860
949.884	-373
949.975	316
950.066	-819
950.157	-46
950.247	274
950.338	3
950.429	-65
950.520	451
950.611	-305
950.701	-166
950.792	662
950.883	420
950.973	734
951.064	154
951.155	67
951.245	5
951.336	257
951.427	-511
951.517	499
951.608	266
951.698	-253
951.788	-90
951.879	351
951.969	144
952.060	-24
952.150	476
952.240	849
952.331	-919
952.421	1682
952.511	-988
952.602	-559
952.692	-438
952.782	698
952.872	-314
952.962	871
953.052	-269
953.143	-740
953.233	186
953.323	632
953.413	-257
953.503	819
953.593	98
953.683	-19
953.773	-774
953.863	744
953.953	54
954.042	-363
954.132	-956
954.222	732
954.312	-200
954.402	493
954.492	716
954.581	903
954.671	-475
954.761	165
954.850	1232
954.940	-278
955.030	-520
955.119	-55
955.209	-438
955.298	-788
955.388	-6
955.477	590
955.567	-713
955.656	379
955.746	-62
955.835	215
955.925	342
956.014	-42
956.103	-43
956.193	189
956.282	516
956.371	554
956.461	209
956.550	-712
956.639	113
956.728	-522
956.817	-414
956.906	208
956.995	296
957.085	-942
957.174	211
957.263	-387
957.352	96
957.441	819
957.530	-522
957.619	-238
957.708	131
957.796	-21
957.885	-180
957.974	-205
958.063	593
958.152	-138
958.241	63
958.329	208
958.418	-413
958.507	-603
958.596	1114
958.684	196
958.773	1081
958.861	22
958.950	929
959.039	593
959.127	898
959.216	884
959.304	-19
959.393	405
959.481	182
959.570	329
959.658	-31
959.746	360
959.835	1615
959.923	1785
960.011	-17
960.100	-107
960.188	165
960.276	-1176
960.365	-340
960.453	45
960.541	-173
960.629	-282
960.717	105
960.805	-95
960.893	548
960.981	47
961.069	611
961.158	8
961.245	447
961.333	-106
961.421	-197
961.509	169
961.597	217
961.685	-265
961.773	205
961.861	5
961.949	374
962.036	-247
962.124	1065
962.212	-642
962.299	-116
962.387	-681
962.475	114
962.562	-883
962.650	645
962.738	339
962.825	-623
962.913	431
963.000	311
963.088	-607
963.175	-619
963.263	320
963.350	-430
963.438	-191
963.525	-2
963.612	1103
963.700	3425
963.787	7527
963.874	2854
963.962	-13
964.049	-7
964.136	-537
964.223	-522
964.310	71
964.398	-659
964.485	-156
964.572	281
964.659	1282
964.746	1345
964.833	-337
964.920	-79
965.007	-209
965.094	-803
965.181	-822
965.268	-694
965.355	129
965.441	305
965.528	-832
965.615	87
965.702	72
965.789	-1132
965.875	567
965.962	-3
966.049	-158
966.136	-98
966.222	-795
966.309	-133
966.395	-505
966.482	595
966.569	-820
966.655	1008
966.742	-429
966.828	404
966.915	-499
967.001	-415
967.087	-958
967.174	-614
967.260	705
967.347	442
967.433	2615
967.519	5355
967.605	1478
967.692	-1315
967.778	-337
967.864	-334
967.950	-485
968.036	-242
968.123	-237
968.209	-444
968.295	-574
968.381	1227
968.467	-308
968.553	-678
968.639	841
968.725	-553
968.811	890
968.897	789
968.983	-181
969.069	-766
969.154	473
969.240	183
969.326	-760
969.412	-795
969.497	-699
969.583	-637
969.669	-201
969.755	451
969.840	43
969.926	524
970.012	134
970.097	182
970.183	-401
970.268	-15
970.354	295
970.439	-197
970.525	3337
970.610	-212
970.696	353
970.781	-861
970.866	-443
970.952	487
971.037	-267
971.122	-459
971.208	73
971.293	-681
971.378	-1183
971.463	-484
971.549	-345
971.634	47
971.719	143
971.804	-424
971.889	24
971.974	-1304
972.059	-496
972.144	50
972.229	-572
972.314	-401
972.399	-99
972.484	-392
972.569	365
972.654	-101
972.739	2328
972.824	499
972.908	-633
972.993	101
973.078	-901
973.163	-961
973.247	-561
973.332	-1580
973.417	323
973.501	-1295
973.586	-708
973.671	-102
973.755	-326
973.840	-20
973.924	83
974.009	-1139
974.093	105
974.178	332
974.262	558
974.346	103
974.431	289
974.515	-557
974.600	-201
974.684	-449
974.768	-1109
974.852	424
974.937	-1915
975.021	-95
975.105	-1373
975.189	-480
975.273	-323
975.358	-529
975.442	-1127
975.526	434
975.610	-1492
975.694	-1121
975.778	516
975.862	-1180
975.946	-2174
976.030	338
976.114	-914
976.198	77
976.281	-1098
976.365	-36
976.449	-801
976.533	-183
976.617	-1705
976.700	-954
976.784	-191
976.868	-175
976.951	-380
977.035	-546
977.119	-841
977.202	-1161
977.286	106
977.369	-126
977.453	212
977.536	-439
977.620	-259
977.703	13
977.787	-1488
977.870	197
977.953	203
978.037	-1670
978.120	57
978.203	27
978.287	745
978.370	-816
978.453	-834
978.536	-156
978.620	-201
978.703	73
978.786	-1109
978.869	-1736
978.952	-2005
979.035	418
979.118	-163
979.201	-826
979.284	138
979.367	-606
979.450	-502
979.533	-1446
979.616	-1370
979.699	-745
979.782	-263
979.865	-729
979.948	-165
980.030	-1579
980.113	-270
980.196	-880
980.279	-384
980.361	-878
980.444	-244
980.526	-942
980.609	-484
980.692	-678
980.774	-349
980.857	-1448
980.939	-230
981.022	-1418
981.104	-1005
981.187	-1300
981.269	-207
981.352	-1029
981.434	-1197
981.516	-1650
981.599	-82
981.681	-864
981.763	-285
981.846	-787
981.928	-1510
982.010	-1020
982.092	-1130
982.174	357
982.256	-1109
982.339	-1057
982.421	-699
982.503	-585
982.585	-1422
982.667	-921
982.749	-665
982.831	-562
982.913	-2024
982.995	-909
983.077	-1194
983.158	267
983.240	-1786
983.322	-792
983.404	468
983.486	-1604
983.568	-424
983.649	-468
983.731	-945
983.813	-384
983.894	100
983.976	-1184
984.058	-1146
984.139	40
984.221	-1401
984.302	-523
984.384	-940
984.465	-1281
984.547	-913
984.628	-1345
984.710	72
984.791	-495
984.872	-603
984.954	-736
985.035	-810
985.116	-1303
985.198	-694
985.279	291
985.360	-1305
985.441	-1739
985.522	-636
985.604	-1541
985.685	-1669
985.766	-176
985.847	601
985.928	-1525
986.009	-832
986.090	-1418
986.171	-325
986.252	-2177
986.333	-1079
986.414	-1092
986.495	-750
986.576	-975
986.656	-393
986.737	-985
986.818	-1002
986.899	-1371
986.980	-941
987.060	-98
987.141	-1163
987.222	-722
987.302	-114
987.383	-749
987.464	-1653
987.544	-553
987.625	-1673
987.705	-911
987.786	-977
987.866	-744
987.947	-1441
988.027	-1512
988.108	-862
988.188	-204
988.268	-642
988.349	-1267
988.429	-720
988.509	-40
988.589	-490
988.670	-2239
988.750	-27
988.830	-975
988.910	-935
988.990	-2206
989.070	-1723
989.151	-1117
989.231	-1112
989.311	-736
989.391	-1727
989.471	-535
989.551	-1679
989.631	-1400
989.711	29
989.791	-1210
989.870	-1773
989.950	64
990.030	-2183
990.110	-1726
990.190	-667
990.269	-975
990.349	-1208
990.429	-962
990.509	-346
990.588	-860
990.668	-783
990.747	-1552
990.827	-639
990.907	-641
990.986	-1347
991.066	-1474
991.145	-623
991.225	-526
991.304	-1370
991.383	-1286
991.463	-839
991.542	-1036
991.622	-1084
991.701	-1380
991.780	-526
991.859	-616
991.939	-934
992.018	-1203
992.097	-1219
992.176	-1192
992.256	-1698
992.335	-903
992.414	460
992.493	-1001
992.572	-824
992.651	-1051
992.730	-1092
992.809	-894
992.888	-1017
992.967	-1216
993.046	-687
993.125	-2126
993.203	-398
993.282	-1487
993.361	-445
993.440	-788
993.519	-2681
993.597	-1559
993.676	-1143
993.755	-388
993.834	-642
993.912	-1465
993.991	222
994.069	-1339
994.148	-1003
994.226	-1518
994.305	-1300
994.384	-1440
994.462	-440
994.540	-1795
994.619	-1619
994.697	-645
994.776	-2466
994.854	-298
994.932	-1711
995.011	-1395
995.089	-1600
995.167	-209
995.245	-1411
995.324	-1589
995.402	-422
995.480	-782
995.558	-786
995.636	-1101
995.714	-1521
995.792	-840
995.870	-1871
995.948	-539
996.026	-26
996.104	-2166
996.182	-1
996.260	-1420
996.338	-708
996.416	-2028
996.494	-1280
996.572	-360
996.649	-1161
996.727	-2090
996.805	-1057
996.883	-1375
996.960	-1963
997.038	-1020
997.116	-1110
997.193	-1804
997.271	-850
997.348	-1438
997.426	-1196
997.504	-1065
997.581	-765
997.658	-807
997.736	-2617
997.813	-1704
997.891	-69
997.968	-901
998.046	-1853
998.123	-594
998.200	-1159
998.277	-1941
998.355	-948
998.432	-2347
998.509	-1496
998.586	-381
998.663	-934
998.741	-1282
998.818	-406
998.895	-1978
998.972	-1513
999.049	-1233
999.126	-1517
999.203	-598
999.280	-936
999.357	-1920
999.434	-519
999.511	-468
999.587	-31
999.664	-1527
999.741	-1020
999.818	-1078
999.895	-959
999.971	-1567
1000.048	-1025
1000.125	-345
1000.202	-1936
1000.278	-1306
1000.355	84
1000.431	-1513
1000.508	-1554
1000.584	-1017
1000.661	-752
1000.738	-1560
1000.814	-2114
1000.890	-852
1000.967	-448
1001.043	-810
1001.120	-2546
1001.196	-1167
1001.272	-2248
1001.349	-1433
1001.425	-729
1001.501	-1046
1001.577	-1823
1001.654	-1324
1001.730	-1150
1001.806	-1293
1001.882	-2590
1001.958	-1512
1002.034	-968
1002.110	-1268
1002.186	-2267
1002.262	-1120
1002.338	-2910
1002.414	-1535
1002.490	-946
1002.566	-2109
1002.642	-2163
1002.718	33
1002.794	-831
1002.870	-1262
1002.945	-1253
1003.021	-1636
1003.097	-1301
1003.173	-417
1003.248	-1497
1003.324	-1238
1003.400	-1299
1003.475	-1907
1003.551	-1027
1003.626	-1207
1003.702	-1608
1003.777	-1151
1003.853	-1048
1003.928	-1207
1004.004	-1459
1004.079	-1807
1004.155	-1615
1004.230	-2708
1004.305	-67
1004.381	-1224
1004.456	-1207
1004.531	-1642
1004.607	-1435
1004.682	-1362
1004.757	-2016
1004.832	-985
1004.907	-1308
1004.982	-920
1005.057	-1121
1005.133	-2001
1005.208	-1798
1005.283	-1303
1005.358	-996
1005.433	-1691
1005.508	-1150
1005.583	-2774
1005.657	-1795
1005.732	-470
1005.807	-1445
1005.882	-1004
1005.957	-1473
1006.032	-1238
1006.106	-1572
1006.181	-2024
1006.256	-1138
1006.331	-1340
1006.405	-1479
1006.480	-1219
1006.554	-2333
1006.629	-1305
1006.704	-1189
1006.778	-1338
1006.853	-1023
1006.927	-2079
1007.002	-1660
1007.076	-1384
1007.150	-1880
1007.225	-1611
1007.299	-1277
1007.373	-2183
1007.448	-994
1007.522	-1188
1007.596	-1132
1007.671	-1850
1007.745	-1121
1007.819	-1832
1007.893	-1323
1007.967	-1335
1008.041	-2360
1008.115	-1038
1008.190	-2804
1008.264	-1315
1008.338	-2487
1008.412	-2092
1008.486	-1647
1008.560	-1489
1008.633	-1937
1008.707	-2432
1008.781	-68
1008.855	-1730
1008.929	-2074
1009.003	-1838
1009.076	-1754
1009.150	-2192
1009.224	-1192
1009.298	-921
1009.371	-2068
1009.445	-891
1009.519	-2084
1009.592	-2393
1009.666	-1231
1009.739	-1556
1009.813	-3246
1009.886	-352
1009.960	-2324
1010.033	-1973
1010.107	-1291
1010.180	-2093
1010.253	-2028
1010.327	-2194
1010.400	-1688
1010.473	-1688
1010.547	-521
1010.620	-1617
1010.693	-1433
1010.766	-1971
1010.840	-1719
1010.913	-1426
1010.986	-1661
1011.059	-484
1011.132	-2080
1011.205	-764
1011.278	-2077
1011.351	-1927
1011.424	-1532
1011.497	-1632
1011.570	-1121
1011.643	-1914
1011.716	-2550
1011.789	-1566
1011.862	-1642
1011.934	-1066
1012.007	-2836
1012.080	-2237
1012.153	-1562
1012.225	-976
1012.298	-1290
1012.371	-2641
1012.443	-1073
1012.516	-2460
1012.588	-1177
1012.661	-1700
1012.733	-2587
1012.806	-1566
1012.879	-1862
1012.951	-2258
1013.023	-2083
1013.096	-2370
1013.168	-1823
1013.241	-751
1013.313	-1611
1013.385	-2420
1013.458	-853
1013.530	-413
1013.602	-2345
1013.674	-1478
1013.746	-1771
1013.819	-2033
1013.891	-1096
1013.963	-2342
1014.035	-1166
1014.107	-1421
1014.179	-1221
1014.251	-2164
1014.323	-1352
1014.395	-1888
1014.467	-1963
1014.539	-1436
1014.611	-1934
1014.683	-1465
1014.754	-1444
1014.826	-1667
1014.898	-1504
1014.970	-1902
1015.042	-1149
1015.113	-1697
1015.185	-1340
1015.257	-2114
1015.328	-1829
1015.400	-2867
1015.471	-1981
1015.543	-2094
1015.615	-1458
1015.686	-2676
1015.757	-2384
1015.829	-1487
1015.901	-1602
1015.972	-2300
1016.043	-1826
1016.115	-1241
1016.186	-2309
1016.257	-2567
1016.328	-697
1016.400	-1380
1016.471	-1390
1016.542	-2319
1016.613	-1341
1016.685	-2026
1016.756	-2105
1016.827	-1694
1016.898	-2193
1016.969	-1060
1017.040	-2930
1017.111	-2238
1017.182	-1332
1017.253	-1160
1017.324	-1825
1017.395	-1182
1017.466	-2081
1017.537	-2267
1017.608	-1356
1017.678	-482
1017.749	-1490
1017.820	-1758
1017.891	-2419
1017.961	-1486
1018.032	-1542
1018.103	-2133
1018.173	-1740
1018.244	-1993
1018.315	-2685
1018.385	-1558
1018.456	-1442
1018.526	-1934
1018.597	-1159
1018.667	-2160
1018.738	-1345
1018.808	-1803
1018.878	-1198
1018.949	-2287
1019.019	-1782
1019.089	-1983
1019.160	-1897
1019.230	-1848
1019.300	-906
1019.371	-1703
1019.441	-1732
1019.511	-1693
1019.581	-2217
1019.651	-2245
1019.721	-805
1019.791	-3152
1019.861	-2267
1019.931	-1833
1020.001	-2794
1020.071	-1924
1020.141	-1978
1020.211	-1585
1020.281	-2292
1020.351	-1809
1020.421	-2491
1020.491	-945
1020.560	-2478
1020.630	-2308
1020.700	-1713
1020.770	-1725
1020.839	-1480
1020.909	-2563
1020.979	-1423
1021.048	-1510
1021.118	-2345
1021.187	-2136
1021.257	-1661
1021.326	-1132
1021.396	-2249
1021.465	-1725
1021.535	-1969
1021.604	-2382
1021.674	-2278
1021.743	-1316
1021.812	-1131
1021.882	-2288
1021.951	-2363
1022.020	-2298
1022.089	-1822
1022.159	-1684
1022.228	-821
1022.297	-1578
1022.366	-1937
1022.435	-1625
1022.504	-2155
1022.573	-2751
1022.642	-1781
1022.711	-2614
1022.781	-1342
1022.849	-2204
1022.918	-1336
1022.987	-3075
1023.056	-1778
1023.125	-1794
1023.194	-1370
1023.263	-1848
1023.331	-1858
1023.400	-2115
1023.469	-1934
1023.538	-1656
1023.606	-2163
1023.675	-1660
1023.744	-2360
1023.812	-2211
1023.881	-1764
1023.949	-1347
1024.018	-2290
1024.086	-1911
1024.155	-2365
1024.223	-1882
1024.292	-996
1024.360	-1890
1024.429	-1445
1024.497	-2044
1024.565	-1165
1024.634	-1789
1024.702	-2270
1024.770	-2195
1024.838	-2041
1024.907	-1260
1024.975	-1285
1025.043	-1057
1025.111	-1899
1025.179	-1575
1025.247	-2473
1025.315	-2027
1025.383	-1839
1025.451	-2362
1025.519	-2330
1025.587	-1660
1025.655	-1881
1025.723	-2595
1025.791	-1836
1025.859	-2058
1025.927	-1822
1025.995	-1937
1026.062	-1868
1026.130	-1467
1026.198	-2463
1026.266	-2697
1026.333	-1327
1026.401	-1683
1026.469	-1857
1026.536	-1157
1026.604	-1578
1026.671	-2023
1026.739	-1959
1026.806	-1289
1026.874	-1199
1026.941	-2112
1027.009	-1570
1027.076	-2152
1027.144	-1350
1027.211	-2634
1027.278	-1765
1027.345	-1626
1027.413	-1706
1027.480	-1576
1027.547	-1771
1027.614	-2874
1027.682	-1457
1027.749	-2254
1027.816	-2013
1027.883	-1575
1027.950	-2107
1028.017	-2145
1028.084	-1684
1028.151	-1977
1028.218	-1869
1028.285	-1210
1028.352	-2803
1028.419	-1666
1028.486	-2232
1028.553	-1502
1028.619	-3053
1028.686	-1909
1028.753	-1338
1028.820	-2699
1028.886	-1509
1028.953	-1674
1029.020	-1948
1029.086	-2125
1029.153	-2332
1029.220	-2042
1029.286	-2184
1029.353	-1181
1029.419	-1778
1029.486	-1377
1029.552	-1282
1029.619	-1795
1029.685	-1071
1029.751	-1813
1029.818	-1415
1029.884	-2012
1029.951	-675
1030.017	-2726
1030.083	-1988
1030.149	-1950
1030.216	-1917
1030.282	-1325
1030.348	-1389
1030.414	-2469
1030.480	-2428
1030.546	-1861
1030.612	-1541
1030.678	-1943
1030.744	-2082
1030.810	-1946
1030.876	-2527
1030.942	-2290
1031.008	-2040
1031.074	-2372
1031.140	-1513
1031.206	-1662
1031.272	-2115
1031.337	-1548
1031.403	-1941
1031.469	-2630
1031.534	-2093
1031.600	-1422
1031.666	-2026
1031.731	-1810
1031.797	-2240
1031.863	-1691
1031.928	-2374
1031.994	-2053
1032.059	-1735
1032.125	-2250
1032.190	-1558
1032.256	-2328
1032.321	-2291
1032.386	-2001
1032.452	-1581
1032.517	-1426
1032.582	-2582
1032.647	-1017
1032.713	-1304
1032.778	-1986
1032.843	-2112
1032.908	-1698
1032.974	-1722
1033.039	-1940
1033.104	-1859
1033.169	-2718
1033.234	-1977
1033.299	-2098
1033.364	-1915
1033.429	-2216
1033.494	-913
1033.559	-1805
1033.624	-2266
1033.688	-1446
1033.753	-2664
1033.818	-1724
1033.883	-1862
1033.948	-1998
1034.013	-1730
1034.077	-1723
1034.142	-1225
1034.207	-1505
1034.271	-930
1034.336	-1617
1034.400	-875
1034.465	-1121
1034.530	-1532
1034.594	-1865
1034.658	-2092
1034.723	-2310
1034.787	-1708
1034.852	-1828
1034.916	-1000
1034.981	-2221
1035.045	-1445
1035.109	-1800
1035.173	-1878
1035.238	-2401
1035.302	-1811
1035.366	-2533
1035.430	-847
1035.495	-1478
1035.559	-1538
1035.623	-1730
1035.687	-2198
1035.751	-2007
1035.815	-2009
1035.879	-2230
1035.943	-2438
1036.007	-2325
1036.071	-1972
1036.135	-1791
1036.198	-1814
1036.262	-1663
1036.326	-2159
1036.390	-1706
1036.454	-2464
1036.517	-1841
1036.581	-1530
1036.645	-2223
1036.709	-1556
1036.772	-2768
1036.836	-2031
1036.900	-2194
1036.963	-2196
1037.026	-1602
1037.090	-1979
1037.154	-1894
1037.217	-1992
1037.280	-3147
1037.344	-1840
1037.407	-2215
1037.471	-1543
1037.534	-2878
1037.597	-2058
1037.661	-2372
1037.724	-2921
1037.787	-1769
1037.850	-1770
1037.913	-2483
1037.977	-1141
1038.040	-2380
1038.103	-1548
1038.166	-1947
1038.229	-2107
1038.292	-2143
1038.355	-2327
1038.418	-2076
1038.481	-1440
1038.544	-1459
1038.607	-2275
1038.670	-1745
1038.732	-1935
1038.795	-1866
1038.858	-2333
1038.921	-1813
1038.984	-1568
1039.046	-2044
1039.109	-1872
1039.172	-2370
1039.234	-2883
1039.297	-2399
1039.360	-2607
1039.422	-1895
1039.485	-2588
1039.547	-2735
1039.610	-2686
1039.672	-1478
1039.734	-1677
1039.797	-2164
1039.859	-2106
1039.922	-2431
1039.984	-2668
1040.046	-2606
1040.109	-1385
1040.171	-2240
1040.233	-1459
1040.295	-2531
1040.358	-2201
1040.420	-2288
1040.482	-1504
1040.544	-3081
1040.606	-1140
1040.668	-1990
1040.730	-1938
1040.792	-3049
1040.854	-1688
1040.916	-2251
1040.978	-2034
1041.040	-1961
1041.102	-2107
1041.164	-2667
1041.225	-2235
1041.287	-2129
1041.349	-2015
1041.411	-2089
1041.472	-1679
1041.534	-2295
1041.596	-2944
1041.657	-1595
1041.719	-2214
1041.781	-2738
1041.842	-1822
1041.904	-1927
1041.965	-1745
1042.027	-2231
1042.088	-1282
1042.150	-2312
1042.211	-2025
1042.272	-1710
1042.334	-2590
1042.395	-1956
1042.456	-1997
1042.518	-2542
1042.579	-2177
1042.640	-1895
1042.701	-2775
1042.763	-2109
1042.824	-2791
1042.885	-2725
1042.946	-1522
1043.007	-2485
1043.068	-2464
1043.129	-1925
1043.190	-2796
1043.251	-1818
1043.312	-2078
1043.373	-1414
1043.434	-1908
1043.495	-1304
1043.556	-1315
1043.616	-2183
1043.677	-1995
1043.738	-1252
1043.799	-1968
1043.859	-1945
1043.920	-2166
1043.981	-2085
1044.041	-2178
1044.102	-2495
1044.162	-2091
1044.223	-2689
1044.284	-2604
1044.344	-2235
1044.405	-2388
1044.465	-2380
1044.525	-1978
1044.586	-1995
1044.646	-2076
1044.707	-1525
1044.767	-985
1044.827	-1827
1044.887	-2288
1044.948	-1396
1045.008	-1780
1045.068	-1746
1045.128	-1580
1045.188	-1537
1045.249	-1691
1045.309	-2172
1045.369	-1528
1045.429	-2306
1045.489	-1597
1045.549	-1736
1045.609	-2368
1045.669	-2141
1045.729	-1874
1045.789	-1485
1045.848	-2164
1045.908	-1368
1045.968	-1799
1046.028	-2370
1046.088	-441
1046.147	-1608
1046.207	-1552
1046.267	-2032
1046.326	-1134
1046.386	-1669
1046.446	-1375
1046.505	-1142
1046.565	-1020
1046.624	-1355
1046.684	-1596
1046.743	-1138
1046.803	-414
1046.862	-539
1046.922	0
