'Start Wavelength	183.907
'End Wavelength	1046.922
'Gate Delay	5.000
'Gate Width (ms)	1.050
'Laser Output Level	0.000
'X Position	0.000
'Y Position	0.000
'Z Position	0.000
'Grid Point Number	1.000
'Shot Number	100.000
183.907	849.000
183.977	-270.000
184.047	100
184.116	234
184.186	410
184.256	117
184.325	383
184.395	-796
184.465	825
184.534	686
184.604	-305
184.674	369
184.743	-241
184.813	27
184.883	569
184.952	-176
185.022	269
185.092	228
185.161	728
185.231	115
185.301	561
185.370	-437
185.440	713
185.509	-3
185.579	229
185.649	151
185.718	609
185.788	81
185.857	12
185.927	-50
185.996	419
186.066	-115
186.136	196
186.205	490
186.275	-418
186.344	-304
186.414	-633
186.483	-375
186.553	709
186.622	1171
186.692	-57
186.761	218
186.831	106
186.900	-135
186.970	239
187.039	348
187.109	1517
187.178	-252
187.248	493
187.317	350
187.387	248
187.456	383
187.526	855
187.595	421
187.664	425
187.734	921
187.803	682
187.873	698
187.942	1320
188.012	-113
188.081	688
188.150	732
188.220	719
188.289	585
188.358	1110
188.428	944
188.497	646
188.567	966
188.636	1505
188.705	523
188.775	536
188.844	-103
188.913	1309
188.983	624
189.052	452
189.121	-487
189.191	433
189.260	1026
189.329	1218
189.399	541
189.468	506
189.537	213
189.606	1329
189.676	1120
189.745	965
189.814	515
189.883	929
189.953	553
190.022	1976
190.091	2742
190.161	3646
190.230	2043
190.299	1057
190.368	364
190.437	465
190.507	362
190.576	610
190.645	644
190.714	976
190.783	-472
190.853	1654
190.922	1324
190.991	929
191.060	289
191.129	-373
191.198	294
191.268	705
191.337	1096
191.406	1604
191.475	584
191.544	654
191.613	681
191.682	144
191.752	891
191.821	44
191.890	58
191.959	863
192.028	163
192.097	211
192.166	499
192.235	283
192.304	1064
192.373	-55
192.442	302
192.511	-30
192.580	409
192.650	646
192.719	265
192.788	469
192.857	177
192.926	563
192.995	1065
193.064	907
193.133	1235
193.202	2117
193.271	2337
193.340	2430
193.409	1736
193.478	2233
193.547	1717
193.615	4146
193.684	3308
193.753	2169
193.822	1411
193.891	1733
193.960	847
194.029	1581
194.098	1160
194.167	821
194.236	1057
194.305	435
194.374	735
194.443	1027
194.512	662
194.580	1789
194.649	1858
194.718	2111
194.787	862
194.856	802
194.925	1155
194.994	1335
195.062	1421
195.131	1417
195.200	1721
195.269	2355
195.338	1441
195.407	376
195.475	1042
195.544	1825
195.613	1695
195.682	1131
195.751	1592
195.819	1772
195.888	1634
195.957	2121
196.026	2733
196.094	2853
196.163	2703
196.232	2152
196.301	829
196.369	1275
196.438	1548
196.507	1948
196.576	1523
196.644	515
196.713	874
196.782	1097
196.850	1592
196.919	1198
196.988	1291
197.056	1169
197.125	1853
197.194	1582
197.262	427
197.331	804
197.400	809
197.468	734
197.537	643
197.606	1040
197.674	1440
197.743	3262
197.812	1390
197.880	3011
197.949	3276
198.017	2718
198.086	2458
198.155	1918
198.223	2102
198.292	3403
198.360	2735
198.429	1217
198.497	1374
198.566	2534
198.635	4245
198.703	2808
198.772	1368
198.840	3884
198.909	4293
198.977	2194
199.046	1723
199.114	1244
199.183	1362
199.251	1172
199.320	1132
199.388	1520
199.457	1532
199.525	1425
199.594	1059
199.662	789
199.731	832
199.799	690
199.867	957
199.936	1058
200.004	1301
200.073	1526
200.141	730
200.210	1361
200.278	1084
200.346	2056
200.415	1721
200.483	1787
200.552	1843
200.620	984
200.688	1008
200.757	1702
200.825	1704
200.893	1187
200.962	1634
201.030	550
201.098	1423
201.167	1962
201.235	1251
201.303	1766
201.372	2032
201.440	1329
201.508	2791
201.577	1348
201.645	916
201.713	1275
201.781	2068
201.850	2999
201.918	1990
201.986	1660
202.055	2117
202.123	1978
202.191	1119
202.259	1290
202.327	1588
202.396	1834
202.464	1810
202.532	3151
202.600	6012
202.669	4859
202.737	1923
202.805	2314
202.873	1620
202.941	2485
203.009	1259
203.078	1535
203.146	1941
203.214	1297
203.282	948
203.350	1276
203.418	1253
203.487	2111
203.555	880
203.623	2129
203.691	1605
203.759	1022
203.827	734
203.895	2314
203.963	2254
204.031	1712
204.099	1316
204.168	1882
204.236	1724
204.304	2367
204.372	1547
204.440	1675
204.508	881
204.576	1924
204.644	1648
204.712	1821
204.780	1575
204.848	1714
204.916	1416
204.984	1560
205.052	2264
205.120	1789
205.188	1870
205.256	1577
205.324	1555
205.392	1682
205.460	2194
205.528	2473
205.596	1260
205.664	1467
205.732	1638
205.799	4266
205.867	7493
205.935	2132
206.003	2062
206.071	1782
206.139	2019
206.207	2205
206.275	1881
206.343	2051
206.411	1987
206.478	2096
206.546	2226
206.614	1910
206.682	2414
206.750	2438
206.818	1848
206.885	2811
206.953	1109
207.021	3585
207.089	2088
207.157	1768
207.225	1963
207.292	1197
207.360	1410
207.428	2279
207.496	2224
207.563	2356
207.631	2411
207.699	1752
207.767	2339
207.834	2229
207.902	2436
207.970	2114
208.038	2395
208.105	1648
208.173	2076
208.241	2995
208.309	2910
208.376	3598
208.444	4809
208.512	3720
208.579	1301
208.647	2976
208.715	2816
208.782	2984
208.850	2678
208.918	2057
208.985	2349
209.053	2977
209.120	2396
209.188	1925
209.256	1937
209.323	1847
209.391	3332
209.459	3578
209.526	2710
209.594	2135
209.661	1650
209.729	2339
209.796	2938
209.864	2499
209.932	1622
209.999	3397
210.067	3251
210.134	2540
210.202	2562
210.269	4320
210.337	2994
210.404	3292
210.472	2359
210.539	2858
210.607	2643
210.674	3123
210.742	2760
210.809	3174
210.877	2711
210.944	4358
211.012	1697
211.079	4812
211.146	2976
211.214	2418
211.281	3513
211.349	3608
211.416	2597
211.484	3532
211.551	2006
211.618	1939
211.686	2965
211.753	2214
211.821	3406
211.888	2595
211.955	3137
212.023	3159
212.090	3217
212.157	3115
212.225	3706
212.292	5656
212.359	9788
212.427	18747
212.494	10923
212.561	5902
212.629	4548
212.696	3678
212.763	3503
212.831	2909
212.898	3925
212.965	3246
213.032	4002
213.100	4305
213.167	3269
213.234	4097
213.301	3061
213.369	2911
213.436	3125
213.503	3040
213.570	3182
213.638	4107
213.705	2949
213.772	2766
213.839	2797
213.906	3970
213.973	4107
214.041	3475
214.108	3393
214.175	3528
214.242	3151
214.309	4108
214.376	3639
214.444	4314
214.511	4163
214.578	3571
214.645	4149
214.712	4132
214.779	4482
214.846	4667
214.913	4174
214.980	5532
215.048	4849
215.115	6387
215.182	4549
215.249	4553
215.316	3664
215.383	4650
215.450	3833
215.517	3457
215.584	3419
215.651	3168
215.718	3342
215.785	4188
215.852	3993
215.919	5092
215.986	4553
216.053	3227
216.120	2935
216.187	3930
216.254	3995
216.321	4257
216.388	4394
216.455	4679
216.522	5280
216.589	5812
216.656	8295
216.722	7831
216.789	6263
216.856	5416
216.923	4606
216.990	5522
217.057	5561
217.124	6828
217.191	6053
217.258	6426
217.324	7637
217.391	8393
217.458	7283
217.525	5085
217.592	4301
217.659	3698
217.725	5780
217.792	5069
217.859	5938
217.926	5115
217.993	3799
218.059	4453
218.126	3598
218.193	3626
218.260	2853
218.327	3616
218.393	3553
218.460	3146
218.527	2657
218.594	2923
218.660	5957
218.727	7576
218.794	3455
218.860	3827
218.927	1781
218.994	2805
219.061	2928
219.127	4790
219.194	5883
219.261	3785
219.327	1876
219.394	3434
219.461	1460
219.527	2978
219.594	3981
219.661	3452
219.727	2854
219.794	2731
219.860	1905
219.927	4934
219.994	6595
220.060	8287
220.127	5759
220.193	4548
220.260	4870
220.326	7457
220.393	9791
220.460	12271
220.526	7777
220.593	6418
220.659	7414
220.726	5980
220.792	12544
220.859	12092
220.925	14851
220.992	18967
221.058	17789
221.125	16831
221.191	13332
221.258	6663
221.324	6515
221.391	5165
221.457	5486
221.524	4551
221.590	5915
221.657	13164
221.723	10335
221.789	10445
221.856	8723
221.922	5624
221.989	4710
222.055	4048
222.121	3699
222.188	6022
222.254	3682
222.321	3295
222.387	3119
222.453	2476
222.520	2777
222.586	2829
222.652	3129
222.719	2731
222.785	6032
222.851	3546
222.918	3639
222.984	4509
223.050	5414
223.116	2421
223.183	3564
223.249	1941
223.315	2539
223.382	3042
223.448	3207
223.514	2208
223.580	2039
223.647	3281
223.713	2324
223.779	2611
223.845	2907
223.911	3247
223.978	2276
224.044	3361
224.110	2123
224.176	3063
224.242	3359
224.309	2434
224.375	2868
224.441	3022
224.507	2788
224.573	2083
224.639	2693
224.705	2140
224.772	2796
224.838	2921
224.904	4476
224.970	2562
225.036	2143
225.102	3167
225.168	3650
225.234	3631
225.300	2104
225.366	3130
225.432	2731
225.499	2995
225.565	2904
225.631	3702
225.697	4216
225.763	4934
225.829	5263
225.895	5418
225.961	7548
226.027	6860
226.093	5821
226.159	7991
226.225	10347
226.291	18887
226.357	28048
226.423	18983
226.489	11770
226.554	8360
226.620	8174
226.686	9069
226.752	14563
226.818	19717
226.884	34346
226.950	31056
227.016	16054
227.082	10786
227.148	8231
227.214	8149
227.279	6443
227.345	5623
227.411	5512
227.477	5866
227.543	9665
227.609	10248
227.674	7913
227.740	5333
227.806	5297
227.872	4511
227.938	4751
228.003	6453
228.069	4165
228.135	3168
228.201	3603
228.267	3748
228.332	4809
228.398	5644
228.464	4971
228.530	2401
228.595	3431
228.661	3204
228.727	4905
228.792	6381
228.858	3633
228.924	3028
228.990	5614
229.055	4523
229.121	5777
229.187	3547
229.252	3819
229.318	2975
229.384	4426
229.449	5305
229.515	2150
229.581	1760
229.646	3976
229.712	4744
229.777	7333
229.843	9610
229.909	7235
229.974	7843
230.040	7321
230.105	5456
230.171	6144
230.236	7931
230.302	10631
230.368	8896
230.433	4655
230.499	5275
230.564	6583
230.630	4940
230.695	4058
230.761	3777
230.826	3567
230.892	6415
230.957	3793
231.023	3413
231.088	4275
231.154	4649
231.219	4247
231.284	5557
231.350	6181
231.415	3659
231.481	4495
231.546	4068
231.612	3407
231.677	3349
231.742	2985
231.808	4423
231.873	2568
231.939	2649
232.004	7379
232.069	7142
232.135	4235
232.200	3439
232.265	3837
232.331	3028
232.396	3118
232.461	2705
232.527	2684
232.592	2051
232.657	4412
232.723	6893
232.788	6008
232.853	4759
232.918	4032
232.984	2512
233.049	2886
233.114	5787
233.179	6845
233.245	7591
233.310	9881
233.375	4255
233.440	4152
233.506	2975
233.571	3150
233.636	3869
233.701	4205
233.766	6830
233.832	9817
233.897	4683
233.962	4406
234.027	7158
234.092	5735
234.157	4932
234.222	4525
234.288	6702
234.353	17821
234.418	18757
234.483	12111
234.548	9692
234.613	6825
234.678	6902
234.743	7714
234.808	19711
234.873	13691
234.938	7585
235.004	5679
235.069	6468
235.134	4908
235.199	5709
235.264	4542
235.329	3389
235.394	5060
235.459	6868
235.524	6048
235.589	6207
235.654	4325
235.719	4602
235.784	5027
235.849	5401
235.913	10833
235.978	12422
236.043	14656
236.108	7094
236.173	5750
236.238	7535
236.303	5389
236.368	5572
236.433	7740
236.498	13408
236.563	10113
236.627	16397
236.692	43924
236.757	40350
236.822	19873
236.887	16215
236.952	12495
237.017	9448
237.081	11177
237.146	12415
237.211	25026
237.276	43679
237.341	66373
237.405	40982
237.470	18703
237.535	15688
237.600	9488
237.664	9280
237.729	6565
237.794	8883
237.859	16737
237.923	13688
237.988	8003
238.053	11524
238.118	11716
238.182	22122
238.247	23124
238.312	12578
238.376	9835
238.441	7334
238.506	8016
238.570	4695
238.635	5662
238.700	4587
238.764	4874
238.829	10333
238.893	13836
238.958	9320
239.023	7210
239.087	6124
239.152	6609
239.216	4584
239.281	4857
239.346	5470
239.410	5030
239.475	6198
239.539	21430
239.604	19010
239.668	7812
239.733	5605
239.797	7495
239.862	15415
239.926	20898
239.991	10467
240.055	6102
240.120	5238
240.184	5863
240.249	4878
240.313	4997
240.378	5283
240.442	13535
240.507	22153
240.571	9075
240.635	10901
240.700	15283
240.764	7882
240.829	5186
240.893	3416
240.957	5464
241.022	12139
241.086	23620
241.151	13182
241.215	5487
241.279	7982
241.344	13091
241.408	9091
241.472	6373
241.537	8013
241.601	7658
241.665	5217
241.730	5649
241.794	7413
241.858	5255
241.922	6523
241.987	6738
242.051	5917
242.115	5122
242.179	6084
242.244	4207
242.308	5832
242.372	6424
242.436	8526
242.501	7206
242.565	5487
242.629	4966
242.693	5595
242.757	3945
242.822	5615
242.886	6487
242.950	6453
243.014	6467
243.078	8393
243.142	8334
243.206	6784
243.271	7482
243.335	7035
243.399	10671
243.463	27279
243.527	67037
243.591	26473
243.655	13162
243.719	8333
243.783	9034
243.847	13196
243.911	16714
243.975	20942
244.040	15696
244.104	10368
244.168	7266
244.232	11702
244.296	15402
244.360	15113
244.424	10278
244.488	8793
244.552	7717
244.615	5814
244.679	5557
244.743	7178
244.807	8759
244.871	5900
244.935	5096
244.999	4067
245.063	6135
245.127	8457
245.191	10671
245.255	11667
245.319	9225
245.383	8345
245.446	7516
245.510	6219
245.574	6880
245.638	7075
245.702	6464
245.766	15034
245.829	11174
245.893	8188
245.957	6076
246.021	7965
246.085	7568
246.149	10630
246.212	19731
246.276	28204
246.340	15038
246.404	12357
246.467	9849
246.531	15484
246.595	11540
246.659	10921
246.722	9694
246.786	13027
246.850	11705
246.913	14965
246.977	7169
247.041	8202
247.104	9879
247.168	8509
247.232	19057
247.295	36177
247.359	21854
247.423	11032
247.486	17386
247.550	12477
247.614	9994
247.677	13565
247.741	9106
247.804	8125
247.868	8927
247.932	16057
247.995	35735
248.059	17159
248.122	9462
248.186	11518
248.249	19176
248.313	51404
248.376	58050
248.440	39524
248.503	18468
248.567	15693
248.630	19087
248.694	27677
248.757	33265
248.821	56244
248.884	42245
248.948	35200
249.011	49606
249.075	65706
249.138	60925
249.202	29792
249.265	20390
249.328	24244
249.392	17634
249.455	14633
249.519	11817
249.582	14230
249.645	21393
249.709	17557
249.772	12394
249.835	12143
249.899	13988
249.962	11948
250.025	10313
250.089	23834
250.152	33686
250.215	19520
250.279	14910
250.342	14942
250.405	13916
250.468	11952
250.532	15901
250.595	23723
250.658	59710
250.721	100802
250.785	45480
250.848	26020
250.911	16147
250.974	14441
251.038	18370
251.101	36571
251.164	22780
251.227	23151
251.290	20869
251.354	27549
251.417	82038
251.480	91351
251.543	66226
251.606	137460
251.669	120822
251.732	57293
251.795	54322
251.859	53349
251.922	95403
251.985	68478
252.048	29350
252.111	23144
252.174	22189
252.237	36485
252.300	70279
252.363	74198
252.426	120102
252.489	64281
252.552	38043
252.615	26632
252.678	27418
252.741	52384
252.804	66949
252.867	125219
252.930	90751
252.993	52905
253.056	32709
253.119	26142
253.182	19800
253.245	31318
253.308	27030
253.371	27121
253.434	24945
253.497	22840
253.559	35247
253.622	29290
253.685	37829
253.748	42080
253.811	20465
253.874	24557
253.937	24113
254.000	17777
254.062	26467
254.125	40640
254.188	34799
254.251	34658
254.314	17241
254.376	29603
254.439	35880
254.502	31896
254.565	28795
254.628	48480
254.690	34766
254.753	19856
254.816	16763
254.878	18529
254.941	27338
255.004	30520
255.067	16011
255.129	16932
255.192	10361
255.255	9169
255.317	11761
255.380	8713
255.443	6292
255.505	7300
255.568	7508
255.631	7672
255.693	8917
255.756	7809
255.819	7486
255.881	6180
255.944	6118
256.006	6791
256.069	6162
256.132	5838
256.194	9485
256.257	24318
256.319	17668
256.382	18804
256.444	10284
256.507	9385
256.569	8113
256.632	8763
256.694	14049
256.757	28261
256.819	74527
256.882	37300
256.944	16971
257.007	14781
257.069	16303
257.132	11252
257.194	9362
257.257	7938
257.319	9947
257.381	10240
257.444	23016
257.506	76959
257.569	99146
257.631	55577
257.693	32374
257.756	16880
257.818	16366
257.880	10208
257.943	8687
258.005	8374
258.067	8278
258.130	8349
258.192	10546
258.254	23152
258.317	15382
258.379	9849
258.441	19229
258.503	20780
258.566	23059
258.628	34446
258.690	10959
258.753	12547
258.815	21440
258.877	13929
258.939	7690
259.001	8398
259.064	7855
259.126	9495
259.188	15671
259.250	10509
259.312	11465
259.375	25979
259.437	19990
259.499	8739
259.561	7820
259.623	9279
259.685	8935
259.747	8760
259.809	21893
259.872	43761
259.934	58384
259.996	60098
260.058	20091
260.120	9477
260.182	8838
260.244	7831
260.306	6753
260.368	8057
260.430	6590
260.492	14254
260.554	26243
260.616	21371
260.678	32360
260.740	47041
260.802	15119
260.864	12073
260.926	9779
260.988	10678
261.050	10178
261.112	19397
261.174	44518
261.236	38199
261.298	14350
261.359	20734
261.421	31958
261.483	10904
261.545	10206
261.607	6679
261.669	7772
261.731	14360
261.793	35369
261.854	17602
261.916	12646
261.978	10110
262.040	11686
262.102	9395
262.164	15310
262.225	14080
262.287	8608
262.349	19092
262.411	16985
262.472	9633
262.534	14062
262.596	31250
262.658	12067
262.719	7821
262.781	10541
262.843	29121
262.904	16420
262.966	11836
263.028	13370
263.090	46941
263.151	119012
263.213	45269
263.275	27104
263.336	13616
263.398	9714
263.459	7726
263.521	7992
263.583	17989
263.644	14675
263.706	7899
263.767	5401
263.829	5860
263.891	4174
263.952	4610
264.014	5210
264.075	8798
264.137	22041
264.198	13763
264.260	5953
264.321	5634
264.383	13325
264.444	33318
264.506	11702
264.567	8700
264.629	12271
264.690	26355
264.752	12175
264.813	9101
264.875	6810
264.936	6658
264.998	5377
265.059	5602
265.120	6438
265.182	11006
265.243	38363
265.305	44992
265.366	13080
265.427	8645
265.489	7951
265.550	5616
265.611	7361
265.673	8892
265.734	7062
265.795	5636
265.857	5044
265.918	6214
265.979	13335
266.040	59770
266.102	60145
266.163	19301
266.224	16829
266.286	10992
266.347	7432
266.408	7817
266.469	9718
266.530	7298
266.592	6195
266.653	12733
266.714	24266
266.775	9281
266.836	5963
266.898	5757
266.959	10448
267.020	8698
267.081	6964
267.142	5772
267.203	5804
267.264	5267
267.326	7909
267.387	6369
267.448	5931
267.509	6599
267.570	6763
267.631	5328
267.692	4631
267.753	5257
267.814	5552
267.875	11327
267.936	26296
267.997	14662
268.058	12834
268.119	8537
268.180	7978
268.241	6680
268.302	5877
268.363	5406
268.424	6159
268.485	8055
268.546	4942
268.607	4846
268.668	3603
268.729	3478
268.790	5068
268.851	6333
268.912	15694
268.972	22392
269.033	12540
269.094	6147
269.155	5120
269.216	5293
269.277	6907
269.338	5861
269.398	5317
269.459	8010
269.520	10860
269.581	14133
269.642	17264
269.702	12153
269.763	8585
269.824	7517
269.885	8312
269.945	15500
270.006	7158
270.067	4461
270.128	5140
270.188	4811
270.249	5160
270.310	4881
270.370	5087
270.431	5692
270.492	4560
270.553	6068
270.613	14210
270.674	26944
270.734	12832
270.795	7012
270.856	10429
270.916	9991
270.977	6740
271.038	8508
271.098	9516
271.159	14194
271.219	15599
271.280	7376
271.340	5635
271.401	7620
271.462	20716
271.522	13982
271.583	8001
271.643	7840
271.704	7096
271.764	9653
271.825	19807
271.885	56664
271.946	76694
272.006	31247
272.066	34132
272.127	58741
272.187	21361
272.248	13918
272.308	13416
272.369	35514
272.429	25215
272.489	19773
272.550	23491
272.610	21701
272.671	19951
272.731	15782
272.791	27362
272.852	17040
272.912	14151
272.972	8639
273.033	8384
273.093	15541
273.153	14485
273.214	10421
273.274	11557
273.334	29237
273.394	59270
273.455	31086
273.515	26508
273.575	54119
273.635	27767
273.696	32954
273.756	57991
273.816	29336
273.876	18331
273.936	29545
273.997	53646
274.057	18512
274.117	14331
274.177	19684
274.237	66241
274.297	63738
274.358	48062
274.418	46319
274.478	40362
274.538	18094
274.598	14288
274.658	41491
274.718	57445
274.778	25220
274.838	14337
274.898	24848
274.958	77367
275.018	59639
275.078	40644
275.138	19970
275.198	11927
275.258	8635
275.318	12876
275.378	23090
275.438	24284
275.498	16751
275.558	30741
275.618	65742
275.678	42732
275.738	28103
275.798	24314
275.858	13749
275.918	8599
275.978	10478
276.038	11321
276.098	8595
276.157	16078
276.217	45902
276.277	23001
276.337	18555
276.397	11036
276.457	13980
276.517	9706
276.576	7898
276.636	8382
276.696	13944
276.756	28635
276.815	24082
276.875	12207
276.935	13855
276.995	12347
277.055	8617
277.114	8540
277.174	11822
277.234	33326
277.293	18939
277.353	11878
277.413	9525
277.472	8804
277.532	11180
277.592	11752
277.651	31530
277.711	64520
277.771	25492
277.830	69259
277.890	65191
277.950	43288
278.009	106157
278.069	49313
278.128	44965
278.188	69967
278.248	33735
278.307	69811
278.367	48829
278.426	17703
278.486	12660
278.545	9981
278.605	9820
278.664	8846
278.724	11280
278.783	21375
278.843	53933
278.902	21165
278.962	13911
279.021	17254
279.081	26877
279.140	27547
279.199	19042
279.259	18512
279.318	19671
279.378	25700
279.437	43422
279.496	112828
279.556	271799
279.615	255946
279.675	94549
279.734	55510
279.793	70490
279.853	93726
279.912	38730
279.971	24658
280.031	23410
280.090	31997
280.149	56592
280.208	58959
280.268	189373
280.327	223147
280.386	74593
280.445	47964
280.505	43455
280.564	22823
280.623	18805
280.682	22426
280.742	34163
280.801	14889
280.860	11962
280.919	10780
280.978	9682
281.037	9295
281.097	9755
281.156	9691
281.215	9607
281.274	11024
281.333	33553
281.392	30021
281.451	10431
281.510	8655
281.569	9297
281.628	7683
281.688	7327
281.747	9275
281.806	9749
281.865	7288
281.924	6450
281.983	8005
282.042	5375
282.101	6634
282.160	6593
282.219	6773
282.278	8046
282.337	22559
282.396	18400
282.454	9225
282.513	10241
282.572	35513
282.631	25419
282.690	10024
282.749	7738
282.808	10588
282.867	10053
282.926	11178
282.985	7797
283.043	7292
283.102	7669
283.161	9097
283.220	16746
283.279	37676
283.338	14720
283.396	10298
283.455	9671
283.514	11700
283.573	17115
283.631	13806
283.690	11436
283.749	9947
283.808	18435
283.866	24163
283.925	11637
283.984	10263
284.043	14498
284.101	16053
284.160	11154
284.219	14620
284.277	14502
284.336	19281
284.395	51016
284.453	46134
284.512	22473
284.570	28921
284.629	29570
284.688	28342
284.746	32320
284.805	37146
284.863	48178
284.922	60981
284.981	73743
285.039	101702
285.098	156480
285.156	247769
285.215	219235
285.273	204274
285.332	257890
285.390	187946
285.449	127342
285.507	90830
285.566	66672
285.624	52243
285.683	41459
285.741	33576
285.799	28897
285.858	26445
285.916	23597
285.975	18417
286.033	16958
286.091	14354
286.150	13471
286.208	13609
286.267	14624
286.325	14802
286.383	19568
286.442	17572
286.500	11310
286.558	9372
286.616	9340
286.675	12053
286.733	11973
286.791	11170
286.850	12445
286.908	14899
286.966	24770
287.024	12348
287.083	9179
287.141	8150
287.199	8736
287.257	13152
287.315	10442
287.374	10607
287.432	23311
287.490	16193
287.548	11031
287.606	8559
287.664	8720
287.723	12254
287.781	16955
287.839	10100
287.897	11785
287.955	14393
288.013	20714
288.071	42860
288.129	127051
288.187	308278
288.245	177973
288.303	63783
288.361	37131
288.419	27028
288.477	20103
288.535	14857
288.593	12149
288.651	10181
288.709	8656
288.767	8241
288.825	8555
288.883	5544
288.941	6774
288.999	6337
289.057	6677
289.115	5654
289.173	6796
289.231	7204
289.289	7015
289.346	6407
289.404	8455
289.462	14762
289.520	15376
289.578	8562
289.636	5292
289.694	4893
289.751	4635
289.809	4424
289.867	4906
289.925	8270
289.983	10646
290.040	5322
290.098	4621
290.156	7788
290.214	9026
290.271	6380
290.329	4444
290.387	3792
290.444	4978
290.502	3471
290.560	4518
290.617	4363
290.675	4554
290.733	4691
290.790	6626
290.848	4669
290.906	6111
290.963	6667
291.021	5860
291.078	4806
291.136	6792
291.194	16077
291.251	38793
291.309	13998
291.366	6272
291.424	5524
291.481	7001
291.539	6939
291.596	7815
291.654	4882
291.711	4993
291.769	5849
291.826	15673
291.884	10495
291.941	5908
291.999	5881
292.056	6902
292.114	7697
292.171	5797
292.228	6149
292.286	8712
292.343	15181
292.401	19854
292.458	13251
292.515	7682
292.573	9940
292.630	10284
292.687	10173
292.745	8482
292.802	10327
292.859	24684
292.917	42681
292.974	29417
293.031	10652
293.089	7920
293.146	6780
293.203	5940
293.260	5888
293.318	7586
293.375	10487
293.432	7181
293.489	5843
293.546	5964
293.604	10368
293.661	27384
293.718	61593
293.775	37082
293.832	19752
293.889	16654
293.947	16459
294.004	11813
294.061	12453
294.118	19774
294.175	40155
294.232	49921
294.289	24588
294.346	13074
294.403	12427
294.460	11765
294.517	8564
294.574	8051
294.631	6711
294.688	9242
294.745	20621
294.802	62310
294.859	74309
294.916	33900
294.973	20005
295.030	16165
295.087	14662
295.144	10452
295.201	8803
295.258	8292
295.315	10753
295.372	25570
295.429	48686
295.486	24001
295.542	15530
295.599	27174
295.656	51494
295.713	35508
295.770	45830
295.827	21515
295.883	11338
295.940	10819
295.997	18384
296.054	21126
296.111	11303
296.167	7930
296.224	6277
296.281	5973
296.338	6230
296.394	6988
296.451	8792
296.508	20549
296.564	41581
296.621	31184
296.678	50098
296.734	79767
296.791	32662
296.848	17785
296.904	18435
296.961	39719
297.018	52938
297.074	42254
297.131	17634
297.187	13954
297.244	18337
297.301	44189
297.357	82766
297.414	34903
297.470	15065
297.527	10215
297.583	9980
297.640	10632
297.696	8205
297.753	6974
297.809	5083
297.866	5377
297.922	5217
297.979	6115
298.035	7692
298.092	12654
298.148	29046
298.204	32568
298.261	18101
298.317	25140
298.374	61831
298.430	43639
298.486	21581
298.543	18946
298.599	15218
298.656	17621
298.712	26024
298.768	57586
298.824	46741
298.881	17638
298.937	10160
298.993	9587
299.050	12723
299.106	11827
299.162	9605
299.218	9965
299.275	9215
299.331	10158
299.387	16441
299.443	50553
299.500	62243
299.556	28027
299.612	14595
299.668	13507
299.724	15597
299.780	18102
299.837	12833
299.893	17061
299.949	47894
300.005	64213
300.061	49592
300.117	78373
300.173	43458
300.229	22599
300.285	26615
300.341	32208
300.397	17378
300.453	11361
300.510	10118
300.566	10908
300.622	12250
300.678	28433
300.734	57513
300.790	51333
300.845	55922
300.901	38981
300.957	54178
301.013	46326
301.069	20196
301.125	14139
301.181	16388
301.237	13413
301.293	8489
301.349	8148
301.405	7371
301.461	8278
301.516	10630
301.572	12113
301.628	19495
301.684	19635
301.740	22814
301.796	37685
301.851	27833
301.907	42290
301.963	46609
302.019	57804
302.074	134735
302.130	147853
302.186	75829
302.242	32171
302.297	21709
302.353	22294
302.409	35004
302.464	35654
302.520	27636
302.576	58051
302.631	70820
302.687	44626
302.743	20594
302.798	13023
302.854	10391
302.910	11492
302.965	14001
303.021	25481
303.076	25154
303.132	29995
303.187	36974
303.243	20120
303.299	11129
303.354	9155
303.410	8871
303.465	7621
303.521	7534
303.576	9112
303.632	10629
303.687	16572
303.743	45478
303.798	44228
303.853	20580
303.909	11421
303.964	11661
304.020	17000
304.075	28331
304.130	25703
304.186	43330
304.241	46151
304.297	37514
304.352	20715
304.358	19841
304.407	12764
304.449	12243
304.463	12077
304.518	13281
304.539	12650
304.573	11666
304.629	10848
304.630	10959
304.684	16273
304.720	28949
304.739	35283
304.794	57392
304.811	49530
304.850	31003
304.902	16227
304.905	15273
304.960	10766
304.992	11243
305.015	11587
305.071	11590
305.083	11172
305.126	9640
305.173	7527
305.181	7192
305.236	6983
305.264	6972
305.292	6951
305.347	9756
305.354	9825
305.402	10311
305.445	11010
305.457	11202
305.512	14608
305.535	14967
305.567	15521
305.622	14944
305.626	15273
305.678	22746
305.716	41996
305.733	48922
305.788	62333
305.807	53821
305.843	39013
305.897	44488
305.898	44521
305.953	47898
305.988	33684
306.008	25824
306.063	16274
306.078	15048
306.118	12147
306.168	9026
306.173	8745
306.228	7243
306.259	6547
306.283	6099
306.338	5924
306.349	6354
306.393	8015
306.440	8421
306.448	8505
306.503	9718
306.530	10308
306.558	12176
306.613	24163
306.620	26251
306.668	39106
306.711	49145
306.723	50414
306.778	43438
306.801	33958
306.833	22895
306.888	12290
306.892	11917
306.943	8328
306.982	7726
306.997	7551
307.052	7336
307.072	7428
307.107	8138
307.162	9905
307.163	9964
307.217	15195
307.253	18132
307.272	18885
307.327	21461
307.343	19551
307.381	15994
307.434	15650
307.436	15902
307.491	26087
307.524	38920
307.546	43085
307.600	45410
307.614	40163
307.655	25084
307.704	14591
307.710	14002
307.765	15363
307.795	18883
307.819	21139
307.874	32757
307.885	32411
307.929	27576
307.975	21241
307.984	21152
308.038	27056
308.065	33574
308.093	52063
308.148	103204
308.156	115323
308.202	166242
308.246	198495
308.257	198542
308.312	123330
308.336	93703
308.366	70401
308.421	47263
308.426	45139
308.475	29426
308.517	21992
308.530	20177
308.585	17417
308.607	16776
308.639	17092
308.694	18732
308.697	19011
308.748	27648
308.787	38738
308.803	39482
308.857	33666
308.877	28816
308.912	24401
308.967	24607
308.967	24703
309.021	34478
309.058	44680
309.076	53813
309.130	89436
309.148	103434
309.185	157258
309.238	245843
309.239	246102
309.293	261638
309.328	243891
309.348	220843
309.402	124937
309.418	100838
309.457	72784
309.508	50734
309.511	50085
309.566	51813
309.598	56466
309.620	65059
309.674	94209
309.688	103011
309.729	99719
309.778	78977
309.783	77199
309.837	53242
309.868	42937
309.892	45301
309.946	56779
309.959	61931
310.001	70041
310.049	75371
310.055	73343
310.109	45190
310.139	28885
310.163	22423
310.218	14753
310.229	13760
310.272	11531
310.319	9792
310.326	9458
310.381	8336
310.409	7667
310.435	7074
310.489	6053
310.499	6005
310.543	6475
310.589	7093
310.598	7031
310.652	6796
310.679	6557
310.706	5949
310.760	4664
310.769	4518
310.814	4149
310.859	3901
310.868	3930
310.923	4315
310.948	4483
310.977	4835
311.031	5823
311.038	5968
311.085	5328
311.128	4514
311.139	4567
311.193	4950
311.218	5205
311.247	4852
311.301	4128
311.308	4068
311.356	4252
311.398	4411
311.410	4426
311.464	4553
311.488	4629
311.518	4469
311.572	4209
311.578	4208
311.626	5943
311.668	7602
311.680	7519
311.734	6834
311.758	6643
311.788	6322
311.842	5650
311.847	5612
311.896	7741
311.937	9691
311.950	9375
312.004	8067
312.027	7476
312.058	6582
312.112	5094
312.117	4971
312.165	4881
312.207	4858
312.297	6055
312.386	4255
312.476	6337
312.566	11099
312.656	5319
312.745	3991
312.835	4543
312.925	4059
313.015	4605
313.104	4627
313.194	3693
313.284	5287
313.374	7105
313.463	4704
313.553	3690
313.643	3787
313.732	3509
313.822	2842
313.912	4474
314.001	5118
314.091	5316
314.180	6852
314.270	6782
314.360	7786
314.449	5849
314.539	3768
314.628	3638
314.718	5124
314.808	5870
314.897	3986
314.987	4666
315.076	6596
315.166	7098
315.255	6832
315.345	6672
315.434	6395
315.524	6483
315.613	7386
315.703	9625
315.792	13160
315.881	27481
315.971	11093
316.060	13254
316.150	17946
316.239	16464
316.328	5902
316.418	3891
316.507	4780
316.597	7080
316.686	5745
316.775	11610
316.865	15756
316.954	4262
317.043	3380
317.133	4206
317.222	3360
317.311	4026
317.400	2839
317.490	7143
317.579	6206
317.668	5536
317.757	9557
317.847	21855
317.936	49756
318.025	22188
318.114	13929
318.203	8475
318.293	12606
318.382	18315
318.471	17890
318.560	24912
318.649	38966
318.738	8724
318.828	8406
318.917	8695
319.006	11466
319.095	26900
319.184	56178
319.273	32276
319.362	15833
319.451	6033
319.540	7350
319.629	17815
319.718	21808
319.807	11679
319.896	28360
319.985	67357
320.074	21080
320.163	8491
320.252	11256
320.341	10232
320.430	8367
320.519	12590
320.608	6297
320.697	5314
320.786	6564
320.875	9609
320.964	11604
321.053	17976
321.142	26895
321.230	23420
321.319	24151
321.408	42429
321.497	17062
321.586	17630
321.675	20729
321.764	16999
321.852	14317
321.941	26529
322.030	15839
322.119	23197
322.207	45401
322.296	27256
322.385	15276
322.474	23944
322.562	55559
322.651	24835
322.740	23644
322.829	26460
322.917	25412
323.006	15240
323.095	13440
323.183	10966
323.272	18235
323.361	35582
323.449	70478
323.538	26377
323.626	56222
323.715	26385
323.804	18021
323.892	49092
323.981	22870
324.069	11012
324.158	28942
324.246	20257
324.335	12365
324.424	15511
324.512	8211
324.601	16629
324.689	51520
324.778	71761
324.866	21325
324.954	6782
325.043	8820
325.131	13824
325.220	21575
325.308	21436
325.397	17550
325.485	9080
325.574	3850
325.662	4631
325.750	5618
325.839	3264
325.927	4375
326.015	5277
326.104	9568
326.192	10657
326.280	3965
326.369	4569
326.457	8730
326.545	12980
326.634	5089
326.722	2854
326.810	3796
326.898	3400
326.987	6335
327.075	13343
327.163	12881
327.251	13204
327.340	47240
327.428	47293
327.516	6620
327.604	5349
327.692	4200
327.781	7134
327.869	9078
327.957	5699
328.045	5850
328.133	3954
328.221	5188
328.309	4543
328.397	4147
328.485	6665
328.574	11414
328.662	29450
328.750	13330
328.838	6057
328.926	4201
329.014	4057
329.102	6859
329.190	16035
329.278	9277
329.366	3188
329.454	2986
329.542	2427
329.630	2977
329.718	4010
329.806	4769
329.893	4709
329.981	4746
330.069	7568
330.157	29191
330.245	64425
330.333	29185
330.421	7451
330.509	13725
330.597	37611
330.684	17813
330.772	7393
330.860	9853
330.948	11225
331.036	5518
331.123	3188
331.211	3250
331.299	4771
331.387	13247
331.475	17166
331.562	5545
331.650	3522
331.738	4950
331.825	5494
331.913	2970
332.001	2825
332.089	5856
332.176	10503
332.264	27475
332.352	16146
332.439	5832
332.527	4144
332.614	4114
332.702	4770
332.790	5126
332.877	16166
332.965	24101
333.052	9303
333.140	14455
333.228	25583
333.315	6153
333.403	6944
333.490	17956
333.578	18717
333.665	35028
333.753	12647
333.840	4326
333.928	7367
334.015	17568
334.103	32829
334.190	66716
334.278	15216
334.365	8625
334.452	6729
334.540	5070
334.627	5802
334.715	9600
334.802	26530
334.889	99979
334.977	71417
335.064	11817
335.151	5440
335.239	6290
335.326	10877
335.413	44547
335.501	37742
335.588	6568
335.675	5079
335.762	8139
335.850	10223
335.937	10069
336.024	34267
336.111	94385
336.199	33538
336.286	7698
336.373	5247
336.460	2528
336.547	3655
336.635	4645
336.722	4820
336.809	4095
336.896	10013
336.983	29307
337.070	60047
337.157	71939
337.245	62244
337.332	30939
337.419	5584
337.506	4055
337.593	6032
337.680	24949
337.767	44463
337.854	16064
337.941	17682
338.028	21188
338.115	6983
338.202	9409
338.289	23722
338.376	55758
338.463	17451
338.550	34216
338.637	25568
338.724	14540
338.811	15528
338.898	3793
338.984	3304
339.071	5340
339.158	9667
339.245	18394
339.332	9615
339.419	15521
339.506	9855
339.593	2293
339.679	3860
339.766	3508
339.853	6987
339.940	11665
340.027	4609
340.113	4921
340.200	6758
340.287	5113
340.374	8106
340.460	10174
340.547	5718
340.634	13345
340.720	36492
340.807	15633
340.894	3932
340.980	4436
341.067	3538
341.154	5614
341.240	10747
341.327	15440
341.414	6169
341.500	5250
341.587	4035
341.674	5151
341.760	13092
341.847	11975
341.933	4125
342.020	1098
342.106	2507
342.193	6100
342.279	9281
342.366	8242
342.452	11869
342.539	8219
342.625	20940
342.712	35559
342.798	14063
342.885	5414
342.971	1867
343.058	2292
343.144	3043
343.230	3374
343.317	4043
343.403	2485
343.490	2575
343.576	2522
343.662	3496
343.749	4854
343.835	6966
343.921	15690
344.008	78912
344.094	118613
344.180	24617
344.267	14973
344.353	46981
344.439	36168
344.525	16542
344.612	6520
344.698	6176
344.784	3966
344.870	4114
344.957	4657
345.043	7299
345.129	6301
345.215	10847
345.301	6812
345.387	4755
345.474	1903
345.560	2967
345.646	3421
345.732	3614
345.818	4538
345.904	4910
345.990	4429
346.076	5843
346.162	8895
346.249	4380
346.335	3085
346.421	5791
346.507	24525
346.593	51528
346.679	10436
346.765	5240
346.851	4807
346.937	3633
347.023	3333
347.108	4968
347.194	3831
347.280	3654
347.366	6082
347.452	25731
347.538	66990
347.624	52443
347.710	34657
347.796	6141
347.882	4271
347.967	3807
348.053	5139
348.139	3843
348.225	2692
348.311	3504
348.397	3309
348.482	5949
348.568	5417
348.654	2823
348.740	5267
348.825	4469
348.911	10325
348.997	40301
349.083	51578
349.168	7933
349.254	4410
349.340	4510
349.425	3120
349.511	6319
349.597	7580
349.682	18429
349.768	44012
349.854	14540
349.939	3978
350.025	3378
350.110	3297
350.196	2887
350.282	1856
350.367	2795
350.453	6445
350.538	5124
350.624	6846
350.709	4412
350.795	2788
350.880	2836
350.966	5801
351.051	7110
351.137	4945
351.222	5072
351.308	20007
351.393	35103
351.479	8972
351.564	3201
351.649	3153
351.735	2974
351.820	2053
351.906	4260
351.991	7633
352.076	31395
352.162	31062
352.247	7378
352.332	6366
352.418	11222
352.503	19065
352.588	62497
352.673	35756
352.759	9324
352.844	4145
352.929	6800
353.014	6711
353.100	5097
353.185	9435
353.270	15024
353.355	11864
353.441	4896
353.526	6266
353.611	14732
353.696	12824
353.781	7987
353.866	3323
353.952	6042
354.037	16128
354.122	30405
354.207	23207
354.292	7666
354.377	3431
354.462	4057
354.547	5734
354.632	5215
354.717	7986
354.802	7626
354.887	3971
354.972	2880
355.057	2723
355.142	3017
355.227	5171
355.312	9861
355.397	23860
355.482	44774
355.567	18320
355.652	17353
355.737	19955
355.822	56444
355.907	30065
355.991	6088
356.076	2913
356.161	3358
356.246	3444
356.331	4832
356.416	18238
356.501	86876
356.585	61087
356.670	10554
356.755	8348
356.840	15660
356.924	76187
357.009	176062
357.094	52389
357.179	15226
357.263	10609
357.348	11861
357.433	9741
357.517	9481
357.602	6775
357.687	6278
357.771	12480
357.856	24961
357.941	17111
358.025	60019
358.110	166142
358.195	60099
358.279	11140
358.364	12902
358.448	49197
358.533	99982
358.617	67668
358.702	63591
358.787	21117
358.871	15062
358.956	9927
359.040	3005
359.125	3571
359.209	5498
359.294	15085
359.378	17500
359.462	11558
359.547	6197
359.631	4313
359.716	2716
359.800	3917
359.885	6855
359.969	3587
360.053	4854
360.138	5333
360.222	8840
360.306	14614
360.391	10860
360.475	23934
360.559	36770
360.644	38677
360.728	23710
360.812	58938
360.896	105448
360.981	45061
361.065	20447
361.149	8162
361.233	6669
361.318	5458
361.402	6744
361.486	6191
361.570	4548
361.654	8082
361.739	24560
361.823	91099
361.907	95363
361.991	16488
362.075	16267
362.159	28138
362.243	17403
362.327	17164
362.411	20968
362.495	11015
362.580	5992
362.664	4098
362.748	3627
362.832	5553
362.916	9667
363.000	41294
363.084	114938
363.168	117067
363.252	25252
363.336	12594
363.420	21130
363.503	63494
363.587	49797
363.671	10935
363.755	9423
363.839	13450
363.923	6624
364.007	16189
364.091	15517
364.175	31399
364.258	88160
364.342	57156
364.426	69930
364.510	33740
364.594	18010
364.677	33071
364.761	105777
364.845	56339
364.929	25989
365.013	18424
365.096	18722
365.180	18342
365.264	33627
365.347	83710
365.431	28553
365.515	9889
365.598	5431
365.682	6147
365.766	10079
365.849	10316
365.933	6713
366.017	8431
366.100	5541
366.184	3237
366.267	5183
366.351	4196
366.435	3698
366.518	2813
366.602	3591
366.685	4669
366.769	5202
366.852	10831
366.936	16227
367.019	8725
367.103	8519
367.186	10972
367.270	4691
367.353	2420
367.436	4513
367.520	3260
367.603	6632
367.687	11033
367.770	16006
367.853	12294
367.937	39701
368.020	43700
368.104	11050
368.187	15081
368.270	18285
368.353	16180
368.437	25061
368.520	42089
368.603	26847
368.687	49740
368.770	60434
368.853	14437
368.936	16866
369.020	13099
369.103	6082
369.186	3943
369.269	5447
369.352	13973
369.436	14508
369.519	8418
369.602	3252
369.685	6746
369.768	5588
369.851	5850
369.934	3914
370.018	8254
370.101	13417
370.184	11690
370.267	8890
370.350	13324
370.433	24613
370.516	61409
370.599	55675
370.682	22094
370.765	43046
370.848	56285
370.931	82605
371.014	25157
371.097	6664
371.180	4657
371.263	4157
371.346	2949
371.429	5645
371.511	5162
371.594	10904
371.677	15676
371.760	16240
371.843	19168
371.926	82773
372.009	127354
372.091	41260
372.174	42815
372.257	73163
372.340	26429
372.423	24943
372.505	22823
372.588	13087
372.671	39506
372.754	84813
372.836	33407
372.919	35667
373.002	46432
373.085	15126
373.167	20083
373.250	45884
373.332	80907
373.415	119839
373.498	178969
373.580	64168
373.663	108336
373.746	103853
373.828	24562
373.911	13942
373.993	19298
374.076	55625
374.159	38305
374.241	31508
374.324	76770
374.406	42332
374.489	78801
374.571	154342
374.654	52302
374.736	42459
374.819	107027
374.901	148937
374.983	117302
375.066	20552
375.148	14123
375.231	51758
375.313	70529
375.395	24033
375.478	6635
375.560	6258
375.643	10278
375.725	45522
375.807	133715
375.890	84935
375.972	35323
376.054	25856
376.136	32755
376.219	15897
376.301	51703
376.383	106216
376.465	35834
376.548	28692
376.630	44321
376.712	96869
376.794	31449
376.877	5713
376.959	3604
377.041	6144
377.123	12521
377.205	10786
377.287	3107
377.369	4021
377.452	4073
377.534	3773
377.616	3823
377.698	3713
377.780	2465
377.862	4395
377.944	4066
378.026	1880
378.108	4277
378.190	2793
378.272	3283
378.354	2275
378.436	3055
378.518	9709
378.600	25313
378.682	26502
378.764	56457
378.846	31877
378.928	12010
379.010	15154
379.091	7853
379.173	4914
379.255	3947
379.337	8746
379.419	34694
379.501	70378
379.583	20708
379.664	9240
379.746	24807
379.828	59411
379.910	72114
379.991	48785
380.073	8585
380.155	6386
380.237	5382
380.318	3486
380.400	5472
380.482	14977
380.564	17458
380.645	18020
380.727	14426
380.809	9239
380.890	5916
380.972	4888
381.053	5183
381.135	8951
381.217	25620
381.298	53569
381.380	22126
381.461	31732
381.543	111957
381.624	96277
381.706	18282
381.787	11018
381.869	14340
381.951	60882
382.032	152965
382.113	77727
382.195	19472
382.276	17911
382.358	42316
382.439	90272
382.521	107395
382.602	136249
382.684	76930
382.765	148630
382.846	194452
382.928	295547
383.009	139308
383.090	140228
383.172	441025
383.253	492246
383.334	167138
383.416	144523
383.497	68816
383.578	52105
383.659	116719
383.741	400932
383.822	718665
383.903	312619
383.984	136468
384.066	178018
384.147	88119
384.228	22922
384.309	20130
384.390	13799
384.471	11600
384.553	12987
384.634	17859
384.715	15149
384.796	9942
384.877	17926
384.958	57148
385.039	52532
385.120	18184
385.201	11570
385.282	12256
385.363	12685
385.444	12368
385.525	27238
385.606	71478
385.687	45366
385.768	13670
385.849	23021
385.930	87218
386.011	105624
386.092	23908
386.173	8056
386.254	7146
386.335	7591
386.416	11712
386.496	38913
386.577	47389
386.658	15439
386.739	10117
386.820	9200
386.901	7442
386.981	7250
387.062	5700
387.143	18115
387.224	57550
387.304	39002
387.385	14495
387.466	9232
387.547	12612
387.627	9389
387.708	30766
387.789	102644
387.869	90697
387.950	20410
388.031	4660
388.111	5447
388.192	15692
388.273	19685
388.353	10504
388.434	9045
388.514	24850
388.595	88069
388.676	93169
388.756	47471
388.837	50038
388.917	22879
388.998	4370
389.078	6246
389.159	6018
389.239	4074
389.320	10662
389.400	7748
389.480	27306
389.561	54220
389.641	19700
389.722	11454
389.802	16396
389.883	29398
389.963	64496
390.043	31071
390.124	10989
390.204	26597
390.284	62103
390.365	31713
390.445	46926
390.525	91585
390.605	66733
390.686	23454
390.766	9641
390.846	5664
390.927	3413
391.007	3684
391.087	6502
391.167	5564
391.247	4502
391.328	9920
391.408	13128
391.488	7926
391.568	3260
391.648	7990
391.728	10000
391.808	10987
391.888	13555
391.969	37035
392.049	43166
392.129	18466
392.209	30609
392.289	59534
392.369	27568
392.449	23296
392.529	14140
392.609	13161
392.689	24073
392.769	62947
392.849	41746
392.929	41055
393.009	81906
393.089	51072
393.169	54448
393.248	196318
393.328	574444
393.408	483248
393.488	118808
393.568	36945
393.648	19329
393.728	13979
393.807	9839
393.887	9035
393.967	9216
394.047	11218
394.127	13872
394.206	24525
394.286	104570
394.366	343937
394.446	274971
394.525	57351
394.605	17239
394.685	18092
394.764	40779
394.844	58770
394.924	32549
395.003	11794
395.083	9246
395.163	7546
395.242	7154
395.322	7795
395.402	5419
395.481	11057
395.561	33588
395.640	66626
395.720	52621
395.799	72829
395.879	43999
395.958	36467
396.038	150958
396.117	448573
396.197	380038
396.276	102093
396.356	36872
396.435	27527
396.515	19488
396.594	26545
396.673	54461
396.753	212719
396.832	505694
396.912	313747
396.991	72552
397.070	22981
397.150	12349
397.229	10293
397.308	16427
397.388	22491
397.467	10294
397.546	5863
397.625	3961
397.705	9114
397.784	8343
397.863	4246
397.942	3711
398.022	5411
398.101	28129
398.180	56347
398.259	23357
398.338	8183
398.417	5372
398.497	3813
398.576	4233
398.655	3326
398.734	3335
398.813	5429
398.892	27948
398.971	62153
399.050	21622
399.129	3274
399.208	1997
399.287	2260
399.366	1588
399.445	2450
399.524	3068
399.603	1987
399.682	10083
399.761	30482
399.840	74013
399.919	39920
399.998	4692
400.077	1420
400.156	1475
400.235	4242
400.313	2380
400.392	8190
400.471	35786
400.550	40738
400.629	7984
400.708	5458
400.786	6467
400.865	15532
400.944	13266
401.023	6642
401.102	1158
401.180	1945
401.259	1998
401.338	3797
401.416	6293
401.495	3968
401.574	3114
401.652	2625
401.731	5404
401.810	3623
401.888	1475
401.967	1874
402.046	2948
402.124	5881
402.203	5270
402.281	3920
402.360	7578
402.438	18692
402.517	8683
402.596	4406
402.674	2942
402.753	1557
402.831	2506
402.910	6229
402.988	26342
403.066	58849
403.145	25854
403.223	24628
403.302	47867
403.380	32558
403.459	31650
403.537	9615
403.615	3452
403.694	486
403.772	2663
403.850	1332
403.929	646
404.007	2542
404.085	7235
404.164	5494
404.242	1959
404.320	4594
404.398	9576
404.477	41246
404.555	137202
404.633	82821
404.711	10597
404.789	3953
404.868	3079
404.946	1256
405.024	1056
405.102	958
405.180	906
405.258	382
405.336	2010
405.415	3246
405.493	6868
405.571	4974
405.649	1588
405.727	1627
405.805	4925
405.883	3846
405.961	4543
406.039	4163
406.117	1658
406.195	9097
406.273	46120
406.351	113393
406.429	47817
406.507	7411
406.585	2408
406.663	5185
406.740	6031
406.818	4143
406.896	1218
406.974	3742
407.052	17146
407.130	80598
407.208	76460
407.285	12494
407.363	2662
407.441	2945
407.519	1661
407.596	4596
407.674	14030
407.752	33468
407.830	26134
407.907	9132
407.985	2459
408.063	2007
408.141	1902
408.218	5445
408.296	4243
408.373	3048
408.451	4160
408.529	3673
408.606	1491
408.684	1221
408.762	715
408.839	138
408.917	190
408.994	1176
409.072	874
409.149	1277
409.227	4289
409.304	4452
409.382	4155
409.459	3715
409.537	7046
409.614	5360
409.692	2487
409.769	4097
409.846	7972
409.924	9274
410.001	4630
410.079	2966
410.156	3641
410.233	2320
410.311	2199
410.388	1661
410.465	2442
410.543	2273
410.620	2269
410.697	4289
410.775	3348
410.852	1697
410.929	4655
411.006	4662
411.083	2826
411.161	6352
411.238	7100
411.315	3465
411.392	1824
411.469	4353
411.547	3318
411.624	1051
411.701	1375
411.778	4130
411.855	8865
411.932	3674
412.009	1445
412.086	2576
412.163	3728
412.240	2842
412.317	4318
412.394	2709
412.471	1611
412.548	1378
412.625	2066
412.702	4310
412.779	6241
412.856	2577
412.933	1132
413.010	1751
413.087	8054
413.164	33049
413.241	32899
413.318	6395
413.395	5476
413.471	7394
413.548	2052
413.625	2443
413.702	2783
413.779	2067
413.855	830
413.932	39
414.009	118
414.086	491
414.162	1919
414.239	6588
414.316	35549
414.393	56997
414.469	12007
414.546	1845
414.623	610
414.699	2024
414.776	2265
414.853	2125
414.929	2212
415.006	1939
415.082	2687
415.159	2331
415.236	1459
415.312	3487
415.389	7561
415.465	7477
415.542	3111
415.618	2546
415.695	5049
415.771	2795
415.848	3106
415.924	2348
416.000	982
416.077	1828
416.153	-563
416.230	-420
416.306	15
416.383	729
416.459	758
416.535	-345
416.612	854
416.688	1106
416.764	1654
416.841	1709
416.917	1274
416.993	1830
417.069	3170
417.146	3842
417.222	4742
417.298	3225
417.374	1158
417.451	2732
417.527	3702
417.603	3571
417.679	2433
417.755	1370
417.831	197
417.908	474
417.984	253
418.060	1312
418.136	8070
418.212	8436
418.288	3235
418.364	1512
418.440	1673
418.516	4367
418.592	7378
418.668	14390
418.744	18315
418.820	10240
418.896	2324
418.972	53
419.048	2140
419.124	8680
419.200	3963
419.276	1127
419.352	157
419.428	1362
419.504	2144
419.579	2925
419.655	2347
419.731	3999
419.807	15386
419.883	21903
419.959	11253
420.034	3452
420.110	13661
420.186	41312
420.262	21850
420.337	3753
420.413	3122
420.489	1266
420.565	1842
420.640	978
420.716	2184
420.792	-158
420.867	1724
420.943	2063
421.019	5291
421.094	2939
421.170	1277
421.245	578
421.321	1431
421.397	2307
421.472	8313
421.548	17296
421.623	10320
421.699	4620
421.774	3872
421.850	3543
421.925	8338
422.001	5746
422.076	4636
422.152	7496
422.227	11081
422.302	12976
422.378	19220
422.453	39114
422.529	103706
422.604	266837
422.679	358225
422.755	216843
422.830	77642
422.905	31999
422.981	18008
423.056	11584
423.131	8855
423.207	6069
423.282	8071
423.357	13559
423.432	7448
423.508	10815
423.583	20624
423.658	11572
423.733	4387
423.808	5724
423.883	6511
423.959	4890
424.034	3944
424.109	3239
424.184	1368
424.259	1129
424.334	1219
424.409	1247
424.484	1285
424.559	2042
424.634	1893
424.709	4160
424.784	4420
424.859	2115
424.934	8489
425.009	32370
425.084	40689
425.159	10064
425.234	2273
425.309	1280
425.384	7716
425.459	8576
425.534	2361
425.609	1219
425.683	356
425.758	744
425.833	1750
425.908	5009
425.983	22972
426.058	43673
426.132	14016
426.207	2603
426.282	4694
426.357	3105
426.431	1154
426.506	2004
426.581	1641
426.655	1278
426.730	2010
426.805	819
426.879	1861
426.954	2933
427.029	10638
427.103	55155
427.178	98349
427.253	30319
427.327	4688
427.402	8045
427.476	14225
427.551	3477
427.625	1242
427.700	2213
427.774	809
427.849	1785
427.923	917
427.998	1195
428.072	1983
428.147	9374
428.221	38714
428.296	77326
428.370	27326
428.444	5232
428.519	8235
428.593	12825
428.667	10235
428.742	14182
428.816	16364
428.890	60181
428.965	66827
429.039	20834
429.113	13770
429.188	3853
429.262	1159
429.336	8652
429.410	20930
429.485	10751
429.559	11690
429.633	6942
429.707	2964
429.781	14721
429.855	67393
429.930	75125
430.004	44984
430.078	62270
430.152	55991
430.226	107905
430.300	77957
430.374	11113
430.448	7559
430.522	28760
430.596	58659
430.670	40762
430.744	114621
430.818	117782
430.892	20197
430.966	3998
431.040	1551
431.114	506
431.188	412
431.262	1332
431.336	1553
431.410	8641
431.484	19529
431.557	9801
431.631	1561
431.705	3303
431.779	21492
431.853	68913
431.927	33199
432.000	2612
432.074	1284
432.148	3069
432.222	1760
432.295	713
432.369	1661
432.443	7285
432.516	52553
432.590	92995
432.664	25069
432.737	3125
432.811	768
432.885	329
432.958	897
433.032	-321
433.106	-767
433.179	296
433.253	154
433.326	98
433.400	-395
433.473	-156
433.547	-858
433.620	1354
433.694	4653
433.767	2540
433.841	-186
433.914	13
433.988	-14
434.061	323
434.134	-134
434.208	-196
434.281	-562
434.355	-468
434.428	-151
434.501	88
434.575	-450
434.648	389
434.721	242
434.795	459
434.868	-35
434.941	-203
435.014	-219
435.088	1150
435.161	3372
435.234	6073
435.307	4743
435.381	1702
435.454	2012
435.527	3812
435.600	3186
435.673	1635
435.746	375
435.819	1042
435.892	349
435.966	418
436.039	809
436.112	-70
436.185	-156
436.258	-98
436.331	-1306
436.404	43
436.477	-776
436.550	-619
436.623	632
436.696	567
436.769	923
436.842	778
436.915	1255
436.987	1838
437.060	85
437.133	141
437.206	262
437.279	389
437.352	153
437.425	-86
437.498	2624
437.570	5747
437.643	3695
437.716	-33
437.789	102
437.861	3259
437.934	8514
438.007	2997
438.080	646
438.152	1665
438.225	10031
438.298	69425
438.370	125290
438.443	37960
438.516	8138
438.588	1433
438.661	453
438.734	792
438.806	1306
438.879	1914
438.951	2342
439.024	3492
439.096	855
439.169	286
439.241	-53
439.314	111
439.386	1583
439.459	3852
439.531	5277
439.604	817
439.676	851
439.749	67
439.821	-478
439.893	153
439.966	525
440.038	1225
440.110	2119
440.183	663
440.255	415
440.327	4382
440.400	31481
440.472	91921
440.544	40886
440.617	4848
440.689	4141
440.761	5032
440.833	7719
440.905	4658
440.978	607
441.050	-573
441.122	1026
441.194	-34
441.266	543
441.338	828
441.411	6537
441.483	35426
441.555	34058
441.627	5791
441.699	3064
441.771	3360
441.843	654
441.915	531
441.987	522
442.059	756
442.131	1114
442.203	3163
442.275	4174
442.347	3276
442.419	6441
442.491	39989
442.563	72061
442.635	25922
442.706	19292
442.778	10681
442.850	1660
442.922	1218
442.994	2123
443.066	4149
443.137	2068
443.209	1856
443.281	3456
443.353	10150
443.425	51233
443.496	145927
443.568	116246
443.640	34566
443.711	6209
443.783	2505
443.855	1144
443.926	758
443.998	1638
444.070	1957
444.141	2227
444.213	4065
444.285	5659
444.356	3788
444.428	2002
444.499	492
444.571	226
444.642	451
444.714	1592
444.785	4261
444.857	5853
444.928	10056
445.000	5311
445.071	8933
445.143	6928
445.214	4333
445.285	11374
445.357	32305
445.428	112328
445.500	197243
445.571	113223
445.642	53785
445.714	23351
445.785	17313
445.856	5942
445.928	5623
445.999	4235
446.070	2545
446.141	4700
446.213	5413
446.284	1534
446.355	2217
446.426	736
446.497	1880
446.569	4008
446.640	6690
446.711	3744
446.782	1234
446.853	2269
446.924	2455
446.995	1415
447.066	2069
447.138	3740
447.209	813
447.280	-700
447.351	186
447.422	295
447.493	1450
447.564	2832
447.635	3995
447.706	701
447.777	6
447.847	-169
447.918	853
447.989	1569
448.060	4010
448.131	6827
448.202	7174
448.273	4328
448.344	1686
448.414	1547
448.485	663
448.556	655
448.627	-46
448.698	1163
448.768	-162
448.839	1285
448.910	3286
448.981	2422
449.051	556
449.122	220
449.193	-64
449.263	79
449.334	686
449.405	2624
449.475	6128
449.546	4223
449.616	4531
449.687	2886
449.758	1155
449.828	910
449.899	175
449.969	359
450.040	985
450.110	1363
450.181	1753
450.251	62
450.322	331
450.392	603
450.463	883
450.533	114
450.604	545
450.674	-94
450.744	402
450.815	21
450.885	1054
450.955	906
451.026	-453
451.096	431
451.166	45
451.237	5440
451.307	10648
451.377	3457
451.447	377
451.518	540
451.588	-103
451.658	1200
451.728	3228
451.799	13997
451.869	11320
451.939	1706
452.009	419
452.079	405
452.149	1454
452.219	5339
452.289	14784
452.360	8160
452.430	1826
452.500	1668
452.570	1916
452.640	4623
452.710	14305
452.780	16215
452.850	14251
452.920	10810
452.990	4013
453.060	2230
453.129	3396
453.199	4293
453.269	24400
453.339	35978
453.409	47604
453.479	62142
453.549	79968
453.619	75271
453.688	23706
453.758	3606
453.828	1241
453.898	1200
453.968	809
454.037	738
454.087	381
454.107	185
454.168	735
454.177	759
454.247	549
454.249	593
454.316	650
454.330	1168
454.386	2695
454.411	5810
454.456	9462
454.492	9521
454.525	9431
454.574	4717
454.595	2810
454.655	1508
454.665	1407
454.734	4607
454.736	4911
454.804	9432
454.817	12311
454.873	19230
454.898	19015
454.943	16681
454.979	10791
455.013	6375
455.060	4225
455.082	4483
455.141	9160
455.152	9433
455.221	19574
455.222	20033
455.291	21870
455.303	20214
455.360	13685
455.384	14341
455.430	15294
455.465	16330
455.499	16181
455.546	18989
455.569	18194
455.627	9937
455.638	8923
455.707	3318
455.708	3368
455.777	2382
455.789	2525
455.846	2918
455.869	2844
455.916	2537
455.950	2657
455.985	2718
456.031	3149
456.054	3175
456.112	2577
456.124	2551
456.193	3067
456.193	3014
456.262	5115
456.274	5630
456.332	6965
456.355	7027
456.401	5398
456.436	4509
456.470	3872
456.516	3011
456.540	2829
456.597	2620
456.609	2519
456.678	3173
456.678	3139
456.747	2479
456.759	2574
456.817	2906
456.840	2817
456.886	2539
456.920	2967
456.955	3714
457.001	4161
457.024	5084
457.082	8684
457.093	9125
457.162	12821
457.163	12932
457.232	10653
457.243	10102
457.301	5657
457.324	4199
457.370	3877
457.405	4139
457.439	4550
457.485	4780
457.508	4899
457.566	5558
457.577	5774
457.646	8009
457.647	8085
457.715	15090
457.727	16281
457.784	24769
457.808	30404
457.853	35919
457.889	38772
457.922	33555
457.969	23410
457.991	26552
458.050	38270
458.060	40564
458.129	63675
458.130	64369
458.198	47883
458.211	43196
458.267	23162
458.292	15544
458.336	13802
458.372	13243
458.405	19838
458.453	31233
458.474	40635
458.533	71720
458.543	73942
458.611	98749
458.614	99482
458.680	47189
458.694	35149
458.749	18197
458.775	12842
458.818	9957
458.855	8599
458.887	8551
458.936	8443
458.955	8285
459.016	7854
459.024	7866
459.093	8796
459.097	8877
459.162	10132
459.177	10504
459.230	11977
459.257	12702
459.299	12078
459.338	11479
459.368	12064
459.418	13175
459.437	12297
459.499	8882
459.505	8811
459.574	8618
459.579	8651
459.643	8609
459.659	8543
459.711	9112
459.740	9695
459.780	10861
459.820	11928
459.849	12200
459.900	13109
459.917	12985
459.981	12564
459.986	12531
460.054	11797
460.061	11781
460.123	13530
460.141	14150
460.191	17557
460.222	19848
460.260	22208
460.302	24986
460.328	22340
460.382	16026
460.397	15881
460.462	15183
460.465	15390
460.534	21372
460.543	22132
460.602	53927
460.623	65893
460.671	100443
460.703	127919
460.739	110365
460.783	81013
460.808	62978
460.864	15953
460.876	14379
460.944	12093
460.945	12061
461.013	12147
461.024	12203
461.081	13144
461.104	13788
461.150	13123
461.184	12045
461.218	11735
461.264	11491
461.286	11552
461.345	11871
461.355	11821
461.423	11601
461.425	11599
461.491	13514
461.505	13941
461.559	27805
461.585	34421
461.628	55796
461.665	75333
461.696	81092
461.745	91663
461.764	75883
461.825	19000
461.832	18471
461.901	15529
461.905	15430
461.969	13546
461.985	13108
462.037	12362
462.065	11768
462.105	14322
462.145	17521
462.173	26225
462.225	42086
462.241	46690
462.305	66275
462.310	64032
462.378	27502
462.385	23244
462.446	15941
462.465	14011
462.514	14161
462.545	14331
462.582	13898
462.625	13280
462.650	13136
462.705	13078
462.718	13520
462.785	15653
462.786	15814
462.854	24928
462.865	26479
462.922	32337
462.945	34552
462.990	23677
463.025	14971
463.058	13785
463.104	12172
463.126	12316
463.184	12573
463.194	12766
463.262	14314
463.264	14374
463.330	15282
463.344	15352
463.398	17071
463.424	17869
463.466	18065
463.504	18411
463.533	18004
463.583	17125
463.601	18293
463.663	22293
463.669	22992
463.737	30958
463.743	31674
463.805	47982
463.823	52648
463.873	78135
463.903	93912
463.940	97750
463.982	101835
464.008	78767
464.062	28223
464.076	26037
464.142	15470
464.144	15469
464.211	15497
464.221	15555
464.279	16962
464.301	17455
464.347	19722
464.381	21372
464.414	23844
464.461	27210
464.482	28150
464.540	30547
464.550	29684
464.617	22888
464.620	22634
464.685	24651
464.699	25033
464.753	27707
464.779	29015
464.820	30693
464.859	32205
464.888	31880
464.938	31134
464.956	31544
465.018	32541
465.023	32093
465.091	25788
465.098	25078
465.158	24176
465.177	23962
465.226	25117
465.257	25668
465.293	27513
465.336	29579
465.361	32187
465.416	37972
465.428	40636
465.495	54836
465.496	55138
465.563	87564
465.575	93120
465.631	112311
465.654	120248
465.698	72698
465.734	32678
465.765	29348
465.813	24379
465.833	24254
465.893	24206
465.900	24241
465.968	24187
465.972	24128
466.035	24598
466.052	24691
466.102	26126
466.131	26842
466.170	26762
466.210	26583
466.237	27436
466.290	28921
466.304	29333
466.369	30957
466.372	31118
466.439	34036
466.449	34391
466.506	37891
466.528	39115
466.573	54229
466.607	65384
466.641	95623
466.687	137548
466.708	151114
466.766	187760
466.775	173723
466.842	65080
466.845	59789
466.909	44796
466.925	41164
466.977	39104
467.004	37923
467.044	38204
467.083	38332
467.111	41293
467.163	46614
467.178	47579
467.242	51097
467.245	51055
467.312	47891
467.321	47368
467.379	46383
467.400	45879
467.446	49171
467.480	51368
467.559	45465
467.638	38571
467.717	40821
467.796	45911
467.875	54042
467.955	46647
468.034	68345
468.113	153342
468.192	221182
468.271	60465
468.350	42354
468.429	45936
468.508	48041
468.588	39493
468.667	40009
468.746	44826
468.825	42692
468.904	33223
468.983	41194
469.062	64330
469.141	78452
469.220	33109
469.299	30714
469.378	35698
469.456	39978
469.535	36737
469.614	37428
469.693	39997
469.772	52053
469.851	72827
469.930	52250
470.009	39225
470.088	43019
470.166	56637
470.245	90965
470.324	118194
470.403	83186
470.482	54218
470.560	42094
470.639	42833
470.718	49451
470.797	39013
470.875	45360
470.954	64574
471.033	67525
471.111	28443
471.190	27218
471.269	26788
471.347	27025
471.426	28750
471.505	33467
471.583	34288
471.662	31924
471.740	28673
471.819	29813
471.898	27914
471.976	27819
472.055	28630
472.133	32442
472.212	45028
472.290	46133
472.369	29202
472.447	26144
472.526	24024
472.604	27496
472.683	29968
472.761	34505
472.839	30842
472.918	28989
472.996	30468
473.075	36779
473.153	34097
473.231	28874
473.310	35692
473.388	34915
473.466	30783
473.545	36244
473.623	52227
473.701	51675
473.780	30540
473.858	29937
473.936	35388
474.014	30192
474.093	36067
474.171	53019
474.249	74780
474.327	46977
474.405	26611
474.484	26892
474.562	28395
474.640	28238
474.718	29744
474.796	31180
474.874	28067
474.952	24695
475.030	26264
475.108	27629
475.187	32818
475.265	37039
475.343	49871
475.421	55723
475.499	31009
475.577	32269
475.655	41802
475.733	87481
475.811	155193
475.889	137774
475.966	86505
476.044	30213
476.122	38435
476.200	50827
476.278	39323
476.356	26720
476.434	28911
476.512	35638
476.590	48194
476.667	40766
476.745	25603
476.823	28131
476.901	26334
476.979	28570
477.056	27299
477.134	29350
477.212	30473
477.290	27357
477.367	23944
477.445	22331
477.523	23539
477.601	24329
477.678	23993
477.756	32135
477.834	37416
477.911	25103
477.989	24961
478.066	25408
478.144	29371
478.222	36016
478.299	56397
478.377	51306
478.454	25542
478.532	22282
478.609	26669
478.687	28558
478.764	23519
478.842	26955
478.919	30174
478.997	28727
479.074	23165
479.152	30843
479.229	39955
479.307	25606
479.384	19023
479.461	19803
479.539	23936
479.616	30369
479.694	24391
479.771	28255
479.848	30147
479.926	42740
480.003	44886
480.080	23454
480.157	21681
480.235	22450
480.312	23796
480.389	28743
480.467	49656
480.544	61443
480.621	30299
480.698	27663
480.775	32555
480.853	32632
480.930	25605
481.007	25256
481.084	31301
481.161	35357
481.238	31075
481.315	22717
481.392	21777
481.470	25376
481.547	27177
481.624	24068
481.701	23590
481.778	24690
481.855	28918
481.932	46269
482.009	80001
482.086	52879
482.163	26823
482.240	40298
482.317	70557
482.393	55346
482.470	26469
482.547	27142
482.624	23769
482.701	26840
482.778	25230
482.855	21479
482.932	20478
483.009	20497
483.085	26093
483.162	33204
483.239	30919
483.316	24542
483.393	23249
483.469	23320
483.546	28975
483.623	31268
483.699	23548
483.776	27046
483.853	32255
483.930	45562
484.006	120549
484.083	202012
484.160	83992
484.236	106336
484.313	84154
484.389	66814
484.466	58495
484.543	56985
484.619	57621
484.696	62484
484.772	65361
484.849	70727
484.925	54275
485.002	50752
485.078	57372
485.155	59162
485.231	51118
485.308	51456
485.384	54245
485.461	70050
485.537	124798
485.614	147971
485.690	55590
485.766	51544
485.843	55925
485.919	87642
485.995	92201
486.072	46527
486.148	45294
486.224	45626
486.301	50310
486.377	59276
486.453	58711
486.530	54375
486.606	68876
486.682	80450
486.758	106514
486.835	125692
486.911	97551
486.987	165103
487.063	185472
487.139	244249
487.215	163511
487.292	70513
487.368	56869
487.444	63873
487.520	79273
487.596	82167
487.672	117436
487.748	295141
487.824	440347
487.900	157976
487.976	71150
488.052	66271
488.128	77600
488.204	63092
488.280	55693
488.356	67564
488.432	146936
488.508	224103
488.584	72756
488.660	51538
488.736	52105
488.812	56475
488.888	70807
488.964	99268
489.039	232565
489.115	363965
489.191	201319
489.267	55229
489.343	48126
489.418	40107
489.494	40291
489.570	36427
489.646	40718
489.722	43155
489.797	44411
489.873	72097
489.949	168375
490.024	133851
490.100	41847
490.176	40705
490.251	56743
490.327	76491
490.403	42625
490.478	35540
490.554	31358
490.629	33386
490.705	33037
490.781	38873
490.856	38518
490.932	46995
491.007	47000
491.083	44759
491.158	40051
491.234	57602
491.309	125954
491.385	126537
491.460	43233
491.536	45500
491.611	42035
491.686	49577
491.762	69901
491.837	153447
491.913	250765
491.988	351353
492.063	440605
492.139	113630
492.214	62870
492.289	34446
492.365	34156
492.440	41274
492.515	42245
492.590	40045
492.666	32076
492.741	48746
492.816	74261
492.891	38967
492.967	30496
493.042	27933
493.117	29460
493.192	28929
493.267	39633
493.342	81631
493.418	92588
493.493	33075
493.568	26355
493.643	29975
493.718	38347
493.793	66564
493.868	74988
493.943	46402
494.018	31497
494.093	29395
494.168	29686
494.243	26942
494.318	24309
494.393	24596
494.468	24979
494.543	27376
494.618	34081
494.693	29883
494.768	28882
494.842	30108
494.917	25035
494.992	30110
495.067	25848
495.142	24867
495.217	30545
495.292	32432
495.366	37893
495.441	50296
495.516	61198
495.591	88796
495.665	316878
495.740	766372
495.815	286545
495.890	51038
495.964	36725
496.039	39327
496.114	35532
496.188	42594
496.263	41382
496.338	35209
496.412	42091
496.487	47750
496.561	54703
496.636	56217
496.710	41057
496.785	46911
496.860	54434
496.934	42223
497.009	43651
497.083	42852
497.158	46859
497.232	55952
497.307	67263
497.381	55119
497.455	67138
497.530	86921
497.604	61418
497.679	65165
497.753	103619
497.827	133690
497.902	121462
497.976	131066
498.050	269488
498.125	969829
498.199	928565
498.273	187903
498.348	144152
498.422	117911
498.496	111148
498.570	101545
498.645	73597
498.719	73565
498.793	86035
498.867	124634
498.941	150944
499.016	399069
499.090	1046001
499.164	327987
499.238	55292
499.312	49820
499.386	62967
499.460	55607
499.534	51886
499.609	65258
499.683	93971
499.757	84550
499.831	175772
499.905	710272
499.979	617288
500.053	109001
500.127	114096
500.201	87946
500.275	53327
500.349	49896
500.422	59259
500.496	91172
500.570	191620
500.644	422075
500.718	734242
500.792	148538
500.866	46684
500.940	60708
501.013	52365
501.087	54208
501.161	96931
501.235	120322
501.309	240479
501.382	670425
501.456	537429
501.530	130730
501.603	221311
501.677	77928
501.751	39151
501.825	48655
501.898	92039
501.972	273049
502.046	151878
502.119	51034
502.193	121295
502.266	293441
502.340	126699
502.413	126377
502.487	246140
502.561	141253
502.634	45740
502.708	39245
502.781	34676
502.855	27790
502.928	22768
503.002	23419
503.075	25022
503.149	28002
503.222	29017
503.295	34580
503.369	42452
503.442	59049
503.516	200114
503.589	514487
503.662	310320
503.736	99868
503.809	237031
503.882	180974
503.956	268662
504.029	237691
504.102	182194
504.175	225085
504.249	84212
504.322	51244
504.395	42366
504.468	29955
504.542	28620
504.615	23094
504.688	23045
504.761	21635
504.834	30737
504.907	41275
504.980	68853
505.053	33031
505.127	43127
505.200	46220
505.273	44336
505.346	26675
505.419	21041
505.492	19467
505.565	15563
505.638	16707
505.711	18371
505.784	18436
505.857	16796
505.930	20397
506.003	19702
506.076	23178
506.149	33381
506.221	42515
506.294	36631
506.367	100840
506.440	349744
506.513	165507
506.586	43541
506.659	25287
506.731	22119
506.804	30550
506.877	47596
506.950	29761
507.022	20436
507.095	30906
507.168	37737
507.241	24427
507.313	19669
507.386	25644
507.459	37522
507.531	23145
507.604	19899
507.677	19423
507.749	17327
507.822	27840
507.894	53774
507.967	56516
508.040	31826
508.112	27753
508.185	26080
508.257	25812
508.330	42239
508.402	26806
508.475	24398
508.547	27375
508.620	27175
508.692	46885
508.765	26971
508.837	20004
508.909	20336
508.982	20426
509.054	25556
509.127	20981
509.199	20208
509.271	18406
509.344	18441
509.416	18708
509.488	19314
509.560	21066
509.633	24801
509.705	28906
509.777	26931
509.849	41729
509.922	26613
509.994	19859
510.066	20507
510.138	22201
510.210	40862
510.283	38526
510.355	30769
510.427	30076
510.499	34078
510.571	36230
510.643	29209
510.715	50118
510.787	42819
510.859	28391
510.931	35553
511.003	48491
511.076	41083
511.148	24088
511.219	25298
511.291	44947
511.363	50718
511.435	23921
511.507	21374
511.579	22431
511.651	22583
511.723	21501
511.795	21972
511.867	22826
511.939	31041
512.010	71511
512.082	50081
512.154	26510
512.226	25884
512.298	37919
512.369	55072
512.441	42097
512.513	45028
512.585	33971
512.656	34277
512.728	38452
512.800	27622
512.871	27265
512.943	28133
513.015	24382
513.086	27934
513.158	32108
513.230	35067
513.301	54320
513.373	60342
513.444	33618
513.516	26413
513.588	26760
513.659	32526
513.731	42292
513.802	37402
513.874	82155
513.945	151639
514.016	45036
514.088	27698
514.159	32448
514.231	45731
514.302	53963
514.374	36680
514.445	37133
514.516	78242
514.588	53197
514.659	37188
514.730	70100
514.802	52654
514.873	43689
514.944	41911
515.016	38238
515.087	42556
515.158	55101
515.229	71173
515.301	47688
515.372	58837
515.443	39508
515.514	32792
515.585	27139
515.656	27490
515.728	27380
515.799	26724
515.870	30126
515.941	31419
516.012	32023
516.083	42542
516.154	51636
516.225	69370
516.296	69563
516.367	65492
516.438	79584
516.509	103008
516.580	149019
516.651	475970
516.722	1682237
516.793	647190
516.864	145063
516.935	132641
517.006	153682
517.077	204521
517.148	461975
517.219	1706713
517.289	2386875
517.360	623850
517.431	175149
517.502	70214
517.573	60630
517.643	55979
517.714	59984
517.785	65612
517.856	71672
517.926	91811
517.997	113605
518.068	149728
518.138	197326
518.209	302867
518.280	1077194
518.350	3014529
518.421	1358524
518.492	209095
518.562	108709
518.633	93677
518.703	84469
518.774	123758
518.845	265141
518.915	243778
518.986	95533
519.056	79346
519.127	131749
519.197	190491
519.268	389797
519.338	209391
519.408	62240
519.479	81666
519.549	57350
519.620	36669
519.690	28440
519.760	29969
519.831	32939
519.901	32031
519.971	27156
520.042	29626
520.112	36426
520.182	41962
520.253	46289
520.323	31376
520.393	41875
520.463	61134
520.534	46222
520.604	88848
520.674	42664
520.744	46629
520.814	104372
520.885	88855
520.955	112160
521.025	418004
521.095	135228
521.165	33458
521.235	30569
521.305	26168
521.375	24751
521.445	29094
521.515	42834
521.585	49846
521.655	45178
521.725	39823
521.795	37878
521.865	26491
521.935	41282
522.005	35982
522.075	23435
522.145	26880
522.215	33543
522.285	45728
522.355	63573
522.424	124410
522.494	101228
522.564	52057
522.634	111446
522.704	326489
522.774	107758
522.843	32957
522.913	31610
522.983	42996
523.053	32607
523.122	31340
523.192	46933
523.262	187572
523.331	165899
523.401	32702
523.471	23130
523.540	24625
523.610	18681
523.680	17965
523.749	20114
523.819	28310
523.888	27224
523.958	19102
524.027	21337
524.097	22705
524.166	20171
524.236	28186
524.305	24300
524.375	20710
524.444	19394
524.514	21699
524.583	23379
524.653	29043
524.722	33896
524.791	21882
524.861	20810
524.930	19588
524.999	22381
525.069	35155
525.138	26250
525.207	33004
525.277	23502
525.346	23628
525.415	22506
525.484	24751
525.554	30716
525.623	29698
525.692	27544
525.761	31808
525.830	34002
525.900	41662
525.969	60307
526.038	90156
526.107	175810
526.176	497498
526.245	384364
526.314	145130
526.383	271840
526.452	339677
526.522	582286
526.591	559804
526.660	207139
526.729	106270
526.797	104736
526.867	203367
526.935	844833
527.004	1347178
527.073	651135
527.142	78039
527.211	40372
527.280	40381
527.349	40579
527.418	21241
527.487	22706
527.555	20093
527.624	17469
527.693	17250
527.762	19289
527.831	16621
527.899	18797
527.968	18832
528.037	18673
528.106	27707
528.174	53595
528.243	40153
528.312	61729
528.380	81169
528.449	24676
528.518	17823
528.586	12641
528.655	15843
528.723	14369
528.792	14371
528.861	18213
528.929	14894
528.998	14160
529.066	13867
529.135	13763
529.203	13543
529.272	13709
529.340	14725
529.409	17318
529.477	15746
529.545	22675
529.614	25937
529.682	28032
529.751	30753
529.819	32403
529.887	23009
529.956	16098
530.024	18049
530.092	15235
530.161	21520
530.229	41179
530.297	19491
530.365	15331
530.434	15058
530.502	13642
530.570	14449
530.638	12516
530.707	17118
530.775	18447
530.843	14083
530.911	15282
530.979	13476
531.047	14849
531.115	15354
531.183	14057
531.252	14675
531.320	15643
531.388	13508
531.456	13968
531.524	13095
531.592	15849
531.660	18695
531.728	15243
531.796	14677
531.864	15312
531.932	16456
532.000	16602
532.067	18535
532.135	20405
532.203	23821
532.271	25885
532.339	48544
532.407	144085
532.475	74480
532.542	35653
532.610	36797
532.678	50378
532.746	216525
532.814	524572
532.881	120254
532.949	27972
533.017	21491
533.084	17502
533.152	16476
533.220	18867
533.287	21179
533.355	16874
533.423	15674
533.490	16332
533.558	16496
533.625	18122
533.693	20044
533.761	19337
533.828	20902
533.896	20659
533.963	44422
534.031	52700
534.098	75989
534.166	32905
534.233	17407
534.300	19030
534.368	20649
534.435	20356
534.503	20756
534.570	24519
534.637	23651
534.705	27603
534.772	31818
534.840	52397
534.907	227262
534.974	258112
535.041	37659
535.109	30573
535.176	19781
535.243	18010
535.310	19591
535.378	18024
535.445	15076
535.512	15603
535.579	16241
535.646	16042
535.714	16706
535.781	22146
535.848	20463
535.915	20888
535.982	18743
536.049	18995
536.116	19870
536.183	18864
536.250	21086
536.317	21841
536.384	28426
536.451	44707
536.518	43697
536.585	30282
536.652	39306
536.719	59202
536.786	46055
536.853	36048
536.920	52687
536.987	83635
537.053	75538
537.120	282043
537.187	213024
537.254	29264
537.321	22752
537.388	22111
537.454	18002
537.521	17755
537.588	17755
537.654	22070
537.721	24230
537.788	23656
537.855	20609
537.921	22222
537.988	21887
538.055	22697
538.121	21284
538.188	25548
538.254	43654
538.321	89561
538.388	48572
538.454	23483
538.521	21953
538.587	19975
538.654	18624
538.720	19475
538.787	19184
538.853	22114
538.920	28627
538.986	28446
539.053	23473
539.119	25553
539.185	23936
539.252	31074
539.318	50314
539.385	33953
539.451	30614
539.517	29367
539.583	34425
539.650	83586
539.716	204900
539.782	51672
539.849	25679
539.915	24034
539.981	26469
540.047	33746
540.114	29394
540.180	28711
540.246	30560
540.312	44371
540.378	89275
540.444	79021
540.510	86018
540.576	232543
540.643	63927
540.709	24970
540.775	23662
540.841	23960
540.907	33405
540.973	50050
541.039	46925
541.105	50777
541.171	27880
541.237	23730
541.303	25836
541.369	30651
541.435	43202
541.500	74188
541.566	43347
541.632	22779
541.698	20117
541.764	21782
541.830	19851
541.896	20786
541.961	21494
542.027	22603
542.093	23509
542.159	25681
542.224	29818
542.290	43542
542.356	75792
542.421	79387
542.487	34524
542.553	27525
542.618	29021
542.684	25922
542.750	27002
542.815	30992
542.881	55887
542.947	205693
543.012	130297
543.078	26254
543.143	23090
543.209	25634
543.274	26311
543.340	30976
543.405	78267
543.471	115327
543.536	28706
543.602	23144
543.667	20646
543.732	20132
543.798	19558
543.863	20704
543.928	19399
543.994	18544
544.059	19013
544.124	20919
544.190	20594
544.255	22870
544.320	24102
544.386	27880
544.451	39016
544.516	43556
544.581	42060
544.646	130162
544.712	183562
544.777	37525
544.842	30284
544.907	30209
544.972	26337
545.037	25172
545.102	27884
545.168	27525
545.233	29897
545.298	32305
545.363	37208
545.428	42199
545.493	76460
545.558	164689
545.623	58759
545.688	29518
545.753	26972
545.818	26635
545.883	29023
545.947	27769
546.012	31843
546.077	31719
546.142	30443
546.207	32070
546.272	42859
546.337	44516
546.401	33653
546.466	31643
546.531	30934
546.596	36103
546.661	34690
546.725	33044
546.790	31338
546.855	32035
546.919	34044
546.984	38018
547.049	39975
547.113	48465
547.178	44712
547.243	52263
547.307	58274
547.372	68628
547.436	70331
547.501	59729
547.565	64719
547.630	72116
547.695	68823
547.759	72278
547.823	64722
547.888	57693
547.952	58789
548.017	62403
548.081	71558
548.146	82633
548.210	73790
548.274	67450
548.339	64867
548.403	60181
548.468	56603
548.532	56514
548.596	57659
548.660	58901
548.725	66148
548.789	75193
548.853	74445
548.917	66096
548.982	77428
549.046	71058
549.110	53411
549.174	54288
549.238	60021
549.303	62331
549.367	67262
549.431	62614
549.495	60356
549.559	59549
549.623	68614
549.687	79581
549.751	93621
549.815	87424
549.879	83990
549.943	79998
550.007	85199
550.071	86187
550.135	91005
550.199	79089
550.263	74305
550.327	74935
550.391	88362
550.455	79856
550.519	80912
550.582	88185
550.646	112240
550.710	111313
550.774	95093
550.838	95472
550.901	99712
550.965	106184
551.029	111813
551.093	123076
551.156	143785
551.220	210823
551.284	220746
551.347	144864
551.411	192942
551.475	182926
551.538	105564
551.602	94897
551.666	89989
551.729	83955
551.793	81950
551.856	81154
551.920	79098
551.983	79206
552.047	78869
552.110	79316
552.174	80489
552.237	83051
552.301	75600
552.364	75290
552.428	73520
552.491	78543
552.554	80388
552.618	82219
552.681	86827
552.745	94906
552.808	147520
552.871	196321
552.934	120681
552.998	89292
553.061	82796
553.124	75248
553.187	72662
553.251	76032
553.314	74988
553.377	74123
553.440	82160
553.503	103087
553.567	111054
553.630	79129
553.693	76961
553.756	78296
553.819	74930
553.882	73902
553.945	74075
554.008	72166
554.071	72041
554.134	73393
554.197	69306
554.260	67193
554.323	72416
554.386	73349
554.449	73756
554.512	72568
554.575	68825
554.638	71393
554.701	68851
554.764	67692
554.827	65555
554.889	64722
554.952	59498
555.015	59218
555.078	60409
555.141	60767
555.203	59492
555.266	59978
555.329	61370
555.391	60111
555.454	62264
555.517	58687
555.580	55501
555.642	53329
555.705	53228
555.768	53536
555.830	52742
555.893	50861
555.955	48225
556.018	50086
556.080	49232
556.143	49746
556.206	50615
556.268	50738
556.330	50757
556.393	50036
556.455	49748
556.518	62552
556.580	60175
556.643	45506
556.705	44012
556.767	43298
556.830	44645
556.892	49822
556.955	70003
557.017	52178
557.079	42308
557.142	42868
557.204	50182
557.266	88250
557.328	69468
557.391	37565
557.453	36446
557.515	37822
557.577	46648
557.639	47327
557.701	37084
557.764	37658
557.826	39209
557.888	42376
557.950	44270
558.012	46159
558.074	60115
558.136	136930
558.198	306644
558.260	101253
558.322	52996
558.384	54528
558.446	62067
558.508	70266
558.570	90539
558.632	137441
558.694	184627
558.756	193442
558.818	589403
558.880	1298667
558.942	372008
559.003	332598
559.065	149615
559.127	73847
559.189	72509
559.251	79897
559.312	109589
559.374	277649
559.436	892002
559.498	366657
559.559	80614
559.621	70909
559.683	79407
559.744	133965
559.806	441233
559.868	579393
559.929	107790
559.991	74959
560.052	111478
560.114	300084
560.176	170893
560.237	181343
560.299	270045
560.360	59404
560.422	34829
560.483	31746
560.545	29504
560.606	28131
560.667	27857
560.729	27389
560.790	25706
560.852	26495
560.913	25818
560.974	25726
561.036	26603
561.097	26204
561.158	26273
561.220	27649
561.281	27512
561.342	29137
561.403	33318
561.465	44653
561.526	108531
561.587	127874
561.648	36502
561.709	27112
561.771	25725
561.832	25278
561.893	24609
561.954	25489
562.015	24314
562.076	24790
562.137	25432
562.198	24183
562.259	25438
562.320	25485
562.381	30345
562.442	42967
562.503	32606
562.564	24931
562.625	24345
562.686	24105
562.747	26342
562.808	24754
562.869	24213
562.930	28961
562.991	28228
563.051	25206
563.112	25154
563.173	24275
563.234	23088
563.294	23439
563.355	24609
563.416	24954
563.477	24376
563.537	25262
563.598	26505
563.659	26168
563.720	25379
563.780	26480
563.841	28462
563.901	24597
563.962	23623
564.023	24792
564.083	25056
564.144	25618
564.204	25571
564.265	25452
564.325	30125
564.386	56616
564.446	45776
564.507	24190
564.567	23541
564.628	23682
564.688	24143
564.749	23561
564.809	27962
564.869	32430
564.930	24578
564.990	24375
565.050	23024
565.111	24306
565.171	23841
565.231	23125
565.292	23422
565.352	23297
565.412	24374
565.472	25564
565.532	27938
565.593	25767
565.653	23906
565.713	25716
565.773	26731
565.833	34508
565.893	41830
565.953	27259
566.013	26290
566.074	27495
566.134	34635
566.194	54346
566.254	54120
566.314	36230
566.374	27151
566.434	28481
566.494	28629
566.554	27790
566.614	28483
566.673	29419
566.733	30882
566.793	31665
566.853	33396
566.913	33354
566.973	34101
567.033	34265
567.092	34413
567.152	34005
567.212	35003
567.272	36035
567.331	36949
567.391	37766
567.451	39525
567.511	50183
567.570	47926
567.630	34394
567.690	34262
567.749	35842
567.809	38566
567.868	42026
567.928	46841
567.988	54409
568.047	60479
568.107	70707
568.166	95272
568.226	148077
568.285	204291
568.345	170332
568.404	135468
568.464	116741
568.523	108421
568.582	108335
568.642	120955
568.701	149450
568.761	216007
568.820	341307
568.879	325237
568.939	240932
568.998	172560
569.057	127979
569.116	103263
569.176	85723
569.235	70622
569.294	61792
569.353	54692
569.413	49631
569.472	45408
569.531	40755
569.590	38581
569.649	35825
569.708	33330
569.767	33977
569.827	36546
569.886	32500
569.945	28167
570.004	30416
570.063	29479
570.122	31313
570.181	32044
570.240	32956
570.299	31000
570.358	31775
570.417	26406
570.475	25492
570.534	28054
570.593	27070
570.652	27060
570.711	27558
570.770	26283
570.829	29222
570.887	28347
570.946	31628
571.005	25390
571.064	26407
571.122	30244
571.181	30209
571.240	23881
571.299	22283
571.357	24578
571.416	24205
571.475	28517
571.533	27624
571.592	23768
571.650	24242
571.709	21991
571.768	23877
571.826	21434
571.885	21301
571.943	20483
572.002	21455
572.060	21592
572.119	19813
572.177	20020
572.236	18702
572.294	19373
572.352	20127
572.411	19497
572.469	19402
572.528	17877
572.586	19706
572.644	22574
572.703	26491
572.761	21111
572.819	20443
572.877	18942
572.936	17192
572.994	17830
573.052	18350
573.110	19789
573.169	19885
573.227	18479
573.285	18662
573.343	17994
573.401	18589
573.459	17820
573.517	18735
573.576	17887
573.634	18954
573.692	19412
573.750	18892
573.808	18561
573.866	19750
573.924	24975
573.982	22799
574.040	18228
574.098	17942
574.155	17068
574.213	17282
574.271	17562
574.329	18511
574.387	15728
574.445	16470
574.503	16758
574.560	15252
574.618	15530
574.676	17407
574.734	17011
574.792	16442
574.849	16371
574.907	15113
574.965	15632
575.022	14874
575.080	14920
575.138	16203
575.195	17216
575.253	18191
575.311	20177
575.368	16766
575.426	15942
575.483	15823
575.541	16043
575.598	16178
575.656	16343
575.713	16759
575.771	16918
575.828	16627
575.886	15347
575.943	16680
576.001	17370
576.058	18089
576.115	18387
576.173	21975
576.230	23989
576.287	28062
576.345	21896
576.402	17394
576.459	17631
576.517	18580
576.574	20295
576.631	19399
576.688	17938
576.746	16991
576.803	16416
576.860	17159
576.917	16395
576.974	17191
577.031	17129
577.089	17293
577.146	17159
577.203	17527
577.260	17956
577.317	19943
577.374	21156
577.431	19568
577.488	17607
577.545	16268
577.602	17746
577.659	15520
577.716	16086
577.773	15893
577.830	15862
577.886	16777
577.943	16019
578.000	17235
578.057	17540
578.114	17134
578.171	18473
578.227	18408
578.284	15969
578.341	17547
578.398	16715
578.454	19403
578.511	20750
578.568	22237
578.625	19220
578.681	16943
578.738	15593
578.794	16483
578.851	16405
578.908	16608
578.964	17553
579.021	18260
579.077	17309
579.134	16182
579.190	16467
579.247	16980
579.303	16328
579.360	16346
579.416	16159
579.473	15469
579.529	15960
579.586	16341
579.642	16000
579.698	16513
579.755	16954
579.811	17341
579.867	16284
579.924	16102
579.980	15757
580.036	16736
580.093	15653
580.149	17322
580.205	16925
580.261	17400
580.317	17636
580.374	18420
580.430	20684
580.486	19990
580.542	18353
580.598	17464
580.619	18134
580.654	19321
580.692	18477
580.710	18096
580.765	17180
580.767	17176
580.823	17809
580.838	17943
580.879	18386
580.911	18012
580.935	17770
580.984	17074
580.991	17011
581.047	16942
581.057	17020
581.103	17379
581.130	17995
581.159	18714
581.203	17898
581.215	17711
581.270	17890
581.276	17854
581.326	17681
581.349	17589
581.382	17513
581.422	18093
581.438	18356
581.494	17997
581.494	17977
581.550	17622
581.567	17831
581.606	18364
581.640	18365
581.661	18404
581.713	17992
581.717	17968
581.773	17087
581.786	17326
581.829	18224
581.859	17990
581.885	17787
581.932	18004
581.940	18091
581.996	17795
582.004	17897
582.052	18253
582.077	17772
582.107	17395
582.150	17348
582.163	17314
582.219	17039
582.223	17090
582.274	17858
582.296	18117
582.330	18556
582.368	19122
582.386	19401
582.441	17074
582.441	17079
582.497	17780
582.514	17617
582.552	17431
582.587	17730
582.608	17888
582.659	17850
582.663	17854
582.719	18063
582.732	18153
582.774	18305
582.805	17973
582.830	17922
582.877	17452
582.885	17332
582.941	18235
582.950	18143
582.996	17764
583.023	18106
583.052	18577
583.095	18448
583.107	18376
583.162	18178
583.168	18185
583.218	18084
583.240	17821
583.273	17602
583.313	18190
583.328	18445
583.384	17911
583.385	17920
583.439	17925
583.458	17780
583.494	17518
583.531	17335
583.549	17327
583.603	17545
583.605	17541
583.660	17453
583.676	17424
583.715	17557
583.748	18468
583.770	18995
583.820	19151
583.825	19157
583.881	18117
583.893	18045
583.936	17906
583.965	17787
583.991	17560
584.038	17992
584.046	18098
584.101	17995
584.110	18065
584.156	18327
584.183	18088
584.211	17730
584.255	17764
584.266	17847
584.321	18117
584.328	18122
584.376	17811
584.400	17863
584.431	17927
584.472	18163
584.486	18277
584.541	18393
584.545	18424
584.596	18373
584.617	18540
584.651	19183
584.689	19497
584.706	19482
584.761	19066
584.762	19087
584.816	20293
584.834	20356
584.871	20362
584.906	20536
584.926	20613
584.978	20436
584.980	20433
585.035	21959
585.051	22483
585.090	23245
585.123	23705
585.145	24123
585.195	25077
585.200	25179
585.254	26951
585.267	27847
585.309	30228
585.340	31500
585.364	32470
585.412	34151
585.419	34386
585.473	37278
585.484	38583
585.528	44556
585.556	51828
585.583	60981
585.628	90210
585.637	97771
585.692	196399
585.700	212990
585.747	287417
585.772	218441
585.801	126801
585.845	57630
585.856	44742
585.910	33837
585.917	33104
585.965	29893
585.989	29036
586.019	28013
586.061	27488
586.074	27405
586.128	28133
586.133	28199
586.183	28605
586.205	29135
586.237	29600
586.277	28759
586.292	28384
586.346	27942
586.349	28020
586.401	28686
586.421	29232
586.455	30313
586.493	31575
586.509	32346
586.564	37240
586.565	37620
586.618	52584
586.637	50847
586.672	44069
586.709	37014
586.727	34168
586.781	34154
586.781	34102
586.835	32873
586.853	32803
586.889	32576
586.925	32052
586.944	31785
586.996	33312
586.998	33312
587.052	34718
587.068	34983
587.106	35189
587.140	35701
587.161	35864
587.212	36094
587.215	36078
587.269	38836
587.284	39237
587.323	39586
587.356	40441
587.377	41229
587.427	43257
587.431	43272
587.485	44355
587.499	44892
587.539	46323
587.571	47640
587.593	48733
587.643	52076
587.648	52299
587.702	55453
587.715	56579
587.755	59302
587.786	60745
587.810	61906
587.858	66285
587.864	66661
587.917	72088
587.930	73524
587.971	77824
588.001	81989
588.025	85608
588.073	92684
588.079	93421
588.133	104231
588.145	107246
588.187	117536
588.217	125570
588.241	132423
588.288	148492
588.295	150565
588.348	174392
588.360	180399
588.402	201883
588.431	219233
588.456	234734
588.503	271365
588.510	276619
588.564	329370
588.575	343775
588.617	403517
588.646	454003
588.671	506446
588.718	626315
588.725	649709
588.778	873932
588.789	926252
588.832	1185563
588.861	1354040
588.886	1470773
588.932	1557446
588.939	1541105
588.993	1387206
589.004	1408165
589.047	1461976
589.075	1398810
589.100	1262809
589.147	929091
589.154	894280
589.207	689191
589.218	658279
589.261	596405
589.290	575659
589.314	583922
589.361	631413
589.368	647180
589.421	828627
589.433	876455
589.475	1132215
589.504	1291996
589.528	1354408
589.576	1364830
589.582	1338110
589.635	1239486
589.647	1190577
589.689	904604
589.718	682701
589.742	565288
589.790	382444
589.795	368364
589.849	276676
589.861	259702
589.902	218995
589.932	192930
589.955	175953
590.004	145826
590.009	143032
590.062	123366
590.075	119297
590.115	107700
590.146	100699
590.168	96245
590.218	88302
590.222	87347
590.275	79269
590.289	77624
590.328	73206
590.360	70000
590.381	67467
590.431	62803
590.435	62307
590.488	57942
590.503	57053
590.541	54803
590.574	53068
590.594	51870
590.645	49885
590.647	49602
590.700	46353
590.716	45735
590.753	44525
590.787	43544
590.806	42687
590.859	41072
590.859	40909
590.912	39872
590.930	39788
590.965	38788
591.001	37905
591.018	37244
591.071	35864
591.072	35982
591.124	35618
591.143	35676
591.177	35033
591.214	34721
591.230	34369
591.283	33657
591.285	33747
591.336	32963
591.356	32840
591.389	32749
591.427	32653
591.442	31973
591.495	30041
591.498	30012
591.547	29389
591.569	29380
591.600	28818
591.640	28068
591.653	28064
591.706	28852
591.711	29036
591.759	28717
591.782	28725
591.811	28845
591.853	29350
591.864	28910
591.917	26972
591.924	26802
591.969	26261
591.995	26252
592.022	26447
592.066	26914
592.075	26805
592.127	26895
592.137	27045
592.180	28074
592.208	28769
592.233	27411
592.279	25120
592.285	25004
592.338	25077
592.350	25193
592.390	24340
592.421	23898
592.443	23901
592.491	24215
592.495	24085
592.548	23670
592.562	23658
592.600	23507
592.633	23562
592.653	23214
592.704	22459
592.705	22591
592.775	22975
592.846	23258
592.916	23170
592.987	23248
593.058	22674
593.128	21780
593.199	23268
593.270	22505
593.341	21590
593.411	21362
593.482	21498
593.553	23514
593.623	22467
593.694	21681
593.764	22937
593.835	21790
593.906	21480
593.976	21796
594.047	21710
594.117	24164
594.188	23413
594.258	21431
594.329	21584
594.399	22182
594.470	21489
594.540	22451
594.611	23217
594.681	22094
594.751	21355
594.822	23531
594.892	23787
594.963	23952
595.033	23702
595.103	24650
595.174	24946
595.244	28575
595.314	30254
595.384	24269
595.455	24674
595.525	24453
595.595	25961
595.665	26592
595.736	25318
595.806	24643
595.876	25659
595.946	25391
596.016	25755
596.087	26681
596.157	26412
596.227	27003
596.297	27541
596.367	28032
596.437	31328
596.507	34043
596.577	34574
596.647	30829
596.717	30527
596.787	30895
596.857	30355
596.927	30899
596.997	32340
597.067	32159
597.137	31793
597.207	32972
597.277	32950
597.347	31270
597.417	30504
597.487	31501
597.557	32127
597.626	31804
597.696	32198
597.766	34336
597.836	35149
597.906	30348
597.975	28356
598.045	28098
598.115	30363
598.185	31941
598.254	35923
598.324	37765
598.394	37599
598.464	36804
598.533	35318
598.603	33536
598.672	32675
598.742	33876
598.812	33686
598.881	33319
598.951	32777
599.020	32985
599.090	34226
599.159	35588
599.229	33458
599.299	32073
599.368	32894
599.437	33658
599.507	31443
599.576	30075
599.646	30558
599.715	30105
599.785	29636
599.854	29266
599.924	30813
599.993	28901
600.062	29172
600.132	29517
600.201	32448
600.270	34660
600.340	36825
600.409	35076
600.478	35840
600.547	35597
600.617	33634
600.686	28937
600.755	26310
600.824	26449
600.894	25203
600.963	24846
601.032	25329
601.101	24741
601.170	23497
601.239	22266
601.308	23754
601.378	22928
601.447	23393
601.516	22631
601.585	24275
601.654	24210
601.723	24322
601.792	24438
601.861	24705
601.930	26620
601.999	26521
602.068	25382
602.137	26209
602.206	26569
602.275	26022
602.343	27529
602.412	27329
602.481	26582
602.550	26619
602.619	25900
602.688	27178
602.756	27195
602.825	26710
602.894	28133
602.963	26812
603.032	28193
603.100	28216
603.169	28565
603.238	28122
603.307	28201
603.375	28570
603.444	29904
603.513	29220
603.581	29619
603.650	30426
603.719	28814
603.787	29395
603.856	29980
603.924	31059
603.993	32272
604.061	32881
604.130	34017
604.198	34535
604.267	34538
604.335	34895
604.404	35555
604.472	36442
604.541	37315
604.609	35952
604.678	37019
604.746	38590
604.815	37595
604.883	37754
604.951	38398
605.020	39124
605.088	39565
605.156	39499
605.225	41330
605.293	40771
605.361	40416
605.429	40774
605.498	42515
605.566	43374
605.634	45238
605.702	46184
605.771	47003
605.839	47033
605.907	46592
605.975	44865
606.043	43114
606.111	44104
606.180	43475
606.248	42734
606.316	42155
606.384	42450
606.452	46208
606.520	47772
606.588	46763
606.656	44988
606.724	42846
606.792	41719
606.860	37797
606.928	36045
606.996	34208
607.064	33211
607.132	33450
607.200	35722
607.267	37269
607.335	36444
607.403	37240
607.471	36785
607.539	36765
607.607	35763
607.674	32066
607.742	33293
607.810	32953
607.878	32424
607.946	32912
608.013	33710
608.081	34401
608.149	34819
608.216	36598
608.284	37199
608.352	36755
608.419	36452
608.487	39247
608.555	35787
608.622	37653
608.690	39293
608.757	41168
608.825	43533
608.893	42776
608.960	40137
609.028	38909
609.095	41362
609.163	39087
609.230	34739
609.298	33424
609.365	33655
609.432	36697
609.500	39344
609.567	44929
609.635	50274
609.702	52926
609.769	50807
609.837	41332
609.904	35511
609.971	36608
610.039	43569
610.106	57103
610.173	101615
610.241	221709
610.308	188135
610.375	109357
610.442	45202
610.509	37902
610.577	38139
610.644	37354
610.711	36827
610.778	38954
610.845	39057
610.912	42496
610.980	43921
611.047	43314
611.114	42678
611.181	41614
611.248	39825
611.315	44200
611.382	43664
611.449	44925
611.516	46540
611.583	46168
611.650	45348
611.717	46920
611.784	48537
611.851	50028
611.918	54538
611.984	63601
612.051	90101
612.118	170412
612.185	396158
612.252	222895
612.319	67078
612.386	59219
612.452	54148
612.519	52919
612.586	53799
612.653	53737
612.719	54370
612.786	51186
612.853	49059
612.919	46004
612.986	47649
613.053	44462
613.120	43210
613.186	41372
613.253	43308
613.319	42152
613.386	41879
613.453	43160
613.519	44330
613.586	45868
613.652	51616
613.719	47578
613.785	46805
613.852	43241
613.918	42280
613.985	43567
614.051	44629
614.118	45813
614.184	44718
614.250	43411
614.317	43397
614.383	42650
614.449	43536
614.516	43021
614.582	44185
614.648	43173
614.715	43801
614.781	42178
614.847	43478
614.914	42418
614.980	40503
615.046	41337
615.112	40661
615.179	42066
615.245	45850
615.311	47707
615.377	56881
615.443	55926
615.509	47655
615.575	46831
615.642	44850
615.708	47318
615.774	49629
615.840	53144
615.906	61274
615.972	79252
616.038	129668
616.104	233063
616.170	496417
616.236	367357
616.302	94734
616.368	69597
616.434	55072
616.500	54725
616.565	57008
616.631	65321
616.697	55968
616.763	58666
616.829	82418
616.895	133674
616.961	117035
617.026	58108
617.092	45151
617.158	45243
617.224	43077
617.289	42264
617.355	39757
617.421	38209
617.487	39483
617.552	37723
617.618	36978
617.684	35887
617.749	38012
617.815	36266
617.880	36558
617.946	35617
618.012	37408
618.077	37291
618.143	35518
618.208	36454
618.274	39354
618.339	39174
618.405	33382
618.470	34272
618.536	32472
618.601	34140
618.667	32284
618.732	30753
618.798	29127
618.863	29728
618.928	30044
618.994	32196
619.059	33164
619.124	35950
619.190	31644
619.255	29978
619.320	29436
619.386	30473
619.451	28641
619.516	27933
619.581	28420
619.647	29532
619.712	30858
619.777	28134
619.842	29755
619.907	29620
619.972	29551
620.038	29028
620.103	29123
620.168	28525
620.233	29764
620.298	28792
620.363	29648
620.428	30267
620.493	31503
620.558	30934
620.623	31353
620.688	31332
620.753	30439
620.818	31357
620.883	31354
620.948	31087
621.013	31830
621.078	31487
621.143	30560
621.207	33946
621.272	32250
621.337	30984
621.402	31712
621.467	33005
621.532	33196
621.596	31370
621.661	31865
621.726	30533
621.791	29696
621.855	31651
621.920	31546
621.985	31724
622.049	33099
622.114	31823
622.179	32694
622.243	32804
622.308	31937
622.373	34722
622.437	33682
622.502	32231
622.566	31132
622.631	31192
622.695	32936
622.760	32120
622.824	32977
622.889	32837
622.953	33523
623.018	40156
623.082	39437
623.147	33589
623.211	32845
623.276	33662
623.340	31318
623.404	31146
623.469	31135
623.533	32229
623.597	29791
623.662	30337
623.726	29113
623.790	27608
623.854	26285
623.919	28054
623.983	27727
624.047	27576
624.111	28016
624.176	28810
624.240	28032
624.304	30993
624.368	28148
624.432	27815
624.496	29899
624.560	32302
624.625	31438
624.689	29971
624.753	30702
624.817	29485
624.881	27956
624.945	27405
625.009	26150
625.073	27128
625.137	27505
625.201	31133
625.265	30945
625.329	27927
625.393	27906
625.456	29215
625.520	27469
625.584	29075
625.648	31453
625.712	36667
625.776	51001
625.839	51883
625.903	30073
625.967	25266
626.031	31754
626.095	39840
626.158	26709
626.222	20677
626.286	21038
626.349	19681
626.413	17974
626.477	20926
626.540	19355
626.604	17635
626.668	19852
626.731	18384
626.795	18434
626.858	18594
626.922	17589
626.986	18839
627.049	16483
627.113	18958
627.176	18407
627.240	17864
627.303	17009
627.366	17127
627.430	17128
627.493	17745
627.557	17590
627.620	17817
627.684	17893
627.747	18846
627.810	15010
627.874	16372
627.937	14633
628.000	16101
628.064	16213
628.127	12509
628.190	14728
628.253	14514
628.317	12758
628.380	13923
628.443	12788
628.506	12729
628.569	12537
628.632	11875
628.696	12492
628.759	11718
628.822	11217
628.885	11954
628.948	11356
629.011	11981
629.074	11265
629.137	10700
629.200	10708
629.263	12379
629.326	9302
629.389	10809
629.452	10448
629.515	11050
629.578	11198
629.641	10943
629.704	9468
629.767	11435
629.830	10739
629.892	10595
629.955	9673
630.018	11363
630.081	10094
630.144	13833
630.207	9237
630.269	11404
630.332	10569
630.395	10092
630.458	9906
630.520	9180
630.583	10460
630.646	9500
630.708	8587
630.771	8355
630.834	10982
630.896	8970
630.959	9048
631.021	9553
631.084	8699
631.146	10107
631.209	10601
631.272	9179
631.334	9803
631.397	9396
631.459	8766
631.522	9652
631.584	9747
631.646	10798
631.709	10279
631.771	11733
631.834	10477
631.896	9979
631.958	7889
632.021	9728
632.083	7592
632.145	9463
632.208	9193
632.270	8651
632.332	7682
632.395	7567
632.457	9802
632.519	7739
632.581	9639
632.643	7124
632.706	9151
632.768	7629
632.830	9472
632.892	8367
632.954	8046
633.016	9500
633.078	8040
633.141	7728
633.203	7982
633.265	8742
633.327	8741
633.389	7371
633.451	9178
633.513	8702
633.575	9402
633.637	9507
633.698	8644
633.760	9298
633.822	8580
633.884	8485
633.946	9491
634.008	7656
634.070	8587
634.132	8630
634.193	8705
634.255	9760
634.317	9664
634.379	11234
634.441	9126
634.502	8264
634.564	9411
634.626	8070
634.687	8312
634.749	7593
634.811	8113
634.873	7265
634.934	6764
634.996	8069
635.057	6413
635.119	7624
635.181	7794
635.242	8253
635.304	5914
635.365	10080
635.427	7543
635.488	7863
635.550	6082
635.611	7647
635.673	5657
635.734	9035
635.796	8371
635.857	8872
635.918	8552
635.980	10340
636.041	7937
636.102	10094
636.164	9448
636.225	10645
636.286	7174
636.348	8412
636.409	7521
636.470	6322
636.531	7390
636.593	6616
636.654	7965
636.715	7308
636.776	6495
636.838	6353
636.899	7071
636.960	6932
637.021	5855
637.082	6439
637.143	6571
637.204	5553
637.265	6006
637.326	6839
637.387	6940
637.448	6076
637.509	6479
637.570	6032
637.631	7183
637.692	4744
637.753	4507
637.814	6470
637.875	5735
637.936	6879
637.997	5530
638.058	5954
638.119	7224
638.179	6216
638.240	5714
638.301	5809
638.362	5345
638.423	5334
638.483	7236
638.544	4872
638.605	6912
638.666	4452
638.726	6154
638.787	6604
638.848	5467
638.908	5604
638.969	5738
639.030	6111
639.090	4254
639.151	5109
639.211	7068
639.272	7852
639.332	10105
639.393	7215
639.453	4766
639.514	4940
639.574	5587
639.635	5655
639.695	5578
639.756	4756
639.816	6198
639.877	6961
639.937	9575
639.997	11570
640.058	4725
640.118	4924
640.178	5954
640.239	4690
640.299	4599
640.359	5646
640.420	5001
640.480	6141
640.540	5350
640.600	5436
640.661	5687
640.721	4607
640.781	7625
640.841	4623
640.901	6125
640.961	5729
641.021	5447
641.082	5049
641.142	6896
641.202	7185
641.262	3700
641.322	6278
641.382	3613
641.442	5625
641.502	4559
641.562	6005
641.622	4120
641.682	4954
641.742	5406
641.802	4402
641.861	6267
641.921	5335
641.981	6275
642.041	5353
642.101	5740
642.161	4800
642.221	4503
642.280	4136
642.340	3537
642.400	3466
642.460	5550
642.519	4112
642.579	3672
642.639	5174
642.698	2031
642.758	6869
642.818	5046
642.877	3954
642.937	5084
642.997	5945
643.056	6698
643.116	3886
643.175	5258
643.235	4209
643.294	4050
643.354	5294
643.414	6218
643.473	7255
643.532	7945
643.592	10842
643.651	17110
643.711	30537
643.770	59431
643.830	141309
643.889	280403
643.948	61638
644.008	12228
644.067	7601
644.126	5177
644.186	5953
644.245	5432
644.304	4413
644.363	6923
644.423	3194
644.482	4524
644.541	5275
644.600	2727
644.659	5836
644.719	6720
644.778	8859
644.837	15750
644.896	32572
644.955	65120
645.014	21514
645.073	6330
645.132	4369
645.191	5249
645.250	4681
645.309	6036
645.368	5268
645.427	6448
645.486	8317
645.545	14750
645.604	5368
645.663	4463
645.722	3560
645.781	5664
645.840	5722
645.898	6798
645.957	11356
646.016	14986
646.075	27784
646.134	52381
646.192	142510
646.251	192460
646.310	27450
646.369	7655
646.427	7725
646.486	4806
646.545	5163
646.603	4248
646.662	5593
646.721	5032
646.779	3217
646.838	3517
646.896	6434
646.955	6239
647.014	9384
647.072	16717
647.131	41499
647.189	18805
647.248	4422
647.306	4345
647.365	4282
647.423	2400
647.481	4842
647.540	1887
647.598	3449
647.657	2880
647.715	3717
647.773	2121
647.832	4152
647.890	2320
647.948	2019
648.007	3850
648.065	2067
648.123	2625
648.181	4282
648.240	3219
648.298	2073
648.356	3376
648.414	2564
648.472	2706
648.531	3273
648.589	2433
648.647	2189
648.705	3079
648.763	3177
648.821	2384
648.879	2849
648.937	3899
648.995	3880
649.053	4747
649.111	7416
649.169	13208
649.227	21486
649.285	43453
649.343	118073
649.401	52727
649.459	14668
649.516	8351
649.574	3220
649.632	5409
649.690	5393
649.748	5586
649.806	5877
649.863	11864
649.921	30015
649.979	18113
650.037	3948
650.094	1820
650.152	2972
650.210	2123
650.268	2316
650.325	2671
650.383	2333
650.440	1127
650.498	2691
650.556	2158
650.613	1491
650.671	2500
650.728	2513
650.786	2249
650.843	1915
650.901	670
650.958	3064
651.016	2257
651.073	2010
651.131	1860
651.188	397
651.246	2867
651.303	980
651.360	2280
651.418	1651
651.475	2432
651.532	1216
651.590	1962
651.647	640
651.704	1758
651.762	1870
651.819	1706
651.876	830
651.933	1056
651.990	1537
652.048	-209
652.105	1247
652.162	2512
652.219	1451
652.276	2355
652.333	2066
652.390	695
652.448	2270
652.505	1216
652.562	1304
652.619	1348
652.676	950
652.733	2347
652.790	1190
652.847	1200
652.904	1080
652.961	491
653.017	54
653.074	2159
653.131	1152
653.188	631
653.245	1681
653.302	1782
653.359	1757
653.415	1410
653.472	1906
653.529	2431
653.586	572
653.642	437
653.699	2349
653.756	-87
653.813	861
653.869	1311
653.926	380
653.983	962
654.039	1690
654.096	1049
654.152	2635
654.209	28
654.266	1666
654.322	902
654.379	2111
654.435	1370
654.492	2516
654.548	2357
654.605	3608
654.661	2450
654.717	988
654.774	1955
654.830	1626
654.887	1316
654.943	724
655.000	1700
655.056	1584
655.112	1159
655.168	541
655.225	1320
655.281	2047
655.337	1630
655.394	1799
655.450	2021
655.506	2339
655.562	3300
655.618	2735
655.675	1227
655.731	952
655.787	255
655.843	1750
655.899	795
655.955	1537
656.011	1128
656.067	688
656.123	1253
656.179	1367
656.235	3021
656.291	570
656.347	2320
656.403	871
656.459	1269
656.515	1586
656.571	1114
656.627	691
656.683	1217
656.739	491
656.795	2042
656.850	1908
656.906	2337
656.962	2546
657.018	477
657.074	1733
657.129	1216
657.185	1808
657.241	4753
657.297	3029
657.352	1103
657.408	1347
657.464	1386
657.519	807
657.575	560
657.630	640
657.686	992
657.742	116
657.797	1002
657.853	772
657.908	1586
657.964	477
658.019	1490
658.075	1261
658.130	1929
658.186	342
658.241	798
658.297	318
658.352	731
658.407	1629
658.463	721
658.518	1239
658.573	524
658.629	666
658.684	724
658.739	1614
658.795	210
658.850	592
658.905	320
658.960	1672
659.016	231
659.071	920
659.126	1055
659.181	1089
659.236	3281
659.291	3403
659.346	969
659.401	1024
659.457	1720
659.512	1485
659.567	1604
659.622	1369
659.677	1508
659.732	64
659.787	678
659.842	1305
659.897	1880
659.952	714
660.007	1127
660.061	1570
660.116	173
660.171	-42
660.226	878
660.281	2298
660.336	456
660.391	1484
660.445	464
660.500	1428
660.555	1121
660.610	241
660.664	1640
660.719	536
660.774	1389
660.828	605
660.883	1028
660.938	1514
660.992	372
661.047	1141
661.101	463
661.156	172
661.211	873
661.265	628
661.320	1388
661.374	575
661.429	141
661.483	1527
661.538	-287
661.592	592
661.647	829
661.701	1188
661.755	938
661.810	1675
661.864	1323
661.919	749
661.973	819
662.027	1345
662.081	1109
662.136	127
662.190	724
662.244	1333
662.299	1356
662.353	946
662.407	485
662.461	697
662.515	807
662.569	616
662.624	1910
662.678	1437
662.732	1147
662.786	383
662.840	985
662.894	1051
662.948	487
663.002	526
663.056	1214
663.110	175
663.164	433
663.218	1128
663.272	1255
663.326	1188
663.380	1420
663.434	1364
663.488	534
663.542	458
663.595	1007
663.649	771
663.703	866
663.757	983
663.811	-376
663.864	788
663.918	950
663.972	251
664.026	869
664.079	42
664.133	2017
664.187	417
664.240	1406
664.294	402
664.348	1170
664.401	184
664.455	1389
664.508	651
664.562	601
664.615	1863
664.669	665
664.722	728
664.776	248
664.829	819
664.883	951
664.936	754
664.990	1036
665.043	1432
665.097	932
665.150	1567
665.203	244
665.257	572
665.310	213
665.363	1280
665.417	1345
665.470	943
665.523	1454
665.576	688
665.630	816
665.683	565
665.736	1148
665.789	996
665.842	-161
665.895	1355
665.949	1248
666.002	440
666.055	1204
666.108	1920
666.161	1740
666.214	1095
666.267	1185
666.320	1723
666.373	1231
666.426	1580
666.479	419
666.532	1606
666.585	1292
666.638	1770
666.691	1221
666.744	1799
666.796	1652
666.849	1329
666.902	1393
666.955	890
667.008	1147
667.060	423
667.113	569
667.166	1233
667.219	568
667.271	1534
667.324	403
667.377	1065
667.430	1718
667.482	1421
667.535	1563
667.587	2245
667.640	2045
667.693	2127
667.745	3771
667.798	4087
667.850	898
667.903	1153
667.955	1839
668.008	1584
668.060	1687
668.113	1222
668.165	1477
668.218	1928
668.270	1162
668.322	1756
668.375	1132
668.427	1973
668.479	1165
668.532	1893
668.584	1051
668.636	1572
668.689	1773
668.741	1239
668.793	1013
668.845	1342
668.898	1283
668.950	1316
669.002	1636
669.054	1572
669.106	1825
669.158	2192
669.211	1765
669.263	1129
669.315	2186
669.367	1751
669.419	577
669.471	3481
669.523	3021
669.575	3991
669.627	2060
669.679	1819
669.731	1953
669.783	2281
669.835	2403
669.886	2308
669.938	2534
669.990	2433
670.042	2625
670.094	3887
670.146	2907
670.197	4437
670.249	5864
670.301	6956
670.353	10690
670.404	14840
670.456	22417
670.508	34870
670.560	55581
670.611	91959
670.663	162951
670.715	371454
670.766	550364
670.818	222480
670.869	47597
670.921	22039
670.972	14473
671.024	9607
671.075	8372
671.127	6800
671.178	4420
671.230	4305
671.281	4237
671.333	3184
671.384	3218
671.436	3285
671.487	3680
671.538	5166
671.590	6220
671.641	8342
671.692	14976
671.744	26650
671.795	18598
671.846	6865
671.897	3884
671.949	2873
672.000	3048
672.051	2303
672.102	3134
672.153	1594
672.204	1754
672.256	2393
672.307	2140
672.358	1547
672.409	2218
672.460	1352
672.511	1204
672.562	1554
672.613	929
672.664	1016
672.715	1722
672.766	1058
672.817	1473
672.868	740
672.919	1735
672.970	871
673.021	1559
673.071	1151
673.122	1704
673.173	1899
673.224	1580
673.275	1152
673.326	1282
673.376	1639
673.427	1027
673.478	985
673.528	1556
673.579	2072
673.630	1164
673.680	2132
673.731	1022
673.782	1070
673.832	1135
673.883	1413
673.934	854
673.984	1314
674.035	292
674.085	1386
674.136	1950
674.186	830
674.237	1532
674.287	2870
674.338	2092
674.388	1158
674.438	938
674.489	1911
674.539	1580
674.589	1187
674.640	1210
674.690	1219
674.740	718
674.791	2272
674.841	1753
674.891	1860
674.942	1396
674.992	2291
675.042	1145
675.092	1231
675.142	352
675.193	1684
675.243	995
675.293	1462
675.343	1251
675.393	1438
675.443	1201
675.493	924
675.543	281
675.593	425
675.643	1807
675.693	1201
675.743	1236
675.793	1559
675.843	118
675.893	1422
675.943	1631
675.993	630
676.043	627
676.093	1042
676.142	622
676.192	739
676.242	1292
676.292	477
676.341	715
676.391	1884
676.441	982
676.491	1221
676.540	336
676.590	1313
676.640	480
676.689	990
676.739	90
676.789	808
676.838	826
676.888	1048
676.937	810
676.987	1104
677.037	659
677.086	404
677.136	708
677.185	375
677.235	543
677.284	1158
677.333	1037
677.383	533
677.432	377
677.482	310
677.531	1228
677.580	756
677.630	557
677.679	819
677.728	166
677.778	1516
677.827	1012
677.876	1136
677.925	441
677.975	430
678.024	1139
678.073	1234
678.122	860
678.171	772
678.220	473
678.269	1142
678.319	626
678.368	1490
678.417	707
678.466	1380
678.515	700
678.564	1625
678.613	646
678.662	837
678.711	1200
678.760	917
678.809	827
678.857	815
678.906	1150
678.955	1012
679.004	1316
679.053	128
679.102	724
679.151	1167
679.199	493
679.248	557
679.297	1452
679.346	1136
679.394	331
679.443	315
679.492	982
679.540	376
679.589	899
679.638	874
679.686	1047
679.735	1033
679.784	560
679.832	807
679.881	881
679.929	87
679.978	1020
680.026	491
680.075	746
680.123	426
680.172	465
680.220	-279
680.268	174
680.317	231
680.365	500
680.414	185
680.462	479
680.510	461
680.559	899
680.607	93
680.655	675
680.703	798
680.752	84
680.800	1160
680.848	43
680.896	336
680.945	579
680.993	235
681.041	758
681.089	440
681.137	170
681.185	542
681.233	305
681.258	154
681.281	-10
681.329	700
681.377	433
681.380	440
681.425	189
681.473	1143
681.502	788
681.521	497
681.569	565
681.617	57
681.624	118
681.665	354
681.713	1352
681.745	953
681.761	727
681.809	744
681.857	1639
681.867	1455
681.904	748
681.952	1042
681.989	1473
682.000	1570
682.048	587
682.096	879
682.111	959
682.143	1088
682.191	1151
682.233	1568
682.239	1608
682.286	1314
682.334	825
682.354	1195
682.382	1664
682.430	2120
682.476	2092
682.477	2071
682.525	1198
682.572	1289
682.598	1257
682.620	1230
682.667	1353
682.715	1885
682.720	1828
682.763	1086
682.810	1007
682.841	1284
682.857	1402
682.905	818
682.952	2042
682.963	2115
683.000	2248
683.047	1421
683.085	2629
683.095	2950
683.142	1637
683.190	1527
683.206	1656
683.237	1839
683.284	2740
683.328	2465
683.332	2426
683.379	2096
683.426	1869
683.449	1755
683.473	1618
683.521	2065
683.568	2675
683.571	2657
683.615	2239
683.662	2567
683.693	2613
683.709	2586
683.757	2304
683.804	2370
683.814	2450
683.851	2741
683.898	3474
683.936	3240
683.945	3156
683.992	2913
684.039	2927
684.057	2889
684.086	2785
684.133	3075
684.179	2503
684.180	2470
684.227	3515
684.274	3070
684.300	3178
684.321	3271
684.368	2711
684.415	3343
684.422	3266
684.462	2638
684.509	3255
684.543	3615
684.556	3760
684.603	3040
684.649	2945
684.665	3047
684.696	3230
684.743	3369
684.786	3636
684.790	3644
684.837	3110
684.883	3413
684.908	3550
684.930	3708
684.977	3940
685.023	4421
685.029	4385
685.070	3857
685.117	3530
685.150	3529
685.164	3548
685.210	4315
685.257	3849
685.272	4103
685.303	4685
685.350	4128
685.393	4645
685.396	4670
685.443	4846
685.490	4429
685.514	4404
685.536	4276
685.583	4061
685.629	3651
685.636	3730
685.675	4260
685.722	4240
685.757	4125
685.768	4100
685.815	4444
685.861	4676
685.878	4567
685.908	4347
685.954	4293
686.000	4648
686.000	4652
686.047	5363
686.093	5900
686.121	6113
686.139	6075
686.185	5590
686.232	5089
686.242	4972
686.278	4588
686.324	4999
686.363	4564
686.370	4492
686.416	4439
686.463	5032
686.484	4787
686.509	4612
686.555	5156
686.601	4386
686.606	4509
686.647	5368
686.693	4568
686.727	4684
686.739	4771
686.785	4766
686.831	5111
686.848	4968
686.877	4663
686.923	4937
686.969	4906
686.969	4905
687.015	5188
687.061	5715
687.090	5438
687.107	5129
687.153	5253
687.199	4761
687.211	4692
687.245	4737
687.291	5093
687.332	5234
687.336	5243
687.382	5476
687.428	5272
687.453	5513
687.474	5657
687.520	5702
687.565	4975
687.574	5049
687.611	5390
687.657	5421
687.695	5101
687.702	5116
687.748	5696
687.794	6963
687.816	7013
687.839	6618
687.885	5939
687.931	5362
687.937	5268
687.976	5265
688.022	5255
688.058	5981
688.067	6136
688.113	5484
688.158	5734
688.179	5704
688.204	5719
688.249	6067
688.295	6245
688.300	6284
688.340	6605
688.386	7176
688.421	6762
688.431	6580
688.477	5891
688.522	5936
688.542	6176
688.567	6602
688.613	6016
688.658	5836
688.663	5833
688.703	6076
688.749	6773
688.784	6907
688.794	6878
688.839	6259
688.884	6326
688.905	6388
688.930	6558
688.975	6414
689.020	6691
689.026	6643
689.065	6244
689.110	6071
689.146	6301
689.155	6367
689.201	6056
689.246	6106
689.267	6039
689.291	6083
689.336	6250
689.381	6089
689.388	6112
689.426	6330
689.471	6370
689.509	6770
689.516	6779
689.561	6535
689.606	6030
689.630	5887
689.651	6091
689.696	6111
689.741	6565
689.750	6695
689.785	6875
689.830	6768
689.871	6479
689.875	6455
689.920	6809
689.965	5991
689.992	6111
690.010	6308
690.054	6496
690.099	6264
690.112	6396
690.144	6707
690.189	6700
690.233	6851
690.233	6861
690.278	6612
690.323	7082
690.354	6494
690.367	6366
690.412	6798
690.457	7106
690.474	7129
690.501	6996
690.546	6826
690.590	6535
690.595	6509
690.635	6618
690.680	6649
690.716	6745
690.724	6736
690.769	7184
690.813	7301
690.836	6848
690.857	6708
690.902	6810
690.946	7973
690.957	8013
690.991	7899
691.035	8109
691.077	7830
691.080	7839
691.124	8255
691.168	8114
691.198	8340
691.213	8246
691.257	7759
691.301	7221
691.318	7200
691.346	7549
691.390	7039
691.434	7178
691.439	7179
691.478	7393
691.522	7594
691.559	7526
691.567	7518
691.611	8030
691.655	7809
691.680	7867
691.699	7856
691.743	7828
691.787	7591
691.800	7530
691.831	7693
691.875	8148
691.919	8365
691.921	8351
691.964	8053
692.008	8031
692.041	7753
692.052	7792
692.096	8032
692.139	8600
692.162	8543
692.183	8243
692.227	8438
692.271	7968
692.282	7877
692.315	8122
692.359	8391
692.402	8638
692.403	8654
692.447	8424
692.490	7844
692.523	7593
692.534	7682
692.578	7955
692.622	8007
692.643	8248
692.666	8213
692.709	7643
692.753	7163
692.763	7151
692.797	7831
692.840	8009
692.884	8571
692.884	8590
692.928	8238
692.971	8074
693.004	7852
693.015	7861
693.059	8083
693.102	8146
693.124	7986
693.146	7890
693.189	8245
693.233	8317
693.245	8302
693.276	8378
693.320	8507
693.363	8686
693.365	8670
693.407	8756
693.450	8515
693.485	8605
693.493	8688
693.537	8891
693.580	9134
693.605	9225
693.624	9219
693.667	9184
693.710	9235
693.725	9278
693.753	10112
693.797	11059
693.840	12174
693.845	12252
693.883	11390
693.926	10581
693.966	9929
693.970	9903
694.013	9080
694.056	8539
694.086	7945
694.099	8038
694.142	8330
694.185	8943
694.206	9142
694.229	9288
694.272	9226
694.315	9624
694.326	9617
694.358	9511
694.401	9366
694.444	9242
694.446	9218
694.487	9485
694.530	9615
694.566	9806
694.573	9768
694.616	9162
694.659	8608
694.686	8298
694.702	8465
694.745	8974
694.787	9141
694.806	9361
694.830	9324
694.873	8891
694.916	8470
694.926	8378
694.959	8617
695.002	8892
695.044	9112
695.046	9102
695.087	9087
695.130	8906
695.166	8788
695.172	8885
695.215	9179
695.258	9733
695.286	10080
695.301	10052
695.343	9839
695.386	9420
695.406	9248
695.428	9207
695.471	9175
695.514	9204
695.526	9117
695.556	9139
695.599	9385
695.641	9524
695.646	9504
695.684	9579
695.726	9738
695.766	9730
695.769	9745
695.811	9794
695.854	9761
695.886	9549
695.896	9594
695.938	9875
695.981	10119
696.005	10209
696.023	10072
696.065	9685
696.108	9351
696.125	9140
696.150	9205
696.192	9519
696.235	9505
696.245	9545
696.277	9682
696.319	9730
696.361	9647
696.365	9620
696.404	9784
696.446	9993
696.485	10065
696.488	10102
696.530	10158
696.572	10347
696.604	10483
696.614	10524
696.656	10480
696.698	10522
696.724	10410
696.740	10294
696.783	10182
696.825	9958
696.844	9773
696.867	10068
696.909	10630
696.951	11198
696.964	11377
696.992	11062
697.034	10403
697.076	9777
697.083	9649
697.118	10023
697.160	10388
697.202	10847
697.203	10828
697.244	10457
697.286	9965
697.323	9505
697.327	9564
697.369	9830
697.411	10228
697.442	10479
697.453	10497
697.494	10354
697.536	10255
697.562	10198
697.578	10398
697.620	10752
697.661	11111
697.682	11279
697.703	11350
697.744	11401
697.786	11535
697.801	11528
697.828	11577
697.869	11540
697.911	11534
697.921	11502
697.952	11415
697.994	11293
698.035	11140
698.040	11084
698.077	10790
698.118	10468
698.160	10153
698.160	10120
698.201	10121
698.243	10056
698.279	9990
698.284	10111
698.325	10937
698.367	11805
698.399	12430
698.408	12322
698.449	11639
698.491	10987
698.518	10529
698.532	10671
698.573	10979
698.614	11287
698.638	11434
698.656	11384
698.697	11200
698.738	11007
698.757	10880
698.779	11007
698.820	11195
698.862	11387
698.877	11425
698.903	11689
698.944	12059
698.985	12425
698.996	12494
699.026	12270
699.067	11909
699.116	11447
699.235	11325
699.354	11342
699.474	10805
699.593	11186
699.713	11857
699.832	11447
699.951	11981
700.070	12313
700.190	11285
700.309	11615
700.428	9815
700.547	10851
700.667	10554
700.786	11753
700.905	9958
701.024	11315
701.143	9779
701.262	9631
701.381	9996
701.500	10951
701.619	10417
701.738	9996
701.857	9471
701.976	10157
702.095	8720
702.214	10709
702.333	10597
702.452	10804
702.571	9543
702.690	9516
702.809	9364
702.928	10034
703.047	9700
703.165	9606
703.284	9433
703.403	10554
703.522	9285
703.640	10215
703.759	11282
703.878	12849
703.997	8221
704.115	9156
704.234	9056
704.353	9694
704.471	8466
704.590	8872
704.708	8204
704.827	9024
704.946	7998
705.064	9336
705.183	8708
705.301	10365
705.420	13264
705.538	12947
705.656	10616
705.775	10762
705.893	11507
706.012	12418
706.130	10777
706.249	10748
706.367	10638
706.485	11664
706.604	10992
706.722	11854
706.840	13411
706.958	13781
707.077	10730
707.195	10352
707.313	10582
707.431	10466
707.549	10284
707.668	10004
707.786	10230
707.904	10697
708.022	9004
708.140	10573
708.258	9589
708.376	10602
708.494	9604
708.612	11824
708.730	13911
708.848	14191
708.966	12634
709.084	12393
709.202	11884
709.320	12208
709.438	12061
709.556	12377
709.674	11186
709.791	12421
709.909	11497
710.027	11986
710.145	10714
710.263	11978
710.380	10284
710.498	11411
710.616	10810
710.733	10997
710.851	10994
710.969	12076
711.086	11483
711.204	10847
711.322	9723
711.439	10811
711.557	9652
711.674	10526
711.792	9091
711.909	10176
712.027	10136
712.144	10925
712.262	10052
712.379	11018
712.497	14562
712.614	15538
712.732	11623
712.849	12623
712.966	12798
713.084	15549
713.201	12782
713.318	12817
713.436	12259
713.553	12520
713.670	12662
713.787	13287
713.905	12913
714.022	12604
714.139	11699
714.256	14085
714.373	15438
714.490	22324
714.608	51040
714.725	196482
714.842	161472
714.959	17956
715.076	12539
715.193	12200
715.310	11387
715.427	11057
715.544	10254
715.661	10788
715.778	10517
715.895	12671
716.011	10860
716.128	11170
716.245	11603
716.362	12008
716.479	11341
716.596	10840
716.713	10644
716.829	10052
716.946	9998
717.063	10519
717.180	8801
717.296	10072
717.413	9838
717.530	9900
717.646	8883
717.763	9232
717.880	9661
717.996	9500
718.113	9184
718.229	10009
718.346	8196
718.462	9533
718.579	10786
718.695	16403
718.812	11628
718.928	10742
719.045	9343
719.161	8873
719.277	8354
719.394	9745
719.510	8726
719.626	8933
719.743	10967
719.859	12126
719.975	17573
720.092	58467
720.208	106395
720.324	16152
720.440	9037
720.557	11331
720.673	13436
720.789	15566
720.905	25016
721.021	11625
721.137	7841
721.253	9663
721.369	7647
721.486	9730
721.602	10868
721.718	8217
721.834	6458
721.950	8476
722.066	7505
722.181	8361
722.297	8210
722.413	8020
722.529	7812
722.645	8338
722.761	7097
722.877	7249
722.993	6876
723.108	8142
723.224	6944
723.340	8275
723.456	6731
723.571	7367
723.687	7403
723.803	7981
723.918	5698
724.034	7161
724.150	6993
724.265	7932
724.381	11116
724.497	12224
724.612	5904
724.728	6767
724.843	6148
724.959	7081
725.074	10575
725.190	11712
725.305	6631
725.421	6439
725.536	6094
725.651	6463
725.767	5379
725.882	6387
725.997	5557
726.113	6093
726.228	5296
726.343	5598
726.459	4581
726.574	6756
726.689	4744
726.804	6062
726.920	5357
727.035	6153
727.150	5098
727.265	5635
727.380	6164
727.495	5989
727.610	4670
727.725	6098
727.841	5610
727.956	6540
728.071	6320
728.186	6064
728.301	4930
728.416	5983
728.531	5114
728.645	6222
728.760	5747
728.875	5825
728.990	4748
729.105	6036
729.220	4908
729.335	6461
729.449	4633
729.564	5909
729.679	4166
729.794	5358
729.908	5135
730.023	5305
730.138	4495
730.253	5528
730.367	4641
730.482	4956
730.596	4430
730.711	5920
730.826	5604
730.940	5185
731.055	4358
731.169	5884
731.284	5762
731.398	4839
731.513	4714
731.627	5381
731.742	4877
731.856	6903
731.970	4885
732.085	6803
732.199	6747
732.313	9245
732.428	20928
732.542	62295
732.656	30805
732.771	8335
732.885	6570
732.999	6367
733.113	6136
733.227	7049
733.342	5474
733.456	6237
733.570	4600
733.684	5480
733.798	5079
733.912	5963
734.026	4810
734.140	6023
734.254	6312
734.368	7315
734.482	7742
734.596	5512
734.710	4580
734.824	5050
734.938	4755
735.052	5350
735.166	5668
735.280	6025
735.393	4819
735.507	4142
735.621	4899
735.735	8877
735.849	4477
735.962	5517
736.076	4797
736.190	5120
736.303	5592
736.417	7161
736.531	4254
736.644	5214
736.758	4307
736.872	5423
736.985	3997
737.099	5476
737.212	4267
737.326	4908
737.439	4233
737.553	4820
737.666	3976
737.780	4274
737.893	3451
738.007	5156
738.120	3386
738.233	4562
738.347	3641
738.460	4070
738.573	4004
738.687	4601
738.800	4463
738.913	6392
739.026	4750
739.140	4352
739.253	2970
739.366	4327
739.479	3753
739.592	3793
739.705	3152
739.818	5201
739.932	4203
740.045	4941
740.158	3588
740.271	3413
740.384	3495
740.497	4092
740.610	3472
740.723	3807
740.836	4149
740.949	5040
741.062	5422
741.174	5380
741.287	3445
741.400	3958
741.513	4521
741.626	4159
741.739	3940
741.851	4123
741.964	3447
742.077	4207
742.189	3233
742.302	4764
742.415	3784
742.527	4285
742.640	3379
742.753	4280
742.865	2932
742.978	4438
743.090	3431
743.203	3420
743.316	2715
743.428	3846
743.541	3533
743.653	3247
743.766	3245
743.878	4414
743.990	4013
744.103	4040
744.215	3700
744.327	3688
744.440	4498
744.552	6607
744.664	3234
744.777	3783
744.889	2979
745.001	4146
745.113	2733
745.226	3614
745.338	3459
745.450	3877
745.562	3385
745.674	3794
745.786	3227
745.898	3487
746.010	2145
746.122	2934
746.234	2939
746.347	3821
746.459	2062
746.570	3083
746.682	2542
746.794	3737
746.906	3432
747.018	3525
747.130	3738
747.242	3311
747.354	2676
747.466	4046
747.577	2994
747.689	3843
747.801	3101
747.913	3322
748.024	2567
748.136	2617
748.248	1772
748.359	3412
748.471	2651
748.583	3335
748.694	3244
748.806	4156
748.918	3146
749.029	3658
749.141	3525
749.252	3439
749.364	3479
749.475	6863
749.587	3717
749.698	3561
749.809	2657
749.921	3138
750.032	2163
750.144	2947
750.255	3011
750.366	2878
750.478	2574
750.589	3614
750.700	1940
750.811	3541
750.923	3716
751.034	8665
751.145	5248
751.256	3137
751.367	2155
751.479	2894
751.590	1467
751.701	2661
751.812	2367
751.923	3214
752.034	2804
752.145	2988
752.256	1590
752.367	3345
752.478	1758
752.589	3442
752.700	1699
752.811	2345
752.922	2937
753.032	3289
753.143	2962
753.254	2347
753.365	2144
753.476	2759
753.586	2181
753.697	2947
753.808	2064
753.919	2226
754.029	1984
754.140	2876
754.251	1929
754.361	2765
754.472	1819
754.582	2583
754.693	1990
754.804	2939
754.914	1432
755.025	2320
755.135	1916
755.246	2469
755.356	1841
755.466	2708
755.577	2029
755.687	2350
755.798	2009
755.908	3207
756.018	1940
756.129	2693
756.239	2385
756.349	3421
756.460	2303
756.570	2900
756.680	1957
756.790	2577
756.900	2763
757.011	1972
757.121	1347
757.231	3006
757.341	2413
757.451	2012
757.561	2069
757.671	3051
757.781	2125
757.891	4106
758.001	1718
758.111	3091
758.221	2047
758.331	2964
758.441	1944
758.551	3194
758.661	2678
758.771	2711
758.880	2654
758.990	3169
759.100	2404
759.210	2546
759.320	2019
759.429	3367
759.539	2258
759.649	2765
759.758	2205
759.868	3825
759.978	1859
760.087	3444
760.197	2535
760.307	3227
760.416	2383
760.526	2442
760.635	2375
760.745	2492
760.854	2089
760.964	3149
761.073	2292
761.182	2107
761.292	1942
761.401	3273
761.511	1649
761.620	1994
761.729	1910
761.839	2455
761.948	2918
762.057	3294
762.166	2716
762.276	1825
762.385	2964
762.494	2915
762.603	1824
762.712	3240
762.822	1159
762.931	3347
763.040	1692
763.149	2621
763.258	2043
763.367	2460
763.476	2386
763.585	2404
763.694	1895
763.803	2755
763.912	2232
764.021	3114
764.130	2593
764.238	2820
764.347	1446
764.456	2828
764.565	2491
764.674	2827
764.783	2164
764.891	1509
765.000	2791
765.109	3170
765.217	1936
765.326	4119
765.435	4050
765.543	5406
765.652	3922
765.761	5982
765.869	7221
765.978	11445
766.086	20583
766.195	42989
766.303	125286
766.412	373013
766.520	258158
766.629	52410
766.737	19302
766.846	12227
766.954	8077
767.062	7691
767.171	5396
767.279	5560
767.387	4040
767.496	4584
767.604	3403
767.712	4226
767.820	2624
767.928	4286
768.037	3027
768.145	4180
768.253	2411
768.361	2929
768.469	2747
768.577	2978
768.685	3043
768.793	3784
768.901	2925
769.009	5032
769.117	3353
769.225	5385
769.333	5903
769.441	10019
769.549	18009
769.657	43207
769.765	155613
769.873	296518
769.981	73949
770.088	16736
770.196	7520
770.304	7017
770.412	5349
770.519	4986
770.627	4277
770.735	3964
770.842	3681
770.950	3873
771.058	3082
771.165	3613
771.273	2621
771.380	3701
771.488	3115
771.595	4364
771.703	2809
771.810	3670
771.918	2630
772.025	4414
772.133	2768
772.240	4037
772.348	3980
772.455	3379
772.562	2920
772.670	3872
772.777	3195
772.884	3462
772.991	2784
773.099	3011
773.206	1737
773.313	3718
773.420	3174
773.528	2966
773.635	2408
773.742	2933
773.849	2656
773.956	3473
774.063	2748
774.170	3223
774.277	3324
774.384	3119
774.491	2784
774.598	3581
774.705	3082
774.812	3661
774.919	2567
775.026	3330
775.133	2718
775.239	2642
775.346	2636
775.453	3202
775.560	1883
775.667	3640
775.773	1427
775.880	3705
775.987	1912
776.093	3495
776.200	2306
776.307	2757
776.413	2543
776.520	2729
776.627	2675
776.733	3337
776.840	1035
776.946	4291
777.053	2969
777.159	3809
777.266	1350
777.372	4840
777.478	3345
777.585	3509
777.691	2056
777.798	2726
777.904	2297
778.010	3410
778.117	3485
778.223	3234
778.329	2260
778.435	3166
778.542	2579
778.648	3283
778.754	1476
778.860	3149
778.966	2286
779.072	2588
779.178	2454
779.284	3256
779.391	1950
779.497	2588
779.603	2979
779.708	1867
779.815	3174
779.920	6089
780.026	8104
780.132	2991
780.238	732
780.344	2610
780.450	2477
780.556	2915
780.661	1830
780.767	2777
780.873	2205
780.979	3373
781.085	1632
781.190	2038
781.296	1453
781.402	1792
781.507	1269
781.613	2426
781.719	1372
781.824	2468
781.930	2643
782.035	2879
782.141	1392
782.246	2352
782.352	1851
782.457	2587
782.563	2025
782.668	1944
782.773	1820
782.879	1985
782.984	1682
783.090	4082
783.195	3704
783.300	3313
783.405	1761
783.511	1801
783.616	1842
783.721	2598
783.826	1421
783.932	2523
784.037	1774
784.142	2709
784.247	2081
784.352	3525
784.457	1606
784.562	2395
784.667	1896
784.772	2465
784.877	1501
784.982	2113
785.087	1451
785.192	2210
785.297	1596
785.402	1488
785.507	1215
785.611	2119
785.716	1235
785.821	1695
785.926	1591
786.031	2429
786.135	1282
786.240	1827
786.345	872
786.450	2516
786.554	1362
786.659	1293
786.763	503
786.868	2582
786.973	2293
787.077	2267
787.182	2066
787.286	1511
787.391	1452
787.495	1637
787.600	1801
787.704	1089
787.809	1777
787.913	1601
788.017	1121
788.122	2374
788.226	1276
788.330	1866
788.435	787
788.539	2026
788.643	1051
788.747	1550
788.852	1199
788.956	1083
789.060	2031
789.164	1480
789.268	764
789.372	2646
789.476	1256
789.580	1184
789.684	1443
789.788	2533
789.892	1106
789.996	1651
790.100	654
790.204	1722
790.308	1804
790.412	993
790.516	1471
790.620	1541
790.724	827
790.828	1362
790.931	-429
791.035	2507
791.139	985
791.242	726
791.346	2219
791.450	1709
791.554	489
791.657	43
791.761	2104
791.864	2324
791.968	825
792.072	1821
792.175	600
792.279	1420
792.382	1613
792.486	2302
792.589	647
792.693	2251
792.796	293
792.899	2377
793.003	964
793.106	351
793.209	392
793.313	2534
793.416	-167
793.519	2891
793.623	2212
793.726	2434
793.829	1413
793.932	1976
794.035	-313
794.138	2511
794.242	1462
794.345	1867
794.448	1428
794.551	2441
794.654	3738
794.757	4492
794.860	1657
794.963	1878
795.066	321
795.169	2750
795.272	-227
795.375	1194
795.477	-503
795.580	812
795.683	694
795.786	1735
795.889	24
795.991	2403
796.094	1596
796.197	-498
796.300	1415
796.402	754
796.505	192
796.608	850
796.710	983
796.813	849
796.915	329
797.018	2454
797.120	1046
797.223	456
797.326	1445
797.428	1717
797.530	415
797.633	1491
797.735	1281
797.838	1477
797.940	2144
798.042	782
798.145	-122
798.247	1615
798.349	-1181
798.452	1844
798.554	644
798.656	1008
798.758	1646
798.860	1201
798.962	169
799.065	369
799.167	189
799.269	1769
799.371	1393
799.473	2101
799.575	421
799.677	1749
799.779	2023
799.881	694
799.983	2240
800.085	1546
800.187	407
800.289	763
800.390	589
800.492	1179
800.594	2161
800.696	706
800.798	865
800.899	1763
801.001	292
801.103	777
801.205	607
801.306	1427
801.408	10
801.509	1618
801.611	842
801.713	1460
801.814	302
801.916	832
802.017	426
802.119	855
802.220	521
802.322	323
802.423	2393
802.525	637
802.626	421
802.727	1690
802.829	760
802.930	-507
803.031	1508
803.133	1640
803.234	524
803.335	1486
803.436	-436
803.538	1401
803.639	-835
803.740	2223
803.841	247
803.942	1334
804.043	1068
804.144	670
804.245	130
804.346	517
804.447	291
804.548	1773
804.649	2142
804.750	1030
804.851	-222
804.952	579
805.053	427
805.154	288
805.255	406
805.355	1044
805.456	333
805.557	214
805.658	42
805.758	973
805.859	561
805.960	781
806.061	-614
806.161	447
806.262	649
806.362	343
806.463	22
806.564	687
806.664	477
806.765	713
806.865	357
806.966	1571
807.066	-479
807.166	1593
807.267	267
807.367	666
807.468	1369
807.568	391
807.668	1117
807.769	1866
807.869	268
807.969	626
808.069	425
808.170	2001
808.270	235
808.370	1282
808.470	656
808.570	327
808.670	727
808.770	1056
808.870	-46
808.970	1277
809.070	-62
809.170	530
809.271	432
809.370	670
809.470	1014
809.570	779
809.670	-510
809.770	390
809.870	-143
809.970	749
810.070	361
810.169	1291
810.269	-1437
810.369	2261
810.469	85
810.568	609
810.668	-845
810.768	332
810.867	437
810.967	1066
811.066	47
811.166	906
811.265	788
811.365	602
811.464	-237
811.564	1990
811.663	582
811.763	-263
811.862	1594
811.962	1492
812.061	614
812.160	1297
812.260	645
812.359	1918
812.458	1980
812.557	9370
812.657	9672
812.756	2872
812.855	716
812.954	1367
813.053	64
813.153	1479
813.252	-795
813.351	1675
813.450	726
813.549	521
813.648	231
813.747	862
813.846	644
813.945	838
814.044	886
814.143	854
814.242	683
814.341	323
814.439	587
814.538	746
814.637	469
814.736	813
814.835	516
814.933	346
815.032	1124
815.131	1073
815.229	1046
815.328	1997
815.427	658
815.525	1481
815.624	1175
815.722	1560
815.821	1736
815.919	1368
816.018	271
816.116	2501
816.215	444
816.313	1818
816.412	1365
816.510	1997
816.609	2025
816.707	2469
816.805	1710
816.904	2400
817.002	2294
817.100	2819
817.198	2657
817.296	2153
817.395	2470
817.493	4421
817.591	2495
817.689	6119
817.787	7042
817.885	12402
817.983	23441
818.081	51345
818.179	127123
818.277	300573
818.375	196900
818.473	44479
818.571	17548
818.669	12733
818.767	11379
818.865	13398
818.963	15511
819.061	24635
819.158	43187
819.256	98067
819.354	232319
819.452	441543
819.549	227411
819.647	59034
819.745	25240
819.842	16267
819.940	10371
820.038	8191
820.135	6470
820.233	6805
820.330	3855
820.428	4326
820.525	4089
820.623	2884
820.720	1583
820.818	3373
820.915	2288
821.012	2842
821.110	1216
821.207	1976
821.304	1093
821.402	3304
821.499	2374
821.596	3162
821.693	1204
821.791	2987
821.888	2033
821.985	4300
822.082	2073
822.179	2307
822.276	917
822.373	1740
822.470	466
822.567	2034
822.664	372
822.761	2199
822.858	961
822.955	2018
823.052	1012
823.149	1459
823.246	295
823.343	1326
823.440	601
823.536	1348
823.633	710
823.730	1317
823.827	996
823.923	1177
824.020	1535
824.117	938
824.213	-692
824.310	2200
824.407	351
824.503	1255
824.600	-21
824.696	1297
824.793	1532
824.889	1087
824.986	-25
825.082	706
825.179	1509
825.275	912
825.371	-125
825.468	2042
825.564	-106
825.660	1521
825.757	574
825.853	1542
825.949	-144
826.045	1557
826.142	218
826.238	834
826.334	11
826.430	-183
826.526	807
826.622	533
826.718	809
826.814	528
826.910	1085
827.006	684
827.102	-498
827.198	1746
827.294	-304
827.390	509
827.486	809
827.582	-733
827.678	-248
827.774	1448
827.869	-568
827.965	1492
828.061	-909
828.157	925
828.252	924
828.348	70
828.444	892
828.539	239
828.635	-895
828.731	950
828.826	-410
828.922	1773
829.017	134
829.113	1317
829.208	346
829.304	883
829.399	560
829.495	321
829.590	1075
829.685	1313
829.781	863
829.876	1113
829.971	589
830.066	618
830.162	-53
830.257	405
830.352	40
830.447	1603
830.543	205
830.638	-347
830.733	1291
830.828	244
830.923	989
831.018	1048
831.113	-596
831.208	-183
831.303	243
831.398	299
831.493	-429
831.588	1085
831.683	-738
831.778	195
831.873	356
831.967	2556
832.062	-134
832.157	343
832.252	6
832.346	-174
832.441	600
832.536	2132
832.631	3634
832.725	2711
832.820	58
832.914	807
833.009	-300
833.104	503
833.198	1186
833.293	850
833.387	249
833.482	441
833.576	-396
833.670	1886
833.765	361
833.859	588
833.954	873
834.048	680
834.142	349
834.237	-511
834.331	60
834.425	422
834.519	59
834.613	976
834.708	324
834.802	1085
834.896	-378
834.990	-5
835.084	165
835.178	685
835.272	-929
835.366	-208
835.460	-210
835.554	1101
835.648	512
835.742	347
835.836	6
835.930	-546
836.024	-219
836.117	1359
836.211	-231
836.305	1936
836.399	786
836.493	-233
836.586	548
836.680	198
836.774	-178
836.867	1456
836.961	-930
837.055	-267
837.148	-612
837.242	-55
837.335	300
837.429	1107
837.522	-283
837.616	654
837.709	1194
837.803	1015
837.896	915
837.989	692
838.083	1376
838.176	1823
838.269	235
838.363	1439
838.456	-377
838.549	1796
838.642	1816
838.735	5016
838.829	509
838.922	-116
839.015	134
839.108	57
839.201	-488
839.294	1289
839.387	613
839.480	123
839.573	-94
839.666	854
839.759	-339
839.852	-900
839.945	787
840.038	716
840.131	-213
840.223	522
840.316	89
840.409	421
840.502	-126
840.594	883
840.687	-705
840.780	745
840.873	-1103
840.965	650
841.058	726
841.150	2312
841.243	-236
841.336	1255
841.428	-690
841.521	-45
841.613	-1065
841.706	777
841.798	314
841.890	474
841.983	-1231
842.075	1239
842.167	601
842.260	1425
842.352	947
842.444	424
842.537	906
842.629	2808
842.721	402
842.813	1073
842.905	-864
842.997	1261
843.090	-483
843.182	1839
843.274	1472
843.366	5913
843.458	9748
843.550	5051
843.642	-100
843.734	1463
843.826	-3
843.918	1865
844.009	480
844.101	-427
844.193	-159
844.285	714
844.377	464
844.469	1521
844.560	-203
844.652	1007
844.744	528
844.835	1101
844.927	102
845.019	741
845.110	-116
845.202	261
845.293	103
845.385	362
845.476	-127
845.568	1247
845.659	-463
845.751	555
845.842	-448
845.934	567
846.025	-681
846.116	560
846.208	-572
846.299	980
846.390	-745
846.482	700
846.573	185
846.664	653
846.755	679
846.846	1698
846.937	-1315
847.029	93
847.120	-403
847.211	1
847.302	348
847.393	-450
847.484	260
847.575	-478
847.666	-465
847.757	-142
847.847	445
847.938	1536
848.029	150
848.120	132
848.211	-255
848.302	-151
848.392	-163
848.483	-30
848.574	-893
848.664	-120
848.755	77
848.846	73
848.936	-1656
849.027	338
849.118	-749
849.208	210
849.299	-171
849.389	1567
849.480	2803
849.570	6356
849.661	10515
849.751	16222
849.841	3821
849.932	505
850.022	272
850.112	567
850.203	-207
850.293	467
850.383	-389
850.474	557
850.564	-350
850.654	305
850.744	-645
850.834	214
850.924	-448
851.014	857
851.104	-432
851.194	502
851.284	-103
851.374	930
851.464	-19
851.554	911
851.644	-40
851.734	1797
851.824	-567
851.914	50
852.004	86
852.094	320
852.183	-84
852.273	945
852.363	-576
852.452	736
852.542	-519
852.632	632
852.721	-294
852.811	756
852.901	519
852.990	-6
853.080	92
853.169	602
853.259	-364
853.348	560
853.438	-53
853.527	1748
853.617	1826
853.706	4248
853.795	7814
853.885	20336
853.974	35951
854.063	71655
854.152	92842
854.242	25273
854.331	2754
854.420	1630
854.509	722
854.598	1542
854.687	706
854.777	1297
854.866	147
854.955	1190
855.044	-380
855.133	625
855.222	-572
855.311	480
855.400	181
855.488	276
855.577	-744
855.666	415
855.755	1008
855.844	546
855.933	-547
856.021	429
856.110	-80
856.199	224
856.288	-507
856.376	92
856.465	-699
856.554	910
856.642	-428
856.731	131
856.819	97
856.908	92
856.996	-207
857.085	404
857.173	24
857.262	-350
857.350	942
857.438	700
857.527	310
857.615	718
857.703	380
857.792	256
857.880	-150
857.968	525
858.056	596
858.145	99
858.233	-478
858.321	-602
858.409	445
858.497	-19
858.585	-244
858.673	838
858.761	-1243
858.849	188
858.937	-310
859.025	-133
859.113	576
859.201	319
859.289	520
859.377	94
859.465	-734
859.552	124
859.640	-690
859.728	290
859.816	28
859.903	905
859.991	-418
860.079	225
860.166	-637
860.254	380
860.342	-548
860.429	213
860.517	-824
860.604	533
860.692	-210
860.779	-98
860.867	-420
860.954	736
861.042	138
861.129	925
861.216	-379
861.304	84
861.391	-523
861.478	290
861.565	306
861.653	1014
861.740	-1430
861.827	-323
861.914	166
862.001	391
862.089	-722
862.176	90
862.263	-855
862.350	-78
862.437	-810
862.524	-71
862.611	-603
862.698	526
862.785	67
862.871	-24
862.958	-750
863.045	-175
863.132	-295
863.219	72
863.306	-1330
863.392	829
863.479	-134
863.566	775
863.652	410
863.739	543
863.826	592
863.912	385
863.999	-1429
864.086	356
864.172	-760
864.259	1302
864.345	-738
864.432	250
864.518	-555
864.604	1306
864.691	-50
864.777	1205
864.863	794
864.950	782
865.036	-239
865.122	1342
865.209	1559
865.295	1764
865.381	1182
865.467	1259
865.553	1977
865.639	3081
865.726	4163
865.812	10699
865.898	18722
865.984	28776
866.070	58251
866.156	48507
866.242	9034
866.328	2854
866.414	1043
866.499	1726
866.585	974
866.671	1720
866.757	1044
866.843	1310
866.928	646
867.014	772
867.100	631
867.186	1555
867.271	700
867.357	2064
867.442	1353
867.528	807
867.614	752
867.699	1402
867.785	777
867.870	1027
867.956	606
868.041	1461
868.127	1176
868.212	1835
868.297	1020
868.383	2310
868.468	1226
868.553	3863
868.639	2572
868.724	6306
868.809	4024
868.894	1822
868.979	309
869.065	1675
869.150	-966
869.235	665
869.320	-530
869.405	515
869.490	-200
869.575	1481
869.660	-98
869.745	997
869.830	-248
869.915	1066
870.000	587
870.085	1097
870.169	377
870.254	1384
870.339	-255
870.424	313
870.509	92
870.593	948
870.678	241
870.763	882
870.847	-105
870.932	745
871.016	278
871.101	510
871.186	133
871.270	1093
871.355	235
871.439	843
871.523	647
871.608	619
871.692	91
871.777	630
871.861	-6
871.945	635
872.030	131
872.114	465
872.198	-30
872.282	386
872.367	-246
872.451	1499
872.535	-140
872.619	862
872.703	-567
872.787	1092
872.871	-352
872.955	1023
873.039	108
873.123	539
873.207	555
873.291	582
873.375	-522
873.459	726
873.543	-242
873.627	985
873.711	-39
873.794	364
873.878	413
873.962	787
874.045	-355
874.129	221
874.137	206
874.213	59
874.245	110
874.296	189
874.352	-281
874.380	-512
874.460	288
874.464	320
874.547	-383
874.568	6
874.631	1135
874.676	723
874.714	386
874.784	928
874.798	1029
874.881	1058
874.892	946
874.965	220
874.999	-36
875.048	-400
875.107	81
875.131	260
875.215	-825
875.215	-823
875.298	202
875.323	169
875.381	105
875.430	505
875.465	794
875.538	689
875.548	664
875.631	847
875.646	600
875.714	-515
875.753	-299
875.798	-56
875.861	180
875.881	234
875.964	770
875.968	722
876.047	-28
876.076	338
876.130	971
876.183	389
876.213	135
876.291	1327
876.296	1395
876.379	-8
876.398	170
876.462	766
876.506	356
876.545	27
876.613	1278
876.628	1530
876.711	-110
876.721	43
876.794	1343
876.828	900
876.877	167
876.935	1068
876.960	1509
877.043	1563
877.043	1560
877.125	1019
877.150	991
877.208	1166
877.258	1461
877.291	1508
877.365	698
877.374	613
877.456	1872
877.472	1663
877.539	786
877.579	1148
877.622	1638
877.687	872
877.704	669
877.787	1506
877.794	1468
877.869	889
877.901	1268
877.952	1819
878.008	729
878.034	279
878.115	1291
878.117	1311
878.199	408
878.222	590
878.282	1090
878.329	714
878.364	557
878.437	1517
878.447	1603
878.529	240
878.544	483
878.611	1772
878.651	1017
878.694	265
878.758	1032
878.776	1269
878.858	1601
878.865	1591
878.941	1036
878.972	707
879.023	463
879.078	890
879.105	1156
879.185	1425
879.187	1423
879.269	1463
879.292	1178
879.351	707
879.399	1287
879.433	1696
879.506	1569
879.516	1523
879.598	1582
879.613	1370
879.680	785
879.720	1090
879.762	1409
879.827	1053
879.844	947
879.926	1814
879.933	1802
880.007	1606
880.040	1651
880.089	1870
880.147	2308
880.171	2786
880.253	5917
880.254	5921
880.335	7131
880.360	8063
880.417	13412
880.467	19895
880.499	24476
880.574	29503
880.580	28548
880.662	10679
880.680	7921
880.744	4184
880.787	2047
880.825	1776
880.893	1671
880.907	1654
880.989	827
881.000	927
881.070	1768
881.106	1501
881.152	1210
881.213	1439
881.233	1444
881.315	857
881.319	864
881.396	1587
881.426	1647
881.478	1646
881.532	1958
881.559	1975
881.639	1116
881.641	1113
881.722	1772
881.745	1773
881.803	1622
881.852	1691
881.885	1664
881.958	1432
881.966	1455
882.047	1813
882.064	1810
882.129	1967
882.171	2550
882.210	3731
882.277	5107
882.291	4980
882.372	3232
882.383	3081
882.454	1976
882.489	1758
882.535	2030
882.596	1707
882.616	1662
882.697	1667
882.702	1666
882.778	1516
882.808	1584
882.859	1703
882.914	1320
882.940	1243
883.020	1676
883.021	1685
883.102	1145
883.127	1255
883.183	2028
883.233	2168
883.264	1728
883.339	1575
883.345	1609
883.426	1089
883.445	1150
883.507	1600
883.551	1459
883.587	1408
883.657	1679
883.668	1741
883.749	2397
883.763	2418
883.830	1772
883.869	1253
883.910	971
883.975	1159
883.991	1282
884.072	1368
884.081	1386
884.152	1672
884.187	1746
884.233	1725
884.292	1987
884.314	1991
884.394	1315
884.398	1297
884.475	1268
884.504	1154
884.555	1216
884.610	1365
884.636	1370
884.716	1535
884.716	1546
884.797	2362
884.821	2336
884.877	1891
884.927	1945
884.958	1826
885.033	1451
885.038	1479
885.118	1699
885.139	1722
885.199	1558
885.244	1494
885.279	1738
885.350	2038
885.359	1974
885.439	1603
885.456	1456
885.520	1266
885.561	1304
885.600	1572
885.667	1973
885.680	1971
885.760	1652
885.773	1620
885.840	1656
885.878	1761
885.920	2063
885.984	2223
886.000	2211
886.080	2314
886.089	2280
886.160	2002
886.195	2014
886.240	2229
886.300	2286
886.320	2337
886.400	3010
886.406	3007
886.480	2945
886.511	2990
886.560	3226
886.616	3420
886.640	3178
886.720	2648
886.722	2612
886.800	2368
886.827	2437
886.879	2314
886.932	1976
886.959	2115
887.038	3013
887.039	3020
887.119	2363
887.143	2277
887.198	2444
887.248	2489
887.278	2369
887.354	1929
887.358	1979
887.437	2951
887.459	3208
887.517	3010
887.564	2789
887.596	2722
887.669	2601
887.676	2563
887.755	1895
887.774	1725
887.835	1680
887.880	1631
887.914	1776
887.985	2188
887.994	2294
888.073	2869
888.090	3035
888.153	3195
888.195	3211
888.232	2960
888.300	2481
888.311	2460
888.391	2312
888.405	2246
888.470	2267
888.510	2311
888.549	2195
888.615	2011
888.628	2107
888.708	2511
888.720	2584
888.787	2348
888.825	2167
888.866	2070
888.930	1905
888.945	2022
889.024	2611
889.035	2685
889.103	2848
889.140	2869
889.182	2846
889.245	2893
889.261	2897
889.340	2811
889.349	2796
889.419	2176
889.454	1834
889.498	2160
889.559	2644
889.577	2745
889.656	3120
889.664	3150
889.735	2813
889.768	2633
889.814	2342
889.873	1945
889.978	2603
890.083	2374
890.187	3602
890.292	2313
890.397	1740
890.501	2758
890.606	2251
890.710	2597
890.815	3554
890.919	3484
891.024	2374
891.128	2604
891.233	2924
891.337	3139
891.442	3000
891.546	2035
891.650	2749
891.755	2569
891.859	4136
891.963	2431
892.068	2938
892.172	2212
892.276	2520
892.380	2107
892.484	2625
892.589	3254
892.693	3096
892.797	1608
892.901	1782
893.005	1741
893.109	2746
893.213	2763
893.317	3631
893.421	2894
893.525	2308
893.629	1619
893.733	3340
893.837	3131
893.941	2198
894.045	1889
894.148	1141
894.252	3148
894.356	2813
894.460	2580
894.564	2951
894.667	1593
894.771	1675
894.875	2110
894.978	2407
895.082	2419
895.186	3466
895.289	2513
895.393	3274
895.496	2383
895.600	2008
895.703	2426
895.807	2183
895.910	2450
896.014	2980
896.117	1989
896.221	2911
896.324	2401
896.427	2280
896.531	1702
896.634	2270
896.737	2269
896.840	2143
896.944	2070
897.047	2771
897.150	2341
897.253	2226
897.356	2170
897.460	2588
897.563	2522
897.666	2611
897.769	2139
897.872	1571
897.975	2224
898.078	2620
898.181	2692
898.284	1990
898.387	2900
898.490	2489
898.593	867
898.695	2449
898.798	2263
898.901	2983
899.004	2507
899.107	2091
899.209	2030
899.312	2266
899.415	2470
899.518	1570
899.620	1957
899.723	2505
899.826	4672
899.928	6181
900.031	3303
900.133	2131
900.236	1505
900.338	1279
900.441	2095
900.543	2220
900.646	2320
900.748	2535
900.851	2075
900.953	2579
901.055	2738
901.158	2522
901.260	1834
901.362	1790
901.465	1493
901.567	1953
901.669	2213
901.771	2456
901.873	1749
901.976	1921
902.078	2976
902.180	2144
902.282	2376
902.384	2993
902.486	3196
902.588	3112
902.690	2886
902.792	2317
902.894	815
902.996	2610
903.098	1459
903.200	1707
903.302	2127
903.404	1711
903.505	1915
903.607	2396
903.709	2149
903.811	2189
903.913	1649
904.014	1497
904.116	1116
904.218	1258
904.319	1634
904.421	2537
904.523	1971
904.624	1551
904.726	2378
904.827	976
904.929	1493
905.030	1579
905.132	2287
905.233	2058
905.335	940
905.436	1538
905.537	1457
905.639	2176
905.740	2320
905.841	3089
905.943	1196
906.044	1360
906.145	1441
906.247	2060
906.348	1605
906.449	2499
906.550	2101
906.651	2693
906.752	1123
906.854	2057
906.955	1333
907.056	1787
907.157	2618
907.258	2491
907.359	1427
907.460	2171
907.561	2233
907.662	1641
907.762	2367
907.863	1628
907.964	2058
908.065	2232
908.166	1460
908.267	1890
908.367	1696
908.468	2734
908.569	1617
908.670	2524
908.770	3085
908.871	2808
908.971	2514
909.072	3812
909.173	1882
909.273	1250
909.374	1505
909.474	2466
909.575	2092
909.675	2803
909.776	1608
909.876	1548
909.977	1974
910.077	2233
910.177	1471
910.278	1787
910.378	1108
910.478	1690
910.579	1422
910.679	2266
910.779	1821
910.879	2744
910.980	2085
911.080	1341
911.180	1536
911.280	2399
911.380	1720
911.480	1814
911.580	2945
911.680	1566
911.780	2472
911.880	2546
911.980	1352
912.080	1754
912.180	1779
912.280	2325
912.380	2007
912.480	1623
912.580	1113
912.679	1233
912.779	2057
912.879	2080
912.979	1343
913.078	1466
913.178	1613
913.278	1758
913.377	1046
913.477	1412
913.577	1069
913.676	2650
913.776	1888
913.875	2154
913.975	1762
914.074	1521
914.174	2052
914.273	968
914.373	2095
914.472	1765
914.572	1719
914.671	1436
914.770	1288
914.870	1626
914.969	1388
915.068	1869
915.167	1226
915.267	1775
915.366	1511
915.465	1749
915.564	2176
915.663	1991
915.763	801
915.862	1940
915.961	2036
916.060	1439
916.159	1070
916.258	1719
916.357	1852
916.456	1896
916.555	1550
916.654	1881
916.752	2383
916.851	2487
916.950	1455
917.049	1659
917.148	1036
917.247	2319
917.345	1982
917.444	1655
917.543	1464
917.642	2165
917.740	1639
917.839	1476
917.937	2600
918.036	2532
918.135	1683
918.233	1690
918.332	760
918.430	1793
918.529	2071
918.627	1804
918.726	2129
918.824	1775
918.923	1945
919.021	2249
919.119	1490
919.218	1696
919.316	1203
919.414	1104
919.512	2101
919.611	2025
919.709	2585
919.807	1531
919.905	1558
920.003	1954
920.102	1787
920.200	2219
920.298	2345
920.396	2410
920.494	1726
920.592	1876
920.690	1879
920.788	2344
920.886	2484
920.984	2638
921.082	2943
921.180	2844
921.277	2335
921.375	1927
921.473	3214
921.571	3112
921.669	3155
921.766	1814
921.864	3029
921.962	3576
922.060	2959
922.157	3321
922.255	2000
922.352	2527
922.450	3707
922.548	3915
922.645	3059
922.743	4053
922.840	5149
922.938	6532
923.035	4990
923.133	5395
923.230	5917
923.327	7300
923.425	6781
923.522	6688
923.619	6400
923.717	5705
923.814	5148
923.911	5446
924.008	5651
924.106	5269
924.203	4949
924.300	5746
924.397	5106
924.494	5898
924.591	5748
924.688	5319
924.786	4236
924.883	6384
924.979	4986
925.077	5783
925.173	5363
925.270	5272
925.367	4705
925.464	6496
925.561	6272
925.658	7061
925.755	6294
925.852	6824
925.948	5968
926.045	6478
926.142	5280
926.239	5877
926.335	5191
926.432	6675
926.529	5459
926.625	5559
926.722	4634
926.818	4387
926.915	6268
927.011	5692
927.108	4583
927.204	5575
927.301	4155
927.397	5376
927.494	5322
927.590	3977
927.687	4232
927.783	6160
927.879	4390
927.976	4596
928.072	3603
928.168	5060
928.264	5084
928.361	4475
928.457	4897
928.553	4235
928.649	4912
928.745	4230
928.841	4381
928.937	5400
929.033	4343
929.129	5026
929.225	5102
929.321	5379
929.417	3801
929.513	4037
929.609	4057
929.705	4148
929.801	4582
929.897	3948
929.993	3651
930.089	5150
930.184	3761
930.280	4314
930.376	4954
930.471	4132
930.567	4143
930.663	5047
930.758	4049
930.854	4065
930.950	4018
931.045	3802
931.141	4015
931.236	5367
931.332	4230
931.427	3978
931.523	4633
931.618	4081
931.714	2754
931.809	4163
931.905	4203
932.000	3441
932.095	3201
932.191	4580
932.286	3999
932.381	4243
932.476	2736
932.572	3731
932.667	2799
932.762	3751
932.857	3593
932.952	3872
933.047	4141
933.142	3417
933.237	3412
933.332	3867
933.427	3766
933.522	3727
933.617	2918
933.712	3843
933.807	4090
933.902	5044
933.997	4086
934.092	4099
934.187	4034
934.282	3813
934.376	3952
934.471	3968
934.566	3384
934.661	3702
934.755	4020
934.850	4717
934.945	3830
935.039	3943
935.134	3232
935.228	3470
935.323	4648
935.417	3708
935.512	2061
935.606	2889
935.701	3647
935.795	4377
935.890	3459
935.984	2886
936.079	2905
936.173	3885
936.267	2984
936.362	2835
936.456	3427
936.550	3720
936.644	3045
936.738	2656
936.833	2878
936.927	2471
937.021	2254
937.115	3041
937.209	3037
937.303	4352
937.397	2375
937.491	3062
937.585	4477
937.679	3521
937.773	2895
937.867	2338
937.961	2470
938.055	3697
938.149	3896
938.243	2904
938.337	2214
938.430	2408
938.524	3190
938.618	3568
938.712	2462
938.805	3355
938.899	3448
938.993	3144
939.086	2444
939.180	2899
939.274	2596
939.367	3798
939.461	3562
939.554	2981
939.648	2695
939.741	2408
939.835	2717
939.928	3975
940.022	3681
940.115	3246
940.208	3748
940.302	4562
940.395	4061
940.488	2126
940.582	3706
940.675	2664
940.768	2596
940.861	3199
940.954	3456
941.048	3144
941.141	2201
941.234	3233
941.327	4890
941.420	6272
941.513	4565
941.606	2983
941.699	3461
941.792	3060
941.885	2894
941.978	3882
942.071	2845
942.164	2083
942.257	2441
942.349	3843
942.442	3337
942.535	1422
942.628	2762
942.721	2913
942.813	1608
942.906	3725
942.999	3354
943.091	2908
943.184	2330
943.277	1673
943.369	1608
943.462	2017
943.554	2850
943.647	2175
943.739	2511
943.832	3203
943.924	2439
944.017	1573
944.109	981
944.201	2181
944.294	2271
944.386	2388
944.478	2328
944.571	1967
944.663	2255
944.755	3052
944.847	2560
944.940	2755
945.032	573
945.124	3090
945.216	3089
945.308	2483
945.400	1684
945.492	1823
945.584	2823
945.676	2493
945.768	2518
945.860	2409
945.952	1752
946.044	2490
946.136	2040
946.228	1708
946.320	2172
946.412	2325
946.503	2647
946.595	2842
946.687	1277
946.779	1024
946.870	1477
946.962	1506
947.054	1509
947.145	2770
947.237	1822
947.329	2002
947.420	2038
947.512	1888
947.603	810
947.695	1915
947.786	1285
947.878	2160
947.969	1741
948.061	2170
948.152	1189
948.243	1850
948.335	1386
948.426	1777
948.517	1615
948.609	2744
948.700	2266
948.791	1417
948.882	1355
948.973	1481
949.065	1487
949.156	2017
949.247	910
949.338	2061
949.429	906
949.520	942
949.611	1424
949.702	2907
949.793	1359
949.884	978
949.975	1076
950.066	1373
950.157	665
950.247	1715
950.338	1316
950.429	1632
950.520	1455
950.611	1816
950.701	1557
950.792	2020
950.883	1785
950.973	2231
951.064	1828
951.155	2450
951.245	2271
951.336	2130
951.427	697
951.517	2872
951.608	2071
951.698	1249
951.788	1919
951.879	1482
951.969	1289
952.060	1130
952.150	1297
952.240	1929
952.331	115
952.421	2205
952.511	734
952.602	1062
952.692	969
952.782	1663
952.872	927
952.962	2228
953.052	432
953.143	1487
953.233	2116
953.323	1956
953.413	1033
953.503	1025
953.593	1097
953.683	2064
953.773	337
953.863	641
953.953	1344
954.042	2175
954.132	1407
954.222	2400
954.312	849
954.402	1560
954.492	2215
954.581	3471
954.671	1290
954.761	899
954.850	2675
954.940	667
955.030	935
955.119	1102
955.209	1560
955.298	444
955.388	1670
955.477	2353
955.567	535
955.656	1461
955.746	1046
955.835	384
955.925	740
956.014	492
956.103	720
956.193	1222
956.282	1056
956.371	1181
956.461	609
956.550	732
956.639	230
956.728	668
956.817	640
956.906	1743
956.995	1792
957.085	1507
957.174	1391
957.263	829
957.352	522
957.441	1529
957.530	981
957.619	1379
957.708	327
957.796	1105
957.885	1483
957.974	856
958.063	994
958.152	-88
958.241	1404
958.329	1003
958.418	185
958.507	870
958.596	2175
958.684	847
958.773	684
958.861	1193
958.950	598
959.039	1313
959.127	352
959.216	2085
959.304	349
959.393	782
959.481	1212
959.570	825
959.658	174
959.746	1470
959.835	1116
959.923	3377
960.011	1281
960.100	1323
960.188	728
960.276	527
960.365	1369
960.453	238
960.541	-118
960.629	1542
960.717	372
960.805	-760
960.893	1503
960.981	977
961.069	589
961.158	1797
961.245	1892
961.333	1430
961.421	823
961.509	180
961.597	424
961.685	1242
961.773	927
961.861	447
961.949	1045
962.036	495
962.124	1095
962.212	694
962.299	-34
962.387	-14
962.475	1249
962.562	373
962.650	1436
962.738	886
962.825	-37
962.913	363
963.000	85
963.088	1080
963.175	31
963.263	601
963.350	-144
963.438	690
963.525	1256
963.612	3855
963.700	8457
963.787	19251
963.874	8979
963.962	1358
964.049	814
964.136	339
964.223	-261
964.310	1347
964.398	1097
964.485	709
964.572	1360
964.659	3939
964.746	2176
964.833	301
964.920	75
965.007	449
965.094	690
965.181	198
965.268	786
965.355	587
965.441	347
965.528	-291
965.615	1675
965.702	31
965.789	280
965.875	445
965.962	635
966.049	138
966.136	1205
966.222	725
966.309	1370
966.395	506
966.482	693
966.569	500
966.655	551
966.742	91
966.828	230
966.915	-153
967.001	873
967.087	409
967.174	831
967.260	1739
967.347	2685
967.433	6403
967.519	12934
967.605	4392
967.692	623
967.778	530
967.864	484
967.950	308
968.036	20
968.123	602
968.209	-296
968.295	-507
968.381	1380
968.467	852
968.553	-765
968.639	438
968.725	150
968.811	2624
968.897	2418
968.983	843
969.069	-236
969.154	1250
969.240	398
969.326	-938
969.412	-421
969.497	783
969.583	34
969.669	550
969.755	920
969.840	987
969.926	1638
970.012	684
970.097	2712
970.183	1533
970.268	1156
970.354	2676
970.439	3850
970.525	8098
970.610	2158
970.696	709
970.781	-2
970.866	-345
970.952	134
971.037	-528
971.122	111
971.208	742
971.293	69
971.378	-877
971.463	-108
971.549	81
971.634	287
971.719	1099
971.804	734
971.889	2032
971.974	-795
972.059	-239
972.144	-416
972.229	-24
972.314	-417
972.399	1038
972.484	-124
972.569	1223
972.654	352
972.739	3649
972.824	3631
972.908	326
972.993	-478
973.078	360
973.163	-551
973.247	494
973.332	-1542
973.417	1466
973.501	-546
973.586	277
973.671	269
973.755	867
973.840	586
973.924	1081
974.009	1410
974.093	235
974.178	1944
974.262	3000
974.346	2688
974.431	1270
974.515	-196
974.600	195
974.684	-96
974.768	-98
974.852	1191
974.937	-601
975.021	517
975.105	276
975.189	-740
975.273	263
975.358	-202
975.442	-655
975.526	1043
975.610	-655
975.694	-343
975.778	770
975.862	249
975.946	-1459
976.030	1019
976.114	174
976.198	-197
976.281	-408
976.365	792
976.449	45
976.533	160
976.617	-416
976.700	54
976.784	-261
976.868	657
976.951	1237
977.035	1019
977.119	448
977.202	-514
977.286	7
977.369	-110
977.453	1147
977.536	908
977.620	463
977.703	568
977.787	298
977.870	455
977.953	139
978.037	332
978.120	1465
978.203	1638
978.287	4562
978.370	2114
978.453	194
978.536	699
978.620	1923
978.703	2809
978.786	893
978.869	-808
978.952	-399
979.035	1177
979.118	52
979.201	-858
979.284	1157
979.367	-691
979.450	1041
979.533	-1397
979.616	-628
979.699	-128
979.782	747
979.865	-18
979.948	288
980.030	-1475
980.113	-340
980.196	-1071
980.279	422
980.361	-591
980.444	-79
980.526	563
980.609	364
980.692	1023
980.774	1390
980.857	-994
980.939	578
981.022	485
981.104	50
981.187	-937
981.269	25
981.352	154
981.434	-325
981.516	-455
981.599	810
981.681	36
981.763	-480
981.846	388
981.928	22
982.010	-769
982.092	-323
982.174	1085
982.256	-444
982.339	-13
982.421	-249
982.503	194
982.585	-1123
982.667	-898
982.749	69
982.831	-757
982.913	-986
982.995	-79
983.077	-468
983.158	1182
983.240	-238
983.322	-34
983.404	1910
983.486	-1515
983.568	659
983.649	-834
983.731	1104
983.813	-295
983.894	-243
983.976	-517
984.058	-43
984.139	68
984.221	-884
984.302	908
984.384	-36
984.465	-739
984.547	225
984.628	-556
984.710	-94
984.791	-1026
984.872	43
984.954	38
985.035	595
985.116	-818
985.198	222
985.279	805
985.360	-369
985.441	-910
985.522	933
985.604	-90
985.685	-1431
985.766	713
985.847	1290
985.928	-181
986.009	179
986.090	-83
986.171	686
986.252	-1127
986.333	335
986.414	-286
986.495	1133
986.576	-415
986.656	-279
986.737	944
986.818	333
986.899	-93
986.980	-884
987.060	646
987.141	-265
987.222	58
987.302	910
987.383	415
987.464	-273
987.544	574
987.625	-426
987.705	906
987.786	718
987.866	241
987.947	297
988.027	288
988.108	22
988.188	370
988.268	810
988.349	664
988.429	-461
988.509	671
988.589	524
988.670	-1386
988.750	1256
988.830	443
988.910	798
988.990	-558
989.070	-114
989.151	750
989.231	-315
989.311	782
989.391	187
989.471	199
989.551	442
989.631	-565
989.711	887
989.791	-1080
989.870	15
989.950	621
990.030	-16
990.110	-340
990.190	-277
990.269	-519
990.349	138
990.429	-267
990.509	-329
990.588	-1073
990.668	44
990.747	-986
990.827	-161
990.907	66
990.986	-749
991.066	476
991.145	-565
991.225	-198
991.304	-66
991.383	-160
991.463	532
991.542	-12
991.622	-368
991.701	-50
991.780	-4
991.859	-799
991.939	-808
992.018	-161
992.097	438
992.176	-710
992.256	-232
992.335	-681
992.414	461
992.493	-1171
992.572	-176
992.651	558
992.730	529
992.809	-583
992.888	-1179
992.967	-893
993.046	630
993.125	-1203
993.203	-542
993.282	-72
993.361	-1044
993.440	-764
993.519	-998
993.597	-759
993.676	-720
993.755	-421
993.834	517
993.912	-1334
993.991	-391
994.069	-1973
994.148	81
994.226	-729
994.305	-309
994.384	-1077
994.462	662
994.540	-1351
994.619	-1609
994.697	-846
994.776	-767
994.854	-416
994.932	-223
995.011	-150
995.089	-905
995.167	-798
995.245	-10
995.324	-1049
995.402	-198
995.480	-1759
995.558	158
995.636	-1542
995.714	-1046
995.792	64
995.870	-1093
995.948	-576
996.026	-470
996.104	-2048
996.182	503
996.260	-658
996.338	68
996.416	-1382
996.494	-98
996.572	-453
996.649	-881
996.727	-2137
996.805	-681
996.883	-333
996.960	-1084
997.038	-492
997.116	0
997.193	-1001
997.271	-163
997.348	-958
997.426	-189
997.504	-770
997.581	581
997.658	-104
997.736	-1892
997.813	-1419
997.891	-305
997.968	-1512
998.046	-534
998.123	-2025
998.200	-130
998.277	-1087
998.355	-529
998.432	-1915
998.509	-1222
998.586	-286
998.663	-947
998.741	-839
998.818	-1309
998.895	-1631
998.972	-649
999.049	-878
999.126	-1336
999.203	-635
999.280	-629
999.357	-1159
999.434	-936
999.511	-1112
999.587	245
999.664	-1580
999.741	-593
999.818	-688
999.895	-980
999.971	-1835
1000.048	-1448
1000.125	-169
1000.202	-955
1000.278	-931
1000.355	-688
1000.431	-1205
1000.508	-1959
1000.584	-1914
1000.661	-1074
1000.738	-1955
1000.814	-369
1000.890	238
1000.967	-1033
1001.043	-725
1001.120	-2231
1001.196	-869
1001.272	-2126
1001.349	-1136
1001.425	53
1001.501	-1145
1001.577	-1712
1001.654	-406
1001.730	-674
1001.806	-491
1001.882	-1672
1001.958	-1217
1002.034	-639
1002.110	-1140
1002.186	-468
1002.262	-1620
1002.338	-1289
1002.414	-1500
1002.490	-271
1002.566	-2142
1002.642	-1416
1002.718	-574
1002.794	-725
1002.870	-1128
1002.945	-1175
1003.021	-1051
1003.097	-1434
1003.173	-683
1003.248	-1340
1003.324	-1053
1003.400	-675
1003.475	-1973
1003.551	-1704
1003.626	-1817
1003.702	-1968
1003.777	-1028
1003.853	-603
1003.928	-1723
1004.004	-1535
1004.079	-1040
1004.155	-869
1004.230	-2109
1004.305	-572
1004.381	-1387
1004.456	-1489
1004.531	-2192
1004.607	-727
1004.682	-1550
1004.757	-1842
1004.832	-1754
1004.907	-1913
1004.982	-1007
1005.057	-726
1005.133	-1565
1005.208	-2151
1005.283	-1100
1005.358	109
1005.433	-2190
1005.508	-1136
1005.583	-1433
1005.657	-1287
1005.732	-163
1005.807	-1538
1005.882	-1150
1005.957	-898
1006.032	-990
1006.106	-1928
1006.181	-1216
1006.256	-1392
1006.331	-2083
1006.405	-2222
1006.480	-1249
1006.554	-1639
1006.629	-1511
1006.704	-1494
1006.778	-1810
1006.853	-690
1006.927	-1714
1007.002	-1434
1007.076	-1625
1007.150	-1840
1007.225	-1448
1007.299	-889
1007.373	-1465
1007.448	-699
1007.522	-191
1007.596	-1095
1007.671	-2106
1007.745	-946
1007.819	-1426
1007.893	-1302
1007.967	-1625
1008.041	-2252
1008.115	-1245
1008.190	-1714
1008.264	-627
1008.338	-1975
1008.412	-1865
1008.486	-1393
1008.560	-1558
1008.633	-1354
1008.707	-2559
1008.781	-1062
1008.855	-1656
1008.929	-1224
1009.003	-1693
1009.076	-1849
1009.150	-1980
1009.224	-1884
1009.298	-721
1009.371	-2517
1009.445	-1471
1009.519	-1256
1009.592	-2463
1009.666	-1394
1009.739	-1829
1009.813	-1747
1009.886	-761
1009.960	-1332
1010.033	-1961
1010.107	-866
1010.180	-2955
1010.253	-1607
1010.327	-1934
1010.400	-1514
1010.473	-1720
1010.547	-883
1010.620	-2249
1010.693	-1221
1010.766	-2338
1010.840	-1183
1010.913	-1964
1010.986	-2417
1011.059	-1825
1011.132	-1987
1011.205	-1594
1011.278	-1805
1011.351	-1833
1011.424	-1328
1011.497	-2375
1011.570	-1545
1011.643	-1128
1011.716	-1729
1011.789	-1711
1011.862	-1532
1011.934	-772
1012.007	-1917
1012.080	-1945
1012.153	-1845
1012.225	-1287
1012.298	-1981
1012.371	-2035
1012.443	-584
1012.516	-2403
1012.588	-1605
1012.661	-2198
1012.733	-1839
1012.806	-1921
1012.879	-1502
1012.951	-1444
1013.023	-2034
1013.096	-1490
1013.168	-2318
1013.241	-1106
1013.313	-1394
1013.385	-1912
1013.458	-1274
1013.530	-1745
1013.602	-2300
1013.674	-1279
1013.746	-2293
1013.819	-2902
1013.891	-1612
1013.963	-1918
1014.035	-1403
1014.107	-2522
1014.179	-1108
1014.251	-2720
1014.323	-2006
1014.395	-992
1014.467	-2078
1014.539	-2195
1014.611	-1863
1014.683	-2242
1014.754	-1342
1014.826	-2498
1014.898	-1286
1014.970	-2686
1015.042	-1782
1015.113	-1883
1015.185	-1532
1015.257	-3021
1015.328	-1410
1015.400	-2472
1015.471	-1843
1015.543	-2211
1015.615	-2637
1015.686	-2528
1015.757	-2330
1015.829	-1823
1015.901	-1712
1015.972	-1718
1016.043	-2016
1016.115	-1855
1016.186	-1651
1016.257	-2320
1016.328	-1155
1016.400	-831
1016.471	-2324
1016.542	-2472
1016.613	-2168
1016.685	-2249
1016.756	-2310
1016.827	-2021
1016.898	-1945
1016.969	-2244
1017.040	-1934
1017.111	-1873
1017.182	-2287
1017.253	-2215
1017.324	-2319
1017.395	-1532
1017.466	-1114
1017.537	-2564
1017.608	-2347
1017.678	-1705
1017.749	-2065
1017.820	-2472
1017.891	-2060
1017.961	-3168
1018.032	-1824
1018.103	-2809
1018.173	-2103
1018.244	-2623
1018.315	-1578
1018.385	-1569
1018.456	-2286
1018.526	-2226
1018.597	-1817
1018.667	-2248
1018.738	-2255
1018.808	-2215
1018.878	-1772
1018.949	-1711
1019.019	-1905
1019.089	-2533
1019.160	-2571
1019.230	-2995
1019.300	-1969
1019.371	-2739
1019.441	-1845
1019.511	-2825
1019.581	-2118
1019.651	-2633
1019.721	-2123
1019.791	-2359
1019.861	-2155
1019.931	-2248
1020.001	-2433
1020.071	-2562
1020.141	-2088
1020.211	-2226
1020.281	-2429
1020.351	-2232
1020.421	-1776
1020.491	-1728
1020.560	-2002
1020.630	-2093
1020.700	-2364
1020.770	-2708
1020.839	-1610
1020.909	-2602
1020.979	-2132
1021.048	-2084
1021.118	-2911
1021.187	-1712
1021.257	-2470
1021.326	-1353
1021.396	-2246
1021.465	-2053
1021.535	-1926
1021.604	-2837
1021.674	-2560
1021.743	-1637
1021.812	-1871
1021.882	-2256
1021.951	-2254
1022.020	-2117
1022.089	-2432
1022.159	-2371
1022.228	-2128
1022.297	-2652
1022.366	-1613
1022.435	-2146
1022.504	-1908
1022.573	-2656
1022.642	-1653
1022.711	-2920
1022.781	-2308
1022.849	-2086
1022.918	-2064
1022.987	-2307
1023.056	-1925
1023.125	-1837
1023.194	-1943
1023.263	-2343
1023.331	-1694
1023.400	-2760
1023.469	-1713
1023.538	-1478
1023.606	-2964
1023.675	-2159
1023.744	-1653
1023.812	-2614
1023.881	-1026
1023.949	-2394
1024.018	-1930
1024.086	-2451
1024.155	-2337
1024.223	-1882
1024.292	-1996
1024.360	-2493
1024.429	-2448
1024.497	-2817
1024.565	-1783
1024.634	-1615
1024.702	-1120
1024.770	-2016
1024.838	-2289
1024.907	-2049
1024.975	-2040
1025.043	-2394
1025.111	-2330
1025.179	-2334
1025.247	-2291
1025.315	-2224
1025.383	-2129
1025.451	-2437
1025.519	-1860
1025.587	-2607
1025.655	-1587
1025.723	-2776
1025.791	-1841
1025.859	-2278
1025.927	-1408
1025.995	-2419
1026.062	-2648
1026.130	-1793
1026.198	-2133
1026.266	-2697
1026.333	-2194
1026.401	-1527
1026.469	-2468
1026.536	-2211
1026.604	-1449
1026.671	-2730
1026.739	-1533
1026.806	-2268
1026.874	-2985
1026.941	-1824
1027.009	-1424
1027.076	-2124
1027.144	-902
1027.211	-2676
1027.278	-2964
1027.345	-2105
1027.413	-2270
1027.480	-2856
1027.547	-2210
1027.614	-1971
1027.682	-1932
1027.749	-2671
1027.816	-1983
1027.883	-2864
1027.950	-1787
1028.017	-2243
1028.084	-1732
1028.151	-2854
1028.218	-1884
1028.285	-2309
1028.352	-2555
1028.419	-2521
1028.486	-2788
1028.553	-1685
1028.619	-2490
1028.686	-1524
1028.753	-2078
1028.820	-2449
1028.886	-2470
1028.953	-2138
1029.020	-1801
1029.086	-2957
1029.153	-2502
1029.220	-2705
1029.286	-1502
1029.353	-1866
1029.419	-2054
1029.486	-2120
1029.552	-2716
1029.619	-2813
1029.685	-1767
1029.751	-2737
1029.818	-1385
1029.884	-2235
1029.951	-1709
1030.017	-2454
1030.083	-1963
1030.149	-1604
1030.216	-975
1030.282	-1911
1030.348	-1930
1030.414	-2008
1030.480	-2146
1030.546	-1919
1030.612	-1952
1030.678	-2328
1030.744	-2661
1030.810	-2602
1030.876	-1639
1030.942	-2240
1031.008	-1704
1031.074	-2513
1031.140	-1873
1031.206	-1647
1031.272	-1754
1031.337	-2010
1031.403	-1974
1031.469	-2025
1031.534	-1746
1031.600	-1883
1031.666	-2577
1031.731	-3248
1031.797	-2120
1031.863	-2355
1031.928	-1885
1031.994	-2615
1032.059	-2200
1032.125	-2368
1032.190	-3478
1032.256	-3206
1032.321	-2503
1032.386	-2817
1032.452	-1546
1032.517	-2218
1032.582	-2201
1032.647	-1803
1032.713	-1687
1032.778	-2261
1032.843	-2307
1032.908	-1669
1032.974	-1654
1033.039	-1597
1033.104	-1358
1033.169	-2552
1033.234	-2217
1033.299	-1734
1033.364	-987
1033.429	-1373
1033.494	-675
1033.559	-1791
1033.624	-2507
1033.688	-2426
1033.753	-2275
1033.818	-1675
1033.883	-2184
1033.948	-1541
1034.013	-1258
1034.077	-1881
1034.142	-683
1034.207	-310
1034.271	690
1034.336	1522
1034.400	1707
1034.465	8
1034.530	-483
1034.594	-1710
1034.658	-1624
1034.723	-1554
1034.787	-1435
1034.852	-2640
1034.916	-2065
1034.981	-2850
1035.045	-1178
1035.109	-1987
1035.173	-2334
1035.238	-2112
1035.302	-2400
1035.366	-1864
1035.430	-1125
1035.495	-1437
1035.559	-1648
1035.623	-2706
1035.687	-3045
1035.751	-2415
1035.815	-2129
1035.879	-2458
1035.943	-2255
1036.007	-1407
1036.071	-2050
1036.135	-2359
1036.198	-1603
1036.262	-1942
1036.326	-1679
1036.390	-1649
1036.454	-824
1036.517	-1950
1036.581	-796
1036.645	904
1036.709	-147
1036.772	-1140
1036.836	-1907
1036.900	-1739
1036.963	-1768
1037.026	-1631
1037.090	-2840
1037.154	-1909
1037.217	-1149
1037.280	-2725
1037.344	-2136
1037.407	-2334
1037.471	-1810
1037.534	-2650
1037.597	-2362
1037.661	-1856
1037.724	-2470
1037.787	-2296
1037.850	-1996
1037.913	-2319
1037.977	-1477
1038.040	-2470
1038.103	-1803
1038.166	-2416
1038.229	-1535
1038.292	-1598
1038.355	-1852
1038.418	-1710
1038.481	-1757
1038.544	-1947
1038.607	-1984
1038.670	-2333
1038.732	-1543
1038.795	-1913
1038.858	-2087
1038.921	-1362
1038.984	-2032
1039.046	-2506
1039.109	-1912
1039.172	-2450
1039.234	-2280
1039.297	-2011
1039.360	-2251
1039.422	-2226
1039.485	-1482
1039.547	-1657
1039.610	-1513
1039.672	-2551
1039.734	-1776
1039.797	-1749
1039.859	-1361
1039.922	-2905
1039.984	-1494
1040.046	-1828
1040.109	-2026
1040.171	-2717
1040.233	-1398
1040.295	-2643
1040.358	-2237
1040.420	-1833
1040.482	-2132
1040.544	-1842
1040.606	-2206
1040.668	-2263
1040.730	-2247
1040.792	-1598
1040.854	-2555
1040.916	-1836
1040.978	-1975
1041.040	-1819
1041.102	-1639
1041.164	-2332
1041.225	-2030
1041.287	-2047
1041.349	-2745
1041.411	-2361
1041.472	-2261
1041.534	-1331
1041.596	-1756
1041.657	-2437
1041.719	-1218
1041.781	-1741
1041.842	-2287
1041.904	-1827
1041.965	-2511
1042.027	-1069
1042.088	-2263
1042.150	-2532
1042.211	-1242
1042.272	-2037
1042.334	-1987
1042.395	-1608
1042.456	-2589
1042.518	-2783
1042.579	-1665
1042.640	-2430
1042.701	-2299
1042.763	-1649
1042.824	-1878
1042.885	-2786
1042.946	-2501
1043.007	-2542
1043.068	-2393
1043.129	-1857
1043.190	-1980
1043.251	-1853
1043.312	-1736
1043.373	-2508
1043.434	-1436
1043.495	-2609
1043.556	-2541
1043.616	-2332
1043.677	-2331
1043.738	-2686
1043.799	-1790
1043.859	-2484
1043.920	-1545
1043.981	-2523
1044.041	-2184
1044.102	-2870
1044.162	-2154
1044.223	-2001
1044.284	-1752
1044.344	-2102
1044.405	-2159
1044.465	-2310
1044.525	-2238
1044.586	-1724
1044.646	-2247
1044.707	-2030
1044.767	-2405
1044.827	-1781
1044.887	-2061
1044.948	-1626
1045.008	-1632
1045.068	-1841
1045.128	-1938
1045.188	-2365
1045.249	-1481
1045.309	-1917
1045.369	-776
1045.429	-1411
1045.489	-1551
1045.549	-1541
1045.609	-1912
1045.669	-2380
1045.729	-880
1045.789	-2044
1045.848	-1712
1045.908	-2719
1045.968	-1537
1046.028	-1884
1046.088	-2241
1046.147	-1258
1046.207	-1857
1046.267	-1619
1046.326	-1643
1046.386	-1912
1046.446	-1140
1046.505	-2085
1046.565	-582
1046.624	-1021
1046.684	-1549
1046.743	-636
1046.803	-788
1046.862	-701
1046.922	0
