'Start Wavelength	183.907
'End Wavelength	1046.922
'Gate Delay	5.000
'Gate Width (ms)	1.050
'Laser Output Level	0.000
'X Position	0.000
'Y Position	0.000
'Z Position	0.000
'Grid Point Number	1.000
'Shot Number	100.000
183.907	-43.000
183.977	-253.000
184.047	-359
184.116	853
184.186	-330
184.256	457
184.325	118
184.395	-297
184.465	332
184.534	-94
184.604	-61
184.674	113
184.743	-135
184.813	816
184.883	173
184.952	410
185.022	304
185.092	157
185.161	424
185.231	480
185.301	-355
185.370	576
185.440	31
185.509	-175
185.579	-134
185.649	477
185.718	382
185.788	333
185.857	388
185.927	286
185.996	62
186.066	-3
186.136	-153
186.205	430
186.275	92
186.344	500
186.414	807
186.483	18
186.553	761
186.622	991
186.692	51
186.761	-351
186.831	77
186.900	29
186.970	48
187.039	539
187.109	753
187.178	491
187.248	528
187.317	486
187.387	652
187.456	229
187.526	600
187.595	340
187.664	464
187.734	899
187.803	270
187.873	552
187.942	1138
188.012	337
188.081	344
188.150	547
188.220	932
188.289	1329
188.358	401
188.428	207
188.497	348
188.567	239
188.636	129
188.705	-220
188.775	724
188.844	558
188.913	474
188.983	1024
189.052	613
189.121	613
189.191	692
189.260	202
189.329	763
189.399	321
189.468	108
189.537	466
189.606	-203
189.676	414
189.745	704
189.814	794
189.883	53
189.953	698
190.022	442
190.091	1569
190.161	1421
190.230	835
190.299	406
190.368	696
190.437	37
190.507	-527
190.576	612
190.645	480
190.714	345
190.783	-124
190.853	945
190.922	900
190.991	279
191.060	108
191.129	247
191.198	413
191.268	897
191.337	494
191.406	318
191.475	509
191.544	399
191.613	357
191.682	136
191.752	18
191.821	20
191.890	436
191.959	89
192.028	-46
192.097	281
192.166	422
192.235	123
192.304	209
192.373	270
192.442	-410
192.511	170
192.580	546
192.650	734
192.719	469
192.788	1002
192.857	206
192.926	54
192.995	847
193.064	504
193.133	2184
193.202	1850
193.271	1730
193.340	1266
193.409	1571
193.478	1180
193.547	1967
193.615	2172
193.684	1890
193.753	1632
193.822	1029
193.891	957
193.960	528
194.029	874
194.098	773
194.167	305
194.236	774
194.305	477
194.374	473
194.443	556
194.512	668
194.580	403
194.649	1339
194.718	584
194.787	585
194.856	347
194.925	682
194.994	475
195.062	608
195.131	724
195.200	369
195.269	914
195.338	460
195.407	68
195.475	899
195.544	1178
195.613	833
195.682	1104
195.751	527
195.819	775
195.888	807
195.957	1035
196.026	898
196.094	1051
196.163	-98
196.232	1671
196.301	1059
196.369	793
196.438	329
196.507	1151
196.576	48
196.644	189
196.713	1575
196.782	759
196.850	531
196.919	884
196.988	576
197.056	871
197.125	724
197.194	1056
197.262	762
197.331	989
197.400	406
197.468	313
197.537	534
197.606	563
197.674	1354
197.743	1522
197.812	1171
197.880	2540
197.949	799
198.017	2117
198.086	1164
198.155	1287
198.223	1125
198.292	2186
198.360	733
198.429	220
198.497	840
198.566	1755
198.635	2469
198.703	973
198.772	1054
198.840	1744
198.909	1319
198.977	48
199.046	716
199.114	512
199.183	938
199.251	645
199.320	571
199.388	433
199.457	592
199.525	49
199.594	741
199.662	853
199.731	1091
199.799	1251
199.867	651
199.936	1446
200.004	791
200.073	969
200.141	-68
200.210	302
200.278	338
200.346	1024
200.415	627
200.483	779
200.552	1473
200.620	558
200.688	973
200.757	518
200.825	754
200.893	964
200.962	958
201.030	775
201.098	687
201.167	588
201.235	847
201.303	1755
201.372	747
201.440	688
201.508	1511
201.577	1261
201.645	527
201.713	1198
201.781	1428
201.850	1155
201.918	1108
201.986	578
202.055	1578
202.123	1074
202.191	1139
202.259	1196
202.327	443
202.396	522
202.464	2153
202.532	1176
202.600	2154
202.669	1169
202.737	745
202.805	859
202.873	1108
202.941	1178
203.009	1441
203.078	1541
203.146	642
203.214	628
203.282	384
203.350	987
203.418	973
203.487	811
203.555	966
203.623	1395
203.691	324
203.759	53
203.827	680
203.895	1074
203.963	1148
204.031	1928
204.099	1287
204.168	705
204.236	1164
204.304	1486
204.372	544
204.440	1054
204.508	1295
204.576	1062
204.644	545
204.712	1696
204.780	1372
204.848	658
204.916	936
204.984	640
205.052	830
205.120	1675
205.188	1246
205.256	1250
205.324	1812
205.392	647
205.460	1052
205.528	1347
205.596	1158
205.664	1074
205.732	1561
205.799	3460
205.867	2806
205.935	1089
206.003	1250
206.071	1041
206.139	1850
206.207	746
206.275	1863
206.343	302
206.411	1037
206.478	1405
206.546	1763
206.614	1504
206.682	1357
206.750	1137
206.818	1644
206.885	1424
206.953	605
207.021	1692
207.089	998
207.157	1341
207.225	1249
207.292	1861
207.360	2045
207.428	1455
207.496	1009
207.563	1620
207.631	1616
207.699	1767
207.767	971
207.834	1337
207.902	1740
207.970	1273
208.038	980
208.105	1892
208.173	2037
208.241	1299
208.309	2589
208.376	1426
208.444	3181
208.512	1389
208.579	513
208.647	1903
208.715	1702
208.782	1006
208.850	2037
208.918	2143
208.985	1955
209.053	1912
209.120	1838
209.188	1275
209.256	1728
209.323	2072
209.391	1420
209.459	1611
209.526	1768
209.594	2321
209.661	1901
209.729	1300
209.796	1432
209.864	1926
209.932	2023
209.999	2349
210.067	1916
210.134	1967
210.202	1900
210.269	2878
210.337	2125
210.404	1460
210.472	1406
210.539	1886
210.607	1966
210.674	2089
210.742	2053
210.809	2503
210.877	2494
210.944	2338
211.012	1631
211.079	2962
211.146	1219
211.214	1985
211.281	2258
211.349	2376
211.416	1646
211.484	2174
211.551	2157
211.618	1787
211.686	1756
211.753	1057
211.821	1899
211.888	1433
211.955	2119
212.023	1206
212.090	1893
212.157	2096
212.225	2810
212.292	3536
212.359	6380
212.427	8508
212.494	4629
212.561	2871
212.629	3016
212.696	2411
212.763	2613
212.831	2726
212.898	2672
212.965	2381
213.032	2368
213.100	2386
213.167	2763
213.234	2349
213.301	2099
213.369	1612
213.436	2473
213.503	2256
213.570	1949
213.638	2936
213.705	1907
213.772	1652
213.839	2803
213.906	1981
213.973	3128
214.041	1900
214.108	1691
214.175	2095
214.242	2293
214.309	2033
214.376	2314
214.444	2447
214.511	2425
214.578	1991
214.645	3411
214.712	2034
214.779	3064
214.846	2464
214.913	3105
214.980	3346
215.048	3036
215.115	3140
215.182	2796
215.249	2538
215.316	2524
215.383	2307
215.450	2293
215.517	2316
215.584	2147
215.651	1202
215.718	2222
215.785	2881
215.852	1928
215.919	2293
215.986	2871
216.053	2076
216.120	2101
216.187	2876
216.254	2558
216.321	2678
216.388	2136
216.455	2483
216.522	2329
216.589	3180
216.656	4225
216.722	3437
216.789	3927
216.856	4556
216.923	4180
216.990	3007
217.057	4103
217.124	3800
217.191	3507
217.258	4599
217.324	6089
217.391	5930
217.458	4699
217.525	3411
217.592	2329
217.659	2686
217.725	3271
217.792	2932
217.859	2679
217.926	2244
217.993	1946
218.059	2943
218.126	2533
218.193	1679
218.260	2094
218.327	1888
218.393	2214
218.460	1929
218.527	1552
218.594	2279
218.660	2747
218.727	2861
218.794	2172
218.860	2176
218.927	1695
218.994	1319
219.061	2020
219.127	1982
219.194	2333
219.261	2352
219.327	1328
219.394	1510
219.461	1399
219.527	1475
219.594	1864
219.661	2126
219.727	1362
219.794	1782
219.860	1236
219.927	1728
219.994	2301
220.060	2970
220.127	3079
220.193	2172
220.260	3334
220.326	5780
220.393	8083
220.460	8466
220.526	5445
220.593	3928
220.659	5167
220.726	4617
220.792	7893
220.859	7502
220.925	11480
220.992	12182
221.058	10583
221.125	8970
221.191	5846
221.258	3309
221.324	3727
221.391	3487
221.457	2292
221.524	2001
221.590	2976
221.657	7118
221.723	4113
221.789	5034
221.856	4038
221.922	2771
221.989	2328
222.055	2482
222.121	1498
222.188	2345
222.254	2186
222.321	1570
222.387	1334
222.453	1610
222.520	1800
222.586	1575
222.652	2067
222.719	1611
222.785	2396
222.851	1764
222.918	1646
222.984	1757
223.050	2846
223.116	1935
223.183	1589
223.249	1797
223.315	1393
223.382	1149
223.448	1445
223.514	1289
223.580	1346
223.647	1236
223.713	1197
223.779	1283
223.845	1470
223.911	1463
223.978	963
224.044	1382
224.110	520
224.176	968
224.242	1940
224.309	1220
224.375	1394
224.441	1262
224.507	1181
224.573	1086
224.639	1775
224.705	286
224.772	601
224.838	961
224.904	2599
224.970	921
225.036	1824
225.102	1680
225.168	1567
225.234	2456
225.300	1417
225.366	1283
225.432	1831
225.499	1683
225.565	1314
225.631	1584
225.697	2179
225.763	2707
225.829	3043
225.895	3055
225.961	3954
226.027	2867
226.093	3854
226.159	4946
226.225	7428
226.291	14167
226.357	16428
226.423	9937
226.489	6342
226.554	4836
226.620	4687
226.686	5847
226.752	8452
226.818	14533
226.884	18168
226.950	14859
227.016	8680
227.082	5604
227.148	4579
227.214	3026
227.279	3692
227.345	3145
227.411	2300
227.477	2573
227.543	3200
227.609	3265
227.674	3888
227.740	2044
227.806	2425
227.872	2596
227.938	2886
228.003	3615
228.069	2059
228.135	2834
228.201	2053
228.267	2105
228.332	2110
228.398	2398
228.464	1936
228.530	1439
228.595	1427
228.661	1709
228.727	2841
228.792	2131
228.858	1551
228.924	1732
228.990	2854
229.055	2026
229.121	2348
229.187	1853
229.252	2137
229.318	1575
229.384	2461
229.449	2061
229.515	2000
229.581	305
229.646	2775
229.712	2587
229.777	4061
229.843	2942
229.909	3642
229.974	3360
230.040	2404
230.105	2070
230.171	2503
230.236	4061
230.302	5355
230.368	3316
230.433	2410
230.499	2024
230.564	3621
230.630	2156
230.695	2074
230.761	2452
230.826	979
230.892	2531
230.957	1948
231.023	1497
231.088	2019
231.154	2066
231.219	1873
231.284	3288
231.350	2526
231.415	2362
231.481	1889
231.546	1845
231.612	1498
231.677	1488
231.742	1910
231.808	1952
231.873	1492
231.939	1082
232.004	2288
232.069	2361
232.135	2635
232.200	1028
232.265	1252
232.331	1532
232.396	1663
232.461	1853
232.527	935
232.592	1011
232.657	1491
232.723	2960
232.788	2145
232.853	1624
232.918	1364
232.984	1672
233.049	1291
233.114	2992
233.179	1832
233.245	3923
233.310	4033
233.375	1907
233.440	1467
233.506	1706
233.571	1256
233.636	1263
233.701	2300
233.766	3766
233.832	2650
233.897	1836
233.962	1910
234.027	2851
234.092	2665
234.157	1972
234.222	2313
234.288	4580
234.353	8135
234.418	7132
234.483	4450
234.548	3799
234.613	3415
234.678	3119
234.743	3518
234.808	9888
234.873	4747
234.938	3262
235.004	2576
235.069	2723
235.134	2223
235.199	3895
235.264	1976
235.329	2061
235.394	2907
235.459	3692
235.524	3350
235.589	2465
235.654	2135
235.719	1686
235.784	2312
235.849	3206
235.913	4879
235.978	6351
236.043	5504
236.108	3084
236.173	3244
236.238	3498
236.303	2373
236.368	2011
236.433	4691
236.498	6573
236.563	6402
236.627	12650
236.692	26510
236.757	18931
236.822	10227
236.887	8423
236.952	6880
237.017	5197
237.081	6200
237.146	9741
237.211	18002
237.276	26948
237.341	29346
237.405	17828
237.470	9777
237.535	6874
237.600	4956
237.664	4227
237.729	4294
237.794	7358
237.859	11002
237.923	6685
237.988	4192
238.053	6574
238.118	5606
238.182	11708
238.247	7744
238.312	5420
238.376	4514
238.441	2909
238.506	3912
238.570	2258
238.635	2452
238.700	1679
238.764	3090
238.829	6199
238.893	5318
238.958	3951
239.023	3249
239.087	2355
239.152	2263
239.216	1793
239.281	2802
239.346	1936
239.410	3055
239.475	3949
239.539	11384
239.604	5553
239.668	3663
239.733	1927
239.797	2783
239.862	4856
239.926	7777
239.991	4029
240.055	1926
240.120	2522
240.184	1913
240.249	1774
240.313	1906
240.378	2600
240.442	8169
240.507	7432
240.571	2991
240.635	6601
240.700	4884
240.764	2770
240.829	2469
240.893	1662
240.957	2533
241.022	7363
241.086	9959
241.151	4300
241.215	1635
241.279	3574
241.344	5343
241.408	3481
241.472	3493
241.537	3562
241.601	3541
241.665	1955
241.730	3139
241.794	3280
241.858	3140
241.922	3421
241.987	2494
242.051	1909
242.115	2583
242.179	2244
242.244	2251
242.308	2587
242.372	3520
242.436	3517
242.501	2932
242.565	2790
242.629	2379
242.693	3194
242.757	2264
242.822	2475
242.886	3558
242.950	2740
243.014	3381
243.078	3037
243.142	2810
243.206	4200
243.271	3250
243.335	3831
243.399	5371
243.463	19060
243.527	27271
243.591	8945
243.655	5105
243.719	3619
243.783	4319
243.847	6919
243.911	7440
243.975	9979
244.040	5041
244.104	4345
244.168	3183
244.232	5663
244.296	6209
244.360	6417
244.424	4099
244.488	3048
244.552	3283
244.615	2400
244.679	2488
244.743	3530
244.807	2796
244.871	2741
244.935	2461
244.999	2155
245.063	2896
245.127	3769
245.191	6453
245.255	3955
245.319	4252
245.383	3277
245.446	2935
245.510	2502
245.574	3315
245.638	2823
245.702	3399
245.766	5355
245.829	4221
245.893	3868
245.957	2847
246.021	4050
246.085	3735
246.149	4842
246.212	9241
246.276	9636
246.340	5730
246.404	4310
246.467	5434
246.531	5743
246.595	4733
246.659	3996
246.722	4178
246.786	5115
246.850	5637
246.913	5045
246.977	3015
247.041	3521
247.104	3906
247.168	3959
247.232	10001
247.295	12918
247.359	6483
247.423	4940
247.486	7306
247.550	4380
247.614	4466
247.677	5002
247.741	3427
247.804	3946
247.868	3929
247.932	9684
247.995	12598
248.059	5285
248.122	3744
248.186	5761
248.249	10748
248.313	21050
248.376	19985
248.440	12911
248.503	6092
248.567	6555
248.630	9649
248.694	12047
248.757	15565
248.821	20490
248.884	14487
248.948	15958
249.011	19465
249.075	25875
249.138	19482
249.202	9881
249.265	7982
249.328	9862
249.392	8017
249.455	6269
249.519	5185
249.582	7816
249.645	10858
249.709	6909
249.772	6265
249.835	5052
249.899	5403
249.962	5067
250.025	4811
250.089	11930
250.152	12855
250.215	6916
250.279	6285
250.342	6440
250.405	6278
250.468	5355
250.532	7385
250.595	12459
250.658	38874
250.721	38671
250.785	16785
250.848	10744
250.911	6606
250.974	7672
251.038	10610
251.101	13435
251.164	8632
251.227	10373
251.290	9123
251.354	16917
251.417	45848
251.480	34266
251.543	38717
251.606	68386
251.669	44886
251.732	24018
251.795	23525
251.859	26895
251.922	46794
251.985	22762
252.048	13296
252.111	9507
252.174	10199
252.237	19277
252.300	27212
252.363	40222
252.426	49061
252.489	22894
252.552	15123
252.615	10466
252.678	12917
252.741	23346
252.804	37768
252.867	55692
252.930	32455
252.993	18927
253.056	13817
253.119	9842
253.182	9946
253.245	15094
253.308	10397
253.371	11556
253.434	9726
253.497	9800
253.559	15218
253.622	10984
253.685	17820
253.748	14178
253.811	8029
253.874	10883
253.937	9254
254.000	7668
254.062	13364
254.125	14186
254.188	18149
254.251	11794
254.314	7938
254.376	14140
254.439	13760
254.502	12018
254.565	13802
254.628	17426
254.690	12448
254.753	6807
254.816	6981
254.878	6926
254.941	13233
255.004	10003
255.067	7259
255.129	6585
255.192	4818
255.255	3128
255.317	4581
255.380	3196
255.443	2806
255.505	3691
255.568	2884
255.631	2381
255.693	3449
255.756	1832
255.819	2849
255.881	2601
255.944	2263
256.006	3145
256.069	2323
256.132	2500
256.194	4982
256.257	10587
256.319	7645
256.382	6699
256.444	4430
256.507	3877
256.569	3878
256.632	4662
256.694	8727
256.757	24149
256.819	42333
256.882	16677
256.944	9197
257.007	8146
257.069	7285
257.132	4921
257.194	4575
257.257	5079
257.319	4904
257.381	6411
257.444	19271
257.506	56438
257.569	45580
257.631	20917
257.693	13104
257.756	7610
257.818	6984
257.880	4807
257.943	4400
258.005	3857
258.067	4563
258.130	3956
258.192	6530
258.254	9615
258.317	4537
258.379	4262
258.441	9015
258.503	6881
258.566	14202
258.628	11477
258.690	3956
258.753	5787
258.815	9839
258.877	4855
258.939	3260
259.001	3975
259.064	3371
259.126	5635
259.188	5996
259.250	4398
259.312	5345
259.375	9182
259.437	5711
259.499	3357
259.561	3888
259.623	4005
259.685	3816
259.747	4377
259.809	15105
259.872	17471
259.934	31217
259.996	21375
260.058	7126
260.120	3992
260.182	3477
260.244	3512
260.306	2238
260.368	3375
260.430	3347
260.492	10122
260.554	10922
260.616	7102
260.678	19841
260.740	15139
260.802	5000
260.864	4863
260.926	3907
260.988	4723
261.050	4518
261.112	14740
261.174	25473
261.236	11912
261.298	5469
261.359	12121
261.421	10022
261.483	4618
261.545	4687
261.607	3183
261.669	2777
261.731	9035
261.793	14110
261.854	4771
261.916	4928
261.978	4730
262.040	4504
262.102	3402
262.164	8041
262.225	4145
262.287	3869
262.349	8852
262.411	5440
262.472	3716
262.534	8765
262.596	11053
262.658	4052
262.719	2939
262.781	6541
262.843	12526
262.904	4387
262.966	4268
263.028	6368
263.090	35061
263.151	48354
263.213	16279
263.275	10262
263.336	5267
263.398	4780
263.459	2841
263.521	3512
263.583	8852
263.644	4854
263.706	2574
263.767	1788
263.829	2526
263.891	1872
263.952	1700
264.014	2501
264.075	7703
264.137	12507
264.198	4443
264.260	3259
264.321	2874
264.383	10693
264.444	17725
264.506	5413
264.567	4082
264.629	11084
264.690	13496
264.752	5740
264.813	3982
264.875	2488
264.936	3495
264.998	2362
265.059	2229
265.120	3403
265.182	9035
265.243	35721
265.305	20881
265.366	6262
265.427	4954
265.489	3826
265.550	2981
265.611	3613
265.673	3550
265.734	2367
265.795	2513
265.857	2216
265.918	3170
265.979	12910
266.040	48362
266.102	26057
266.163	9933
266.224	7935
266.286	4848
266.347	3713
266.408	3790
266.469	3467
266.530	2622
266.592	2651
266.653	7257
266.714	7798
266.775	3046
266.836	2304
266.898	2666
266.959	5332
267.020	3203
267.081	2611
267.142	2373
267.203	2637
267.264	1598
267.326	2926
267.387	2187
267.448	1482
267.509	2908
267.570	1842
267.631	2390
267.692	2049
267.753	2232
267.814	1442
267.875	6820
267.936	9660
267.997	7559
268.058	5853
268.119	3558
268.180	3708
268.241	2381
268.302	1953
268.363	1398
268.424	2798
268.485	2720
268.546	2007
268.607	1274
268.668	1440
268.729	1111
268.790	2095
268.851	3451
268.912	9082
268.972	7353
269.033	3710
269.094	1535
269.155	2855
269.216	1888
269.277	2231
269.338	2234
269.398	2474
269.459	2593
269.520	5196
269.581	6791
269.642	6140
269.702	4195
269.763	3594
269.824	3110
269.885	5050
269.945	5041
270.006	2367
270.067	1093
270.128	1458
270.188	2120
270.249	2606
270.310	1237
270.370	2654
270.431	3004
270.492	1781
270.553	3153
270.613	7553
270.674	10138
270.734	3847
270.795	2831
270.856	5695
270.916	2468
270.977	2258
271.038	3878
271.098	3428
271.159	6965
271.219	4902
271.280	2294
271.340	1966
271.401	4450
271.462	8516
271.522	4532
271.583	2422
271.643	2462
271.704	2555
271.764	4383
271.825	10521
271.885	26466
271.946	23130
272.006	10306
272.066	18271
272.127	17393
272.187	5566
272.248	4148
272.308	6412
272.369	15682
272.429	7121
272.489	9754
272.550	8119
272.610	10483
272.671	5478
272.731	8881
272.791	9727
272.852	4839
272.912	5387
272.972	3227
273.033	3468
273.093	5812
273.153	5674
273.214	3304
273.274	5098
273.334	18956
273.394	20096
273.455	9142
273.515	13091
273.575	19034
273.635	8468
273.696	15699
273.756	18732
273.816	8225
273.876	6344
273.936	16957
273.997	17565
274.057	5471
274.117	5951
274.177	9458
274.237	31279
274.297	20845
274.358	18354
274.418	18472
274.478	12482
274.538	5829
274.598	6161
274.658	21725
274.718	19877
274.778	7949
274.838	5440
274.898	15625
274.958	29869
275.018	21535
275.078	12261
275.138	6742
275.198	4040
275.258	4044
275.318	5227
275.378	9526
275.438	8785
275.498	6438
275.558	19265
275.618	25187
275.678	12553
275.738	13156
275.798	9346
275.858	4720
275.918	3334
275.978	5230
276.038	3117
276.098	3253
276.157	10282
276.217	18885
276.277	7983
276.337	5926
276.397	4575
276.457	5068
276.517	3388
276.576	2372
276.636	2160
276.696	5943
276.756	13362
276.815	6058
276.875	4118
276.935	4681
276.995	3824
277.055	2414
277.114	2982
277.174	5940
277.234	13439
277.293	4855
277.353	3534
277.413	3038
277.472	3711
277.532	4219
277.592	3917
277.651	16209
277.711	16605
277.771	8734
277.830	29993
277.890	15096
277.950	19535
278.009	32356
278.069	11459
278.128	18975
278.188	18268
278.248	9566
278.307	24695
278.367	9721
278.426	4778
278.486	3493
278.545	2738
278.605	2466
278.664	2745
278.724	4350
278.783	11819
278.843	16800
278.902	5198
278.962	4939
279.021	5651
279.081	6482
279.140	5913
279.199	5618
279.259	5376
279.318	3876
279.378	6788
279.437	13869
279.496	41893
279.556	104566
279.615	53261
279.675	17868
279.734	13119
279.793	21305
279.853	19958
279.912	7965
279.971	6397
280.031	6153
280.090	11546
280.149	14140
280.208	20263
280.268	83975
280.327	47984
280.386	14525
280.445	14719
280.505	10524
280.564	7201
280.623	5820
280.682	10055
280.742	9442
280.801	3762
280.860	2585
280.919	3539
280.978	3378
281.037	3592
281.097	2767
281.156	2353
281.215	2523
281.274	4321
281.333	15354
281.392	6210
281.451	2340
281.510	2615
281.569	2710
281.628	1813
281.688	2103
281.747	3547
281.806	2369
281.865	1539
281.924	2546
281.983	962
282.042	2100
282.101	2179
282.160	1437
282.219	1768
282.278	3391
282.337	10376
282.396	3465
282.454	2830
282.513	4708
282.572	15361
282.631	5340
282.690	2162
282.749	1924
282.808	3918
282.867	3453
282.926	3360
282.985	2403
283.043	1720
283.102	2233
283.161	3185
283.220	9668
283.279	11808
283.338	3834
283.396	2730
283.455	3094
283.514	3977
283.573	5835
283.631	3668
283.690	2802
283.749	3710
283.808	8129
283.866	6143
283.925	2213
283.984	3723
284.043	5198
284.101	4271
284.160	3210
284.219	5099
284.277	3462
284.336	8288
284.395	21366
284.453	11055
284.512	5703
284.570	9720
284.629	6398
284.688	6619
284.746	6775
284.805	8018
284.863	10762
284.922	12639
284.981	16256
285.039	23802
285.098	40820
285.156	79312
285.215	80634
285.273	85403
285.332	63294
285.390	38539
285.449	24290
285.507	17142
285.566	12790
285.624	10441
285.683	8514
285.741	6230
285.799	6866
285.858	6155
285.916	5194
285.975	4299
286.033	3482
286.091	3729
286.150	2762
286.208	3173
286.267	3461
286.325	4585
286.383	7008
286.442	3605
286.500	2759
286.558	2220
286.616	2309
286.675	4452
286.733	4028
286.791	3355
286.850	3774
286.908	5960
286.966	6737
287.024	1977
287.083	3000
287.141	1832
287.199	2317
287.257	4494
287.315	2832
287.374	4066
287.432	9930
287.490	4700
287.548	3535
287.606	2136
287.664	3698
287.723	5797
287.781	5523
287.839	3813
287.897	3629
287.955	5042
288.013	9451
288.071	24171
288.129	85885
288.187	134079
288.245	54761
288.303	21552
288.361	13613
288.419	11306
288.477	7421
288.535	4733
288.593	4243
288.651	3562
288.709	2117
288.767	2603
288.825	2604
288.883	2463
288.941	2571
288.999	2157
289.057	2146
289.115	2346
289.173	2205
289.231	2142
289.289	1843
289.346	1947
289.404	3420
289.462	6273
289.520	4991
289.578	2032
289.636	1337
289.694	1556
289.751	1452
289.809	1981
289.867	1794
289.925	3886
289.983	2525
290.040	1827
290.098	1835
290.156	3515
290.214	4019
290.271	1684
290.329	1666
290.387	1062
290.444	1427
290.502	111
290.560	1694
290.617	2265
290.675	1287
290.733	1503
290.790	1775
290.848	1753
290.906	2325
290.963	2634
291.021	1477
291.078	1839
291.136	2577
291.194	12299
291.251	15221
291.309	3944
291.366	2692
291.424	1595
291.481	1759
291.539	2608
291.596	1426
291.654	974
291.711	740
291.769	2566
291.826	5707
291.884	2567
291.941	1165
291.999	2132
292.056	2887
292.114	3211
292.171	1807
292.228	2160
292.286	2963
292.343	6355
292.401	6672
292.458	2795
292.515	2549
292.573	3306
292.630	3560
292.687	3447
292.745	3008
292.802	6423
292.859	13164
292.917	15580
292.974	7415
293.031	2849
293.089	2332
293.146	1762
293.203	1008
293.260	1898
293.318	3059
293.375	4897
293.432	3076
293.489	2190
293.546	2475
293.604	3451
293.661	13063
293.718	21949
293.775	11113
293.832	5423
293.889	4314
293.947	4311
294.004	3089
294.061	4410
294.118	10416
294.175	20167
294.232	21347
294.289	7738
294.346	5561
294.403	5594
294.460	4536
294.517	2669
294.574	3156
294.631	3078
294.688	3739
294.745	12066
294.802	33259
294.859	29670
294.916	10440
294.973	6811
295.030	6073
295.087	4371
295.144	3396
295.201	3059
295.258	3113
295.315	4345
295.372	13464
295.429	15527
295.486	7584
295.542	7167
295.599	22189
295.656	24994
295.713	17951
295.770	15801
295.827	7003
295.883	4625
295.940	4987
295.997	9543
296.054	6312
296.111	3252
296.167	3571
296.224	2167
296.281	3036
296.338	2120
296.394	2620
296.451	4231
296.508	11483
296.564	15212
296.621	13088
296.678	26993
296.734	26498
296.791	9584
296.848	6455
296.904	9519
296.961	18443
297.018	21567
297.074	13388
297.131	5591
297.187	5365
297.244	7917
297.301	24068
297.357	25236
297.414	9437
297.470	5174
297.527	3719
297.583	3998
297.640	3400
297.696	3716
297.753	2162
297.809	2625
297.866	1344
297.922	2337
297.979	1833
298.035	3095
298.092	5703
298.148	12872
298.204	9984
298.261	6289
298.317	14802
298.374	25761
298.430	11535
298.486	7988
298.543	5782
298.599	6446
298.656	7687
298.712	14309
298.768	27930
298.824	13682
298.881	5713
298.937	3888
298.993	4371
299.050	5904
299.106	3857
299.162	4420
299.218	3615
299.275	3194
299.331	4347
299.387	8662
299.443	24214
299.500	16109
299.556	6955
299.612	5096
299.668	4471
299.724	3231
299.780	2962
299.837	4180
299.893	7144
299.949	22036
300.005	19063
300.061	22672
300.117	27453
300.173	10579
300.229	8030
300.285	10880
300.341	10696
300.397	4740
300.453	4144
300.510	3036
300.566	3410
300.622	3654
300.678	8619
300.734	16445
300.790	18038
300.845	18423
300.901	12609
300.957	19451
301.013	12927
301.069	5214
301.125	6004
301.181	5149
301.237	4356
301.293	2193
301.349	3174
301.405	3219
301.461	3163
301.516	4794
301.572	5664
301.628	9065
301.684	7149
301.740	11341
301.796	13509
301.851	10861
301.907	18094
301.963	17216
302.019	28971
302.074	56935
302.130	47631
302.186	22694
302.242	11301
302.297	8130
302.353	8968
302.409	14629
302.464	12497
302.520	12958
302.576	27522
302.631	24952
302.687	14561
302.743	6817
302.798	5356
302.854	3893
302.910	4954
302.965	7436
303.021	11481
303.076	9907
303.132	13854
303.187	13938
303.243	7261
303.299	4602
303.354	4182
303.410	4364
303.465	4023
303.521	3218
303.576	3479
303.632	4395
303.687	9700
303.743	20603
303.798	13754
303.853	6552
303.909	4888
303.964	5380
304.020	9247
304.075	11935
304.130	10546
304.186	19771
304.241	17557
304.297	13354
304.352	7011
304.358	6774
304.407	4854
304.449	5282
304.463	5429
304.518	4731
304.539	4357
304.573	3769
304.629	5382
304.630	5450
304.684	8575
304.720	14636
304.739	17746
304.794	18952
304.811	16145
304.850	9293
304.902	5983
304.905	5780
304.960	4924
304.992	5290
305.015	5555
305.071	5530
305.083	5122
305.126	3692
305.173	3055
305.181	2941
305.236	2558
305.264	3304
305.292	4140
305.347	4204
305.354	4321
305.402	4949
305.445	5373
305.457	5506
305.512	6400
305.535	6258
305.567	6022
305.622	6887
305.626	7144
305.678	12100
305.716	21731
305.733	25576
305.788	22798
305.807	20394
305.843	15477
305.897	20571
305.898	20643
305.953	17598
305.988	12743
306.008	9841
306.063	6904
306.078	6185
306.118	4629
306.168	3129
306.173	3006
306.228	3206
306.259	3035
306.283	2843
306.338	3340
306.349	3324
306.393	3527
306.440	4842
306.448	5007
306.503	4182
306.530	4822
306.558	6577
306.613	15745
306.620	16367
306.668	19421
306.711	22504
306.723	22815
306.778	16068
306.801	13100
306.833	9225
306.888	5463
306.892	5313
306.943	4443
306.982	3791
306.997	3618
307.052	3400
307.072	3424
307.107	3742
307.162	5386
307.163	5422
307.217	9247
307.253	11001
307.272	11518
307.327	12223
307.343	11391
307.381	8633
307.434	7570
307.436	7725
307.491	15485
307.524	21768
307.546	24263
307.600	20780
307.614	18917
307.655	11468
307.704	6293
307.710	6128
307.765	7545
307.795	10168
307.819	13602
307.874	21433
307.885	21503
307.929	15861
307.975	11854
307.984	11880
308.038	15715
308.065	20266
308.093	30049
308.148	60054
308.156	65957
308.202	103873
308.246	119356
308.257	115349
308.312	69493
308.336	53783
308.366	42707
308.421	26341
308.426	25040
308.475	16478
308.517	11748
308.530	10953
308.585	9525
308.607	8897
308.639	8534
308.694	9411
308.697	9586
308.748	16732
308.787	23988
308.803	24825
308.857	19767
308.877	18088
308.912	14930
308.967	12639
308.967	12637
309.021	15846
309.058	19779
309.076	23880
309.130	41024
309.148	48564
309.185	76972
309.238	123129
309.239	123644
309.293	140038
309.328	139238
309.348	122916
309.402	68631
309.418	55078
309.457	38992
309.508	23513
309.511	23057
309.566	19089
309.598	17589
309.620	18748
309.674	23928
309.688	25249
309.729	25086
309.778	21596
309.783	21015
309.837	14980
309.868	12758
309.892	14136
309.946	19273
309.959	21193
310.001	30174
310.049	36526
310.055	35407
310.109	21960
310.139	14979
310.163	11888
310.218	7438
310.229	6638
310.272	5268
310.319	4231
310.326	4175
310.381	3974
310.409	3844
310.435	3603
310.489	3391
310.499	3334
310.543	3939
310.589	4730
310.598	4653
310.652	4232
310.679	3841
310.706	3706
310.760	3560
310.769	3572
310.814	2745
310.859	1830
310.868	1915
310.923	2508
310.948	2828
310.977	3048
311.031	3515
311.038	3563
311.085	3379
311.128	3250
311.139	3214
311.193	2954
311.218	2889
311.247	2999
311.301	3114
311.308	3140
311.356	2916
311.398	2688
311.410	2714
311.464	2841
311.488	2912
311.518	2607
311.572	2025
311.578	1975
311.626	3098
311.668	4112
311.680	4328
311.734	5253
311.758	5674
311.788	5569
311.842	5332
311.847	5315
311.896	5740
311.937	6140
311.950	6380
312.004	7440
312.027	7868
312.058	6245
312.112	3394
312.117	3113
312.165	2874
312.207	2685
312.297	4850
312.386	4605
312.476	3292
312.566	6882
312.656	4216
312.745	2799
312.835	3728
312.925	3640
313.015	3120
313.104	4383
313.194	2970
313.284	2605
313.374	3433
313.463	3903
313.553	2254
313.643	2705
313.732	1341
313.822	2071
313.912	2587
314.001	3845
314.091	3146
314.180	6234
314.270	4588
314.360	5782
314.449	4296
314.539	2928
314.628	2440
314.718	3601
314.808	4403
314.897	3696
314.987	2414
315.076	2619
315.166	4289
315.255	4979
315.345	3691
315.434	4969
315.524	3660
315.613	4668
315.703	4221
315.792	4099
315.881	4491
315.971	4156
316.060	7300
316.150	13293
316.239	15576
316.328	8034
316.418	2637
316.507	3070
316.597	2847
316.686	3379
316.775	4902
316.865	16050
316.954	4546
317.043	2300
317.133	2428
317.222	2427
317.311	2095
317.400	2684
317.490	2710
317.579	3917
317.668	2627
317.757	2915
317.847	4524
317.936	6623
318.025	8564
318.114	4736
318.203	4275
318.293	5864
318.382	12049
318.471	10404
318.560	13574
318.649	33376
318.738	11523
318.828	5287
318.917	5420
319.006	6636
319.095	16693
319.184	37349
319.273	26962
319.362	11972
319.451	3952
319.540	4728
319.629	6326
319.718	13933
319.807	7786
319.896	11366
319.985	45220
320.074	25406
320.163	5847
320.252	9900
320.341	7786
320.430	8529
320.519	6631
320.608	5217
320.697	4148
320.786	3291
320.875	3971
320.964	5199
321.053	8319
321.142	11555
321.230	14029
321.319	10097
321.408	22344
321.497	13846
321.586	8639
321.675	12307
321.764	14737
321.852	9228
321.941	11924
322.030	10822
322.119	9070
322.207	23072
322.296	23975
322.385	11402
322.474	9290
322.562	22817
322.651	19888
322.740	9362
322.829	15439
322.917	20115
323.006	12387
323.095	7980
323.183	6927
323.272	10778
323.361	15664
323.449	53735
323.538	25773
323.626	33803
323.715	33100
323.804	10141
323.892	32362
323.981	26429
324.069	6619
324.158	17724
324.246	24434
324.335	5852
324.424	8857
324.512	4306
324.601	4421
324.689	6350
324.778	12581
324.866	14949
324.954	5812
325.043	4159
325.131	6941
325.220	17537
325.308	21075
325.397	12580
325.485	9614
325.574	3259
325.662	2726
325.750	2958
325.839	2266
325.927	2605
326.015	3225
326.104	5034
326.192	11418
326.280	3179
326.369	3114
326.457	3746
326.545	6558
326.634	4077
326.722	2258
326.810	2394
326.898	1711
326.987	3648
327.075	5915
327.163	8801
327.251	5523
327.340	4589
327.428	6136
327.516	2130
327.604	2229
327.692	3024
327.781	2832
327.869	7607
327.957	4988
328.045	3424
328.133	2342
328.221	3370
328.309	2563
328.397	2788
328.485	3182
328.574	3881
328.662	12067
328.750	10934
328.838	5499
328.926	3034
329.014	2318
329.102	3772
329.190	9696
329.278	9386
329.366	1874
329.454	1907
329.542	2099
329.630	1982
329.718	2249
329.806	3792
329.893	3463
329.981	4508
330.069	4518
330.157	15054
330.245	44362
330.333	30886
330.421	6347
330.509	5314
330.597	14848
330.684	15554
330.772	5211
330.860	8365
330.948	11295
331.036	6239
331.123	1747
331.211	2272
331.299	3273
331.387	6417
331.475	17662
331.562	6394
331.650	2019
331.738	2765
331.825	5400
331.913	2877
332.001	2063
332.089	3297
332.176	8007
332.264	17904
332.352	20660
332.439	5268
332.527	2631
332.614	3369
332.702	4390
332.790	3095
332.877	6880
332.965	20768
333.052	5395
333.140	3447
333.228	9851
333.315	4624
333.403	2621
333.490	9805
333.578	11367
333.665	8595
333.753	5317
333.840	2460
333.928	3867
334.015	11035
334.103	16683
334.190	50459
334.278	20544
334.365	5825
334.452	3404
334.540	2479
334.627	3163
334.715	6822
334.802	10782
334.889	53230
334.977	79475
335.064	9321
335.151	3422
335.239	4035
335.326	6267
335.413	18990
335.501	41336
335.588	6652
335.675	3183
335.762	4281
335.850	9371
335.937	5080
336.024	12052
336.111	60984
336.199	36396
336.286	5794
336.373	2172
336.460	1461
336.547	1423
336.635	3110
336.722	3030
336.809	3251
336.896	4034
336.983	13165
337.070	38995
337.157	57604
337.245	41685
337.332	41284
337.419	4946
337.506	3223
337.593	3812
337.680	10769
337.767	42762
337.854	15651
337.941	13460
338.028	16631
338.115	7707
338.202	6054
338.289	10313
338.376	43399
338.463	21528
338.550	19996
338.637	32114
338.724	8244
338.811	16909
338.898	4603
338.984	2509
339.071	3528
339.158	2897
339.245	8227
339.332	7045
339.419	8542
339.506	12277
339.593	1671
339.679	1510
339.766	2611
339.853	2570
339.940	6159
340.027	3551
340.113	2882
340.200	3427
340.287	2514
340.374	2723
340.460	5331
340.547	3092
340.634	3676
340.720	13986
340.807	12875
340.894	1524
340.980	2361
341.067	1611
341.154	2400
341.240	2520
341.327	7975
341.414	3251
341.500	3820
341.587	2257
341.674	2658
341.760	4700
341.847	6833
341.933	2559
342.020	1270
342.106	901
342.193	1839
342.279	4522
342.366	3240
342.452	5887
342.539	4161
342.625	5270
342.712	17775
342.798	8497
342.885	4131
342.971	703
343.058	912
343.144	784
343.230	2062
343.317	1854
343.403	1468
343.490	857
343.576	1605
343.662	1395
343.749	2430
343.835	2820
343.921	4738
344.008	19483
344.094	58306
344.180	18367
344.267	5401
344.353	14311
344.439	23823
344.525	10249
344.612	5300
344.698	4957
344.784	3495
344.870	1695
344.957	1845
345.043	2834
345.129	2555
345.215	5093
345.301	3956
345.387	1998
345.474	975
345.560	1514
345.646	2361
345.732	1952
345.818	2449
345.904	1916
345.990	2038
346.076	1998
346.162	6900
346.249	2130
346.335	2018
346.421	1517
346.507	5459
346.593	23063
346.679	8870
346.765	1930
346.851	1408
346.937	1718
347.023	1612
347.108	1205
347.194	1840
347.280	1242
347.366	2362
347.452	6051
347.538	24849
347.624	23058
347.710	22453
347.796	4404
347.882	2284
347.967	1542
348.053	3162
348.139	2347
348.225	1712
348.311	1644
348.397	1351
348.482	2398
348.568	3127
348.654	1068
348.740	1315
348.825	911
348.911	2936
348.997	9930
349.083	27540
349.168	7105
349.254	2255
349.340	1338
349.425	1371
349.511	1797
349.597	2644
349.682	4722
349.768	16608
349.854	11334
349.939	2890
350.025	1590
350.110	2378
350.196	821
350.282	864
350.367	1201
350.453	3069
350.538	4832
350.624	2713
350.709	3265
350.795	1572
350.880	1250
350.966	2125
351.051	3224
351.137	3697
351.222	747
351.308	4092
351.393	17155
351.479	6106
351.564	916
351.649	1597
351.735	1093
351.820	1364
351.906	1233
351.991	2532
352.076	8916
352.162	18430
352.247	4138
352.332	2024
352.418	3779
352.503	6402
352.588	19921
352.673	24396
352.759	4602
352.844	2654
352.929	1935
353.014	3537
353.100	2053
353.185	2342
353.270	4343
353.355	6575
353.441	1787
353.526	2578
353.611	4276
353.696	7646
353.781	4457
353.866	2099
353.952	1799
354.037	4239
354.122	11339
354.207	12566
354.292	5082
354.377	3020
354.462	1382
354.547	2495
354.632	1487
354.717	3839
354.802	3134
354.887	2223
354.972	566
355.057	1081
355.142	773
355.227	1938
355.312	2828
355.397	7203
355.482	18722
355.567	13581
355.652	6684
355.737	8309
355.822	17034
355.907	23008
355.991	2997
356.076	1855
356.161	714
356.246	2071
356.331	1333
356.416	4397
356.501	24366
356.585	40803
356.670	6874
356.755	3712
356.840	3838
356.924	15851
357.009	72003
357.094	42760
357.179	7102
357.263	4958
357.348	4163
357.433	5695
357.517	4234
357.602	3905
357.687	2546
357.771	3410
357.856	11999
357.941	11067
358.025	13047
358.110	65726
358.195	45237
358.279	7617
358.364	4132
358.448	11926
358.533	39770
358.617	33816
358.702	29836
358.787	14661
358.871	6066
358.956	6118
359.040	1650
359.125	1757
359.209	944
359.294	5035
359.378	11995
359.462	5174
359.547	3346
359.631	2400
359.716	1437
359.800	1633
359.885	3122
359.969	2747
360.053	1485
360.138	1942
360.222	3031
360.306	6087
360.391	5148
360.475	7180
360.559	18441
360.644	15683
360.728	14473
360.812	13242
360.896	48954
360.981	26827
361.065	16199
361.149	4033
361.233	3413
361.318	2756
361.402	2636
361.486	2659
361.570	1840
361.654	2421
361.739	5459
361.823	24486
361.907	53805
361.991	12564
362.075	4477
362.159	10996
362.243	8961
362.327	4461
362.411	4091
362.495	4063
362.580	2854
362.664	1395
362.748	498
362.832	1758
362.916	1836
363.000	4889
363.084	21055
363.168	56873
363.252	18716
363.336	5898
363.420	7309
363.503	27331
363.587	50567
363.671	9780
363.755	3383
363.839	6265
363.923	2656
364.007	5549
364.091	7476
364.175	9074
364.258	48384
364.342	35826
364.426	9084
364.510	5904
364.594	6044
364.677	7894
364.761	34748
364.845	37749
364.929	9768
365.013	10219
365.096	6398
365.180	10091
365.264	10097
365.347	53167
365.431	34192
365.515	8941
365.598	2969
365.682	2438
365.766	4701
365.849	10538
365.933	3444
366.017	4736
366.100	5848
366.184	1768
366.267	1473
366.351	1790
366.435	1211
366.518	1194
366.602	-59
366.685	1065
366.769	2071
366.852	4585
366.936	9432
367.019	5157
367.103	3217
367.186	9485
367.270	3294
367.353	362
367.436	1625
367.520	1262
367.603	1431
367.687	3585
367.770	6529
367.853	4655
367.937	8795
368.020	22396
368.104	5786
368.187	4208
368.270	7134
368.353	7379
368.437	8558
368.520	30460
368.603	21516
368.687	13074
368.770	33038
368.853	10226
368.936	6825
369.020	10739
369.103	3668
369.186	2073
369.269	2255
369.352	3682
369.436	7752
369.519	5264
369.602	2348
369.685	2364
369.768	2827
369.851	1991
369.934	970
370.018	2011
370.101	5481
370.184	4905
370.267	3683
370.350	4994
370.433	9068
370.516	18108
370.599	26951
370.682	8180
370.765	15240
370.848	19717
370.931	35547
371.014	20370
371.097	3593
371.180	2740
371.263	1010
371.346	669
371.429	1105
371.511	1608
371.594	3112
371.677	7079
371.760	10661
371.843	6674
371.926	17821
372.009	60407
372.091	25933
372.174	12157
372.257	30280
372.340	16997
372.423	10592
372.505	17924
372.588	6959
372.671	8278
372.754	32382
372.836	24274
372.919	12451
373.002	39293
373.085	13317
373.167	6386
373.250	11882
373.332	30534
373.415	34108
373.498	82586
373.580	40394
373.663	26348
373.746	51609
373.828	16206
373.911	6840
373.993	7448
374.076	26268
374.159	41176
374.241	11136
374.324	28782
374.406	25745
374.489	17392
374.571	62807
374.654	35993
374.736	11062
374.819	35877
374.901	53576
374.983	69537
375.066	16136
375.148	4679
375.231	18315
375.313	56116
375.395	25317
375.478	4592
375.560	1738
375.643	3408
375.725	8965
375.807	48251
375.890	54295
375.972	33776
376.054	12999
376.136	26770
376.219	14746
376.301	11230
376.383	45534
376.465	24252
376.548	10987
376.630	12436
376.712	37538
376.794	25773
376.877	1880
376.959	1397
377.041	1889
377.123	5658
377.205	11595
377.287	2605
377.369	755
377.452	1413
377.534	998
377.616	1985
377.698	612
377.780	885
377.862	1873
377.944	1193
378.026	1017
378.108	767
378.190	815
378.272	1502
378.354	1146
378.436	818
378.518	1925
378.600	14422
378.682	13441
378.764	18071
378.846	20273
378.928	5368
379.010	7239
379.091	4684
379.173	1448
379.255	1274
379.337	1952
379.419	6320
379.501	29604
379.583	17587
379.664	2693
379.746	5631
379.828	18661
379.910	28490
379.991	28913
380.073	6427
380.155	2220
380.237	2283
380.318	884
380.400	1766
380.482	3132
380.564	8066
380.645	5774
380.727	5693
380.809	3659
380.890	2137
380.972	1433
381.053	1329
381.135	1659
381.217	4578
381.298	20365
381.380	14795
381.461	6412
381.543	30579
381.624	57811
381.706	13621
381.787	5043
381.869	4892
381.951	9889
382.032	56746
382.113	48868
382.195	11900
382.276	6042
382.358	8384
382.439	30293
382.521	34227
382.602	60472
382.684	31011
382.765	45419
382.846	54440
382.928	63523
383.009	44729
383.090	19839
383.172	68350
383.253	155023
383.334	61504
383.416	53225
383.497	35729
383.578	11143
383.659	17527
383.741	55227
383.822	201391
383.903	139465
383.984	38327
384.066	65971
384.147	54588
384.228	11910
384.309	5647
384.390	4957
384.471	2860
384.553	3003
384.634	5334
384.715	6059
384.796	2618
384.877	2960
384.958	13533
385.039	27093
385.120	11027
385.201	3600
385.282	4998
385.363	5376
385.444	3960
385.525	5793
385.606	21758
385.687	27421
385.768	6558
385.849	6155
385.930	21163
386.011	50646
386.092	19860
386.173	3794
386.254	3480
386.335	2973
386.416	3099
386.496	8956
386.577	24225
386.658	10597
386.739	5466
386.820	5270
386.901	4601
386.981	3328
387.062	1947
387.143	2992
387.224	15992
387.304	23752
387.385	7674
387.466	3658
387.547	6761
387.627	2984
387.708	5240
387.789	26869
387.869	48019
387.950	15436
388.031	2666
388.111	1094
388.192	7079
388.273	15427
388.353	10068
388.434	3823
388.514	4068
388.595	23262
388.676	43232
388.756	25023
388.837	18909
388.917	15250
388.998	3564
389.078	2576
389.159	2098
389.239	969
389.320	2849
389.400	2645
389.480	5108
389.561	20455
389.641	14085
389.722	2737
389.802	5867
389.883	6766
389.963	22771
390.043	20916
390.124	8240
390.204	5001
390.284	22593
390.365	18737
390.445	17289
390.525	45666
390.605	44991
390.686	16437
390.766	5121
390.846	2056
390.927	752
391.007	808
391.087	2055
391.167	2490
391.247	2041
391.328	3597
391.408	8456
391.488	7438
391.568	792
391.648	1536
391.728	3582
391.808	2520
391.888	4458
391.969	8029
392.049	20475
392.129	11766
392.209	7382
392.289	21270
392.369	16292
392.449	14791
392.529	10585
392.609	4600
392.689	4489
392.769	16848
392.849	23381
392.929	10541
393.009	31375
393.089	26031
393.169	6980
393.248	13012
393.328	85211
393.408	152065
393.488	36484
393.568	6261
393.648	4032
393.728	2980
393.807	2647
393.887	3151
393.967	2621
394.047	3324
394.127	5436
394.206	9666
394.286	29289
394.366	141281
394.446	218486
394.525	71422
394.605	16643
394.685	9241
394.764	18541
394.844	35999
394.924	33321
395.003	8136
395.083	4344
395.163	3618
395.242	3318
395.322	3687
395.402	2387
395.481	3761
395.561	9012
395.640	37836
395.720	29867
395.799	36216
395.879	44929
395.958	19284
396.038	46285
396.117	187992
396.197	283448
396.276	114684
396.356	36926
396.435	21564
396.515	12721
396.594	7063
396.673	10106
396.753	18922
396.832	95807
396.912	113370
396.991	34114
397.070	6860
397.150	3711
397.229	2476
397.308	1425
397.388	1820
397.467	1560
397.546	921
397.625	53
397.705	2328
397.784	2947
397.863	1232
397.942	532
398.022	1292
398.101	6186
398.180	37301
398.259	28563
398.338	6204
398.417	2892
398.497	1762
398.576	1552
398.655	33
398.734	626
398.813	776
398.892	5583
398.971	37969
399.050	30673
399.129	3166
399.208	300
399.287	1027
399.366	683
399.445	961
399.524	1194
399.603	24
399.682	2056
399.761	7110
399.840	35488
399.919	45132
399.998	7671
400.077	179
400.156	443
400.235	2242
400.313	1692
400.392	1298
400.471	7878
400.550	20029
400.629	7288
400.708	1772
400.786	2099
400.865	6524
400.944	12613
401.023	5823
401.102	221
401.180	90
401.259	1337
401.338	1028
401.416	1563
401.495	1951
401.574	2734
401.652	897
401.731	1773
401.810	1588
401.888	1069
401.967	-708
402.046	535
402.124	1262
402.203	3468
402.281	1352
402.360	2094
402.438	9223
402.517	11412
402.596	2601
402.674	1677
402.753	625
402.831	509
402.910	-240
402.988	2924
403.066	14576
403.145	12093
403.223	3901
403.302	10410
403.380	8679
403.459	7900
403.537	3465
403.615	1220
403.694	-364
403.772	35
403.850	-482
403.929	-166
404.007	-590
404.085	1866
404.164	998
404.242	150
404.320	2654
404.398	13940
404.477	19062
404.555	42012
404.633	56250
404.711	18313
404.789	8872
404.868	2307
404.946	-132
405.024	48
405.102	-139
405.180	-563
405.258	-582
405.336	361
405.415	147
405.493	3490
405.571	2883
405.649	-382
405.727	-186
405.805	1990
405.883	1019
405.961	1388
406.039	2269
406.117	1204
406.195	1551
406.273	5654
406.351	38533
406.429	38455
406.507	7331
406.585	1421
406.663	764
406.740	2048
406.818	1007
406.896	613
406.974	445
407.052	706
407.130	16675
407.208	43414
407.285	11663
407.363	769
407.441	-87
407.519	-237
407.596	710
407.674	2054
407.752	7060
407.830	13791
407.907	8514
407.985	1899
408.063	684
408.141	-1004
408.218	1660
408.296	2082
408.373	436
408.451	79
408.529	223
408.606	611
408.684	-896
408.762	51
408.839	-829
408.917	-965
408.994	142
409.072	-614
409.149	-792
409.227	-414
409.304	696
409.382	-97
409.459	-434
409.537	613
409.614	421
409.692	-231
409.769	-646
409.846	-362
409.924	386
410.001	988
410.079	167
410.156	573
410.233	-74
410.311	417
410.388	-848
410.465	194
410.543	-127
410.620	243
410.697	-214
410.775	525
410.852	-916
410.929	236
411.006	1177
411.083	145
411.161	1189
411.238	3157
411.315	2443
411.392	609
411.469	-376
411.547	885
411.624	-304
411.701	-204
411.778	542
411.855	1759
411.932	1385
412.009	80
412.086	-252
412.163	520
412.240	919
412.317	1517
412.394	1933
412.471	1064
412.548	-1104
412.625	706
412.702	205
412.779	2965
412.856	1444
412.933	-90
413.010	-213
413.087	1146
413.164	5380
413.241	17372
413.318	4326
413.395	2138
413.471	1864
413.548	2159
413.625	-516
413.702	878
413.779	772
413.855	-477
413.932	-690
414.009	-1227
414.086	-288
414.162	-275
414.239	-118
414.316	5753
414.393	21618
414.469	12343
414.546	351
414.623	-145
414.699	-727
414.776	-340
414.853	-613
414.929	21
415.006	-371
415.082	482
415.159	769
415.236	623
415.312	37
415.389	272
415.465	2230
415.542	2153
415.618	-1091
415.695	781
415.771	466
415.848	213
415.924	634
416.000	409
416.077	-274
416.153	-1153
416.230	-1347
416.306	-433
416.383	-493
416.459	437
416.535	-745
416.612	-1096
416.688	-584
416.764	-699
416.841	-1137
416.917	-458
416.993	334
417.069	397
417.146	768
417.222	2030
417.298	978
417.374	129
417.451	518
417.527	472
417.603	-100
417.679	-115
417.755	80
417.831	-667
417.908	-737
417.984	-497
418.060	-833
418.136	734
418.212	2967
418.288	725
418.364	-80
418.440	-500
418.516	234
418.592	1862
418.668	4294
418.744	6326
418.820	5633
418.896	1514
418.972	-1172
419.048	-389
419.124	1283
419.200	2034
419.276	-376
419.352	-469
419.428	-343
419.504	-1013
419.579	-13
419.655	165
419.731	-7
419.807	1821
419.883	6177
419.959	6854
420.034	649
420.110	957
420.186	8870
420.262	14722
420.337	2319
420.413	254
420.489	-224
420.565	-276
420.640	-481
420.716	-2
420.792	-1598
420.867	512
420.943	-428
421.019	-176
421.094	390
421.170	205
421.245	-1399
421.321	20
421.397	-1227
421.472	942
421.548	1931
421.623	3845
421.699	793
421.774	-22
421.850	-599
421.925	1343
422.001	1017
422.076	-186
422.152	687
422.227	997
422.302	1992
422.378	798
422.453	1597
422.529	6243
422.604	23285
422.679	86766
422.755	70579
422.830	16553
422.905	2942
422.981	414
423.056	151
423.131	147
423.207	-718
423.282	-92
423.357	2334
423.432	2501
423.508	665
423.583	4730
423.658	5656
423.733	1173
423.808	651
423.883	1286
423.959	403
424.034	727
424.109	179
424.184	-605
424.259	-946
424.334	-299
424.409	-763
424.484	-802
424.559	-237
424.634	-483
424.709	-85
424.784	745
424.859	-163
424.934	505
425.009	6146
425.084	15899
425.159	9386
425.234	1236
425.309	-890
425.384	1172
425.459	4534
425.534	2128
425.609	457
425.683	152
425.758	-756
425.833	812
425.908	362
425.983	2462
426.058	14547
426.132	11608
426.207	1321
426.282	2092
426.357	2922
426.431	790
426.506	-161
426.581	470
426.655	388
426.730	228
426.805	-292
426.879	58
426.954	114
427.029	1580
427.103	7277
427.178	35206
427.253	27854
427.327	3742
427.402	1251
427.476	6723
427.551	4953
427.625	1518
427.700	488
427.774	-4
427.849	248
427.923	697
427.998	-367
428.072	755
428.147	834
428.221	3838
428.296	12129
428.370	7481
428.444	627
428.519	2190
428.593	6487
428.667	9378
428.742	7288
428.816	7424
428.890	8929
428.965	19107
429.039	10208
429.113	10677
429.188	5780
429.262	1147
429.336	444
429.410	5129
429.485	6991
429.559	4997
429.633	7500
429.707	1743
429.781	970
429.855	13139
429.930	26775
430.004	19157
430.078	36586
430.152	40059
430.226	16359
430.300	20245
430.374	4139
430.448	1415
430.522	4792
430.596	33793
430.670	31111
430.744	15398
430.818	44750
430.892	18765
430.966	1872
431.040	679
431.114	-1065
431.188	239
431.262	-344
431.336	576
431.410	1148
431.484	8929
431.557	10191
431.631	1221
431.705	-258
431.779	98
431.853	5745
431.927	8333
432.000	1399
432.074	-304
432.148	740
432.222	1740
432.295	519
432.369	150
432.443	346
432.516	7550
432.590	37035
432.664	26395
432.737	2953
432.811	-101
432.885	-576
432.958	-927
433.032	-626
433.106	-183
433.179	-824
433.253	-623
433.326	-716
433.400	-545
433.473	-971
433.547	-951
433.620	-1116
433.694	179
433.767	1182
433.841	31
433.914	-284
433.988	-894
434.061	-915
434.134	-295
434.208	-1798
434.281	-553
434.355	-964
434.428	86
434.501	-826
434.575	-602
434.648	-478
434.721	-309
434.795	-384
434.868	-945
434.941	-1102
435.014	-699
435.088	-701
435.161	475
435.234	36
435.307	1264
435.381	464
435.454	-327
435.527	-330
435.600	-784
435.673	-521
435.746	-933
435.819	-947
435.892	-346
435.966	-320
436.039	-694
436.112	-600
436.185	-764
436.258	-147
436.331	-701
436.404	-1005
436.477	-235
436.550	-84
436.623	-913
436.696	-755
436.769	-23
436.842	-310
436.915	-5
436.987	-30
437.060	301
437.133	-865
437.206	-1048
437.279	-513
437.352	-841
437.425	-350
437.498	-543
437.570	1128
437.643	2479
437.716	445
437.789	-440
437.861	-178
437.934	3121
438.007	3352
438.080	388
438.152	184
438.225	1128
438.298	7421
438.370	48735
438.443	37646
438.516	8108
438.588	1052
438.661	-5
438.734	-303
438.806	72
438.879	-243
438.951	364
439.024	1693
439.096	600
439.169	-190
439.241	-415
439.314	-889
439.386	286
439.459	1952
439.531	3486
439.604	1633
439.676	470
439.749	-788
439.821	-400
439.893	-256
439.966	-459
440.038	427
440.110	745
440.183	222
440.255	-387
440.327	346
440.400	3124
440.472	25887
440.544	36119
440.617	6298
440.689	1469
440.761	1703
440.833	3114
440.905	3022
440.978	256
441.050	-452
441.122	125
441.194	-488
441.266	-654
441.338	-485
441.411	933
441.483	4999
441.555	18537
441.627	7512
441.699	1689
441.771	1976
441.843	1154
441.915	-390
441.987	-382
442.059	-439
442.131	599
442.203	1491
442.275	1720
442.347	1675
442.419	118
442.491	1018
442.563	5477
442.635	5797
442.706	8173
442.778	10849
442.850	2066
442.922	-471
442.994	445
443.066	874
443.137	1384
443.209	312
443.281	252
443.353	28
443.425	3156
443.496	9200
443.568	13170
443.640	5356
443.711	2121
443.783	76
443.855	43
443.926	-29
443.998	-5
444.070	593
444.141	286
444.213	640
444.285	2023
444.356	1573
444.428	2485
444.499	751
444.571	-282
444.642	-177
444.714	-165
444.785	796
444.857	2066
444.928	5673
445.000	7154
445.071	3269
445.143	6540
445.214	1959
445.285	2257
445.357	8409
445.428	12239
445.500	21815
445.571	25661
445.642	11425
445.714	5285
445.785	13332
445.856	5626
445.928	1430
445.999	2205
446.070	855
446.141	1345
446.213	2509
446.284	942
446.355	697
446.426	831
446.497	-543
446.569	1390
446.640	3576
446.711	2295
446.782	322
446.853	1006
446.924	1798
446.995	726
447.066	351
447.138	1794
447.209	2109
447.280	-460
447.351	410
447.422	103
447.493	956
447.564	1007
447.635	1904
447.706	1879
447.777	377
447.847	229
447.918	-461
447.989	922
448.060	1680
448.131	4015
448.202	5476
448.273	3284
448.344	1629
448.414	266
448.485	522
448.556	336
448.627	-76
448.698	936
448.768	-462
448.839	979
448.910	1803
448.981	3262
449.051	1187
449.122	259
449.193	-164
449.263	115
449.334	-359
449.405	983
449.475	2053
449.546	3513
449.616	3022
449.687	3548
449.758	1597
449.828	1234
449.899	-193
449.969	264
450.040	-75
450.110	1559
450.181	901
450.251	1060
450.322	395
450.392	825
450.463	366
450.533	466
450.604	281
450.674	460
450.744	707
450.815	664
450.885	351
450.955	831
451.026	-717
451.096	-152
451.166	1034
451.237	1539
451.307	9017
451.377	6926
451.447	840
451.518	825
451.588	252
451.658	626
451.728	370
451.799	6231
451.869	13631
451.939	4884
452.009	831
452.079	765
452.149	-277
452.219	1682
452.289	7650
452.360	12243
452.430	3044
452.500	1298
452.570	1288
452.640	2383
452.710	2838
452.780	9190
452.850	7454
452.920	5704
452.990	3726
453.060	1246
453.129	777
453.199	2384
453.269	5558
453.339	29035
453.409	52564
453.479	33370
453.549	53771
453.619	66584
453.688	43470
453.758	9255
453.828	1616
453.898	2446
453.968	951
454.037	1906
454.087	1252
454.107	971
454.168	591
454.177	520
454.247	284
454.249	310
454.316	559
454.330	719
454.386	1346
454.411	2063
454.456	2836
454.492	6385
454.525	9400
454.574	6038
454.595	4637
454.655	1969
454.665	1554
454.734	2254
454.736	2302
454.804	3166
454.817	4216
454.873	7415
454.898	10059
454.943	14011
454.979	10570
455.013	7679
455.060	3978
455.082	2648
455.141	3186
455.152	3300
455.221	6340
455.222	6585
455.291	16900
455.303	16951
455.360	16913
455.384	21220
455.430	25821
455.465	24945
455.499	24189
455.546	16336
455.569	12476
455.627	9902
455.638	9565
455.707	3562
455.708	3564
455.777	1160
455.789	1218
455.846	1375
455.869	1548
455.916	1921
455.950	1910
455.985	1773
456.031	1604
456.054	1519
456.112	1636
456.124	1633
456.193	571
456.193	556
456.262	1497
456.274	1804
456.332	2836
456.355	2775
456.401	2356
456.436	2297
456.470	2143
456.516	1401
456.540	1155
456.597	1251
456.609	1225
456.678	913
456.678	902
456.747	944
456.759	945
456.817	820
456.840	941
456.886	1163
456.920	1064
456.955	1001
457.001	1164
457.024	1311
457.082	2015
457.093	2146
457.162	2780
457.163	2807
457.232	3707
457.243	3734
457.301	2834
457.324	2052
457.370	1218
457.405	1560
457.439	1857
457.485	1915
457.508	1989
457.566	1500
457.577	1404
457.646	2440
457.647	2451
457.715	2343
457.727	2469
457.784	2785
457.808	2712
457.853	2793
457.889	3344
457.922	3486
457.969	2609
457.991	2472
458.050	3561
458.060	3641
458.129	3871
458.130	3888
458.198	3506
458.211	3527
458.267	3184
458.292	2690
458.336	2287
458.372	2017
458.405	2144
458.453	2945
458.474	3324
458.533	3723
458.543	3758
458.611	6203
458.614	6270
458.680	4964
458.694	4474
458.749	3330
458.775	2868
458.818	2427
458.855	2459
458.887	2599
458.936	2370
458.955	2240
459.016	2561
459.024	2590
459.093	2530
459.097	2548
459.162	2933
459.177	2997
459.230	3418
459.257	3632
459.299	3802
459.338	3733
459.368	3708
459.418	4558
459.437	4515
459.499	3542
459.505	3509
459.574	3120
459.579	3115
459.643	2950
459.659	2994
459.711	3193
459.740	2921
459.780	2934
459.820	3669
459.849	3793
459.900	3652
459.917	3702
459.981	4061
459.986	4040
460.054	3195
460.061	3238
460.123	4172
460.141	4107
460.191	4355
460.222	5016
460.260	5854
460.302	6477
460.328	5889
460.382	4954
460.397	4968
460.462	4303
460.465	4297
460.534	4964
460.543	4946
460.602	8946
460.623	10868
460.671	19460
460.703	25811
460.739	24948
460.783	25334
460.808	21928
460.864	7793
460.876	7158
460.944	4156
460.945	4118
461.013	4018
461.024	4062
461.081	4569
461.104	4575
461.150	3830
461.184	3578
461.218	3874
461.264	3467
461.286	3216
461.345	3694
461.355	3797
461.423	4000
461.425	4005
461.491	4281
461.505	4346
461.559	6248
461.585	7281
461.628	13744
461.665	19545
461.696	23464
461.745	31471
461.764	27026
461.825	10545
461.832	10391
461.901	5625
461.905	5474
461.969	5085
461.985	5137
462.037	4904
462.065	4540
462.105	4551
462.145	4846
462.173	6931
462.225	10642
462.241	12239
462.305	19611
462.310	19171
462.378	12513
462.385	11546
462.446	6873
462.465	5312
462.514	4717
462.545	4907
462.582	5117
462.625	5016
462.650	4731
462.705	4170
462.718	4087
462.785	3990
462.786	4042
462.854	7171
462.865	7617
462.922	9813
462.945	10936
462.990	8446
463.025	6074
463.058	5204
463.104	3925
463.126	3976
463.184	4298
463.194	4345
463.262	4586
463.264	4594
463.330	5048
463.344	5162
463.398	5349
463.424	5533
463.466	5981
463.504	6220
463.533	6075
463.583	5762
463.601	5964
463.663	6631
463.669	6754
463.737	8044
463.743	8218
463.805	11907
463.823	12766
463.873	19901
463.903	24561
463.940	28700
463.982	33657
464.008	27275
464.062	13063
464.076	12115
464.142	5585
464.144	5548
464.211	5480
464.221	5475
464.279	5623
464.301	5761
464.347	6175
464.381	6466
464.414	7010
464.461	7608
464.482	8331
464.540	10552
464.550	10254
464.617	7941
464.620	7842
464.685	7465
464.699	7405
464.753	9523
464.779	10585
464.820	11815
464.859	13036
464.888	13126
464.938	13180
464.956	13040
465.018	12208
465.023	12051
465.091	9972
465.098	9724
465.158	9551
465.177	9539
465.226	9853
465.257	9971
465.293	10114
465.336	10276
465.361	10940
465.416	12478
465.428	13112
465.495	16341
465.496	16430
465.563	26551
465.575	28239
465.631	37773
465.654	42076
465.698	28731
465.734	17123
465.765	14049
465.813	9001
465.833	9044
465.893	9507
465.900	9381
465.968	8399
465.972	8315
466.035	9302
466.052	9553
466.102	9143
466.131	8909
466.170	9581
466.210	10203
466.237	10345
466.290	10663
466.304	10846
466.369	11550
466.372	11588
466.439	12123
466.449	12190
466.506	13453
466.528	13876
466.573	15913
466.607	17427
466.641	26536
466.687	39165
466.708	45443
466.766	62630
466.775	58584
466.842	27481
466.845	25946
466.909	16875
466.925	14686
466.977	14426
467.004	14351
467.044	14398
467.083	14392
467.111	15751
467.163	18246
467.178	18905
467.242	21469
467.245	21401
467.312	19164
467.321	18833
467.379	17384
467.400	16808
467.446	18344
467.480	19400
467.559	17117
467.638	14608
467.717	13944
467.796	16553
467.875	17441
467.955	16429
468.034	19284
468.113	43413
468.192	74663
468.271	28633
468.350	12992
468.429	12936
468.508	12065
468.588	11935
468.667	12353
468.746	13761
468.825	13446
468.904	12582
468.983	12702
469.062	19683
469.141	26416
469.220	13758
469.299	11452
469.378	13329
469.456	16272
469.535	15956
469.614	14949
469.693	15021
469.772	16763
469.851	23952
469.930	19980
470.009	13331
470.088	13031
470.166	13217
470.245	16182
470.324	19977
470.403	16015
470.482	13380
470.560	12011
470.639	12685
470.718	14829
470.797	12901
470.875	12930
470.954	18394
471.033	22625
471.111	11613
471.190	10050
471.269	9580
471.347	9544
471.426	11323
471.505	11841
471.583	14989
471.662	14067
471.740	12498
471.819	11083
471.898	11057
471.976	11487
472.055	11112
472.133	11926
472.212	15356
472.290	16142
472.369	12952
472.447	10223
472.526	10742
472.604	11129
472.683	10603
472.761	10798
472.839	11167
472.918	10922
472.996	10449
473.075	12327
473.153	13181
473.231	9517
473.310	11689
473.388	12296
473.466	11161
473.545	11134
473.623	16346
473.701	17467
473.780	12029
473.858	10879
473.936	11671
474.014	10486
474.093	11822
474.171	14529
474.249	23410
474.327	18019
474.405	10466
474.484	10386
474.562	10068
474.640	9947
474.718	9939
474.796	11846
474.874	10355
474.952	9444
475.030	9456
475.108	10025
475.187	11164
475.265	11697
475.343	12220
475.421	13478
475.499	10997
475.577	10551
475.655	13078
475.733	22147
475.811	43077
475.889	42452
475.966	34040
476.044	11321
476.122	10535
476.200	12012
476.278	11421
476.356	9359
476.434	10531
476.512	10702
476.590	12026
476.667	12549
476.745	9214
476.823	9902
476.901	10302
476.979	10263
477.056	9611
477.134	9734
477.212	10804
477.290	9875
477.367	8970
477.445	8368
477.523	9204
477.601	7784
477.678	9371
477.756	9942
477.834	12877
477.911	9256
477.989	9420
478.066	8860
478.144	9917
478.222	10453
478.299	11221
478.377	11470
478.454	8348
478.532	7406
478.609	8619
478.687	9511
478.764	8771
478.842	8538
478.919	10091
478.997	8884
479.074	7904
479.152	9278
479.229	13065
479.307	10500
479.384	7389
479.461	6356
479.539	7649
479.616	10035
479.694	8526
479.771	9539
479.848	9237
479.926	12039
480.003	16375
480.080	9001
480.157	7391
480.235	8011
480.312	8103
480.389	8323
480.467	12863
480.544	19685
480.621	10868
480.698	9037
480.775	10232
480.853	10989
480.930	8945
481.007	8158
481.084	10887
481.161	10493
481.238	11449
481.315	7724
481.392	7608
481.470	7488
481.547	8544
481.624	7485
481.701	7948
481.778	7908
481.855	8848
481.932	11770
482.009	22558
482.086	20970
482.163	8128
482.240	8014
482.317	10515
482.393	11010
482.470	7831
482.547	8555
482.624	7706
482.701	7930
482.778	8214
482.855	7178
482.932	7027
483.009	6079
483.085	7119
483.162	7961
483.239	9428
483.316	6795
483.393	7274
483.469	6830
483.546	7705
483.623	9222
483.699	7148
483.776	7722
483.853	10072
483.930	11628
484.006	28719
484.083	66522
484.160	38863
484.236	49572
484.313	44234
484.389	31659
484.466	26603
484.543	23776
484.619	25233
484.696	24311
484.772	27045
484.849	28592
484.925	24607
485.002	22946
485.078	24705
485.155	24630
485.231	22602
485.308	21902
485.384	23064
485.461	25049
485.537	37380
485.614	54588
485.690	26265
485.766	21328
485.843	20649
485.919	26375
485.995	33188
486.072	20920
486.148	20303
486.224	18764
486.301	20610
486.377	22882
486.453	24131
486.530	21935
486.606	28164
486.682	34921
486.758	37487
486.835	44861
486.911	33208
486.987	49219
487.063	54806
487.139	63493
487.215	50580
487.292	27966
487.368	21736
487.444	22138
487.520	25181
487.596	24014
487.672	22152
487.748	28133
487.824	40010
487.900	26952
487.976	20640
488.052	21425
488.128	26275
488.204	23961
488.280	20512
488.356	22078
488.432	37174
488.508	74675
488.584	34221
488.660	19688
488.736	20113
488.812	19403
488.888	24617
488.964	28880
489.039	48521
489.115	87788
489.191	67653
489.267	22168
489.343	19458
489.418	17276
489.494	16476
489.570	14296
489.646	17407
489.722	16637
489.797	17595
489.873	20589
489.949	46669
490.024	54265
490.100	18305
490.176	15509
490.251	18737
490.327	23816
490.403	17522
490.478	14160
490.554	13123
490.629	13675
490.705	12268
490.781	14509
490.856	14685
490.932	16785
491.007	15726
491.083	16469
491.158	15232
491.234	16458
491.309	34267
491.385	48479
491.460	19053
491.536	14674
491.611	14158
491.686	14554
491.762	18980
491.837	31218
491.913	60164
491.988	71683
492.063	119347
492.139	40413
492.214	23933
492.289	13621
492.365	11258
492.440	13518
492.515	14308
492.590	15423
492.666	12579
492.741	13030
492.816	23973
492.891	16930
492.967	12748
493.042	11013
493.117	13365
493.192	14233
493.267	18875
493.342	61551
493.418	131860
493.493	33192
493.568	11320
493.643	10223
493.718	13449
493.793	17733
493.868	23812
493.943	15070
494.018	11975
494.093	10725
494.168	10283
494.243	9357
494.318	9151
494.393	8576
494.468	9164
494.543	9009
494.618	10566
494.693	10612
494.768	8741
494.842	10711
494.917	8188
494.992	9670
495.067	9097
495.142	7721
495.217	9513
495.292	9341
495.366	10401
495.441	13681
495.516	17497
495.591	20299
495.665	51260
495.740	168523
495.815	104755
495.890	17922
495.964	12146
496.039	12943
496.114	11907
496.188	10638
496.263	13474
496.338	12146
496.412	12546
496.487	15995
496.561	15852
496.636	18017
496.710	13376
496.785	14669
496.860	17367
496.934	13832
497.009	13160
497.083	13122
497.158	13812
497.232	15610
497.307	20743
497.381	18084
497.455	18560
497.530	26950
497.604	21517
497.679	19710
497.753	27755
497.827	42974
497.902	39923
497.976	42735
498.050	64200
498.125	244285
498.199	409780
498.273	79527
498.348	44773
498.422	37957
498.496	33160
498.570	30492
498.645	24145
498.719	22805
498.793	25006
498.867	34494
498.941	47761
499.016	81914
499.090	329844
499.164	197317
499.238	20859
499.312	14742
499.386	17795
499.460	18317
499.534	15119
499.609	17252
499.683	28666
499.757	29682
499.831	37763
499.905	174847
499.979	282978
500.053	43799
500.127	35071
500.201	25155
500.275	16288
500.349	14093
500.422	17674
500.496	22823
500.570	42056
500.644	90840
500.718	251386
500.792	91978
500.866	16053
500.940	18928
501.013	18960
501.087	14980
501.161	24571
501.235	36717
501.309	55525
501.382	168695
501.456	242997
501.530	45407
501.603	67018
501.677	38558
501.751	13262
501.825	14115
501.898	20709
501.972	71372
502.046	75523
502.119	16683
502.193	26735
502.266	84626
502.340	62805
502.413	29020
502.487	78983
502.561	53962
502.634	17842
502.708	12107
502.781	10697
502.855	9181
502.928	7645
503.002	7690
503.075	7232
503.149	8888
503.222	9431
503.295	10401
503.369	13695
503.442	16307
503.516	39601
503.589	143856
503.662	131158
503.736	32656
503.809	59823
503.882	67279
503.956	65958
504.029	91993
504.102	26187
504.175	23665
504.249	11886
504.322	10104
504.395	12601
504.468	8917
504.542	8882
504.615	7489
504.688	6979
504.761	5995
504.834	8733
504.907	9883
504.980	17447
505.053	11542
505.127	9740
505.200	14207
505.273	13229
505.346	10405
505.419	6833
505.492	6455
505.565	5624
505.638	5528
505.711	6132
505.784	5323
505.857	4791
505.930	6615
506.003	5794
506.076	7759
506.149	8682
506.221	14814
506.294	11730
506.367	20711
506.440	95288
506.513	89078
506.586	16284
506.659	10065
506.731	7747
506.804	7700
506.877	12723
506.950	10383
507.022	6424
507.095	7962
507.168	12169
507.241	7605
507.313	5725
507.386	6347
507.459	9861
507.531	7335
507.604	5723
507.677	6500
507.749	6021
507.822	7520
507.894	14939
507.967	23345
508.040	15530
508.112	11436
508.185	11021
508.257	9765
508.330	13991
508.402	10938
508.475	9696
508.547	10456
508.620	9444
508.692	15709
508.765	12464
508.837	7949
508.909	8425
508.982	7742
509.054	9258
509.127	8412
509.199	7328
509.271	7403
509.344	7340
509.416	7167
509.488	7431
509.560	7822
509.633	7328
509.705	9849
509.777	9404
509.849	12395
509.922	11379
509.994	8495
510.066	8989
510.138	9221
510.210	17492
510.283	19347
510.355	15084
510.427	13373
510.499	12506
510.571	13050
510.643	11493
510.715	15227
510.787	16296
510.859	11549
510.931	12504
511.003	15289
511.076	15988
511.148	11298
511.219	10947
511.291	14466
511.363	21834
511.435	11505
511.507	10178
511.579	9911
511.651	9354
511.723	9348
511.795	9041
511.867	8624
511.939	10541
512.010	19417
512.082	22569
512.154	10604
512.226	10186
512.298	12075
512.369	22694
512.441	18196
512.513	16659
512.585	13463
512.656	13085
512.728	14250
512.800	11160
512.871	10600
512.943	11284
513.015	10262
513.086	10860
513.158	11443
513.230	10493
513.301	14140
513.373	18828
513.444	12092
513.516	9931
513.588	9686
513.659	10341
513.731	13629
513.802	11787
513.874	16398
513.945	38258
514.016	19642
514.088	10274
514.159	10563
514.231	12827
514.302	19941
514.374	16253
514.445	12941
514.516	22086
514.588	24986
514.659	12468
514.730	21527
514.802	21035
514.873	14964
514.944	16339
515.016	13505
515.087	14307
515.158	15920
515.229	27083
515.301	16516
515.372	20769
515.443	16197
515.514	11669
515.585	9825
515.656	10360
515.728	10477
515.799	9549
515.870	9741
515.941	10462
516.012	9522
516.083	13141
516.154	16215
516.225	18885
516.296	18407
516.367	15161
516.438	15784
516.509	19988
516.580	23784
516.651	47435
516.722	208133
516.793	176310
516.864	30593
516.935	27879
517.006	29202
517.077	36357
517.148	63286
517.219	164581
517.289	460816
517.360	167546
517.431	76517
517.502	18843
517.573	14999
517.643	13716
517.714	15135
517.785	17309
517.856	16206
517.926	19374
517.997	21585
518.068	27051
518.138	33969
518.209	43541
518.280	100971
518.350	511420
518.421	375112
518.492	41978
518.562	19456
518.633	17454
518.703	13903
518.774	14485
518.845	18513
518.915	23032
518.986	16654
519.056	18103
519.127	27537
519.197	44063
519.268	99820
519.338	112130
519.408	22142
519.479	20925
519.549	19352
519.620	12387
519.690	9421
519.760	9648
519.831	9450
519.901	10639
519.971	8495
520.042	10449
520.112	10966
520.182	11524
520.253	15643
520.323	10871
520.393	11593
520.463	22191
520.534	13743
520.604	26942
520.674	18615
520.744	14251
520.814	26689
520.885	35645
520.955	26745
521.025	118431
521.095	92722
521.165	14171
521.235	10788
521.305	9936
521.375	8379
521.445	9388
521.515	11871
521.585	12853
521.655	15911
521.725	11783
521.795	11556
521.865	8647
521.935	11695
522.005	14878
522.075	8390
522.145	8613
522.215	9980
522.285	13406
522.355	17613
522.424	34802
522.494	37116
522.564	18340
522.634	20433
522.704	69816
522.774	50273
522.843	10544
522.913	8824
522.983	11296
523.053	11003
523.122	9852
523.192	10707
523.262	30132
523.331	53669
523.401	12852
523.471	7106
523.540	7766
523.610	6731
523.680	6748
523.749	6272
523.819	8462
523.888	8820
523.958	6790
524.027	6766
524.097	7885
524.166	7749
524.236	7670
524.305	7691
524.375	6695
524.444	6674
524.514	7427
524.583	7075
524.653	9766
524.722	10529
524.791	8355
524.861	6719
524.930	6113
524.999	5948
525.069	9969
525.138	9187
525.207	10172
525.277	8876
525.346	6957
525.415	5992
525.484	6278
525.554	7820
525.623	8883
525.692	6507
525.761	6900
525.830	6712
525.900	6330
525.969	8846
526.038	9692
526.107	8414
526.176	19418
526.245	21800
526.314	15194
526.383	17319
526.452	19794
526.522	24277
526.591	44798
526.660	40158
526.729	22578
526.797	17595
526.867	27826
526.935	137238
527.004	183322
527.073	84171
527.142	13675
527.211	7899
527.280	8344
527.349	9827
527.418	5487
527.487	5876
527.555	5250
527.624	4910
527.693	4420
527.762	5206
527.831	5054
527.899	5237
527.968	4698
528.037	5643
528.106	7019
528.174	12490
528.243	12283
528.312	11691
528.380	24834
528.449	9316
528.518	5923
528.586	4631
528.655	4999
528.723	4205
528.792	4339
528.861	5060
528.929	5038
528.998	5398
529.066	4157
529.135	3921
529.203	4298
529.272	2944
529.340	4990
529.409	5409
529.477	5044
529.545	5417
529.614	8904
529.682	6604
529.751	10984
529.819	9772
529.887	7312
529.956	5029
530.024	5004
530.092	3865
530.161	5551
530.229	8954
530.297	7026
530.365	4059
530.434	3885
530.502	3823
530.570	4533
530.638	3519
530.707	4290
530.775	5979
530.843	5085
530.911	3799
530.979	4596
531.047	4109
531.115	5305
531.183	4196
531.252	4369
531.320	4746
531.388	4002
531.456	4397
531.524	4474
531.592	5481
531.660	4990
531.728	3958
531.796	4359
531.864	4622
531.932	5163
532.000	3489
532.067	5198
532.135	5546
532.203	6447
532.271	6678
532.339	9874
532.407	27707
532.475	26625
532.542	9716
532.610	10932
532.678	11792
532.746	30486
532.814	143997
532.881	63498
532.949	9776
533.017	6876
533.084	5079
533.152	5723
533.220	4424
533.287	5744
533.355	4568
533.423	3537
533.490	4162
533.558	4334
533.625	4775
533.693	6504
533.761	5788
533.828	6278
533.896	6012
533.963	11209
534.031	15732
534.098	18603
534.166	12409
534.233	6114
534.300	5409
534.368	6838
534.435	5144
534.503	5989
534.570	5223
534.637	4719
534.705	4616
534.772	5369
534.840	5085
534.907	9021
534.974	14938
535.041	6760
535.109	7018
535.176	5394
535.243	3944
535.310	4621
535.378	3572
535.445	4589
535.512	4296
535.579	4317
535.646	3728
535.714	4798
535.781	7386
535.848	7613
535.915	6314
535.982	7550
536.049	6921
536.116	7921
536.183	6313
536.250	6172
536.317	6520
536.384	6799
536.451	9551
536.518	12193
536.585	7687
536.652	8998
536.719	12132
536.786	12531
536.853	8966
536.920	10949
536.987	20693
537.053	18217
537.120	49315
537.187	86592
537.254	11433
537.321	5857
537.388	6362
537.454	4856
537.521	4438
537.588	4715
537.654	5421
537.721	6437
537.788	7857
537.855	5720
537.921	5849
537.988	6043
538.055	5668
538.121	6119
538.188	6235
538.254	8624
538.321	17646
538.388	16425
538.454	6742
538.521	5467
538.587	5812
538.654	4815
538.720	5332
538.787	4708
538.853	5326
538.920	7341
538.986	7395
539.053	6665
539.119	6501
539.185	6447
539.252	6588
539.318	11195
539.385	10198
539.451	8900
539.517	8778
539.583	9562
539.650	13254
539.716	52382
539.782	26769
539.849	7906
539.915	6648
539.981	5609
540.047	9081
540.114	7595
540.180	7569
540.246	7710
540.312	8863
540.378	16863
540.444	22951
540.510	16145
540.576	54270
540.643	34440
540.709	6111
540.775	7646
540.841	6019
540.907	7846
540.973	14247
541.039	13356
541.105	14234
541.171	9504
541.237	6191
541.303	7508
541.369	7488
541.435	9248
541.500	15807
541.566	14801
541.632	6356
541.698	5551
541.764	5478
541.830	5120
541.896	4749
541.961	6058
542.027	5793
542.093	5963
542.159	6618
542.224	6972
542.290	9689
542.356	14305
542.421	23373
542.487	12203
542.553	7372
542.618	8735
542.684	7357
542.750	6984
542.815	8918
542.881	12123
542.947	38365
543.012	56197
543.078	9594
543.143	7006
543.209	7421
543.274	6984
543.340	7778
543.405	13516
543.471	35037
543.536	13140
543.602	7006
543.667	5881
543.732	6940
543.798	5369
543.863	6403
543.928	6352
543.994	5391
544.059	5064
544.124	5688
544.190	5800
544.255	6681
544.320	7002
544.386	7057
544.451	8391
544.516	11841
544.581	11455
544.646	20248
544.712	57520
544.777	18502
544.842	9181
544.907	8969
544.972	8664
545.037	6864
545.102	7810
545.168	7950
545.233	8433
545.298	9302
545.363	10770
545.428	12782
545.493	15829
545.558	37914
545.623	28011
545.688	8977
545.753	7724
545.818	8263
545.883	8132
545.947	7463
546.012	8846
546.077	9397
546.142	8833
546.207	7605
546.272	9549
546.337	12051
546.401	9512
546.466	8065
546.531	7955
546.596	8282
546.661	8831
546.725	8314
546.790	6720
546.855	7057
546.919	6667
546.984	7856
547.049	7595
547.113	9400
547.178	7956
547.243	8594
547.307	9843
547.372	9677
547.436	11667
547.501	7709
547.565	8004
547.630	9925
547.695	10686
547.759	10936
547.823	11207
547.888	8466
547.952	7886
548.017	7834
548.081	10130
548.146	12451
548.210	13784
548.274	8100
548.339	7667
548.403	7664
548.468	7948
548.532	6591
548.596	7706
548.660	6537
548.725	8651
548.789	10239
548.853	12797
548.917	9456
548.982	10413
549.046	16274
549.110	9357
549.174	7300
549.238	6696
549.303	6750
549.367	7830
549.431	7051
549.495	8318
549.559	6489
549.623	7832
549.687	8644
549.751	13708
549.815	11774
549.879	9344
549.943	7530
550.007	9064
550.071	8787
550.135	11586
550.199	11363
550.263	9020
550.327	9189
550.391	12854
550.455	10947
550.519	8917
550.582	9387
550.646	11012
550.710	15129
550.774	10336
550.838	9309
550.901	8686
550.965	9863
551.029	10281
551.093	11028
551.156	14105
551.220	22650
551.284	38714
551.347	17404
551.411	26304
551.475	49485
551.538	17004
551.602	8499
551.666	7903
551.729	7593
551.793	8305
551.856	8441
551.920	8828
551.983	9055
552.047	8557
552.110	7732
552.174	8009
552.237	7659
552.301	7445
552.364	7351
552.428	8384
552.491	7500
552.554	9258
552.618	7999
552.681	8698
552.745	8893
552.808	13118
552.871	19437
552.934	14104
552.998	8347
553.061	9596
553.124	9387
553.187	9630
553.251	10440
553.314	12545
553.377	12150
553.440	16100
553.503	36006
553.567	108230
553.630	38616
553.693	10321
553.756	9294
553.819	8271
553.882	8093
553.945	7715
554.008	7257
554.071	7078
554.134	7495
554.197	6839
554.260	7163
554.323	8055
554.386	8233
554.449	6803
554.512	8481
554.575	6895
554.638	7606
554.701	7730
554.764	6956
554.827	6944
554.889	6031
554.952	5696
555.015	5784
555.078	6893
555.141	7046
555.203	6615
555.266	6270
555.329	7449
555.391	6566
555.454	6805
555.517	8042
555.580	6748
555.642	6653
555.705	6106
555.768	6470
555.830	7442
555.893	6152
555.955	5958
556.018	6267
556.080	6303
556.143	5965
556.206	5956
556.268	7491
556.330	7060
556.393	7160
556.455	6672
556.518	8990
556.580	13707
556.643	7459
556.705	6489
556.767	5625
556.830	7435
556.892	7077
556.955	10744
557.017	11264
557.079	6644
557.142	6174
557.204	6463
557.266	13636
557.328	17444
557.391	6781
557.453	5883
557.515	6727
557.577	7061
557.639	8998
557.701	6439
557.764	4698
557.826	5963
557.888	7208
557.950	6083
558.012	5283
558.074	6219
558.136	8558
558.198	14822
558.260	11726
558.322	7909
558.384	7993
558.446	8419
558.508	8404
558.570	9891
558.632	14732
558.694	29746
558.756	18584
558.818	20001
558.880	66765
558.942	41908
559.003	15603
559.065	13320
559.127	7573
559.189	8081
559.251	7689
559.312	8433
559.374	12250
559.436	33937
559.498	36779
559.559	8627
559.621	7211
559.683	8429
559.744	10395
559.806	19533
559.868	36525
559.929	16176
559.991	9351
560.052	9692
560.114	14735
560.176	15981
560.237	10783
560.299	18364
560.360	11972
560.422	7115
560.483	7645
560.545	8176
560.606	6937
560.667	6412
560.729	7563
560.790	6560
560.852	6394
560.913	6841
560.974	6630
561.036	6630
561.097	6652
561.158	7448
561.220	7356
561.281	7779
561.342	6916
561.403	9255
561.465	9941
561.526	18656
561.587	35813
561.648	15291
561.709	7709
561.771	8426
561.832	6791
561.893	7226
561.954	7550
562.015	8289
562.076	7515
562.137	7601
562.198	7066
562.259	7632
562.320	6834
562.381	7746
562.442	10155
562.503	11008
562.564	7414
562.625	7651
562.686	7546
562.747	7771
562.808	7788
562.869	7414
562.930	8796
562.991	9330
563.051	8783
563.112	8555
563.173	7798
563.234	6523
563.294	7308
563.355	7630
563.416	8593
563.477	7425
563.537	7435
563.598	8581
563.659	7749
563.720	8186
563.780	8455
563.841	8160
563.901	7802
563.962	8276
564.023	7992
564.083	7869
564.144	8235
564.204	9332
564.265	7859
564.325	9542
564.386	13493
564.446	20035
564.507	8928
564.567	7942
564.628	7897
564.688	7314
564.749	7872
564.809	9275
564.869	10941
564.930	9634
564.990	8596
565.050	6933
565.111	8000
565.171	7917
565.231	7280
565.292	8237
565.352	6986
565.412	8205
565.472	7845
565.532	8618
565.593	8418
565.653	7935
565.713	7571
565.773	9018
565.833	8540
565.893	12591
565.953	9848
566.013	7448
566.074	9140
566.134	10050
566.194	14563
566.254	20416
566.314	13607
566.374	10346
566.434	9010
566.494	9209
566.554	9613
566.614	9747
566.673	9611
566.733	10987
566.793	10850
566.853	11332
566.913	11375
566.973	11972
567.033	12197
567.092	11314
567.152	11719
567.212	11160
567.272	11850
567.331	12638
567.391	12577
567.451	14004
567.511	15723
567.570	19094
567.630	13855
567.690	11377
567.749	12352
567.809	12360
567.868	14701
567.928	16165
567.988	19074
568.047	22036
568.107	24623
568.166	32083
568.226	46188
568.285	71244
568.345	74717
568.404	58969
568.464	48103
568.523	42721
568.582	41342
568.642	45985
568.701	52717
568.761	70668
568.820	110999
568.879	136951
568.939	110465
568.998	80148
569.057	56770
569.116	42851
569.176	34460
569.235	27963
569.294	23502
569.353	20791
569.413	18028
569.472	16985
569.531	14894
569.590	13649
569.649	12106
569.708	12025
569.767	11833
569.827	11938
569.886	11763
569.945	11236
570.004	10616
570.063	10032
570.122	10490
570.181	10036
570.240	10411
570.299	12171
570.358	10721
570.417	9314
570.475	8176
570.534	8147
570.593	8629
570.652	9369
570.711	8765
570.770	8325
570.829	9261
570.887	8171
570.946	9463
571.005	9503
571.064	7918
571.122	8068
571.181	9100
571.240	8481
571.299	7726
571.357	8481
571.416	9234
571.475	8320
571.533	10011
571.592	8541
571.650	8145
571.709	7363
571.768	7417
571.826	7172
571.885	6341
571.943	6235
572.002	6638
572.060	7636
572.119	6526
572.177	6252
572.236	5922
572.294	6086
572.352	7077
572.411	6735
572.469	6113
572.528	6903
572.586	6792
572.644	6661
572.703	8439
572.761	7786
572.819	6018
572.877	6567
572.936	6521
572.994	6750
573.052	6380
573.110	6407
573.169	6946
573.227	6254
573.285	5986
573.343	5945
573.401	6167
573.459	6376
573.517	4920
573.576	6398
573.634	5775
573.692	6065
573.750	5875
573.808	6356
573.866	6543
573.924	8276
573.982	8660
574.040	6234
574.098	6215
574.155	5300
574.213	5943
574.271	5406
574.329	5841
574.387	5792
574.445	5566
574.503	5984
574.560	4601
574.618	5947
574.676	5177
574.734	4604
574.792	5825
574.849	4879
574.907	5589
574.965	6125
575.022	5061
575.080	6115
575.138	5540
575.195	5989
575.253	5406
575.311	6781
575.368	5985
575.426	5306
575.483	6299
575.541	4877
575.598	5043
575.656	5393
575.713	6160
575.771	5911
575.828	5535
575.886	5629
575.943	6119
576.001	6055
576.058	5746
576.115	6372
576.173	6957
576.230	8188
576.287	8666
576.345	9068
576.402	6533
576.459	5934
576.517	6495
576.574	7007
576.631	7130
576.688	7582
576.746	5808
576.803	5658
576.860	6505
576.917	6460
576.974	5979
577.031	6778
577.089	6496
577.146	5751
577.203	6680
577.260	7708
577.317	6805
577.374	8001
577.431	7662
577.488	7022
577.545	6454
577.602	6319
577.659	6081
577.716	7672
577.773	7451
577.830	7756
577.886	6872
577.943	6173
578.000	5957
578.057	6342
578.114	6669
578.171	7778
578.227	9637
578.284	10315
578.341	9100
578.398	7972
578.454	6952
578.511	8842
578.568	8720
578.625	8231
578.681	6418
578.738	6579
578.794	6269
578.851	6713
578.908	6407
578.964	7094
579.021	7376
579.077	6745
579.134	6758
579.190	7176
579.247	6243
579.303	6802
579.360	5978
579.416	5693
579.473	6395
579.529	5158
579.586	6016
579.642	6539
579.698	6191
579.755	7428
579.811	6690
579.867	7391
579.924	6728
579.980	7133
580.036	7998
580.093	9821
580.149	10976
580.205	14799
580.261	11907
580.317	10288
580.374	9400
580.430	9208
580.486	9684
580.542	8302
580.598	7470
580.619	7341
580.654	7123
580.692	7179
580.710	7218
580.765	7551
580.767	7566
580.823	6518
580.838	6685
580.879	7157
580.911	7500
580.935	7764
580.984	7624
580.991	7612
581.047	7378
581.057	7356
581.103	7292
581.130	7435
581.159	7597
581.203	8484
581.215	8734
581.270	8745
581.276	8706
581.326	8310
581.349	7948
581.382	7453
581.422	7546
581.438	7576
581.494	7743
581.494	7741
581.550	8023
581.567	7963
581.606	7948
581.640	7874
581.661	7785
581.713	7718
581.717	7721
581.773	7842
581.786	7878
581.829	7958
581.859	8081
581.885	8201
581.932	7860
581.940	7817
581.996	8122
582.004	8173
582.052	8290
582.077	7745
582.107	7240
582.150	7712
582.163	7823
582.219	8157
582.223	8172
582.274	8412
582.296	8502
582.330	8684
582.368	8682
582.386	8677
582.441	8099
582.441	8099
582.497	8107
582.514	8055
582.552	8055
582.587	8387
582.608	8551
582.659	8816
582.663	8841
582.719	8275
582.732	8350
582.774	8632
582.805	8573
582.830	8431
582.877	8734
582.885	8832
582.941	9165
582.950	9109
582.996	8579
583.023	8630
583.052	8863
583.095	9489
583.107	9644
583.162	10234
583.168	10394
583.218	11856
583.240	11665
583.273	11254
583.313	10450
583.328	10125
583.384	9839
583.385	9798
583.439	8698
583.458	8786
583.494	8882
583.531	8868
583.549	8943
583.603	8926
583.605	8925
583.660	9629
583.676	9531
583.715	9176
583.748	9531
583.770	9806
583.820	9023
583.825	8949
583.881	9803
583.893	9655
583.936	9168
583.965	9169
583.991	9041
584.038	8983
584.046	9015
584.101	9676
584.110	9662
584.156	9633
584.183	9763
584.211	9675
584.255	9237
584.266	9197
584.321	9643
584.328	9687
584.376	9980
584.400	10021
584.431	10213
584.472	10269
584.486	10172
584.541	10195
584.545	10164
584.596	9970
584.617	10169
584.651	10480
584.689	10649
584.706	10721
584.761	10887
584.762	10889
584.816	11078
584.834	11218
584.871	11498
584.906	11400
584.926	11313
584.978	11443
584.980	11451
585.035	11821
585.051	12001
585.090	12725
585.123	12764
585.145	12621
585.195	13049
585.200	13098
585.254	13247
585.267	13340
585.309	14010
585.340	15289
585.364	16389
585.412	16836
585.419	16698
585.473	14945
585.484	14563
585.528	13842
585.556	14347
585.583	14849
585.628	16207
585.637	16733
585.692	20274
585.700	21389
585.747	28292
585.772	28774
585.801	26397
585.845	19612
585.856	18039
585.910	15856
585.917	15647
585.965	16167
585.989	16331
586.019	16214
586.061	15877
586.074	15972
586.128	16854
586.133	16936
586.183	17943
586.205	18343
586.237	18573
586.277	18633
586.292	18654
586.346	18710
586.349	18719
586.401	19167
586.421	19240
586.455	19320
586.493	20118
586.509	20958
586.564	23916
586.565	24020
586.618	31813
586.637	34641
586.672	37282
586.709	33850
586.727	29689
586.781	22165
586.781	22165
586.835	22563
586.853	22707
586.889	22904
586.925	23087
586.944	23145
586.996	23934
586.998	23978
587.052	24955
587.068	25352
587.106	25858
587.140	26040
587.161	26253
587.212	26787
587.215	26828
587.269	28421
587.284	28608
587.323	29367
587.356	30550
587.377	31233
587.427	32751
587.431	32866
587.485	33846
587.499	34236
587.539	35585
587.571	36752
587.593	37477
587.643	38775
587.648	38966
587.702	41857
587.715	42441
587.755	44448
587.786	46336
587.810	47861
587.858	51180
587.864	51562
587.917	55543
587.930	56410
587.971	60631
588.001	64392
588.025	67207
588.073	71992
588.079	72640
588.133	80331
588.145	81932
588.187	88771
588.217	94508
588.241	100014
588.288	111378
588.295	113118
588.348	129635
588.360	133354
588.402	149023
588.431	161102
588.456	172492
588.503	196410
588.510	200394
588.564	235502
588.575	243813
588.617	282757
588.646	312012
588.671	344324
588.718	412204
588.725	426396
588.778	547570
588.789	573748
588.832	713983
588.861	807085
588.886	875765
588.932	971612
588.939	963265
588.993	829607
589.004	819322
589.047	881354
589.075	935298
589.100	939225
589.147	871471
589.154	848242
589.207	653674
589.218	616573
589.261	539556
589.290	494102
589.314	484101
589.361	476968
589.368	483973
589.421	556944
589.433	574905
589.475	698623
589.504	784696
589.528	839456
589.576	899291
589.582	893270
589.635	847384
589.647	841483
589.689	806505
589.718	747731
589.742	647617
589.790	447395
589.795	433828
589.849	318517
589.861	293540
589.902	250587
589.932	221058
589.955	202865
590.004	165879
590.009	163230
590.062	136964
590.075	130811
590.115	118034
590.146	108668
590.168	103586
590.218	92700
590.222	92078
590.275	84256
590.289	82313
590.328	77442
590.360	73542
590.381	71406
590.431	66447
590.435	66144
590.488	60416
590.503	58926
590.541	56792
590.574	55150
590.594	53927
590.645	50368
590.647	50306
590.700	48374
590.716	47626
590.753	45544
590.787	44071
590.806	43518
590.859	41391
590.859	41380
590.912	39350
590.930	38644
590.965	37717
591.001	36854
591.018	36678
591.071	35885
591.072	35853
591.124	35133
591.143	34806
591.177	33995
591.214	33119
591.230	32880
591.283	31923
591.285	31863
591.336	31345
591.356	31141
591.389	31042
591.427	30824
591.442	30402
591.495	28632
591.498	28495
591.547	28403
591.569	28253
591.600	27665
591.640	26919
591.653	26885
591.706	26583
591.711	26541
591.759	26498
591.782	26391
591.811	27237
591.853	28478
591.864	28298
591.917	27175
591.924	26963
591.969	25618
591.995	24905
592.022	24895
592.066	24710
592.075	24757
592.127	24954
592.137	24969
592.180	27232
592.208	28667
592.233	28091
592.279	26811
592.285	26445
592.338	23080
592.350	22289
592.390	22309
592.421	22315
592.443	22433
592.491	22595
592.495	22547
592.548	21568
592.562	21279
592.600	21458
592.633	21574
592.653	21452
592.704	20967
592.705	21073
592.775	20367
592.846	21350
592.916	20135
592.987	21840
593.058	20848
593.128	20361
593.199	19149
593.270	18870
593.341	17416
593.411	18622
593.482	18309
593.553	17499
593.623	17536
593.694	17621
593.764	18366
593.835	19176
593.906	16810
593.976	16919
594.047	17932
594.117	18849
594.188	22067
594.258	18256
594.329	16339
594.399	16509
594.470	15825
594.540	15791
594.611	14393
594.681	15244
594.751	15532
594.822	16222
594.892	16042
594.963	16585
595.033	16048
595.103	17059
595.174	16363
595.244	20150
595.314	29574
595.384	23592
595.455	14682
595.525	16017
595.595	15733
595.665	15969
595.736	14609
595.806	15324
595.876	14907
595.946	15178
596.016	14444
596.087	13636
596.157	15149
596.227	14315
596.297	14434
596.367	15541
596.437	16503
596.507	19295
596.577	26919
596.647	21903
596.717	15239
596.787	14526
596.857	14558
596.927	14835
596.997	14309
597.067	14627
597.137	15740
597.207	16087
597.277	15949
597.347	14979
597.417	15077
597.487	14601
597.557	15087
597.626	14323
597.696	14704
597.766	17103
597.836	22705
597.906	22590
597.975	15005
598.045	14053
598.115	13753
598.185	14928
598.254	13807
598.324	15179
598.394	15024
598.464	14552
598.533	13820
598.603	13365
598.672	12968
598.742	14142
598.812	13885
598.881	13519
598.951	14485
599.020	12978
599.090	12681
599.159	13234
599.229	13478
599.299	11850
599.368	12711
599.437	13206
599.507	12765
599.576	13666
599.646	14018
599.715	15219
599.785	12967
599.854	13376
599.924	15421
599.993	15829
600.062	13804
600.132	12955
600.201	13047
600.270	13838
600.340	13851
600.409	13139
600.478	12996
600.547	13025
600.617	13221
600.686	13145
600.755	12921
600.824	12865
600.894	12536
600.963	12332
601.032	11960
601.101	12269
601.170	11927
601.239	12186
601.308	12168
601.378	12558
601.447	12033
601.516	12252
601.585	10983
601.654	11656
601.723	11953
601.792	12698
601.861	12063
601.930	13482
601.999	14849
602.068	11706
602.137	11733
602.206	12565
602.275	12147
602.343	12644
602.412	14088
602.481	12081
602.550	11258
602.619	11643
602.688	11742
602.756	11924
602.825	12130
602.894	11257
602.963	10488
603.032	11546
603.100	11728
603.169	10819
603.238	11602
603.307	11779
603.375	10584
603.444	11473
603.513	11210
603.581	11189
603.650	11066
603.719	10798
603.787	10800
603.856	10987
603.924	10412
603.993	11584
604.061	10969
604.130	11331
604.198	11356
604.267	11232
604.335	10678
604.404	10311
604.472	10679
604.541	10906
604.609	10656
604.678	11503
604.746	10839
604.815	10713
604.883	11722
604.951	11189
605.020	10530
605.088	10033
605.156	11430
605.225	10402
605.293	10454
605.361	10943
605.429	11729
605.498	11110
605.566	11079
605.634	11639
605.702	11167
605.771	11651
605.839	11622
605.907	11807
605.975	11226
606.043	11054
606.111	11060
606.180	11056
606.248	12240
606.316	15481
606.384	13254
606.452	13162
606.520	14802
606.588	14241
606.656	10324
606.724	9974
606.792	10186
606.860	9635
606.928	9136
606.996	8978
607.064	9161
607.132	8834
607.200	9652
607.267	9004
607.335	10182
607.403	9944
607.471	9516
607.539	9378
607.607	9060
607.674	8918
607.742	9191
607.810	9265
607.878	10489
607.946	9632
608.013	8184
608.081	9543
608.149	9419
608.216	9326
608.284	9504
608.352	9307
608.419	9699
608.487	12944
608.555	15463
608.622	9668
608.690	9241
608.757	9779
608.825	10509
608.893	9642
608.960	10675
609.028	12368
609.095	15163
609.163	14754
609.230	9992
609.298	10621
609.365	9324
609.432	8221
609.500	9410
609.567	10080
609.635	10138
609.702	10234
609.769	11282
609.837	11556
609.904	11590
609.971	10074
610.039	10471
610.106	11233
610.173	16212
610.241	32000
610.308	56750
610.375	60787
610.442	25689
610.509	11913
610.577	10172
610.644	9713
610.711	9147
610.778	9826
610.845	9715
610.912	10225
610.980	10124
611.047	14090
611.114	16648
611.181	10434
611.248	8565
611.315	9516
611.382	9057
611.449	9306
611.516	10148
611.583	10539
611.650	9601
611.717	10371
611.784	9440
611.851	9849
611.918	11112
611.984	12411
612.051	13698
612.118	20324
612.185	40667
612.252	69380
612.319	21317
612.386	11362
612.452	10921
612.519	11335
612.586	14598
612.653	17132
612.719	10712
612.786	9714
612.853	9724
612.919	9567
612.986	9579
613.053	8716
613.120	8620
613.186	8999
613.253	9094
613.319	9136
613.386	8318
613.453	9041
613.519	9670
613.586	11156
613.652	14597
613.719	14460
613.785	13778
613.852	11329
613.918	9464
613.985	10390
614.051	12231
614.118	22645
614.184	47678
614.250	19156
614.317	9837
614.383	9423
614.449	8908
614.516	8322
614.582	9384
614.648	9632
614.715	8867
614.781	8524
614.847	8326
614.914	9023
614.980	10653
615.046	9862
615.112	9051
615.179	8852
615.245	10693
615.311	12478
615.377	17105
615.443	28772
615.509	20691
615.575	12765
615.642	11511
615.708	10795
615.774	11097
615.840	12991
615.906	15347
615.972	20643
616.038	35164
616.104	65712
616.170	72092
616.236	114386
616.302	42783
616.368	17104
616.434	13934
616.500	13332
616.565	12937
616.631	13203
616.697	13654
616.763	11929
616.829	12626
616.895	17561
616.961	22406
617.026	17370
617.092	10556
617.158	10730
617.224	10227
617.289	9906
617.355	10249
617.421	10578
617.487	11590
617.552	11391
617.618	9984
617.684	9854
617.749	10886
617.815	9618
617.880	9577
617.946	9727
618.012	9270
618.077	9247
618.143	10027
618.208	9778
618.274	9358
618.339	10375
618.405	10522
618.470	9762
618.536	10020
618.601	11558
618.667	12136
618.732	11412
618.798	10570
618.863	10397
618.928	10027
618.994	11306
619.059	12029
619.124	13598
619.190	14950
619.255	10992
619.320	10446
619.386	10013
619.451	10283
619.516	10896
619.581	10365
619.647	10446
619.712	10428
619.777	10164
619.842	9747
619.907	10702
619.972	10224
620.038	10584
620.103	9913
620.168	10944
620.233	10617
620.298	9421
620.363	9654
620.428	9442
620.493	9893
620.558	9681
620.623	9725
620.688	10223
620.753	9379
620.818	9229
620.883	9756
620.948	10178
621.013	9991
621.078	9633
621.143	9873
621.207	10887
621.272	11354
621.337	11942
621.402	12817
621.467	14187
621.532	19292
621.596	16144
621.661	13214
621.726	11572
621.791	12255
621.855	11355
621.920	12947
621.985	13263
622.049	15108
622.114	15976
622.179	15053
622.243	13334
622.308	13262
622.373	12891
622.437	13171
622.502	13251
622.566	11742
622.631	12766
622.695	13862
622.760	12385
622.824	13197
622.889	12527
622.953	13369
623.018	15269
623.082	20248
623.147	14402
623.211	12842
623.276	12709
623.340	13610
623.404	12476
623.469	11126
623.533	12201
623.597	12017
623.662	10736
623.726	11883
623.790	11364
623.854	12110
623.919	12121
623.983	11612
624.047	12181
624.111	12328
624.176	11895
624.240	11854
624.304	13153
624.368	11975
624.432	11526
624.496	11120
624.560	12105
624.625	12180
624.689	11943
624.753	10803
624.817	10878
624.881	10516
624.945	10977
625.009	11920
625.073	10592
625.137	10719
625.201	12417
625.265	14571
625.329	12228
625.393	10513
625.456	12533
625.520	11788
625.584	12321
625.648	14442
625.712	19175
625.776	39553
625.839	74938
625.903	59502
625.967	16750
626.031	17777
626.095	35007
626.158	30145
626.222	12126
626.286	9916
626.349	9096
626.413	9325
626.477	9804
626.540	10485
626.604	9435
626.668	8830
626.731	8683
626.795	8883
626.858	9576
626.922	9805
626.986	8922
627.049	8460
627.113	8553
627.176	8183
627.240	8398
627.303	8668
627.366	9435
627.430	8598
627.493	8395
627.557	9008
627.620	9845
627.684	8838
627.747	9097
627.810	8546
627.874	8304
627.937	7888
628.000	8664
628.064	8477
628.127	8764
628.190	7905
628.253	7872
628.317	8231
628.380	8109
628.443	8497
628.506	8492
628.569	7552
628.632	8126
628.696	7568
628.759	7442
628.822	7567
628.885	8275
628.948	7170
629.011	7429
629.074	7716
629.137	7131
629.200	7384
629.263	7572
629.326	7834
629.389	7024
629.452	6932
629.515	7966
629.578	8138
629.641	8261
629.704	7864
629.767	8102
629.830	7484
629.892	6293
629.955	7214
630.018	7065
630.081	7487
630.144	8592
630.207	8022
630.269	8259
630.332	8595
630.395	10046
630.458	6994
630.520	6685
630.583	7060
630.646	6238
630.708	5628
630.771	6290
630.834	7423
630.896	7218
630.959	6671
631.021	6421
631.084	6363
631.146	6410
631.209	8342
631.272	7589
631.334	5419
631.397	6939
631.459	5899
631.522	5370
631.584	6214
631.646	6762
631.709	7142
631.771	7234
631.834	7904
631.896	6462
631.958	5049
632.021	6192
632.083	5674
632.145	6064
632.208	5558
632.270	6222
632.332	5414
632.395	5126
632.457	5168
632.519	5849
632.581	5656
632.643	5290
632.706	5358
632.768	5659
632.830	5359
632.892	5459
632.954	4814
633.016	5439
633.078	5245
633.141	5770
633.203	5879
633.265	5398
633.327	4798
633.389	5498
633.451	5623
633.513	6017
633.575	7045
633.637	8024
633.698	6351
633.760	5786
633.822	4869
633.884	4917
633.946	4505
634.008	4726
634.070	5652
634.132	6011
634.193	6698
634.255	5125
634.317	5202
634.379	5388
634.441	4563
634.502	5024
634.564	4913
634.626	4823
634.687	4647
634.749	5297
634.811	4478
634.873	3941
634.934	5612
634.996	4657
635.057	4825
635.119	4633
635.181	4494
635.242	4578
635.304	4080
635.365	5925
635.427	5060
635.488	4922
635.550	4031
635.611	4545
635.673	3780
635.734	4656
635.796	5101
635.857	5466
635.918	4064
635.980	4188
636.041	4626
636.102	5218
636.164	3942
636.225	4846
636.286	4216
636.348	4867
636.409	4475
636.470	3731
636.531	4512
636.593	4701
636.654	5946
636.715	4269
636.776	4291
636.838	3820
636.899	3735
636.960	4137
637.021	4449
637.082	3977
637.143	4183
637.204	3598
637.265	3305
637.326	3625
637.387	3763
637.448	3898
637.509	3583
637.570	4328
637.631	3985
637.692	4049
637.753	3444
637.814	3689
637.875	3748
637.936	3986
637.997	3886
638.058	3763
638.119	4527
638.179	3962
638.240	3679
638.301	3778
638.362	3758
638.423	3706
638.483	3877
638.544	3647
638.605	3879
638.666	2948
638.726	3764
638.787	3241
638.848	3171
638.908	3489
638.969	4116
639.030	2862
639.090	2717
639.151	3614
639.211	3518
639.272	4866
639.332	5360
639.393	7145
639.453	3922
639.514	3656
639.574	3555
639.635	3513
639.695	3835
639.756	2947
639.816	3550
639.877	3729
639.937	4838
639.997	7943
640.058	6220
640.118	3222
640.178	3620
640.239	2991
640.299	2400
640.359	3039
640.420	2395
640.480	2896
640.540	2467
640.600	2829
640.661	3389
640.721	3035
640.781	4043
640.841	3694
640.901	3679
640.961	2801
641.021	3310
641.082	3780
641.142	3950
641.202	4666
641.262	2518
641.322	3899
641.382	1826
641.442	3610
641.502	2916
641.562	3171
641.622	2643
641.682	2787
641.742	2795
641.802	3460
641.861	3581
641.921	3840
641.981	3884
642.041	3096
642.101	3659
642.161	4119
642.221	2885
642.280	2658
642.340	2979
642.400	2547
642.460	2914
642.519	2354
642.579	2433
642.639	2493
642.698	1477
642.758	3374
642.818	2838
642.877	2833
642.937	2640
642.997	2951
643.056	3817
643.116	5521
643.175	3193
643.235	3295
643.294	2751
643.354	2479
643.414	2908
643.473	2827
643.532	2424
643.592	3727
643.651	4011
643.711	5492
643.770	7771
643.830	14975
643.889	39793
643.948	47161
644.008	6508
644.067	2995
644.126	2806
644.186	2628
644.245	2179
644.304	2551
644.363	3225
644.423	2337
644.482	2479
644.541	2510
644.600	1411
644.659	2516
644.719	2932
644.778	3692
644.837	2584
644.896	4401
644.955	7947
645.014	9212
645.073	4289
645.132	3210
645.191	2790
645.250	3116
645.309	3404
645.368	2628
645.427	3294
645.486	2330
645.545	3867
645.604	3555
645.663	2194
645.722	2278
645.781	2251
645.840	2095
645.898	1973
645.957	3417
646.016	3329
646.075	4171
646.134	6535
646.192	11647
646.251	33488
646.310	24218
646.369	3399
646.427	3543
646.486	2047
646.545	2489
646.603	2761
646.662	3034
646.721	2579
646.779	2446
646.838	1202
646.896	1977
646.955	2729
647.014	3125
647.072	2669
647.131	4257
647.189	5832
647.248	2900
647.306	2453
647.365	2334
647.423	1315
647.481	2894
647.540	844
647.598	2159
647.657	1607
647.715	1497
647.773	870
647.832	1536
647.890	1245
647.948	2569
648.007	2717
648.065	1245
648.123	655
648.181	2030
648.240	2188
648.298	3379
648.356	2667
648.414	2794
648.472	2244
648.531	2013
648.589	2119
648.647	1362
648.705	1888
648.763	1179
648.821	1765
648.879	1696
648.937	2150
648.995	2305
649.053	2626
649.111	2699
649.169	2755
649.227	3325
649.285	4770
649.343	10794
649.401	20893
649.459	8747
649.516	9928
649.574	5634
649.632	7708
649.690	18116
649.748	12196
649.806	4980
649.863	9050
649.921	8444
649.979	5724
650.037	3612
650.094	968
650.152	2044
650.210	1324
650.268	2304
650.325	1421
650.383	2095
650.440	1299
650.498	2259
650.556	1648
650.613	1939
650.671	1499
650.728	1537
650.786	1703
650.843	2029
650.901	1356
650.958	1758
651.016	2545
651.073	1612
651.131	1757
651.188	576
651.246	2275
651.303	1386
651.360	1519
651.418	1200
651.475	1577
651.532	1106
651.590	1028
651.647	921
651.704	1722
651.762	2682
651.819	808
651.876	1626
651.933	1101
651.990	1523
652.048	719
652.105	1000
652.162	1762
652.219	1627
652.276	1391
652.333	1496
652.390	974
652.448	851
652.505	1326
652.562	1447
652.619	1828
652.676	2439
652.733	4416
652.790	3189
652.847	1285
652.904	1398
652.961	589
653.017	980
653.074	1440
653.131	1436
653.188	938
653.245	1101
653.302	1126
653.359	1297
653.415	2102
653.472	1878
653.529	1224
653.586	566
653.642	1034
653.699	1884
653.756	1527
653.813	1551
653.869	1196
653.926	1481
653.983	450
654.039	731
654.096	551
654.152	2058
654.209	393
654.266	1489
654.322	1321
654.379	1909
654.435	1835
654.492	1203
654.548	1543
654.605	3747
654.661	5246
654.717	2062
654.774	1786
654.830	1367
654.887	947
654.943	1332
655.000	1538
655.056	1853
655.112	1397
655.168	1616
655.225	1600
655.281	1305
655.337	1619
655.394	3636
655.450	5513
655.506	3162
655.562	3104
655.618	6440
655.675	2471
655.731	1162
655.787	409
655.843	1538
655.899	658
655.955	1087
656.011	1484
656.067	1256
656.123	934
656.179	1262
656.235	1891
656.291	1444
656.347	1510
656.403	1426
656.459	1666
656.515	1442
656.571	2206
656.627	2158
656.683	1321
656.739	1911
656.795	319
656.850	1423
656.906	1694
656.962	2098
657.018	628
657.074	767
657.129	1063
657.185	1488
657.241	1049
657.297	1528
657.352	1442
657.408	1296
657.464	2214
657.519	990
657.575	339
657.630	1223
657.686	553
657.742	998
657.797	955
657.853	780
657.908	2258
657.964	2161
658.019	1118
658.075	934
658.130	1204
658.186	1581
658.241	738
658.297	653
658.352	360
658.407	928
658.463	1151
658.518	1439
658.573	867
658.629	1019
658.684	411
658.739	630
658.795	272
658.850	1205
658.905	968
658.960	1077
659.016	325
659.071	1621
659.126	873
659.181	1594
659.236	2299
659.291	3008
659.346	2656
659.401	1851
659.457	2139
659.512	2801
659.567	3588
659.622	1506
659.677	1051
659.732	563
659.787	1522
659.842	918
659.897	2055
659.952	3407
660.007	1488
660.061	1868
660.116	1217
660.171	1075
660.226	813
660.281	1461
660.336	1131
660.391	631
660.445	429
660.500	789
660.555	509
660.610	-26
660.664	2674
660.719	211
660.774	1204
660.828	1605
660.883	1091
660.938	715
660.992	851
661.047	903
661.101	1195
661.156	1379
661.211	-351
661.265	995
661.320	1035
661.374	741
661.429	694
661.483	588
661.538	1093
661.592	486
661.647	877
661.701	662
661.755	1299
661.810	1427
661.864	1288
661.919	822
661.973	2251
662.027	1503
662.081	597
662.136	601
662.190	963
662.244	2220
662.299	1027
662.353	1654
662.407	1257
662.461	470
662.515	1487
662.569	1534
662.624	1892
662.678	1463
662.732	2109
662.786	1158
662.840	1212
662.894	1485
662.948	1168
663.002	468
663.056	1937
663.110	385
663.164	1311
663.218	1299
663.272	644
663.326	1522
663.380	763
663.434	1649
663.488	767
663.542	1587
663.595	1250
663.649	1089
663.703	1232
663.757	701
663.811	293
663.864	832
663.918	1674
663.972	240
664.026	1166
664.079	846
664.133	1061
664.187	1942
664.240	317
664.294	889
664.348	998
664.401	1316
664.455	1028
664.508	421
664.562	1425
664.615	1583
664.669	632
664.722	1122
664.776	328
664.829	1430
664.883	838
664.936	1271
664.990	967
665.043	1168
665.097	1142
665.150	1859
665.203	2067
665.257	1880
665.310	1840
665.363	1276
665.417	1046
665.470	1274
665.523	1485
665.576	1827
665.630	1360
665.683	1385
665.736	1814
665.789	1281
665.842	1066
665.895	549
665.949	1076
666.002	1606
666.055	1487
666.108	1359
666.161	2290
666.214	650
666.267	1482
666.320	910
666.373	2014
666.426	1784
666.479	1488
666.532	1693
666.585	1503
666.638	2176
666.691	1828
666.744	2601
666.796	2721
666.849	1802
666.902	1964
666.955	1615
667.008	702
667.060	859
667.113	1116
667.166	740
667.219	953
667.271	1391
667.324	1375
667.377	1315
667.430	1410
667.482	1220
667.535	2989
667.587	1544
667.640	1405
667.693	1319
667.745	2058
667.798	3280
667.850	2528
667.903	1520
667.955	1350
668.008	1552
668.060	1874
668.113	2446
668.165	2659
668.218	2191
668.270	1726
668.322	984
668.375	1939
668.427	2053
668.479	1376
668.532	1630
668.584	1584
668.636	1283
668.689	1571
668.741	1296
668.793	1928
668.845	746
668.898	2019
668.950	1237
669.002	1418
669.054	886
669.106	1329
669.158	1756
669.211	869
669.263	2136
669.315	1552
669.367	2583
669.419	2283
669.471	2297
669.523	2159
669.575	3107
669.627	3239
669.679	2029
669.731	974
669.783	2369
669.835	1820
669.886	2084
669.938	2208
669.990	2023
670.042	1888
670.094	2119
670.146	2035
670.197	3159
670.249	2699
670.301	3366
670.353	3752
670.404	5201
670.456	7419
670.508	11508
670.560	18976
670.611	32007
670.663	53743
670.715	98416
670.766	233329
670.818	283410
670.869	77746
670.921	17672
670.972	10042
671.024	5658
671.075	4996
671.127	3611
671.178	2641
671.230	2331
671.281	3461
671.333	2429
671.384	2209
671.436	3005
671.487	2046
671.538	1792
671.590	2378
671.641	3110
671.692	2338
671.744	3272
671.795	4890
671.846	3678
671.897	1333
671.949	1725
672.000	1977
672.051	2463
672.102	2029
672.153	2026
672.204	1945
672.256	2269
672.307	1170
672.358	1311
672.409	1867
672.460	2098
672.511	1079
672.562	1946
672.613	1316
672.664	1213
672.715	906
672.766	1446
672.817	1503
672.868	848
672.919	1593
672.970	824
673.021	1354
673.071	1165
673.122	1070
673.173	960
673.224	1257
673.275	1591
673.326	611
673.376	1892
673.427	405
673.478	1052
673.528	837
673.579	1306
673.630	607
673.680	1473
673.731	1005
673.782	1006
673.832	869
673.883	1552
673.934	1377
673.984	1506
674.035	520
674.085	1261
674.136	1645
674.186	1172
674.237	1917
674.287	2460
674.338	3849
674.388	1415
674.438	1004
674.489	1615
674.539	1155
674.589	1719
674.640	1138
674.690	1351
674.740	682
674.791	2080
674.841	1280
674.891	2073
674.942	843
674.992	1211
675.042	1522
675.092	1017
675.142	1047
675.193	1440
675.243	1024
675.293	1494
675.343	1099
675.393	1593
675.443	1456
675.493	1560
675.543	125
675.593	1648
675.643	1985
675.693	1295
675.743	1578
675.793	984
675.843	1072
675.893	652
675.943	1118
675.993	1299
676.043	670
676.093	1385
676.142	628
676.192	1244
676.242	1115
676.292	884
676.341	362
676.391	1409
676.441	1030
676.491	1249
676.540	1327
676.590	1079
676.640	395
676.689	714
676.739	1214
676.789	698
676.838	563
676.888	1079
676.937	192
676.987	908
677.037	163
677.086	141
677.136	979
677.185	989
677.235	750
677.284	708
677.333	1133
677.383	634
677.432	223
677.482	910
677.531	833
677.580	525
677.630	911
677.679	1543
677.728	865
677.778	1227
677.827	880
677.876	549
677.925	1154
677.975	341
678.024	283
678.073	493
678.122	1379
678.171	1059
678.220	492
678.269	574
678.319	1134
678.368	1087
678.417	659
678.466	1584
678.515	650
678.564	1611
678.613	904
678.662	1506
678.711	1964
678.760	770
678.809	365
678.857	424
678.906	700
678.955	1346
679.004	750
679.053	997
679.102	877
679.151	1005
679.199	1215
679.248	134
679.297	-24
679.346	433
679.394	774
679.443	799
679.492	470
679.540	524
679.589	452
679.638	766
679.686	609
679.735	870
679.784	-52
679.832	1916
679.881	58
679.929	1348
679.978	481
680.026	639
680.075	103
680.123	667
680.172	308
680.220	191
680.268	903
680.317	1085
680.365	718
680.414	72
680.462	95
680.510	873
680.559	-14
680.607	582
680.655	210
680.703	220
680.752	280
680.800	834
680.848	83
680.896	19
680.945	655
680.993	668
681.041	404
681.089	155
681.137	356
681.185	276
681.233	386
681.258	769
681.281	1101
681.329	493
681.377	1033
681.380	1038
681.425	532
681.473	502
681.502	758
681.521	876
681.569	1028
681.617	1256
681.624	1197
681.665	560
681.713	1219
681.745	1617
681.761	1766
681.809	343
681.857	1945
681.867	1782
681.904	1071
681.952	1451
681.989	1082
682.000	930
682.048	1829
682.096	2007
682.111	1892
682.143	1561
682.191	1449
682.233	2219
682.239	2300
682.286	1647
682.334	1878
682.354	1665
682.382	1301
682.430	2136
682.476	1436
682.477	1393
682.525	1828
682.572	1758
682.598	2133
682.620	2402
682.667	1629
682.715	2089
682.720	2214
682.763	3108
682.810	2047
682.841	2477
682.857	2664
682.905	3023
682.952	3097
682.963	3107
683.000	3028
683.047	3307
683.085	2967
683.095	2829
683.142	2950
683.190	2883
683.206	2755
683.237	2467
683.284	2406
683.328	2970
683.332	2996
683.379	3003
683.426	2405
683.449	2658
683.473	2861
683.521	3521
683.568	3243
683.571	3276
683.615	3331
683.662	3246
683.693	3194
683.709	3165
683.757	4124
683.804	3730
683.814	3706
683.851	3488
683.898	4014
683.936	3302
683.945	3101
683.992	4170
684.039	4538
684.057	4326
684.086	3966
684.133	4217
684.179	3614
684.180	3578
684.227	4532
684.274	4922
684.300	4557
684.321	4125
684.368	4103
684.415	4929
684.422	4877
684.462	4610
684.509	4349
684.543	4490
684.556	4495
684.603	4333
684.649	5017
684.665	4820
684.696	4411
684.743	4795
684.786	5044
684.790	5049
684.837	4463
684.883	5307
684.908	5563
684.930	5850
684.977	5819
685.023	5610
685.029	5713
685.070	6196
685.117	5542
685.150	6063
685.164	6261
685.210	6327
685.257	6262
685.272	6376
685.303	6566
685.350	6037
685.393	6568
685.396	6593
685.443	6072
685.490	6467
685.514	6562
685.536	6657
685.583	6592
685.629	6713
685.636	6667
685.675	6312
685.722	7050
685.757	6714
685.768	6591
685.815	6906
685.861	6769
685.878	6944
685.908	7217
685.954	6813
686.000	7230
686.000	7231
686.047	6689
686.093	7989
686.121	7950
686.139	7971
686.185	8228
686.232	8163
686.242	8269
686.278	8103
686.324	7735
686.363	8088
686.370	8171
686.416	7402
686.463	7394
686.484	7355
686.509	7437
686.555	7735
686.601	7926
686.606	7933
686.647	7758
686.693	7664
686.727	7555
686.739	7557
686.785	7457
686.831	7810
686.848	7812
686.877	7787
686.923	8121
686.969	8266
686.969	8266
687.015	8012
687.061	8015
687.090	7728
687.107	7523
687.153	7883
687.199	8059
687.211	7927
687.245	7608
687.291	7733
687.332	7706
687.336	7721
687.382	8293
687.428	8606
687.453	8322
687.474	8018
687.520	8545
687.565	8614
687.574	8515
687.611	8113
687.657	7922
687.695	8612
687.702	8760
687.748	8118
687.794	9251
687.816	9063
687.839	8806
687.885	8573
687.931	8583
687.937	8537
687.976	8251
688.022	8230
688.058	8660
688.067	8814
688.113	8428
688.158	8576
688.179	8615
688.204	8624
688.249	8814
688.295	8907
688.300	8982
688.340	9557
688.386	9273
688.421	9035
688.431	8998
688.477	9182
688.522	9214
688.542	9312
688.567	9436
688.613	9507
688.658	9704
688.663	9701
688.703	9499
688.749	9591
688.784	9482
688.794	9541
688.839	9630
688.884	9779
688.905	9909
688.930	10032
688.975	10008
689.020	9974
689.026	10014
689.065	10143
689.110	9590
689.146	9422
689.155	9454
689.201	9724
689.246	9953
689.267	10021
689.291	10059
689.336	9977
689.381	10079
689.388	10054
689.426	9939
689.471	9942
689.509	9940
689.516	9969
689.561	10077
689.606	9763
689.630	9942
689.651	10097
689.696	9914
689.741	10163
689.750	10111
689.785	10153
689.830	10420
689.871	10540
689.875	10535
689.920	10653
689.965	10165
689.992	9994
690.010	9984
690.054	10267
690.099	10244
690.112	10328
690.144	10616
690.189	10418
690.233	10397
690.233	10412
690.278	10692
690.323	10467
690.354	10534
690.367	10626
690.412	10955
690.457	11047
690.474	10915
690.501	10786
690.546	11473
690.590	11318
690.595	11336
690.635	11843
690.680	11808
690.716	12424
690.724	12619
690.769	12740
690.813	13458
690.836	13767
690.857	14551
690.902	15976
690.946	17481
690.957	17924
690.991	22106
691.035	27212
691.077	32794
691.080	33473
691.124	45144
691.168	55606
691.198	62269
691.213	59024
691.257	50275
691.301	40911
691.318	37344
691.346	33323
691.390	26358
691.434	19748
691.439	19001
691.478	17852
691.522	15839
691.559	14576
691.567	14581
691.611	14079
691.655	13684
691.680	13545
691.699	13497
691.743	13101
691.787	12759
691.800	12599
691.831	12676
691.875	12970
691.919	13166
691.921	13141
691.964	13076
692.008	13426
692.041	13360
692.052	13385
692.096	13720
692.139	13691
692.162	13871
692.183	13799
692.227	13087
692.271	12872
692.282	12690
692.315	12879
692.359	13283
692.402	13895
692.403	13923
692.447	13238
692.490	13313
692.523	13123
692.534	13207
692.578	13638
692.622	13895
692.643	14004
692.666	13928
692.709	13619
692.753	13533
692.763	13481
692.797	13691
692.840	13751
692.884	13873
692.884	13903
692.928	13720
692.971	13691
693.004	13908
693.015	14001
693.059	13958
693.102	13869
693.124	13771
693.146	13953
693.189	14488
693.233	14883
693.245	14975
693.276	15413
693.320	15870
693.363	16410
693.365	16386
693.407	16610
693.450	17128
693.485	17568
693.493	17950
693.537	19201
693.580	20847
693.605	21759
693.624	23254
693.667	26626
693.710	30109
693.725	31296
693.753	39064
693.797	50829
693.840	63650
693.845	65110
693.883	89453
693.926	115472
693.966	139148
693.970	137224
694.013	114189
694.056	91320
694.086	75488
694.099	70597
694.142	54424
694.185	38184
694.206	30367
694.229	28682
694.272	25363
694.315	22352
694.326	21434
694.358	20600
694.401	19357
694.444	18472
694.446	18374
694.487	17762
694.530	17099
694.566	16452
694.573	16432
694.616	16104
694.659	15537
694.686	15365
694.702	15294
694.745	14898
694.787	14436
694.806	14252
694.830	14299
694.873	14319
694.916	14112
694.926	14060
694.959	14181
695.002	14379
695.044	14415
695.046	14384
695.087	14242
695.130	14124
695.166	13978
695.172	14033
695.215	14060
695.258	14183
695.286	14109
695.301	14222
695.343	14469
695.386	15083
695.406	15111
695.428	14876
695.471	14645
695.514	14412
695.526	14296
695.556	14452
695.599	14554
695.641	14734
695.646	14708
695.684	14732
695.726	14644
695.766	14658
695.769	14682
695.811	14525
695.854	14311
695.886	13967
695.896	14052
695.938	14452
695.981	14743
696.005	14978
696.023	14905
696.065	14453
696.108	14110
696.125	13900
696.150	14039
696.192	14209
696.235	14368
696.245	14382
696.277	14526
696.319	14719
696.361	14782
696.365	14749
696.404	14877
696.446	15112
696.485	15142
696.488	15197
696.530	15376
696.572	15695
696.604	15856
696.614	15859
696.656	15704
696.698	15509
696.724	15326
696.740	15241
696.783	14916
696.825	14656
696.844	14481
696.867	14528
696.909	14580
696.951	14500
696.964	14479
696.992	14656
697.034	14832
697.076	15013
697.083	14991
697.118	14876
697.160	14742
697.202	14611
697.203	14566
697.244	14443
697.286	14335
697.323	14198
697.327	14246
697.369	14366
697.411	14405
697.442	14387
697.453	14389
697.494	14244
697.536	14236
697.562	14087
697.578	14310
697.620	14888
697.661	15372
697.682	15613
697.703	15667
697.744	15700
697.786	15673
697.801	15610
697.828	15652
697.869	15714
697.911	15739
697.921	15708
697.952	15714
697.994	15614
698.035	15519
698.040	15468
698.077	15140
698.118	14688
698.160	14229
698.160	14186
698.201	14357
698.243	14463
698.279	14588
698.284	14629
698.325	14570
698.367	14522
698.399	14446
698.408	14488
698.449	14459
698.491	14478
698.518	14434
698.532	14512
698.573	14629
698.614	14738
698.638	14767
698.656	14733
698.697	14538
698.738	14355
698.757	14235
698.779	14455
698.820	14774
698.862	15100
698.877	15178
698.903	15334
698.944	15520
698.985	15704
698.996	15713
699.026	15708
699.067	15642
699.116	15521
699.235	15122
699.354	14521
699.474	14496
699.593	15551
699.713	17418
699.832	15284
699.951	15336
700.070	15055
700.190	14114
700.309	14998
700.428	14707
700.547	15070
700.667	14117
700.786	15059
700.905	14652
701.024	13687
701.143	14365
701.262	13579
701.381	12807
701.500	14551
701.619	13963
701.738	13902
701.857	14005
701.976	13703
702.095	12942
702.214	12570
702.333	13784
702.452	13099
702.571	12680
702.690	13268
702.809	12295
702.928	12735
703.047	12575
703.165	12999
703.284	12736
703.403	12755
703.522	12867
703.640	14475
703.759	13687
703.878	15762
703.997	15741
704.115	12827
704.234	12727
704.353	12770
704.471	12383
704.590	12317
704.708	12803
704.827	12162
704.946	11970
705.064	12850
705.183	13119
705.301	12507
705.420	15965
705.538	21928
705.656	18262
705.775	16227
705.893	18482
706.012	32217
706.130	27645
706.249	16484
706.367	16783
706.485	16878
706.604	16941
706.722	16279
706.840	16276
706.958	17762
707.077	17551
707.195	15549
707.313	15022
707.431	14796
707.549	13998
707.668	15496
707.786	14302
707.904	14672
708.022	13952
708.140	13972
708.258	14300
708.376	14659
708.494	14123
708.612	14804
708.730	16527
708.848	22137
708.966	19119
709.084	18700
709.202	17294
709.320	15979
709.438	17773
709.556	18484
709.674	18085
709.791	17326
709.909	17449
710.027	17616
710.145	17296
710.263	16177
710.380	17011
710.498	16565
710.616	17029
710.733	16311
710.851	16121
710.969	16772
711.086	16728
711.204	16141
711.322	15703
711.439	16729
711.557	16188
711.674	16276
711.792	16486
711.909	15627
712.027	16884
712.144	16721
712.262	14957
712.379	15812
712.497	17718
712.614	24728
712.732	22137
712.849	18551
712.966	19060
713.084	18536
713.201	21741
713.318	19809
713.436	19553
713.553	18862
713.670	19374
713.787	18929
713.905	20060
714.022	19424
714.139	18178
714.256	18196
714.373	17908
714.490	19290
714.608	19725
714.725	25388
714.842	53337
714.959	33843
715.076	16984
715.193	16446
715.310	16628
715.427	15796
715.544	16189
715.661	15800
715.778	15935
715.895	17458
716.011	17364
716.128	17306
716.245	15316
716.362	17453
716.479	16787
716.596	16753
716.713	15932
716.829	15429
716.946	15505
717.063	15181
717.180	15634
717.296	14047
717.413	14572
717.530	14921
717.646	14499
717.763	14180
717.880	14368
717.996	13631
718.113	14368
718.229	13583
718.346	13212
718.462	13254
718.579	14045
718.695	15630
718.812	18841
718.928	16754
719.045	16538
719.161	13400
719.277	12944
719.394	12357
719.510	12311
719.626	13972
719.743	14300
719.859	15389
719.975	13502
720.092	15034
720.208	21969
720.324	25051
720.440	14130
720.557	12585
720.673	14775
720.789	18824
720.905	25244
721.021	40915
721.137	15505
721.253	13671
721.369	12268
721.486	13390
721.602	14189
721.718	16620
721.834	12079
721.950	12200
722.066	11700
722.181	11559
722.297	12534
722.413	12559
722.529	10493
722.645	11557
722.761	10301
722.877	11036
722.993	11165
723.108	11065
723.224	11171
723.340	11083
723.456	11364
723.571	10565
723.687	10668
723.803	10438
723.918	10960
724.034	10102
724.150	11077
724.265	11177
724.381	12112
724.497	21356
724.612	17305
724.728	10723
724.843	10197
724.959	10872
725.074	12017
725.190	20924
725.305	15343
725.421	10424
725.536	9695
725.651	9473
725.767	9378
725.882	9683
725.997	8816
726.113	10099
726.228	8636
726.343	9825
726.459	9686
726.574	7945
726.689	10548
726.804	9126
726.920	8745
727.035	9010
727.150	9883
727.265	8792
727.380	9412
727.495	10110
727.610	8113
727.725	8774
727.841	9836
727.956	10598
728.071	17758
728.186	11621
728.301	8755
728.416	8851
728.531	9116
728.645	7836
728.760	8288
728.875	8878
728.990	8702
729.105	8266
729.220	7740
729.335	7803
729.449	8011
729.564	8231
729.679	7644
729.794	7896
729.908	7639
730.023	8666
730.138	7872
730.253	7241
730.367	7835
730.482	8422
730.596	7803
730.711	7876
730.826	8302
730.940	8204
731.055	7248
731.169	8382
731.284	7348
731.398	6839
731.513	7101
731.627	8597
731.742	8009
731.856	8820
731.970	7280
732.085	6514
732.199	7456
732.313	7442
732.428	7325
732.542	9575
732.656	14093
732.771	8243
732.885	6154
732.999	7161
733.113	7465
733.227	7114
733.342	7007
733.456	6954
733.570	7025
733.684	6381
733.798	6597
733.912	7102
734.026	6544
734.140	6628
734.254	6241
734.368	7884
734.482	12326
734.596	9622
734.710	6535
734.824	5431
734.938	6390
735.052	6622
735.166	7602
735.280	6743
735.393	6094
735.507	6407
735.621	6541
735.735	8687
735.849	11387
735.962	6066
736.076	5904
736.190	6547
736.303	6362
736.417	8814
736.531	8948
736.644	6198
736.758	5908
736.872	5649
736.985	5707
737.099	6314
737.212	5940
737.326	6076
737.439	5793
737.553	6254
737.666	6130
737.780	5722
737.893	5379
738.007	6130
738.120	5527
738.233	5996
738.347	5617
738.460	5688
738.573	4726
738.687	6081
738.800	5287
738.913	5975
739.026	6544
739.140	5711
739.253	6541
739.366	5344
739.479	5190
739.592	5659
739.705	4462
739.818	5652
739.932	4958
740.045	5881
740.158	5279
740.271	5326
740.384	5980
740.497	5655
740.610	5402
740.723	5780
740.836	6004
740.949	6952
741.062	6207
741.174	6929
741.287	5862
741.400	5830
741.513	6042
741.626	4961
741.739	5501
741.851	5859
741.964	5792
742.077	4873
742.189	4581
742.302	5703
742.415	5742
742.527	6102
742.640	5222
742.753	4719
742.865	5570
742.978	5265
743.090	5129
743.203	5273
743.316	4578
743.428	5405
743.541	5402
743.653	4568
743.766	5225
743.878	5670
743.990	5640
744.103	6848
744.215	5812
744.327	5710
744.440	5572
744.552	6295
744.664	6679
744.777	5416
744.889	5390
745.001	5236
745.113	4246
745.226	4878
745.338	4787
745.450	5154
745.562	5099
745.674	5208
745.786	5286
745.898	4989
746.010	4580
746.122	5507
746.234	5053
746.347	4779
746.459	4593
746.570	4968
746.682	5009
746.794	5485
746.906	5207
747.018	5258
747.130	5462
747.242	4515
747.354	3986
747.466	5580
747.577	5669
747.689	4435
747.801	5028
747.913	3971
748.024	4990
748.136	4454
748.248	4489
748.359	5407
748.471	3727
748.583	5572
748.694	4499
748.806	5216
748.918	6113
749.029	5714
749.141	4737
749.252	5311
749.364	4868
749.475	5422
749.587	6838
749.698	6129
749.809	4541
749.921	4495
750.032	4725
750.144	4226
750.255	4353
750.366	4547
750.478	4402
750.589	4511
750.700	4507
750.811	5484
750.923	5468
751.034	5074
751.145	8703
751.256	6308
751.367	5062
751.479	4880
751.590	4072
751.701	5101
751.812	3943
751.923	4616
752.034	5024
752.145	4640
752.256	4900
752.367	5034
752.478	4557
752.589	4846
752.700	5217
752.811	4551
752.922	4247
753.032	4817
753.143	5149
753.254	5027
753.365	4880
753.476	4928
753.586	4570
753.697	4455
753.808	4855
753.919	4642
754.029	4535
754.140	4612
754.251	4808
754.361	4561
754.472	4536
754.582	4038
754.693	4427
754.804	4959
754.914	4764
755.025	4301
755.135	4764
755.246	4989
755.356	4446
755.466	4571
755.577	5057
755.687	5113
755.798	4174
755.908	5084
756.018	3876
756.129	5178
756.239	4126
756.349	5307
756.460	4855
756.570	4894
756.680	5949
756.790	5443
756.900	5129
757.011	4607
757.121	5411
757.231	5402
757.341	5381
757.451	6299
757.561	5176
757.671	5046
757.781	5938
757.891	5966
758.001	5283
758.111	6294
758.221	5490
758.331	5130
758.441	6670
758.551	6055
758.661	7223
758.771	6236
758.880	6246
758.990	6411
759.100	7171
759.210	6495
759.320	7380
759.429	6737
759.539	6387
759.649	6768
759.758	7313
759.868	7657
759.978	6819
760.087	7310
760.197	7330
760.307	7005
760.416	7696
760.526	7377
760.635	7543
760.745	7936
760.854	7975
760.964	9530
761.073	8122
761.182	8465
761.292	7856
761.401	8461
761.511	9230
761.620	9000
761.729	9096
761.839	9993
761.948	9459
762.057	9403
762.166	9725
762.276	9717
762.385	11046
762.494	10570
762.603	10886
762.712	12511
762.822	11891
762.931	12566
763.040	12369
763.149	12511
763.258	12719
763.367	14224
763.476	14203
763.585	16383
763.694	15627
763.803	17294
763.912	17590
764.021	19355
764.130	19472
764.238	20514
764.347	21560
764.456	23696
764.565	24753
764.674	27441
764.783	29178
764.891	32868
765.000	34944
765.109	39844
765.217	45110
765.326	52391
765.435	59723
765.543	71783
765.652	86274
765.761	105970
765.869	138089
765.978	181019
766.086	247712
766.195	347358
766.303	480096
766.412	572763
766.520	449101
766.629	475823
766.737	532486
766.846	414411
766.954	296822
767.062	217168
767.171	163563
767.279	128514
767.387	99872
767.496	84007
767.604	68993
767.712	60364
767.820	53590
767.928	48316
768.037	43928
768.145	41244
768.253	38731
768.361	36790
768.469	35645
768.577	36206
768.685	36932
768.793	38214
768.901	41676
769.009	46172
769.117	53238
769.225	64371
769.333	81518
769.441	111065
769.549	161979
769.657	252323
769.765	405279
769.873	519061
769.981	420864
770.088	466855
770.196	334600
770.304	214732
770.412	146533
770.519	107331
770.627	83454
770.735	66429
770.842	54756
770.950	46536
771.058	40211
771.165	35186
771.273	31927
771.380	28689
771.488	25841
771.595	23576
771.703	21649
771.810	20880
771.918	20043
772.025	18208
772.133	16135
772.240	16135
772.348	15214
772.455	14041
772.562	14770
772.670	13125
772.777	12653
772.884	12596
772.991	12319
773.099	11397
773.206	10506
773.313	11141
773.420	10893
773.528	9659
773.635	9878
773.742	9389
773.849	8582
773.956	9326
774.063	8309
774.170	8076
774.277	8134
774.384	8708
774.491	8452
774.598	8551
774.705	8173
774.812	8243
774.919	7972
775.026	6878
775.133	7223
775.239	7297
775.346	6919
775.453	6701
775.560	6173
775.667	6861
775.773	7087
775.880	7984
775.987	6166
776.093	7311
776.200	5872
776.307	6043
776.413	6317
776.520	6405
776.627	5427
776.733	5722
776.840	5507
776.946	6212
777.053	5132
777.159	6136
777.266	5366
777.372	6170
777.478	5597
777.585	6126
777.691	5800
777.798	5053
777.904	5979
778.010	5373
778.117	7241
778.223	4886
778.329	4814
778.435	4705
778.542	4987
778.648	4488
778.754	4469
778.860	4488
778.966	4573
779.072	4794
779.178	4659
779.284	4510
779.391	4915
779.497	4728
779.603	6127
779.708	6711
779.815	11080
779.920	24003
780.026	88155
780.132	118031
780.238	17732
780.344	8090
780.450	5947
780.556	5512
780.661	4880
780.767	4509
780.873	4308
780.979	4187
781.085	4161
781.190	4156
781.296	3750
781.402	3540
781.507	3642
781.613	3680
781.719	3136
781.824	4254
781.930	3456
782.035	3787
782.141	3161
782.246	3421
782.352	2957
782.457	3192
782.563	4156
782.668	2972
782.773	2913
782.879	3349
782.984	3829
783.090	3817
783.195	2895
783.300	4906
783.405	3455
783.511	3735
783.616	4194
783.721	3074
783.826	3203
783.932	3133
784.037	3141
784.142	3255
784.247	3379
784.352	2810
784.457	3110
784.562	3640
784.667	3659
784.772	2912
784.877	3198
784.982	3666
785.087	3542
785.192	2966
785.297	2816
785.402	2801
785.507	3775
785.611	2412
785.716	2807
785.821	3677
785.926	2905
786.031	2540
786.135	2421
786.240	3380
786.345	3074
786.450	2393
786.554	3255
786.659	2052
786.763	2208
786.868	2700
786.973	3078
787.077	2441
787.182	2151
787.286	2634
787.391	3235
787.495	2657
787.600	1747
787.704	2696
787.809	2256
787.913	1821
788.017	2765
788.122	2633
788.226	2908
788.330	2718
788.435	1511
788.539	2610
788.643	1653
788.747	2321
788.852	2476
788.956	2579
789.060	2928
789.164	1944
789.268	2343
789.372	2772
789.476	1694
789.580	2199
789.684	1405
789.788	1059
789.892	2436
789.996	2160
790.100	1552
790.204	2821
790.308	2038
790.412	2436
790.516	1926
790.620	3106
790.724	2751
790.828	2115
790.931	1986
791.035	2241
791.139	2725
791.242	1695
791.346	2478
791.450	2069
791.554	2509
791.657	2577
791.761	2619
791.864	1969
791.968	2640
792.072	2672
792.175	2564
792.279	1430
792.382	2014
792.486	1866
792.589	1093
792.693	2005
792.796	1606
792.899	1713
793.003	2170
793.106	2158
793.209	2057
793.313	2065
793.416	2245
793.519	2542
793.623	2128
793.726	2957
793.829	3201
793.932	1872
794.035	1759
794.138	2421
794.242	2056
794.345	2318
794.448	3756
794.551	6087
794.654	14827
794.757	48019
794.860	75374
794.963	11678
795.066	3185
795.169	2169
795.272	1748
795.375	1457
795.477	2041
795.580	1448
795.683	892
795.786	2238
795.889	1280
795.991	1207
796.094	1744
796.197	1775
796.300	1345
796.402	1921
796.505	1733
796.608	2028
796.710	1400
796.813	1646
796.915	1224
797.018	1470
797.120	970
797.223	1500
797.326	2041
797.428	1408
797.530	1617
797.633	967
797.735	1845
797.838	1791
797.940	3754
798.042	1808
798.145	1459
798.247	1418
798.349	1333
798.452	1172
798.554	1431
798.656	778
798.758	1203
798.860	1470
798.962	1470
799.065	1848
799.167	951
799.269	1621
799.371	1445
799.473	2105
799.575	1336
799.677	2111
799.779	2172
799.881	1411
799.983	2520
800.085	1325
800.187	1072
800.289	1530
800.390	1641
800.492	1531
800.594	1626
800.696	1102
800.798	1434
800.899	916
801.001	1368
801.103	882
801.205	481
801.306	1782
801.408	504
801.509	1990
801.611	788
801.713	721
801.814	722
801.916	1181
802.017	1636
802.119	292
802.220	1028
802.322	234
802.423	1676
802.525	1715
802.626	1189
802.727	238
802.829	1351
802.930	-74
803.031	1554
803.133	777
803.234	657
803.335	1177
803.436	1442
803.538	1039
803.639	695
803.740	1280
803.841	1285
803.942	936
804.043	1937
804.144	1460
804.245	1020
804.346	-59
804.447	742
804.548	835
804.649	2109
804.750	904
804.851	634
804.952	855
805.053	989
805.154	524
805.255	1087
805.355	713
805.456	574
805.557	612
805.658	-64
805.758	1021
805.859	807
805.960	1165
806.061	-143
806.161	100
806.262	628
806.362	960
806.463	623
806.564	1025
806.664	851
806.765	1612
806.865	1181
806.966	1429
807.066	620
807.166	867
807.267	1246
807.367	593
807.468	787
807.568	427
807.668	1077
807.769	998
807.869	864
807.969	1166
808.069	832
808.170	1050
808.270	453
808.370	1104
808.470	616
808.570	-66
808.670	1440
808.770	1058
808.870	352
808.970	670
809.070	887
809.170	713
809.271	243
809.370	497
809.470	646
809.570	958
809.670	273
809.770	886
809.870	967
809.970	348
810.070	596
810.169	1460
810.269	271
810.369	2181
810.469	668
810.568	217
810.668	371
810.768	680
810.867	735
810.967	903
811.066	255
811.166	1425
811.265	704
811.365	828
811.464	392
811.564	973
811.663	312
811.763	476
811.862	565
811.962	1035
812.061	1008
812.160	1396
812.260	967
812.359	810
812.458	182
812.557	2020
812.657	4951
812.756	6727
812.855	2263
812.954	1703
813.053	1013
813.153	711
813.252	498
813.351	1125
813.450	1410
813.549	292
813.648	1034
813.747	900
813.846	913
813.945	601
814.044	627
814.143	674
814.242	1139
814.341	-186
814.439	1537
814.538	1317
814.637	793
814.736	750
814.835	1690
814.933	730
815.032	1672
815.131	1549
815.229	1561
815.328	1503
815.427	560
815.525	671
815.624	1186
815.722	1199
815.821	1242
815.919	561
816.018	1212
816.116	1110
816.215	1076
816.313	1936
816.412	1713
816.510	1934
816.609	1652
816.707	1737
816.805	1664
816.904	2524
817.002	2620
817.100	3252
817.198	3187
817.296	3350
817.395	3690
817.493	5426
817.591	5800
817.689	7463
817.787	9220
817.885	13552
817.983	21638
818.081	38178
818.179	75718
818.277	164979
818.375	315714
818.473	240139
818.571	92672
818.669	43767
818.767	28667
818.865	24803
818.963	25479
819.061	29647
819.158	42946
819.256	71467
819.354	132976
819.452	266911
819.549	390073
819.647	263668
819.745	121049
819.842	60460
819.940	36685
820.038	25175
820.135	18250
820.233	14571
820.330	10833
820.428	9332
820.525	7905
820.623	7034
820.720	5092
820.818	4684
820.915	4531
821.012	4096
821.110	3629
821.207	3627
821.304	2366
821.402	2723
821.499	3610
821.596	2542
821.693	2329
821.791	2471
821.888	2117
821.985	2286
822.082	3652
822.179	3503
822.276	1971
822.373	1683
822.470	2361
822.567	2337
822.664	1237
822.761	1166
822.858	1353
822.955	942
823.052	1674
823.149	1065
823.246	958
823.343	609
823.440	623
823.536	1629
823.633	554
823.730	823
823.827	593
823.923	784
824.020	1758
824.117	970
824.213	516
824.310	1075
824.407	850
824.503	854
824.600	1037
824.696	1061
824.793	1619
824.889	278
824.986	653
825.082	844
825.179	973
825.275	97
825.371	641
825.468	594
825.564	523
825.660	702
825.757	764
825.853	305
825.949	355
826.045	471
826.142	150
826.238	608
826.334	771
826.430	116
826.526	881
826.622	63
826.718	197
826.814	928
826.910	1026
827.006	608
827.102	91
827.198	508
827.294	540
827.390	331
827.486	146
827.582	274
827.678	-53
827.774	596
827.869	-147
827.965	523
828.061	826
828.157	372
828.252	492
828.348	676
828.444	857
828.539	661
828.635	362
828.731	951
828.826	-138
828.922	-466
829.017	508
829.113	398
829.208	22
829.304	-199
829.399	957
829.495	239
829.590	-21
829.685	-259
829.781	193
829.876	131
829.971	396
830.066	13
830.162	-125
830.257	228
830.352	-16
830.447	341
830.543	108
830.638	-412
830.733	749
830.828	339
830.923	-102
831.018	-565
831.113	360
831.208	735
831.303	705
831.398	-142
831.493	572
831.588	-132
831.683	519
831.778	585
831.873	-461
831.967	827
832.062	-644
832.157	137
832.252	899
832.346	659
832.441	-4
832.536	-155
832.631	1067
832.725	2527
832.820	995
832.914	298
833.009	31
833.104	-9
833.198	646
833.293	774
833.387	99
833.482	491
833.576	662
833.670	1060
833.765	342
833.859	354
833.954	1270
834.048	-233
834.142	372
834.237	121
834.331	-39
834.425	158
834.519	-226
834.613	283
834.708	223
834.802	338
834.896	115
834.990	-268
835.084	-49
835.178	-399
835.272	225
835.366	-16
835.460	111
835.554	-104
835.648	-353
835.742	342
835.836	-128
835.930	-175
836.024	-249
836.117	342
836.211	623
836.305	230
836.399	459
836.493	585
836.586	342
836.680	-501
836.774	-182
836.867	-81
836.961	-243
837.055	-854
837.148	-58
837.242	105
837.335	140
837.429	2
837.522	83
837.616	340
837.709	564
837.803	1000
837.896	219
837.989	263
838.083	810
838.176	1521
838.269	2005
838.363	2808
838.456	-622
838.549	-671
838.642	139
838.735	1755
838.829	2464
838.922	176
839.015	81
839.108	-471
839.201	288
839.294	-395
839.387	-917
839.480	407
839.573	369
839.666	887
839.759	433
839.852	286
839.945	870
840.038	-352
840.131	-233
840.223	-89
840.316	279
840.409	-127
840.502	-350
840.594	879
840.687	-302
840.780	84
840.873	-262
840.965	-172
841.058	-261
841.150	1064
841.243	613
841.336	2049
841.428	-19
841.521	122
841.613	-1711
841.706	623
841.798	-29
841.890	254
841.983	-910
842.075	252
842.167	212
842.260	968
842.352	-84
842.444	381
842.537	1548
842.629	2289
842.721	3308
842.813	-307
842.905	-750
842.997	17
843.090	-502
843.182	-123
843.274	1108
843.366	3055
843.458	6664
843.550	11964
843.642	5731
843.734	1115
843.826	-60
843.918	996
844.009	576
844.101	-120
844.193	231
844.285	-639
844.377	229
844.469	150
844.560	-587
844.652	180
844.744	-8
844.835	-132
844.927	-334
845.019	44
845.110	494
845.202	-610
845.293	102
845.385	508
845.476	90
845.568	75
845.659	-257
845.751	-18
845.842	51
845.934	-164
846.025	406
846.116	207
846.208	-122
846.299	-66
846.390	-222
846.482	114
846.573	219
846.664	620
846.755	395
846.846	960
846.937	-83
847.029	-75
847.120	-93
847.211	-823
847.302	659
847.393	-133
847.484	259
847.575	-256
847.666	-676
847.757	-177
847.847	401
847.938	-242
848.029	-317
848.120	-527
848.211	-893
848.302	127
848.392	-208
848.483	-117
848.574	-988
848.664	205
848.755	-314
848.846	110
848.936	-254
849.027	-153
849.118	-988
849.208	-369
849.299	-407
849.389	237
849.480	-55
849.570	110
849.661	744
849.751	527
849.841	502
849.932	9
850.022	25
850.112	59
850.203	-374
850.293	-113
850.383	-504
850.474	-7
850.564	480
850.654	392
850.744	332
850.834	-33
850.924	-222
851.014	-390
851.104	-229
851.194	-508
851.284	-289
851.374	724
851.464	287
851.554	-186
851.644	-502
851.734	211
851.824	1475
851.914	1132
852.004	2367
852.094	4304
852.183	3798
852.273	845
852.363	-540
852.452	620
852.542	48
852.632	-323
852.721	-638
852.811	190
852.901	203
852.990	187
853.080	-701
853.169	-245
853.259	-108
853.348	-766
853.438	362
853.527	-86
853.617	531
853.706	-281
853.795	-500
853.885	607
853.974	1349
854.063	3330
854.152	5781
854.242	7657
854.331	1507
854.420	-587
854.509	344
854.598	52
854.687	183
854.777	413
854.866	-1057
854.955	-476
855.044	-924
855.133	739
855.222	-248
855.311	-228
855.400	20
855.488	-907
855.577	-336
855.666	-128
855.755	121
855.844	-279
855.933	431
856.021	1129
856.110	-1063
856.199	-909
856.288	-1208
856.376	-207
856.465	-992
856.554	-806
856.642	-873
856.731	-342
856.819	-598
856.908	-524
856.996	-198
857.085	-113
857.173	287
857.262	-559
857.350	-298
857.438	-174
857.527	-609
857.615	-255
857.703	-63
857.792	-206
857.880	-970
857.968	-563
858.056	-1139
858.145	-133
858.233	-524
858.321	-391
858.409	-324
858.497	-593
858.585	-571
858.673	-167
858.761	-633
858.849	-112
858.937	-739
859.025	-532
859.113	-228
859.201	-426
859.289	-714
859.377	-376
859.465	-179
859.552	30
859.640	-1154
859.728	-404
859.816	-774
859.903	21
859.991	-1036
860.079	120
860.166	-384
860.254	-887
860.342	-498
860.429	-742
860.517	-583
860.604	-700
860.692	381
860.779	-480
860.867	-1007
860.954	-548
861.042	-67
861.129	-214
861.216	-463
861.304	-595
861.391	-438
861.478	-491
861.565	-707
861.653	-608
861.740	-653
861.827	-30
861.914	-109
862.001	-697
862.089	-770
862.176	-66
862.263	353
862.350	-795
862.437	-577
862.524	-179
862.611	-448
862.698	-374
862.785	-872
862.871	-348
862.958	-958
863.045	-606
863.132	-1004
863.219	-537
863.306	-881
863.392	231
863.479	-1451
863.566	-631
863.652	-123
863.739	-586
863.826	-266
863.912	205
863.999	-767
864.086	-560
864.172	-887
864.259	-584
864.345	-830
864.432	-665
864.518	-360
864.604	-340
864.691	-134
864.777	-1295
864.863	117
864.950	-101
865.036	-117
865.122	-328
865.209	-724
865.295	-474
865.381	-897
865.467	-301
865.553	-471
865.639	-386
865.726	-464
865.812	-311
865.898	864
865.984	1225
866.070	1791
866.156	5808
866.242	3665
866.328	341
866.414	-761
866.499	-37
866.585	-646
866.671	-340
866.757	-324
866.843	-32
866.928	-775
867.014	-656
867.100	-232
867.186	-578
867.271	-156
867.357	202
867.442	544
867.528	728
867.614	8
867.699	-1101
867.785	-365
867.870	-1236
867.956	-827
868.041	373
868.127	-713
868.212	-1047
868.297	-740
868.383	-423
868.468	506
868.553	656
868.639	360
868.724	373
868.809	2526
868.894	2057
868.979	-11
869.065	-370
869.150	-865
869.235	-649
869.320	-1299
869.405	-1261
869.490	-829
869.575	-1290
869.660	-500
869.745	-255
869.830	-1087
869.915	-489
870.000	-1086
870.085	-1079
870.169	-250
870.254	-619
870.339	-510
870.424	-1507
870.509	-616
870.593	178
870.678	-119
870.763	-70
870.847	-709
870.932	-1267
871.016	-375
871.101	-319
871.186	-1016
871.270	-495
871.355	-551
871.439	-296
871.523	-732
871.608	-1049
871.692	-1140
871.777	-450
871.861	-590
871.945	-753
872.030	-410
872.114	-788
872.198	-70
872.282	-364
872.367	-1016
872.451	-1143
872.535	-617
872.619	-467
872.703	-486
872.787	-683
872.871	-664
872.955	-1255
873.039	-636
873.123	-905
873.207	17
873.291	-545
873.375	-900
873.459	-89
873.543	-1057
873.627	-1169
873.711	-472
873.794	334
873.878	-551
873.962	-873
874.045	-1198
874.129	-645
874.137	-684
874.213	-1081
874.245	-677
874.296	-18
874.352	-644
874.380	-950
874.460	-418
874.464	-397
874.547	-653
874.568	-711
874.631	-900
874.676	-684
874.714	-485
874.784	-499
874.798	-510
874.881	-321
874.892	-434
874.965	-1156
874.999	-1054
875.048	-957
875.107	-1149
875.131	-1218
875.215	-869
875.215	-868
875.298	-969
875.323	-1027
875.381	-1085
875.430	-837
875.465	-727
875.538	-1095
875.548	-1127
875.631	-526
875.646	-553
875.714	-807
875.753	-955
875.798	-1077
875.861	-1215
875.881	-1250
875.964	-491
875.968	-485
876.047	-474
876.076	-333
876.130	-32
876.183	-68
876.213	-110
876.291	-329
876.296	-342
876.379	-542
876.398	-536
876.462	-538
876.506	-663
876.545	-738
876.613	-356
876.628	-262
876.711	-197
876.721	-211
876.794	-410
876.828	-768
876.877	-1338
876.935	-855
876.960	-583
877.043	-141
877.043	-139
877.125	205
877.150	-57
877.208	-703
877.258	-244
877.291	175
877.365	-167
877.374	-244
877.456	-67
877.472	-186
877.539	-330
877.579	-25
877.622	125
877.687	54
877.704	65
877.787	121
877.794	117
877.869	-7
877.901	-140
877.952	-331
878.008	-123
878.034	-15
878.115	-122
878.117	-125
878.199	-48
878.222	11
878.282	257
878.329	-22
878.364	-243
878.437	-388
878.447	-427
878.529	-480
878.544	-473
878.611	-133
878.651	-98
878.694	-168
878.758	-43
878.776	-29
878.858	-320
878.865	-363
878.941	-593
878.972	-459
879.023	-343
879.078	-315
879.105	-282
879.185	40
879.187	50
879.269	9
879.292	102
879.351	133
879.399	-143
879.433	-241
879.506	-178
879.516	-207
879.598	-501
879.613	-607
879.680	-602
879.720	-261
879.762	-175
879.827	1
879.844	106
879.926	-633
879.933	-602
880.007	-94
880.040	-165
880.089	-475
880.147	-77
880.171	145
880.253	540
880.254	537
880.335	337
880.360	441
880.417	727
880.467	1406
880.499	2169
880.574	3645
880.580	3632
880.662	2798
880.680	2343
880.744	907
880.787	445
880.825	206
880.893	-4
880.907	-49
880.989	-263
881.000	-289
881.070	-155
881.106	-226
881.152	-228
881.213	159
881.233	205
881.315	-462
881.319	-441
881.396	166
881.426	176
881.478	108
881.532	-164
881.559	-239
881.639	84
881.641	92
881.722	79
881.745	4
881.803	97
881.852	257
881.885	189
881.958	160
881.966	171
882.047	341
882.064	326
882.129	-15
882.171	-120
882.210	247
882.277	828
882.291	911
882.372	1304
882.383	1291
882.454	704
882.489	288
882.535	-273
882.596	-301
882.616	-166
882.697	-1
882.702	19
882.778	183
882.808	143
882.859	198
882.914	377
882.940	345
883.020	164
883.021	165
883.102	-473
883.127	-509
883.183	-343
883.233	-178
883.264	12
883.339	538
883.345	554
883.426	243
883.445	289
883.507	293
883.551	-50
883.587	-179
883.657	-93
883.668	-40
883.749	430
883.763	499
883.830	571
883.869	595
883.910	512
883.975	200
883.991	219
884.072	291
884.081	310
884.152	300
884.187	246
884.233	153
884.292	-54
884.314	-10
884.394	481
884.398	507
884.475	246
884.504	-23
884.555	-2
884.610	40
884.636	60
884.716	263
884.716	271
884.797	874
884.821	1014
884.877	602
884.927	283
884.958	332
885.033	288
885.038	259
885.118	-191
885.139	-304
885.199	336
885.244	593
885.279	220
885.350	44
885.359	144
885.439	693
885.456	758
885.520	462
885.561	409
885.600	331
885.667	40
885.680	36
885.760	41
885.773	53
885.840	560
885.878	808
885.920	863
885.984	993
886.000	935
886.080	355
886.089	314
886.160	827
886.195	976
886.240	845
886.300	727
886.320	727
886.400	932
886.406	922
886.480	932
886.511	905
886.560	880
886.616	1003
886.640	1019
886.720	855
886.722	847
886.800	351
886.827	144
886.879	321
886.932	496
886.959	570
887.038	813
887.039	820
887.119	964
887.143	996
887.198	533
887.248	65
887.278	-61
887.354	-330
887.358	-283
887.437	687
887.459	922
887.517	1011
887.564	1114
887.596	1164
887.669	1082
887.676	1053
887.755	866
887.774	743
887.835	585
887.880	578
887.914	789
887.985	1168
887.994	1089
888.073	285
888.090	128
888.153	407
888.195	531
888.232	518
888.300	449
888.311	462
888.391	612
888.405	637
888.470	819
888.510	895
888.549	837
888.615	733
888.628	756
888.708	850
888.720	867
888.787	711
888.825	587
888.866	661
888.930	767
888.945	782
889.024	906
889.035	913
889.103	1338
889.140	1558
889.182	1315
889.245	926
889.261	907
889.340	819
889.349	806
889.419	910
889.454	956
889.498	744
889.559	444
889.577	679
889.656	1705
889.664	1802
889.735	1048
889.768	682
889.814	1003
889.873	1422
889.978	1594
890.083	801
890.187	980
890.292	572
890.397	1232
890.501	965
890.606	1088
890.710	667
890.815	1680
890.919	1248
891.024	678
891.128	657
891.233	659
891.337	832
891.442	985
891.546	91
891.650	1125
891.755	801
891.859	1927
891.963	1849
892.068	651
892.172	334
892.276	933
892.380	1162
892.484	824
892.589	538
892.693	1651
892.797	1061
892.901	560
893.005	577
893.109	1381
893.213	2180
893.317	1547
893.421	835
893.525	947
893.629	480
893.733	682
893.837	976
893.941	1655
894.045	1248
894.148	682
894.252	2502
894.356	3430
894.460	1027
894.564	484
894.667	599
894.771	1300
894.875	1287
894.978	1205
895.082	411
895.186	1316
895.289	1748
895.393	838
895.496	1208
895.600	58
895.703	786
895.807	1155
895.910	1219
896.014	607
896.117	1369
896.221	601
896.324	1418
896.427	976
896.531	1421
896.634	334
896.737	1063
896.840	832
896.944	1251
897.047	273
897.150	165
897.253	792
897.356	705
897.460	459
897.563	1013
897.666	449
897.769	1080
897.872	934
897.975	926
898.078	-115
898.181	427
898.284	53
898.387	1002
898.490	1324
898.593	1161
898.695	353
898.798	1088
898.901	1166
899.004	1057
899.107	1227
899.209	899
899.312	666
899.415	755
899.518	651
899.620	626
899.723	1150
899.826	1097
899.928	1808
900.031	1635
900.133	687
900.236	435
900.338	59
900.441	959
900.543	1685
900.646	431
900.748	431
900.851	942
900.953	329
901.055	1140
901.158	347
901.260	832
901.362	549
901.465	753
901.567	957
901.669	1382
901.771	-160
901.873	932
901.976	583
902.078	862
902.180	1094
902.282	489
902.384	1162
902.486	357
902.588	1084
902.690	1276
902.792	1384
902.894	764
902.996	822
903.098	815
903.200	328
903.302	739
903.404	521
903.505	827
903.607	275
903.709	498
903.811	805
903.913	679
904.014	969
904.116	-371
904.218	797
904.319	534
904.421	852
904.523	1102
904.624	1070
904.726	913
904.827	767
904.929	1916
905.030	867
905.132	386
905.233	550
905.335	827
905.436	748
905.537	439
905.639	1340
905.740	521
905.841	1126
905.943	349
906.044	1322
906.145	732
906.247	163
906.348	256
906.449	874
906.550	185
906.651	389
906.752	385
906.854	374
906.955	761
907.056	533
907.157	250
907.258	-16
907.359	363
907.460	814
907.561	826
907.662	554
907.762	721
907.863	27
907.964	943
908.065	773
908.166	519
908.267	255
908.367	852
908.468	436
908.569	608
908.670	320
908.770	1472
908.871	277
908.971	1007
909.072	1105
909.173	870
909.273	1104
909.374	114
909.474	53
909.575	1118
909.675	830
909.776	808
909.876	987
909.977	487
910.077	483
910.177	627
910.278	730
910.378	432
910.478	876
910.579	429
910.679	549
910.779	999
910.879	414
910.980	926
911.080	915
911.180	715
911.280	843
911.380	1375
911.480	443
911.580	165
911.680	127
911.780	1018
911.880	510
911.980	661
912.080	-33
912.180	471
912.280	225
912.380	722
912.480	705
912.580	1131
912.679	703
912.779	1065
912.879	691
912.979	1015
913.078	143
913.178	787
913.278	736
913.377	269
913.477	869
913.577	798
913.676	1584
913.776	1130
913.875	-122
913.975	897
914.074	291
914.174	934
914.273	-39
914.373	1651
914.472	136
914.572	1043
914.671	346
914.770	1234
914.870	283
914.969	748
915.068	112
915.167	558
915.267	138
915.366	596
915.465	623
915.564	330
915.663	1386
915.763	722
915.862	861
915.961	1647
916.060	704
916.159	1217
916.258	201
916.357	604
916.456	316
916.555	728
916.654	280
916.752	680
916.851	555
916.950	914
917.049	466
917.148	788
917.247	558
917.345	691
917.444	444
917.543	658
917.642	349
917.740	658
917.839	666
917.937	1461
918.036	923
918.135	989
918.233	664
918.332	1088
918.430	670
918.529	482
918.627	467
918.726	681
918.824	104
918.923	556
919.021	207
919.119	696
919.218	548
919.316	1307
919.414	300
919.512	493
919.611	406
919.709	1808
919.807	270
919.905	1104
920.003	390
920.102	912
920.200	703
920.298	715
920.396	-7
920.494	939
920.592	659
920.690	770
920.788	701
920.886	447
920.984	1414
921.082	633
921.180	802
921.277	862
921.375	132
921.473	456
921.571	634
921.669	1029
921.766	1183
921.864	1080
921.962	591
922.060	352
922.157	318
922.255	304
922.352	311
922.450	905
922.548	813
922.645	764
922.743	-50
922.840	819
922.938	1250
923.035	346
923.133	1596
923.230	146
923.327	981
923.425	1022
923.522	1143
923.619	742
923.717	712
923.814	1079
923.911	403
924.008	184
924.106	-196
924.203	905
924.300	1016
924.397	1289
924.494	771
924.591	1519
924.688	149
924.786	603
924.883	1117
924.979	1270
925.077	1870
925.173	1084
925.270	1115
925.367	398
925.464	1273
925.561	728
925.658	757
925.755	1013
925.852	1334
925.948	762
926.045	741
926.142	994
926.239	531
926.335	1104
926.432	770
926.529	541
926.625	674
926.722	2307
926.818	744
926.915	762
927.011	1034
927.108	1733
927.204	319
927.301	585
927.397	1093
927.494	1100
927.590	1459
927.687	295
927.783	697
927.879	1376
927.976	-126
928.072	649
928.168	562
928.264	1562
928.361	717
928.457	969
928.553	92
928.649	1588
928.745	1028
928.841	301
928.937	767
929.033	354
929.129	1221
929.225	769
929.321	1389
929.417	665
929.513	432
929.609	1005
929.705	46
929.801	342
929.897	123
929.993	1223
930.089	445
930.184	764
930.280	692
930.376	1380
930.471	814
930.567	1305
930.663	1000
930.758	671
930.854	631
930.950	667
931.045	293
931.141	856
931.236	868
931.332	1190
931.427	1111
931.523	1222
931.618	367
931.714	-246
931.809	279
931.905	1110
932.000	836
932.095	23
932.191	353
932.286	1379
932.381	327
932.476	455
932.572	830
932.667	731
932.762	774
932.857	449
932.952	662
933.047	1241
933.142	414
933.237	575
933.332	677
933.427	663
933.522	541
933.617	-224
933.712	119
933.807	573
933.902	1377
933.997	307
934.092	970
934.187	966
934.282	345
934.376	527
934.471	42
934.566	744
934.661	331
934.755	1048
934.850	623
934.945	931
935.039	1337
935.134	829
935.228	489
935.323	1065
935.417	882
935.512	521
935.606	266
935.701	745
935.795	278
935.890	670
935.984	1219
936.079	936
936.173	727
936.267	801
936.362	530
936.456	505
936.550	392
936.644	497
936.738	570
936.833	544
936.927	829
937.021	722
937.115	745
937.209	1866
937.303	1434
937.397	494
937.491	559
937.585	1490
937.679	663
937.773	551
937.867	1161
937.961	1214
938.055	-8
938.149	1052
938.243	-79
938.337	1252
938.430	346
938.524	842
938.618	307
938.712	1031
938.805	509
938.899	886
938.993	558
939.086	682
939.180	-153
939.274	245
939.367	1110
939.461	1111
939.554	991
939.648	1372
939.741	587
939.835	462
939.928	377
940.022	1087
940.115	685
940.208	1127
940.302	1227
940.395	542
940.488	-140
940.582	1637
940.675	843
940.768	453
940.861	473
940.954	589
941.048	923
941.141	641
941.234	141
941.327	761
941.420	914
941.513	1430
941.606	-184
941.699	1300
941.792	654
941.885	845
941.978	687
942.071	644
942.164	-399
942.257	336
942.349	-62
942.442	781
942.535	389
942.628	-210
942.721	367
942.813	481
942.906	-152
942.999	838
943.091	474
943.184	626
943.277	22
943.369	636
943.462	997
943.554	1057
943.647	217
943.739	860
943.832	596
943.924	71
944.017	163
944.109	12
944.201	164
944.294	685
944.386	332
944.478	994
944.571	895
944.663	-320
944.755	-72
944.847	598
944.940	616
945.032	893
945.124	309
945.216	882
945.308	712
945.400	464
945.492	419
945.584	399
945.676	519
945.768	-229
945.860	377
945.952	340
946.044	739
946.136	50
946.228	627
946.320	724
946.412	944
946.503	530
946.595	716
946.687	692
946.779	-74
946.870	531
946.962	686
947.054	309
947.145	581
947.237	1122
947.329	81
947.420	387
947.512	467
947.603	457
947.695	607
947.786	562
947.878	978
947.969	-55
948.061	-348
948.152	1097
948.243	67
948.335	509
948.426	-718
948.517	501
948.609	200
948.700	278
948.791	474
948.882	539
948.973	-20
949.065	197
949.156	308
949.247	108
949.338	170
949.429	-172
949.520	273
949.611	-160
949.702	-54
949.793	-67
949.884	133
949.975	246
950.066	44
950.157	267
950.247	54
950.338	505
950.429	493
950.520	534
950.611	369
950.701	750
950.792	-149
950.883	877
950.973	1114
951.064	691
951.155	237
951.245	894
951.336	927
951.427	964
951.517	1077
951.608	764
951.698	-248
951.788	114
951.879	-91
951.969	394
952.060	143
952.150	1058
952.240	132
952.331	-133
952.421	1388
952.511	392
952.602	754
952.692	405
952.782	45
952.872	26
952.962	-228
953.052	668
953.143	-668
953.233	610
953.323	-390
953.413	601
953.503	-143
953.593	323
953.683	160
953.773	119
953.863	-49
953.953	104
954.042	197
954.132	-289
954.222	342
954.312	382
954.402	724
954.492	694
954.581	619
954.671	1353
954.761	-853
954.850	-44
954.940	109
955.030	189
955.119	28
955.209	-40
955.298	-82
955.388	1307
955.477	175
955.567	41
955.656	969
955.746	764
955.835	452
955.925	166
956.014	-828
956.103	438
956.193	-244
956.282	485
956.371	211
956.461	-204
956.550	321
956.639	971
956.728	183
956.817	563
956.906	-52
956.995	638
957.085	954
957.174	1109
957.263	413
957.352	773
957.441	-85
957.530	147
957.619	528
957.708	965
957.796	17
957.885	289
957.974	206
958.063	768
958.152	166
958.241	741
958.329	855
958.418	168
958.507	508
958.596	240
958.684	-89
958.773	1222
958.861	37
958.950	873
959.039	493
959.127	751
959.216	587
959.304	997
959.393	1050
959.481	630
959.570	91
959.658	76
959.746	1028
959.835	1159
959.923	505
960.011	1719
960.100	621
960.188	317
960.276	867
960.365	350
960.453	501
960.541	611
960.629	-67
960.717	792
960.805	171
960.893	366
960.981	-11
961.069	536
961.158	112
961.245	-100
961.333	411
961.421	-45
961.509	18
961.597	-6
961.685	86
961.773	608
961.861	277
961.949	209
962.036	-354
962.124	478
962.212	-370
962.299	893
962.387	460
962.475	100
962.562	417
962.650	83
962.738	18
962.825	-247
962.913	67
963.000	-231
963.088	46
963.175	115
963.263	-191
963.350	393
963.438	-260
963.525	773
963.612	1093
963.700	878
963.787	4023
963.874	6527
963.962	882
964.049	-309
964.136	-173
964.223	251
964.310	-782
964.398	-64
964.485	-468
964.572	125
964.659	554
964.746	1706
964.833	808
964.920	-273
965.007	373
965.094	14
965.181	-178
965.268	385
965.355	-273
965.441	124
965.528	-196
965.615	128
965.702	-798
965.789	246
965.875	-1048
965.962	410
966.049	12
966.136	417
966.222	-757
966.309	-267
966.395	-561
966.482	629
966.569	-1198
966.655	706
966.742	215
966.828	-389
966.915	-535
967.001	318
967.087	611
967.174	8
967.260	637
967.347	632
967.433	811
967.519	3783
967.605	3648
967.692	642
967.778	-106
967.864	482
967.950	-282
968.036	-95
968.123	-185
968.209	1119
968.295	166
968.381	432
968.467	839
968.553	381
968.639	-548
968.725	109
968.811	1537
968.897	721
968.983	62
969.069	471
969.154	253
969.240	599
969.326	133
969.412	-58
969.497	-718
969.583	751
969.669	-489
969.755	-576
969.840	-598
969.926	-1015
970.012	-599
970.097	275
970.183	-557
970.268	69
970.354	80
970.439	665
970.525	1820
970.610	2282
970.696	664
970.781	321
970.866	-425
970.952	-74
971.037	-818
971.122	263
971.208	384
971.293	-503
971.378	-489
971.463	-214
971.549	145
971.634	62
971.719	-407
971.804	60
971.889	963
971.974	215
972.059	-464
972.144	92
972.229	229
972.314	284
972.399	51
972.484	-106
972.569	-431
972.654	599
972.739	115
972.824	954
972.908	957
972.993	2
973.078	308
973.163	185
973.247	156
973.332	-624
973.417	-4
973.501	-171
973.586	-583
973.671	-339
973.755	-125
973.840	1198
973.924	-394
974.009	231
974.093	-1012
974.178	932
974.262	-151
974.346	785
974.431	577
974.515	372
974.600	-143
974.684	-287
974.768	-518
974.852	411
974.937	-484
975.021	-138
975.105	-1028
975.189	-304
975.273	-907
975.358	-133
975.442	-383
975.526	169
975.610	48
975.694	-25
975.778	-103
975.862	40
975.946	-1264
976.030	552
976.114	50
976.198	221
976.281	131
976.365	1335
976.449	-62
976.533	862
976.617	14
976.700	-690
976.784	-483
976.868	-406
976.951	-563
977.035	72
977.119	-475
977.202	-721
977.286	-599
977.369	184
977.453	-1015
977.536	-796
977.620	-284
977.703	-210
977.787	-145
977.870	-401
977.953	-126
978.037	-315
978.120	-85
978.203	357
978.287	1317
978.370	1121
978.453	-323
978.536	-534
978.620	275
978.703	580
978.786	153
978.869	-257
978.952	-1191
979.035	432
979.118	265
979.201	-17
979.284	-624
979.367	-965
979.450	-716
979.533	-979
979.616	-845
979.699	323
979.782	-116
979.865	-140
979.948	-454
980.030	-441
980.113	-634
980.196	-360
980.279	-394
980.361	149
980.444	-818
980.526	253
980.609	-809
980.692	-44
980.774	-863
980.857	3
980.939	-332
981.022	-488
981.104	-404
981.187	-696
981.269	-1001
981.352	-115
981.434	-1770
981.516	-297
981.599	-415
981.681	-719
981.763	-335
981.846	-441
981.928	-358
982.010	-560
982.092	-1125
982.174	-277
982.256	-176
982.339	-593
982.421	-752
982.503	-148
982.585	-626
982.667	-546
982.749	-230
982.831	-1231
982.913	-147
982.995	-442
983.077	-1083
983.158	-73
983.240	-1204
983.322	-820
983.404	-238
983.486	-301
983.568	-590
983.649	-600
983.731	-307
983.813	-841
983.894	-1238
983.976	-239
984.058	-562
984.139	-356
984.221	-583
984.302	-524
984.384	-407
984.465	-748
984.547	-1238
984.628	-759
984.710	-551
984.791	-1022
984.872	84
984.954	132
985.035	24
985.116	-735
985.198	-1045
985.279	-331
985.360	-212
985.441	-612
985.522	-1248
985.604	211
985.685	-880
985.766	68
985.847	259
985.928	-122
986.009	-1090
986.090	-152
986.171	-953
986.252	183
986.333	-560
986.414	-730
986.495	103
986.576	-250
986.656	33
986.737	-201
986.818	-1042
986.899	-705
986.980	-647
987.060	39
987.141	-753
987.222	3
987.302	-279
987.383	-309
987.464	-722
987.544	206
987.625	-332
987.705	22
987.786	-510
987.866	-37
987.947	-165
988.027	-1813
988.108	-636
988.188	-407
988.268	90
988.349	-732
988.429	157
988.509	4
988.589	-1624
988.670	-1516
988.750	276
988.830	-433
988.910	-670
988.990	-554
989.070	-1640
989.151	-784
989.231	-845
989.311	-329
989.391	-721
989.471	-594
989.551	148
989.631	-497
989.711	-599
989.791	-313
989.870	-1183
989.950	-22
990.030	-1363
990.110	-1022
990.190	-262
990.269	-670
990.349	-758
990.429	-769
990.509	-1184
990.588	-763
990.668	-772
990.747	-156
990.827	-981
990.907	-536
990.986	-779
991.066	393
991.145	-693
991.225	375
991.304	-625
991.383	-832
991.463	-827
991.542	-103
991.622	-958
991.701	-545
991.780	-532
991.859	113
991.939	-1332
992.018	-199
992.097	-570
992.176	-629
992.256	-754
992.335	21
992.414	-545
992.493	-1040
992.572	-572
992.651	-498
992.730	-1041
992.809	222
992.888	-469
992.967	-594
993.046	-1068
993.125	-733
993.203	-654
993.282	-86
993.361	-916
993.440	-314
993.519	-779
993.597	187
993.676	-755
993.755	-285
993.834	-929
993.912	-351
993.991	-107
994.069	-533
994.148	-52
994.226	-796
994.305	-1109
994.384	-497
994.462	-465
994.540	-750
994.619	-1295
994.697	-687
994.776	-814
994.854	116
994.932	-1518
995.011	142
995.089	-655
995.167	-968
995.245	-1175
995.324	-167
995.402	-41
995.480	-430
995.558	-320
995.636	-1394
995.714	-1168
995.792	-866
995.870	-559
995.948	-189
996.026	-362
996.104	-401
996.182	-689
996.260	19
996.338	-406
996.416	-270
996.494	-792
996.572	151
996.649	-815
996.727	-668
996.805	-457
996.883	-1004
996.960	-1009
997.038	-594
997.116	-839
997.193	-5
997.271	-83
997.348	-1075
997.426	-628
997.504	-904
997.581	-651
997.658	-443
997.736	-1620
997.813	-1064
997.891	-450
997.968	-813
998.046	-1305
998.123	-793
998.200	-553
998.277	-799
998.355	-833
998.432	-1592
998.509	-484
998.586	-451
998.663	-411
998.741	-281
998.818	-737
998.895	-672
998.972	-621
999.049	-1050
999.126	-961
999.203	-849
999.280	-600
999.357	-1529
999.434	-672
999.511	-123
999.587	-261
999.664	-771
999.741	-355
999.818	-633
999.895	-610
999.971	-840
1000.048	-412
1000.125	-389
1000.202	-925
1000.278	-782
1000.355	-649
1000.431	-163
1000.508	-658
1000.584	-895
1000.661	-142
1000.738	-835
1000.814	-1355
1000.890	-792
1000.967	-1328
1001.043	-550
1001.120	-1021
1001.196	-203
1001.272	-2010
1001.349	-401
1001.425	-504
1001.501	-830
1001.577	-1799
1001.654	-423
1001.730	-399
1001.806	-43
1001.882	-863
1001.958	-796
1002.034	-544
1002.110	-948
1002.186	-424
1002.262	-1072
1002.338	-903
1002.414	-437
1002.490	-298
1002.566	-340
1002.642	-1447
1002.718	-139
1002.794	-213
1002.870	-347
1002.945	-1350
1003.021	-480
1003.097	-1461
1003.173	-698
1003.248	-1044
1003.324	-689
1003.400	-1129
1003.475	-1164
1003.551	-1072
1003.626	-357
1003.702	-1003
1003.777	-1525
1003.853	-962
1003.928	-616
1004.004	-615
1004.079	-729
1004.155	-1092
1004.230	-1627
1004.305	-234
1004.381	-1399
1004.456	-1695
1004.531	-1084
1004.607	-819
1004.682	-605
1004.757	-1054
1004.832	-1494
1004.907	-668
1004.982	-922
1005.057	-567
1005.133	-906
1005.208	-1099
1005.283	-714
1005.358	-423
1005.433	-745
1005.508	-1131
1005.583	-641
1005.657	-1056
1005.732	-523
1005.807	-1462
1005.882	-1222
1005.957	-1001
1006.032	-485
1006.106	-1020
1006.181	-880
1006.256	-464
1006.331	-1198
1006.405	-1242
1006.480	-553
1006.554	-899
1006.629	-742
1006.704	-1199
1006.778	-732
1006.853	-227
1006.927	-1331
1007.002	-1461
1007.076	-942
1007.150	-1097
1007.225	-996
1007.299	-1693
1007.373	-1206
1007.448	-945
1007.522	-820
1007.596	-606
1007.671	-1157
1007.745	-768
1007.819	-1045
1007.893	-1017
1007.967	-174
1008.041	-1116
1008.115	-785
1008.190	-1413
1008.264	-1192
1008.338	-1750
1008.412	-65
1008.486	-777
1008.560	-894
1008.633	-531
1008.707	-1307
1008.781	-1358
1008.855	-807
1008.929	-1887
1009.003	-795
1009.076	-1561
1009.150	-1303
1009.224	-792
1009.298	-1252
1009.371	-1340
1009.445	-983
1009.519	-696
1009.592	-1112
1009.666	-841
1009.739	-1104
1009.813	-1207
1009.886	-1230
1009.960	-1431
1010.033	-840
1010.107	-1315
1010.180	-870
1010.253	-1200
1010.327	-746
1010.400	-1098
1010.473	-800
1010.547	-1074
1010.620	-1245
1010.693	-1688
1010.766	-1946
1010.840	-737
1010.913	-1193
1010.986	-1309
1011.059	-635
1011.132	-1346
1011.205	-738
1011.278	-1310
1011.351	-738
1011.424	-2165
1011.497	-1131
1011.570	-2065
1011.643	-1341
1011.716	-1665
1011.789	-969
1011.862	-1140
1011.934	-629
1012.007	-1342
1012.080	-1036
1012.153	-1686
1012.225	-235
1012.298	-1904
1012.371	-1540
1012.443	-862
1012.516	-1023
1012.588	-1315
1012.661	-840
1012.733	-1601
1012.806	-135
1012.879	-703
1012.951	-1004
1013.023	-1677
1013.096	-883
1013.168	-1147
1013.241	-874
1013.313	-1558
1013.385	-1050
1013.458	-1669
1013.530	-1468
1013.602	-2595
1013.674	-1486
1013.746	-2423
1013.819	-1425
1013.891	-1108
1013.963	-1130
1014.035	-1719
1014.107	-761
1014.179	-1855
1014.251	-608
1014.323	-1408
1014.395	-1428
1014.467	-1269
1014.539	-1677
1014.611	-1348
1014.683	-702
1014.754	-1293
1014.826	-1271
1014.898	-1837
1014.970	-2069
1015.042	-1067
1015.113	-2154
1015.185	-1575
1015.257	-1965
1015.328	-1709
1015.400	-1080
1015.471	-1664
1015.543	-1703
1015.615	-746
1015.686	-919
1015.757	-1411
1015.829	-1237
1015.901	-1261
1015.972	-1201
1016.043	-1321
1016.115	-1363
1016.186	-1938
1016.257	-1323
1016.328	-1654
1016.400	-759
1016.471	-1417
1016.542	-1468
1016.613	-1184
1016.685	-1119
1016.756	-1670
1016.827	-1300
1016.898	-2131
1016.969	-1125
1017.040	-1517
1017.111	-914
1017.182	-1006
1017.253	-647
1017.324	-1440
1017.395	-817
1017.466	-1724
1017.537	-1688
1017.608	-798
1017.678	-1364
1017.749	-1723
1017.820	-2116
1017.891	-1533
1017.961	-1627
1018.032	-1584
1018.103	-1206
1018.173	-1489
1018.244	-1152
1018.315	-2198
1018.385	-950
1018.456	-2006
1018.526	-1951
1018.597	-2107
1018.667	-1641
1018.738	-1423
1018.808	-1068
1018.878	-1740
1018.949	-1579
1019.019	-903
1019.089	-1226
1019.160	-1613
1019.230	-1992
1019.300	-1181
1019.371	-984
1019.441	-1513
1019.511	-1368
1019.581	-2632
1019.651	-1101
1019.721	-1700
1019.791	-1586
1019.861	-2130
1019.931	-1193
1020.001	-1106
1020.071	-1907
1020.141	-1443
1020.211	-2139
1020.281	-2086
1020.351	-1747
1020.421	-2347
1020.491	-1646
1020.560	-1955
1020.630	-1152
1020.700	-1818
1020.770	-949
1020.839	-1785
1020.909	-1467
1020.979	-1805
1021.048	-743
1021.118	-1184
1021.187	-910
1021.257	-2168
1021.326	-830
1021.396	-1949
1021.465	-1165
1021.535	-1558
1021.604	-1147
1021.674	-1470
1021.743	-1833
1021.812	-1231
1021.882	-1898
1021.951	-1738
1022.020	-1312
1022.089	-1882
1022.159	-1643
1022.228	-1732
1022.297	-1496
1022.366	-889
1022.435	-1335
1022.504	-2246
1022.573	-2340
1022.642	-1799
1022.711	-2197
1022.781	-2315
1022.849	-736
1022.918	-1917
1022.987	-1771
1023.056	-1278
1023.125	-1940
1023.194	-1445
1023.263	-1949
1023.331	-1932
1023.400	-1232
1023.469	-2611
1023.538	-1707
1023.606	-1804
1023.675	-1213
1023.744	-2270
1023.812	-1472
1023.881	-1100
1023.949	-1199
1024.018	-1930
1024.086	-1549
1024.155	-1466
1024.223	-1975
1024.292	-1031
1024.360	-843
1024.429	-2002
1024.497	-1596
1024.565	-1446
1024.634	-1307
1024.702	-1624
1024.770	-1759
1024.838	-2192
1024.907	-1619
1024.975	-1058
1025.043	-1907
1025.111	-2268
1025.179	-2000
1025.247	-1827
1025.315	-1844
1025.383	-2163
1025.451	-2169
1025.519	-1848
1025.587	-1875
1025.655	-1783
1025.723	-1979
1025.791	-1690
1025.859	-2089
1025.927	-1833
1025.995	-1895
1026.062	-1461
1026.130	-2065
1026.198	-1820
1026.266	-2103
1026.333	-1111
1026.401	-1225
1026.469	-1781
1026.536	-1077
1026.604	-1247
1026.671	-1708
1026.739	-2424
1026.806	-1006
1026.874	-1285
1026.941	-1800
1027.009	-2226
1027.076	-1366
1027.144	-1726
1027.211	-1619
1027.278	-2427
1027.345	-1450
1027.413	-1824
1027.480	-1677
1027.547	-2474
1027.614	-1598
1027.682	-2353
1027.749	-1636
1027.816	-2344
1027.883	-1095
1027.950	-1954
1028.017	-1394
1028.084	-1930
1028.151	-2047
1028.218	-1555
1028.285	-1691
1028.352	-1943
1028.419	-2022
1028.486	-2726
1028.553	-2401
1028.619	-2486
1028.686	-1761
1028.753	-2029
1028.820	-1410
1028.886	-2093
1028.953	-2322
1029.020	-1826
1029.086	-2118
1029.153	-1906
1029.220	-2596
1029.286	-2718
1029.353	-1698
1029.419	-2624
1029.486	-1120
1029.552	-2311
1029.619	-1965
1029.685	-2455
1029.751	-1903
1029.818	-1554
1029.884	-1843
1029.951	-1705
1030.017	-1484
1030.083	-2192
1030.149	-1055
1030.216	-1750
1030.282	-2064
1030.348	-2076
1030.414	-1489
1030.480	-2372
1030.546	-1751
1030.612	-1920
1030.678	-1864
1030.744	-2270
1030.810	-1678
1030.876	-1376
1030.942	-2456
1031.008	-1771
1031.074	-2061
1031.140	-2421
1031.206	-2068
1031.272	-2803
1031.337	-1660
1031.403	-2054
1031.469	-1440
1031.534	-1805
1031.600	-964
1031.666	-2138
1031.731	-1748
1031.797	-1815
1031.863	-2581
1031.928	-2348
1031.994	-1551
1032.059	-1969
1032.125	-1192
1032.190	-2631
1032.256	-2454
1032.321	-2494
1032.386	-2294
1032.452	-1101
1032.517	-2081
1032.582	-1827
1032.647	-2137
1032.713	-2330
1032.778	-1641
1032.843	-1932
1032.908	-2161
1032.974	-1957
1033.039	-2070
1033.104	-1988
1033.169	-1489
1033.234	-1589
1033.299	-2269
1033.364	-2042
1033.429	-2400
1033.494	-1654
1033.559	-1590
1033.624	-2362
1033.688	-1705
1033.753	-2260
1033.818	-1549
1033.883	-2713
1033.948	-2197
1034.013	-1419
1034.077	-2012
1034.142	-2251
1034.207	-1224
1034.271	-1637
1034.336	-1321
1034.400	-2238
1034.465	-1162
1034.530	-1027
1034.594	-2142
1034.658	-1175
1034.723	-2577
1034.787	-2251
1034.852	-1679
1034.916	-2787
1034.981	-2106
1035.045	-1964
1035.109	-2095
1035.173	-1692
1035.238	-2803
1035.302	-1714
1035.366	-2073
1035.430	-2728
1035.495	-2235
1035.559	-1344
1035.623	-1991
1035.687	-2311
1035.751	-1238
1035.815	-2280
1035.879	-2241
1035.943	-2318
1036.007	-1576
1036.071	-1831
1036.135	-962
1036.198	-1429
1036.262	-1670
1036.326	-2340
1036.390	-1291
1036.454	-2023
1036.517	-1124
1036.581	-1464
1036.645	-2445
1036.709	-1331
1036.772	-1923
1036.836	-2333
1036.900	-1853
1036.963	-1917
1037.026	-1971
1037.090	-1846
1037.154	-1428
1037.217	-1791
1037.280	-1720
1037.344	-1980
1037.407	-2462
1037.471	-2222
1037.534	-1784
1037.597	-2163
1037.661	-1749
1037.724	-2410
1037.787	-1232
1037.850	-1961
1037.913	-1718
1037.977	-1843
1038.040	-2428
1038.103	-1999
1038.166	-1951
1038.229	-2258
1038.292	-2646
1038.355	-2438
1038.418	-1762
1038.481	-2265
1038.544	-1857
1038.607	-2346
1038.670	-1460
1038.732	-1374
1038.795	-1941
1038.858	-2646
1038.921	-1776
1038.984	-2355
1039.046	-2385
1039.109	-2656
1039.172	-2269
1039.234	-1278
1039.297	-2004
1039.360	-2213
1039.422	-2033
1039.485	-2281
1039.547	-1890
1039.610	-1684
1039.672	-2147
1039.734	-2623
1039.797	-2490
1039.859	-2237
1039.922	-2039
1039.984	-1848
1040.046	-2315
1040.109	-1789
1040.171	-1897
1040.233	-1672
1040.295	-1354
1040.358	-2316
1040.420	-2109
1040.482	-1768
1040.544	-2556
1040.606	-1901
1040.668	-2436
1040.730	-1764
1040.792	-1837
1040.854	-2331
1040.916	-2165
1040.978	-1529
1041.040	-1360
1041.102	-1501
1041.164	-2076
1041.225	-2400
1041.287	-2384
1041.349	-2416
1041.411	-2124
1041.472	-1496
1041.534	-2475
1041.596	-2087
1041.657	-1773
1041.719	-1353
1041.781	-1763
1041.842	-1840
1041.904	-1986
1041.965	-2586
1042.027	-1556
1042.088	-1260
1042.150	-1446
1042.211	-1413
1042.272	-2053
1042.334	-1482
1042.395	-1313
1042.456	-2668
1042.518	-1995
1042.579	-1538
1042.640	-1731
1042.701	-2598
1042.763	-2134
1042.824	-2154
1042.885	-2597
1042.946	-1969
1043.007	-2181
1043.068	-2038
1043.129	-1776
1043.190	-2069
1043.251	-1611
1043.312	-1897
1043.373	-2584
1043.434	-2066
1043.495	-2102
1043.556	-1993
1043.616	-1875
1043.677	-2196
1043.738	-1808
1043.799	-2813
1043.859	-1473
1043.920	-1703
1043.981	-1863
1044.041	-1855
1044.102	-2150
1044.162	-1817
1044.223	-1537
1044.284	-1355
1044.344	-2081
1044.405	-1689
1044.465	-1345
1044.525	-2304
1044.586	-2195
1044.646	-2343
1044.707	-2249
1044.767	-1633
1044.827	-1753
1044.887	-1321
1044.948	-2139
1045.008	-2172
1045.068	-1755
1045.128	-1784
1045.188	-1743
1045.249	-2141
1045.309	-1210
1045.369	-1000
1045.429	-1665
1045.489	-2154
1045.549	-1278
1045.609	-1171
1045.669	-1596
1045.729	-1084
1045.789	-1546
1045.848	-1795
1045.908	-626
1045.968	-1158
1046.028	-1511
1046.088	-1220
1046.147	-2782
1046.207	-1150
1046.267	-1278
1046.326	-1605
1046.386	-1238
1046.446	-1509
1046.505	-869
1046.565	-1074
1046.624	-1196
1046.684	-793
1046.743	-1008
1046.803	-840
1046.862	-302
1046.922	0
