'Start Wavelength	183.907
'End Wavelength	1046.922
'Gate Delay	5.000
'Gate Width (ms)	1.050
'Laser Output Level	0.000
'X Position	0.000
'Y Position	0.000
'Z Position	0.000
'Grid Point Number	1.000
'Shot Number	100.000
183.907	-85.000
183.977	-420.000
184.047	-16
184.116	713
184.186	463
184.256	-276
184.325	430
184.395	-382
184.465	842
184.534	-831
184.604	-906
184.674	422
184.743	349
184.813	369
184.883	-562
184.952	-361
185.022	-198
185.092	-304
185.161	-216
185.231	-242
185.301	-357
185.370	176
185.440	-422
185.509	-585
185.579	580
185.649	421
185.718	368
185.788	785
185.857	-112
185.927	-326
185.996	93
186.066	10
186.136	-107
186.205	83
186.275	-103
186.344	-294
186.414	357
186.483	-797
186.553	454
186.622	201
186.692	182
186.761	139
186.831	-134
186.900	327
186.970	-273
187.039	171
187.109	-29
187.178	732
187.248	124
187.317	-80
187.387	-678
187.456	215
187.526	-737
187.595	409
187.664	208
187.734	-489
187.803	44
187.873	306
187.942	-5
188.012	71
188.081	169
188.150	-431
188.220	-478
188.289	-52
188.358	-436
188.428	32
188.497	-1029
188.567	246
188.636	-545
188.705	-312
188.775	94
188.844	-230
188.913	401
188.983	602
189.052	-478
189.121	-116
189.191	-178
189.260	-55
189.329	-262
189.399	-451
189.468	-239
189.537	-418
189.606	684
189.676	-517
189.745	58
189.814	28
189.883	-900
189.953	-485
190.022	-186
190.091	-517
190.161	290
190.230	-92
190.299	-173
190.368	-754
190.437	-320
190.507	23
190.576	-483
190.645	-144
190.714	249
190.783	-770
190.853	259
190.922	-112
190.991	-909
191.060	243
191.129	-676
191.198	251
191.268	-311
191.337	-571
191.406	-236
191.475	-234
191.544	-15
191.613	114
191.682	-32
191.752	-445
191.821	-681
191.890	-817
191.959	-671
192.028	29
192.097	522
192.166	503
192.235	-499
192.304	328
192.373	-618
192.442	128
192.511	-718
192.580	-185
192.650	-707
192.719	-649
192.788	-651
192.857	224
192.926	-446
192.995	-468
193.064	15
193.133	55
193.202	-151
193.271	523
193.340	-10
193.409	-158
193.478	-167
193.547	-931
193.615	-244
193.684	-325
193.753	-73
193.822	-309
193.891	-356
193.960	-150
194.029	-121
194.098	82
194.167	-896
194.236	-208
194.305	-601
194.374	-316
194.443	-806
194.512	-526
194.580	164
194.649	-114
194.718	528
194.787	657
194.856	-1212
194.925	-50
194.994	-481
195.062	188
195.131	-453
195.200	19
195.269	113
195.338	-628
195.407	-334
195.475	-924
195.544	797
195.613	-1223
195.682	517
195.751	-280
195.819	-590
195.888	-331
195.957	903
196.026	-554
196.094	741
196.163	-197
196.232	-689
196.301	-134
196.369	-835
196.438	-125
196.507	101
196.576	-79
196.644	236
196.713	-795
196.782	-300
196.850	702
196.919	-1022
196.988	-468
197.056	-418
197.125	576
197.194	-124
197.262	600
197.331	-254
197.400	87
197.468	-70
197.537	-643
197.606	17
197.674	387
197.743	-110
197.812	-358
197.880	195
197.949	-427
198.017	-292
198.086	-823
198.155	34
198.223	-361
198.292	-366
198.360	-63
198.429	-1002
198.497	-491
198.566	-255
198.635	265
198.703	853
198.772	-421
198.840	-11
198.909	-534
198.977	-55
199.046	-924
199.114	-193
199.183	-154
199.251	-158
199.320	-358
199.388	-671
199.457	-1158
199.525	-105
199.594	-183
199.662	-296
199.731	-82
199.799	-104
199.867	-370
199.936	240
200.004	102
200.073	155
200.141	94
200.210	-741
200.278	-381
200.346	-31
200.415	-510
200.483	-97
200.552	250
200.620	-606
200.688	-240
200.757	27
200.825	-334
200.893	-1046
200.962	-477
201.030	-488
201.098	-207
201.167	-435
201.235	160
201.303	-258
201.372	-253
201.440	323
201.508	407
201.577	-36
201.645	-355
201.713	-366
201.781	-243
201.850	364
201.918	162
201.986	-641
202.055	632
202.123	-587
202.191	316
202.259	-452
202.327	-319
202.396	-189
202.464	589
202.532	-501
202.600	644
202.669	-587
202.737	-655
202.805	-632
202.873	-263
202.941	150
203.009	276
203.078	-40
203.146	-251
203.214	-848
203.282	-1074
203.350	-14
203.418	-891
203.487	99
203.555	-83
203.623	-214
203.691	-660
203.759	-989
203.827	-391
203.895	-484
203.963	-26
204.031	87
204.099	80
204.168	-349
204.236	-215
204.304	19
204.372	-213
204.440	-236
204.508	57
204.576	-1090
204.644	-814
204.712	-1237
204.780	617
204.848	-960
204.916	-658
204.984	-318
205.052	10
205.120	-284
205.188	-52
205.256	-421
205.324	-1400
205.392	175
205.460	-124
205.528	-669
205.596	-393
205.664	-464
205.732	-141
205.799	-196
205.867	-677
205.935	-1148
206.003	667
206.071	-702
206.139	-233
206.207	-551
206.275	214
206.343	-371
206.411	-1166
206.478	-182
206.546	-373
206.614	-709
206.682	-1315
206.750	-310
206.818	-111
206.885	1034
206.953	-1010
207.021	122
207.089	201
207.157	-815
207.225	305
207.292	-790
207.360	-366
207.428	-496
207.496	-758
207.563	142
207.631	30
207.699	-569
207.767	-155
207.834	-1023
207.902	-414
207.970	-981
208.038	-811
208.105	-1222
208.173	-812
208.241	-714
208.309	67
208.376	-164
208.444	-325
208.512	-684
208.579	-2088
208.647	104
208.715	-276
208.782	-704
208.850	-202
208.918	-770
208.985	-869
209.053	-859
209.120	77
209.188	-1668
209.256	-348
209.323	-624
209.391	-1250
209.459	367
209.526	-147
209.594	-303
209.661	-12
209.729	-16
209.796	-222
209.864	-123
209.932	-1888
209.999	1044
210.067	-149
210.134	82
210.202	-821
210.269	-171
210.337	673
210.404	-691
210.472	-548
210.539	194
210.607	-884
210.674	-258
210.742	-154
210.809	-444
210.877	-137
210.944	348
211.012	-1258
211.079	1120
211.146	-208
211.214	-410
211.281	-258
211.349	-94
211.416	-307
211.484	-49
211.551	-649
211.618	-707
211.686	-200
211.753	-393
211.821	362
211.888	-79
211.955	-456
212.023	-236
212.090	16
212.157	-917
212.225	-379
212.292	229
212.359	-628
212.427	1065
212.494	-675
212.561	-204
212.629	-241
212.696	-129
212.763	-1203
212.831	-1851
212.898	312
212.965	-1218
213.032	-244
213.100	-1109
213.167	-642
213.234	415
213.301	-28
213.369	-346
213.436	-406
213.503	-1209
213.570	-192
213.638	8
213.705	-560
213.772	-1212
213.839	-520
213.906	421
213.973	-571
214.041	-1331
214.108	-537
214.175	-67
214.242	-544
214.309	-251
214.376	254
214.444	-1180
214.511	-44
214.578	-614
214.645	105
214.712	-490
214.779	-798
214.846	-651
214.913	550
214.980	-18
215.048	-531
215.115	797
215.182	-458
215.249	-291
215.316	-1257
215.383	224
215.450	28
215.517	-736
215.584	-365
215.651	-777
215.718	-604
215.785	-199
215.852	-510
215.919	-87
215.986	-534
216.053	-711
216.120	-1188
216.187	-213
216.254	-187
216.321	-529
216.388	-315
216.455	-507
216.522	-845
216.589	-440
216.656	-245
216.722	-623
216.789	-555
216.856	-625
216.923	-584
216.990	96
217.057	210
217.124	-702
217.191	-875
217.258	-581
217.324	-1172
217.391	-252
217.458	444
217.525	-944
217.592	-64
217.659	-1568
217.725	-111
217.792	-1032
217.859	789
217.926	-1395
217.993	-693
218.059	-508
218.126	-603
218.193	-577
218.260	-1064
218.327	-813
218.393	-646
218.460	-692
218.527	-900
218.594	-459
218.660	-856
218.727	-378
218.794	-709
218.860	42
218.927	-360
218.994	-651
219.061	-299
219.127	-725
219.194	-1060
219.261	-391
219.327	-578
219.394	-345
219.461	-1492
219.527	-550
219.594	-657
219.661	-989
219.727	-1293
219.794	-91
219.860	-358
219.927	-579
219.994	68
220.060	2046
220.127	1349
220.193	719
220.260	-765
220.326	-379
220.393	-905
220.460	-843
220.526	-920
220.593	-532
220.659	662
220.726	-801
220.792	-214
220.859	-508
220.925	230
220.992	-525
221.058	-277
221.125	-300
221.191	-538
221.258	-1509
221.324	-82
221.391	-925
221.457	-622
221.524	-591
221.590	-889
221.657	318
221.723	-816
221.789	-1015
221.856	191
221.922	-1719
221.989	-136
222.055	-346
222.121	-1304
222.188	1026
222.254	-123
222.321	-89
222.387	-1056
222.453	-1040
222.520	-780
222.586	-969
222.652	-640
222.719	-529
222.785	21
222.851	-928
222.918	-1058
222.984	-178
223.050	-825
223.116	-1703
223.183	208
223.249	-777
223.315	-1042
223.382	-350
223.448	-376
223.514	-1184
223.580	-1498
223.647	-581
223.713	-1422
223.779	-44
223.845	-875
223.911	202
223.978	-1434
224.044	-396
224.110	-1017
224.176	12
224.242	-703
224.309	-1283
224.375	-538
224.441	-304
224.507	-1780
224.573	-1108
224.639	-725
224.705	-1353
224.772	-560
224.838	-1799
224.904	-332
224.970	-337
225.036	-701
225.102	-2114
225.168	-189
225.234	-213
225.300	-803
225.366	11
225.432	-37
225.499	-942
225.565	-1070
225.631	-1219
225.697	-1726
225.763	-571
225.829	-685
225.895	-650
225.961	-526
226.027	-539
226.093	-1458
226.159	52
226.225	-273
226.291	-369
226.357	-508
226.423	-216
226.489	-333
226.554	-31
226.620	783
226.686	-955
226.752	-676
226.818	-939
226.884	499
226.950	-158
227.016	-478
227.082	-207
227.148	-707
227.214	-530
227.279	-1075
227.345	-465
227.411	-56
227.477	417
227.543	2935
227.609	3195
227.674	765
227.740	78
227.806	605
227.872	-972
227.938	-65
228.003	298
228.069	-1072
228.135	-889
228.201	-206
228.267	-1021
228.332	-1007
228.398	-2537
228.464	-134
228.530	-827
228.595	-508
228.661	-1341
228.727	-1169
228.792	723
228.858	-1413
228.924	-2495
228.990	215
229.055	-1578
229.121	-141
229.187	-1008
229.252	-801
229.318	-1866
229.384	-422
229.449	-570
229.515	-2447
229.581	-1581
229.646	371
229.712	-644
229.777	-675
229.843	-1168
229.909	-790
229.974	-295
230.040	-1158
230.105	-62
230.171	-1977
230.236	134
230.302	-1113
230.368	-1073
230.433	-1579
230.499	-304
230.564	-315
230.630	-1580
230.695	-504
230.761	-148
230.826	-1873
230.892	294
230.957	-1778
231.023	-314
231.088	-1264
231.154	-170
231.219	-575
231.284	-952
231.350	-731
231.415	-1819
231.481	-69
231.546	-567
231.612	-1029
231.677	-1195
231.742	-2122
231.808	505
231.873	-974
231.939	-1980
232.004	473
232.069	626
232.135	-1581
232.200	-848
232.265	24
232.331	-1013
232.396	-699
232.461	-1022
232.527	-1185
232.592	-1435
232.657	-20
232.723	-1153
232.788	-1612
232.853	-1105
232.918	-416
232.984	-1619
233.049	-1221
233.114	-1427
233.179	-362
233.245	-285
233.310	-1084
233.375	-1483
233.440	-317
233.506	-1187
233.571	-114
233.636	-432
233.701	-863
233.766	-663
233.832	-730
233.897	-485
233.962	-1919
234.027	-121
234.092	-301
234.157	251
234.222	-836
234.288	-436
234.353	-612
234.418	-286
234.483	-241
234.548	-966
234.613	-674
234.678	-585
234.743	-998
234.808	-176
234.873	-2137
234.938	136
235.004	-216
235.069	-1242
235.134	-1683
235.199	-12
235.264	-539
235.329	-2557
235.394	-9
235.459	-102
235.524	-2357
235.589	-457
235.654	-812
235.719	-1942
235.784	-388
235.849	-945
235.913	-784
235.978	-1023
236.043	-497
236.108	-637
236.173	-2469
236.238	-413
236.303	-739
236.368	-1585
236.433	-401
236.498	-1374
236.563	-662
236.627	-1129
236.692	1360
236.757	459
236.822	-1038
236.887	-854
236.952	-325
237.017	-1989
237.081	-341
237.146	-1878
237.211	-8
237.276	-524
237.341	1975
237.405	-872
237.470	-947
237.535	-978
237.600	-623
237.664	187
237.729	-1891
237.794	-2001
237.859	-297
237.923	-850
237.988	-1292
238.053	-339
238.118	-1023
238.182	-464
238.247	274
238.312	-2705
238.376	107
238.441	-1992
238.506	-32
238.570	-1480
238.635	330
238.700	-166
238.764	-978
238.829	-335
238.893	-1212
238.958	-216
239.023	-1402
239.087	-1031
239.152	120
239.216	-735
239.281	-417
239.346	-908
239.410	-330
239.475	-1219
239.539	338
239.604	-1723
239.668	416
239.733	767
239.797	2416
239.862	6591
239.926	4560
239.991	1196
240.055	705
240.120	-935
240.184	179
240.249	-1554
240.313	-839
240.378	-275
240.442	-714
240.507	40
240.571	-1041
240.635	-1534
240.700	-983
240.764	-707
240.829	-426
240.893	-2325
240.957	179
241.022	-294
241.086	330
241.151	-1490
241.215	-2044
241.279	-142
241.344	-1342
241.408	-947
241.472	-1847
241.537	768
241.601	-418
241.665	-2032
241.730	-1373
241.794	335
241.858	-1581
241.922	-1278
241.987	-747
242.051	-871
242.115	-1610
242.179	-577
242.244	-1537
242.308	-157
242.372	-761
242.436	-1157
242.501	-668
242.565	-978
242.629	-1581
242.693	77
242.757	-1461
242.822	-1278
242.886	-984
242.950	-553
243.014	-1962
243.078	-1236
243.142	-702
243.206	-1144
243.271	-358
243.335	-2048
243.399	-247
243.463	-1145
243.527	1689
243.591	-465
243.655	-59
243.719	-946
243.783	-623
243.847	-215
243.911	-480
243.975	-1478
244.040	-2329
244.104	164
244.168	-802
244.232	-1308
244.296	-1336
244.360	-911
244.424	-1663
244.488	-313
244.552	-234
244.615	-2531
244.679	-445
244.743	-753
244.807	-2338
244.871	-288
244.935	-82
244.999	-2107
245.063	-1093
245.127	282
245.191	-803
245.255	-791
245.319	-553
245.383	-2184
245.446	691
245.510	-1303
245.574	-507
245.638	-214
245.702	-2121
245.766	356
245.829	670
245.893	-1108
245.957	-2048
246.021	269
246.085	-711
246.149	-1132
246.212	224
246.276	-784
246.340	-766
246.404	-940
246.467	-202
246.531	-2485
246.595	-207
246.659	-215
246.722	-1592
246.786	-838
246.850	-475
246.913	-485
246.977	-1988
247.041	-482
247.104	-371
247.168	-858
247.232	-671
247.295	30
247.359	167
247.423	-1314
247.486	-1226
247.550	-465
247.614	-568
247.677	-792
247.741	-1319
247.804	-749
247.868	1155
247.932	-1192
247.995	1226
248.059	-554
248.122	-580
248.186	334
248.249	-1415
248.313	976
248.376	1761
248.440	-34
248.503	-2089
248.567	427
248.630	-1284
248.694	-416
248.757	620
248.821	992
248.884	477
248.948	53
249.011	783
249.075	1847
249.138	1347
249.202	-62
249.265	-1066
249.328	-240
249.392	-1086
249.455	58
249.519	-1201
249.582	-443
249.645	-538
249.709	-697
249.772	-1150
249.835	-2
249.899	-1298
249.962	-195
250.025	-595
250.089	-698
250.152	760
250.215	-569
250.279	-756
250.342	-1200
250.405	-570
250.468	-1039
250.532	-1153
250.595	316
250.658	1566
250.721	4454
250.785	101
250.848	1177
250.911	-1294
250.974	148
251.038	-385
251.101	629
251.164	-650
251.227	-267
251.290	-832
251.354	678
251.417	3766
251.480	3313
251.543	1224
251.606	9455
251.669	5915
251.732	249
251.795	718
251.859	1458
251.922	5072
251.985	2001
252.048	676
252.111	26
252.174	-1504
252.237	586
252.300	2109
252.363	1544
252.426	7847
252.489	552
252.552	-79
252.615	-97
252.678	602
252.741	1291
252.804	1882
252.867	7948
252.930	3155
252.993	1144
253.056	-177
253.119	-164
253.182	-918
253.245	-584
253.308	256
253.371	-1212
253.434	-1199
253.497	191
253.559	174
253.622	455
253.685	-896
253.748	-561
253.811	-722
253.874	-206
253.937	-890
254.000	-239
254.062	-791
254.125	127
254.188	488
254.251	-407
254.314	-695
254.376	-549
254.439	-464
254.502	-428
254.565	-111
254.628	792
254.690	-447
254.753	-1851
254.816	-1360
254.878	-1260
254.941	-147
255.004	55
255.067	82
255.129	-1028
255.192	-608
255.255	-987
255.317	-740
255.380	-410
255.443	-1152
255.505	-410
255.568	-426
255.631	-923
255.693	389
255.756	-874
255.819	346
255.881	-1582
255.944	77
256.006	-525
256.069	-1034
256.132	-587
256.194	-533
256.257	-628
256.319	-599
256.382	-1190
256.444	749
256.507	30
256.569	-636
256.632	-758
256.694	-1363
256.757	559
256.819	1572
256.882	-1199
256.944	161
257.007	694
257.069	-852
257.132	-97
257.194	140
257.257	-716
257.319	-1340
257.381	-926
257.444	723
257.506	2021
257.569	2035
257.631	715
257.693	-229
257.756	-114
257.818	-928
257.880	-1190
257.943	-355
258.005	-1098
258.067	-710
258.130	-146
258.192	-785
258.254	-1409
258.317	-555
258.379	-419
258.441	-412
258.503	1
258.566	-757
258.628	203
258.690	-1250
258.753	-111
258.815	222
258.877	-1326
258.939	-184
259.001	-235
259.064	-1297
259.126	-1366
259.188	-80
259.250	-620
259.312	-470
259.375	-27
259.437	-1059
259.499	-788
259.561	-532
259.623	-516
259.685	-1356
259.747	-909
259.809	-560
259.872	-209
259.934	401
259.996	798
260.058	174
260.120	-1505
260.182	-320
260.244	-321
260.306	-896
260.368	142
260.430	-1092
260.492	-127
260.554	-178
260.616	-446
260.678	-397
260.740	138
260.802	-848
260.864	-599
260.926	-866
260.988	436
261.050	-1145
261.112	-746
261.174	261
261.236	222
261.298	-625
261.359	-1077
261.421	272
261.483	-1189
261.545	-15
261.607	-1288
261.669	-316
261.731	-697
261.793	-296
261.854	-2038
261.916	375
261.978	-1003
262.040	-55
262.102	-553
262.164	-351
262.225	-713
262.287	-107
262.349	-335
262.411	-1255
262.472	321
262.534	-1176
262.596	-492
262.658	136
262.719	-1109
262.781	215
262.843	-339
262.904	-11
262.966	81
263.028	-156
263.090	1163
263.151	523
263.213	-427
263.275	-483
263.336	-500
263.398	54
263.459	-921
263.521	-517
263.583	-425
263.644	-1239
263.706	-81
263.767	-1165
263.829	499
263.891	-722
263.952	-682
264.014	-212
264.075	-1246
264.137	-170
264.198	-456
264.260	-639
264.321	-1029
264.383	-592
264.444	135
264.506	-447
264.567	-522
264.629	-387
264.690	-1712
264.752	-568
264.813	-607
264.875	-1016
264.936	110
264.998	-527
265.059	-653
265.120	-347
265.182	-541
265.243	-468
265.305	-122
265.366	314
265.427	-177
265.489	-181
265.550	-1323
265.611	-366
265.673	-990
265.734	-501
265.795	39
265.857	-995
265.918	-779
265.979	-507
266.040	904
266.102	-19
266.163	-549
266.224	-547
266.286	-209
266.347	-1363
266.408	-378
266.469	128
266.530	-593
266.592	258
266.653	346
266.714	-252
266.775	-430
266.836	-138
266.898	-584
266.959	-766
267.020	-314
267.081	1033
267.142	114
267.203	14
267.264	-551
267.326	791
267.387	-598
267.448	-473
267.509	799
267.570	358
267.631	-477
267.692	-1713
267.753	-404
267.814	-1652
267.875	-305
267.936	-509
267.997	-213
268.058	-822
268.119	-981
268.180	-977
268.241	-1699
268.302	-1509
268.363	-1111
268.424	-1488
268.485	-989
268.546	-655
268.607	-1177
268.668	-196
268.729	-1333
268.790	-521
268.851	-735
268.912	-1125
268.972	-1235
269.033	-1319
269.094	-1423
269.155	-656
269.216	-541
269.277	-1304
269.338	-244
269.398	-734
269.459	-1395
269.520	-549
269.581	-742
269.642	-1081
269.702	-1027
269.763	-604
269.824	-163
269.885	-623
269.945	-382
270.006	-494
270.067	-985
270.128	-951
270.188	-532
270.249	-919
270.310	-957
270.370	-711
270.431	-519
270.492	-1136
270.553	-501
270.613	-336
270.674	-1059
270.734	-1370
270.795	-1536
270.856	-730
270.916	-1309
270.977	-1203
271.038	-633
271.098	-1019
271.159	-1249
271.219	23
271.280	-463
271.340	-626
271.401	-965
271.462	-574
271.522	-523
271.583	-885
271.643	-901
271.704	148
271.764	-997
271.825	-152
271.885	1359
271.946	2384
272.006	416
272.066	1030
272.127	2317
272.187	2546
272.248	258
272.308	-298
272.369	1830
272.429	1297
272.489	-19
272.550	-525
272.610	713
272.671	-212
272.731	-125
272.791	-526
272.852	-502
272.912	173
272.972	-294
273.033	-658
273.093	-453
273.153	710
273.214	438
273.274	908
273.334	2211
273.394	2458
273.455	1276
273.515	2097
273.575	1641
273.635	2532
273.696	2809
273.756	3874
273.816	2420
273.876	2268
273.936	1069
273.997	1364
274.057	493
274.117	328
274.177	435
274.237	1713
274.297	1633
274.358	693
274.418	-53
274.478	-97
274.538	-181
274.598	-1058
274.658	246
274.718	371
274.778	153
274.838	211
274.898	-680
274.958	43
275.018	1481
275.078	646
275.138	-817
275.198	-208
275.258	-404
275.318	-359
275.378	-580
275.438	-502
275.498	-602
275.558	41
275.618	930
275.678	21
275.738	-471
275.798	-169
275.858	-785
275.918	-1040
275.978	38
276.038	-271
276.098	-728
276.157	-94
276.217	308
276.277	-365
276.337	-935
276.397	-943
276.457	-189
276.517	-594
276.576	-537
276.636	-1069
276.696	107
276.756	213
276.815	724
276.875	360
276.935	-545
276.995	-242
277.055	253
277.114	498
277.174	217
277.234	528
277.293	222
277.353	147
277.413	-517
277.472	527
277.532	702
277.592	1762
277.651	7900
277.711	14664
277.771	5513
277.830	15048
277.890	13183
277.950	10769
278.009	28046
278.069	11099
278.128	12554
278.188	16584
278.248	8143
278.307	18743
278.367	10848
278.426	2360
278.486	1590
278.545	1526
278.605	1619
278.664	1119
278.724	1164
278.783	2258
278.843	3594
278.902	1392
278.962	1444
279.021	2465
279.081	6982
279.140	6533
279.199	2676
279.259	3063
279.318	5169
279.378	7891
279.437	14856
279.496	37101
279.556	141501
279.615	105812
279.675	30105
279.734	16148
279.793	17020
279.853	17951
279.912	9086
279.971	6882
280.031	5761
280.090	7080
280.149	12108
280.208	23041
280.268	97397
280.327	93104
280.386	23743
280.445	11108
280.505	6436
280.564	4816
280.623	4679
280.682	4324
280.742	3982
280.801	2085
280.860	1701
280.919	1667
280.978	1925
281.037	1022
281.097	1421
281.156	2555
281.215	2023
281.274	1283
281.333	1307
281.392	707
281.451	707
281.510	1259
281.569	-86
281.628	189
281.688	619
281.747	1172
281.806	221
281.865	1352
281.924	516
281.983	743
282.042	301
282.101	109
282.160	796
282.219	-360
282.278	685
282.337	406
282.396	453
282.454	1117
282.513	466
282.572	555
282.631	403
282.690	-247
282.749	-179
282.808	263
282.867	960
282.926	339
282.985	313
283.043	389
283.102	-631
283.161	14
283.220	1239
283.279	1665
283.338	422
283.396	106
283.455	1680
283.514	980
283.573	1177
283.631	723
283.690	1256
283.749	851
283.808	1457
283.866	1209
283.925	1155
283.984	2162
284.043	1515
284.101	2061
284.160	2888
284.219	2867
284.277	2737
284.336	3428
284.395	4247
284.453	4548
284.512	5191
284.570	5603
284.629	6735
284.688	8950
284.746	10560
284.805	13479
284.863	17774
284.922	22106
284.981	26995
285.039	35873
285.098	45013
285.156	51440
285.215	58041
285.273	51544
285.332	53923
285.390	48343
285.449	37611
285.507	28815
285.566	21449
285.624	17399
285.683	14577
285.741	11300
285.799	8954
285.858	7307
285.916	6406
285.975	5290
286.033	3920
286.091	4375
286.150	2735
286.208	2527
286.267	2911
286.325	2322
286.383	2130
286.442	1620
286.500	2053
286.558	1186
286.616	820
286.675	1275
286.733	1388
286.791	851
286.850	767
286.908	1195
286.966	553
287.024	702
287.083	1060
287.141	765
287.199	973
287.257	91
287.315	618
287.374	78
287.432	694
287.490	364
287.548	537
287.606	-52
287.664	98
287.723	714
287.781	448
287.839	447
287.897	21
287.955	-301
288.013	153
288.071	1132
288.129	5089
288.187	16744
288.245	6163
288.303	1866
288.361	516
288.419	-185
288.477	-298
288.535	390
288.593	80
288.651	-146
288.709	-134
288.767	-107
288.825	-996
288.883	-37
288.941	-773
288.999	-678
289.057	-119
289.115	-464
289.173	-390
289.231	14
289.289	-935
289.346	-778
289.404	31
289.462	-618
289.520	104
289.578	-48
289.636	11
289.694	-451
289.751	-317
289.809	-335
289.867	-798
289.925	-105
289.983	-575
290.040	-324
290.098	-543
290.156	-784
290.214	-743
290.271	-471
290.329	87
290.387	-460
290.444	-739
290.502	-854
290.560	-718
290.617	-897
290.675	-874
290.733	100
290.790	-471
290.848	-466
290.906	-972
290.963	-676
291.021	-62
291.078	-1225
291.136	56
291.194	-221
291.251	-277
291.309	-715
291.366	173
291.424	-390
291.481	-38
291.539	-331
291.596	1034
291.654	32
291.711	-319
291.769	258
291.826	-521
291.884	55
291.941	-1243
291.999	-799
292.056	-127
292.114	-725
292.171	-1137
292.228	-38
292.286	-159
292.343	-1224
292.401	-1077
292.458	-216
292.515	-1385
292.573	134
292.630	55
292.687	-528
292.745	-334
292.802	-101
292.859	1387
292.917	1849
292.974	463
293.031	-33
293.089	696
293.146	-165
293.203	-436
293.260	-827
293.318	-195
293.375	-703
293.432	-463
293.489	-180
293.546	503
293.604	-478
293.661	2096
293.718	4292
293.775	1384
293.832	1252
293.889	2288
293.947	1788
294.004	-271
294.061	891
294.118	972
294.175	1474
294.232	3639
294.289	1797
294.346	-360
294.403	-427
294.460	-266
294.517	-960
294.574	-661
294.631	-1076
294.688	-195
294.745	24
294.802	1697
294.859	592
294.916	-367
294.973	-318
295.030	-525
295.087	-1013
295.144	-353
295.201	-767
295.258	-136
295.315	-498
295.372	305
295.429	392
295.486	-107
295.542	-556
295.599	-325
295.656	-645
295.713	354
295.770	475
295.827	-811
295.883	-755
295.940	-806
295.997	-798
296.054	-882
296.111	-214
296.167	542
296.224	-12
296.281	-870
296.338	-1135
296.394	-1480
296.451	-1679
296.508	-1264
296.564	-428
296.621	85
296.678	1257
296.734	2014
296.791	58
296.848	-256
296.904	-607
296.961	93
297.018	593
297.074	705
297.131	-24
297.187	-978
297.244	-416
297.301	1636
297.357	3037
297.414	191
297.470	261
297.527	-593
297.583	-1032
297.640	-779
297.696	-1030
297.753	-988
297.809	-1205
297.866	-595
297.922	-506
297.979	-1491
298.035	-1524
298.092	-636
298.148	572
298.204	-638
298.261	-224
298.317	243
298.374	1452
298.430	-80
298.486	-354
298.543	-879
298.599	-578
298.656	-1054
298.712	-474
298.768	-473
298.824	-518
298.881	-1465
298.937	-708
298.993	-893
299.050	-969
299.106	-240
299.162	-1377
299.218	-165
299.275	-1068
299.331	-379
299.387	264
299.443	2207
299.500	7487
299.556	6000
299.612	1269
299.668	415
299.724	5818
299.780	7596
299.837	2841
299.893	1875
299.949	3926
300.005	8034
300.061	4999
300.117	10506
300.173	3578
300.229	-68
300.285	211
300.341	-187
300.397	89
300.453	-173
300.510	549
300.566	499
300.622	2178
300.678	9806
300.734	12801
300.790	5187
300.845	3159
300.901	4539
300.957	8525
301.013	2982
301.069	245
301.125	978
301.181	-281
301.237	-350
301.293	-149
301.349	-649
301.405	-351
301.461	-590
301.516	-456
301.572	-376
301.628	-726
301.684	-1207
301.740	-409
301.796	-339
301.851	78
301.907	-672
301.963	-207
302.019	1040
302.074	4920
302.130	5769
302.186	2365
302.242	-328
302.297	185
302.353	-1060
302.409	-750
302.464	-974
302.520	-232
302.576	501
302.631	1652
302.687	-826
302.743	-908
302.798	-700
302.854	-989
302.910	-794
302.965	-1162
303.021	-700
303.076	42
303.132	-908
303.187	-709
303.243	-1089
303.299	-1009
303.354	-1181
303.410	-312
303.465	-621
303.521	-1591
303.576	-896
303.632	-649
303.687	-730
303.743	713
303.798	502
303.853	-161
303.909	-1149
303.964	-1018
304.020	-233
304.075	-354
304.130	-929
304.186	-137
304.241	548
304.297	-645
304.352	-339
304.358	-383
304.407	-744
304.449	-711
304.463	-696
304.518	-374
304.539	-611
304.573	-1023
304.629	-661
304.630	-671
304.684	-1136
304.720	-311
304.739	94
304.794	902
304.811	783
304.850	505
304.902	-433
304.905	-497
304.960	-436
304.992	-667
305.015	-826
305.071	-472
305.083	-455
305.126	-418
305.173	-346
305.181	-319
305.236	-1173
305.264	-745
305.292	-366
305.347	-884
305.354	-766
305.402	60
305.445	-461
305.457	-644
305.512	-613
305.535	-550
305.567	-375
305.622	-551
305.626	-559
305.678	-668
305.716	241
305.733	607
305.788	1291
305.807	998
305.843	487
305.897	1435
305.898	1448
305.953	1470
305.988	169
306.008	-558
306.063	-257
306.078	-236
306.118	-138
306.168	-410
306.173	-440
306.228	83
306.259	-418
306.283	-701
306.338	195
306.349	223
306.393	-27
306.440	-463
306.448	-459
306.503	61
306.530	223
306.558	277
306.613	157
306.620	170
306.668	395
306.711	469
306.723	401
306.778	450
306.801	300
306.833	291
306.888	-99
306.892	-89
306.943	-226
306.982	-333
306.997	-238
307.052	-57
307.072	-25
307.107	-172
307.162	160
307.163	153
307.217	46
307.253	-12
307.272	-116
307.327	169
307.343	341
307.381	732
307.434	51
307.436	28
307.491	424
307.524	625
307.546	708
307.600	960
307.614	791
307.655	272
307.704	610
307.710	672
307.765	341
307.795	493
307.819	505
307.874	764
307.885	657
307.929	609
307.975	1388
307.984	1520
308.038	1916
308.065	2126
308.093	3458
308.148	6799
308.156	7606
308.202	11345
308.246	13323
308.257	12839
308.312	6223
308.336	4216
308.366	3571
308.421	2206
308.426	2102
308.475	1704
308.517	1862
308.530	1930
308.585	2309
308.607	2441
308.639	2542
308.694	2231
308.697	2226
308.748	2635
308.787	3094
308.803	3222
308.857	2928
308.877	3233
308.912	4149
308.967	5013
308.967	5030
309.021	8530
309.058	11222
309.076	12780
309.130	18681
309.148	20046
309.185	27237
309.238	39427
309.239	39611
309.293	48444
309.328	50069
309.348	45456
309.402	27410
309.418	22605
309.457	18006
309.508	13384
309.511	13525
309.566	18754
309.598	22331
309.620	28206
309.674	45852
309.688	50404
309.729	47889
309.778	38079
309.783	36957
309.837	22386
309.868	15009
309.892	12900
309.946	9372
309.959	8690
310.001	7365
310.049	5919
310.055	5731
310.109	4417
310.139	3859
310.163	3673
310.218	3084
310.229	2973
310.272	3129
310.319	3277
310.326	3100
310.381	1810
310.409	1286
310.435	1437
310.489	1480
310.499	1500
310.543	1841
310.589	2047
310.598	1951
310.652	1626
310.679	1478
310.706	1844
310.760	2115
310.769	2172
310.814	2026
310.859	2099
310.868	2124
310.923	1984
310.948	1893
310.977	1947
311.031	2154
311.038	2165
311.085	1749
311.128	1318
311.139	1365
311.193	1739
311.218	1762
311.247	1701
311.301	1846
311.308	1832
311.356	1871
311.398	2006
311.410	1937
311.464	1487
311.488	1266
311.518	1583
311.572	2193
311.578	2255
311.626	1946
311.668	1589
311.680	1720
311.734	2283
311.758	2534
311.788	2115
311.842	1319
311.847	1230
311.896	1700
311.937	2087
311.950	2016
312.004	1685
312.027	1534
312.058	1299
312.112	862
312.117	818
312.165	1143
312.207	1420
312.297	1461
312.386	1478
312.476	1458
312.566	2085
312.656	2018
312.745	2138
312.835	2794
312.925	1717
313.015	2064
313.104	1293
313.194	2631
313.284	1810
313.374	2519
313.463	2051
313.553	3014
313.643	2401
313.732	3557
313.822	2604
313.912	3409
314.001	2720
314.091	3660
314.180	3042
314.270	3676
314.360	3082
314.449	3341
314.539	2018
314.628	2999
314.718	2708
314.808	3486
314.897	3615
314.987	4159
315.076	4193
315.166	5439
315.255	4064
315.345	3969
315.434	3862
315.524	3555
315.613	4998
315.703	6511
315.792	16828
315.881	45635
315.971	12969
316.060	6223
316.150	5221
316.239	4661
316.328	2886
316.418	3948
316.507	3188
316.597	4628
316.686	4867
316.775	4185
316.865	4546
316.954	3250
317.043	3263
317.133	3517
317.222	3121
317.311	3457
317.400	2127
317.490	5526
317.579	4527
317.668	4846
317.757	8747
317.847	26358
317.936	68708
318.025	20826
318.114	17790
318.203	7735
318.293	4423
318.382	7128
318.471	6461
318.560	5971
318.649	5917
318.738	3928
318.828	3018
318.917	2712
319.006	2296
319.095	1798
319.184	4155
319.273	3647
319.362	3172
319.451	2390
319.540	1846
319.629	2362
319.718	3031
319.807	3306
319.896	2974
319.985	5524
320.074	3244
320.163	2748
320.252	2329
320.341	3475
320.430	2564
320.519	3629
320.608	2533
320.697	4052
320.786	3947
320.875	5476
320.964	5400
321.053	5833
321.142	5175
321.230	7172
321.319	7832
321.408	9020
321.497	8073
321.586	7127
321.675	5411
321.764	5167
321.852	4960
321.941	5822
322.030	5082
322.119	5609
322.207	7863
322.296	9258
322.385	9526
322.474	12267
322.562	12318
322.651	8633
322.740	7364
322.829	6068
322.917	3582
323.006	4685
323.095	4297
323.183	4019
323.272	3633
323.361	3996
323.449	4751
323.538	3092
323.626	3559
323.715	3183
323.804	2321
323.892	3178
323.981	3303
324.069	3084
324.158	3453
324.246	3427
324.335	2859
324.424	3561
324.512	2856
324.601	3280
324.689	3093
324.778	2913
324.866	2605
324.954	2032
325.043	2169
325.131	2014
325.220	3630
325.308	3256
325.397	2530
325.485	2330
325.574	1869
325.662	2661
325.750	1053
325.839	3382
325.927	2318
326.015	2334
326.104	1959
326.192	3729
326.280	2465
326.369	2213
326.457	1785
326.545	2470
326.634	2206
326.722	2098
326.810	1637
326.898	2986
326.987	2362
327.075	2170
327.163	2482
327.251	2798
327.340	3078
327.428	4903
327.516	4671
327.604	2862
327.692	1989
327.781	2788
327.869	1831
327.957	2370
328.045	1169
328.133	2868
328.221	1181
328.309	3339
328.397	1894
328.485	3486
328.574	4639
328.662	5978
328.750	3245
328.838	2657
328.926	2010
329.014	2348
329.102	2050
329.190	2727
329.278	1708
329.366	2276
329.454	2105
329.542	1983
329.630	1780
329.718	2542
329.806	1913
329.893	3342
329.981	1187
330.069	2200
330.157	1981
330.245	3435
330.333	2252
330.421	2846
330.509	1422
330.597	2605
330.684	1973
330.772	2589
330.860	1034
330.948	2188
331.036	1255
331.123	2022
331.211	2742
331.299	2307
331.387	2138
331.475	3056
331.562	2332
331.650	2118
331.738	1910
331.825	2147
331.913	2189
332.001	2622
332.089	1721
332.176	2047
332.264	2610
332.352	2736
332.439	2069
332.527	2998
332.614	2137
332.702	2338
332.790	2521
332.877	3674
332.965	7712
333.052	6407
333.140	7912
333.228	18507
333.315	5092
333.403	3749
333.490	4133
333.578	8457
333.665	26540
333.753	10810
333.840	3251
333.928	4421
334.015	4118
334.103	5703
334.190	7574
334.278	9090
334.365	12196
334.452	13963
334.540	6559
334.627	7236
334.715	9369
334.802	13742
334.889	23158
334.977	33543
335.064	20234
335.151	9144
335.239	6893
335.326	5924
335.413	6466
335.501	7448
335.588	6149
335.675	6408
335.762	6964
335.850	10210
335.937	14356
336.024	26571
336.111	43711
336.199	40663
336.286	17675
336.373	9876
336.460	6179
336.547	4817
336.635	4344
336.722	4350
336.809	3482
336.896	3401
336.983	3938
337.070	5213
337.157	5364
337.245	4749
337.332	4444
337.419	3410
337.506	2871
337.593	3151
337.680	2912
337.767	4920
337.854	2574
337.941	3212
338.028	2629
338.115	1800
338.202	2746
338.289	3682
338.376	2692
338.463	3351
338.550	2740
338.637	3608
338.724	2503
338.811	2954
338.898	3048
338.984	2114
339.071	1609
339.158	3016
339.245	2293
339.332	3065
339.419	2600
339.506	2854
339.593	684
339.679	2718
339.766	1583
339.853	2671
339.940	1635
340.027	2369
340.113	1794
340.200	1496
340.287	2206
340.374	2602
340.460	1914
340.547	1205
340.634	2522
340.720	3489
340.807	1796
340.894	2642
340.980	2031
341.067	1925
341.154	3389
341.240	2181
341.327	1950
341.414	2960
341.500	1989
341.587	3253
341.674	2141
341.760	2500
341.847	2465
341.933	2423
342.020	1771
342.106	2824
342.193	2487
342.279	2305
342.366	1904
342.452	2602
342.539	1718
342.625	2184
342.712	2933
342.798	2549
342.885	2238
342.971	2296
343.058	1991
343.144	1363
343.230	2637
343.317	2482
343.403	2182
343.490	2590
343.576	1519
343.662	3048
343.749	992
343.835	2343
343.921	2967
344.008	7404
344.094	11752
344.180	4261
344.267	1430
344.353	3860
344.439	3575
344.525	2539
344.612	2437
344.698	1674
344.784	2164
344.870	3322
344.957	1766
345.043	3674
345.129	1327
345.215	2908
345.301	1841
345.387	2266
345.474	1493
345.560	1795
345.646	1642
345.732	3087
345.818	2125
345.904	2015
345.990	1791
346.076	2067
346.162	2220
346.249	3279
346.335	1798
346.421	2542
346.507	3039
346.593	4706
346.679	1527
346.765	4472
346.851	3616
346.937	3187
347.023	3411
347.108	2419
347.194	1855
347.280	2276
347.366	3111
347.452	9567
347.538	10560
347.624	7243
347.710	4088
347.796	2836
347.882	2102
347.967	2881
348.053	2345
348.139	2533
348.225	1777
348.311	2203
348.397	2344
348.482	3481
348.568	2101
348.654	4682
348.740	11942
348.825	11073
348.911	5545
348.997	3928
349.083	6792
349.168	2690
349.254	2618
349.340	3349
349.425	2744
349.511	2935
349.597	2695
349.682	2891
349.768	3909
349.854	3626
349.939	2637
350.025	2820
350.110	2736
350.196	3053
350.282	1951
350.367	3001
350.453	2230
350.538	2053
350.624	1609
350.709	2753
350.795	2069
350.880	2497
350.966	2797
351.051	3426
351.137	2548
351.222	2764
351.308	1868
351.393	3720
351.479	2088
351.564	2234
351.649	2178
351.735	2666
351.820	2752
351.906	2552
351.991	1252
352.076	2703
352.162	3837
352.247	2224
352.332	2033
352.418	2193
352.503	2316
352.588	5088
352.673	1992
352.759	2967
352.844	1488
352.929	2352
353.014	1437
353.100	3222
353.185	2824
353.270	2501
353.355	2258
353.441	2639
353.526	1940
353.611	1867
353.696	1902
353.781	3481
353.866	2074
353.952	3140
354.037	1497
354.122	3147
354.207	1972
354.292	2473
354.377	2718
354.462	2802
354.547	2007
354.632	2566
354.717	2402
354.802	2387
354.887	1578
354.972	1697
355.057	1948
355.142	2281
355.227	2212
355.312	2406
355.397	1485
355.482	3142
355.567	1123
355.652	4292
355.737	2707
355.822	4293
355.907	2440
355.991	3236
356.076	1452
356.161	2985
356.246	2775
356.331	3157
356.416	1994
356.501	8079
356.585	5332
356.670	2475
356.755	4258
356.840	3118
356.924	5723
357.009	13290
357.094	5893
357.179	3579
357.263	1982
357.348	3201
357.433	2567
357.517	3364
357.602	2765
357.687	2487
357.771	2798
357.856	3864
357.941	3713
358.025	5916
358.110	17005
358.195	8078
358.279	3213
358.364	3337
358.448	3883
358.533	6690
358.617	4143
358.702	4665
358.787	2218
358.871	3489
358.956	2691
359.040	3273
359.125	2512
359.209	3231
359.294	3128
359.378	4587
359.462	3986
359.547	3657
359.631	2258
359.716	1736
359.800	2396
359.885	3573
359.969	2049
360.053	2424
360.138	2243
360.222	2177
360.306	2429
360.391	2696
360.475	1938
360.559	3117
360.644	4090
360.728	1233
360.812	6458
360.896	9846
360.981	4107
361.065	2919
361.149	3315
361.233	2814
361.318	1789
361.402	3114
361.486	3995
361.570	3927
361.654	2971
361.739	3658
361.823	6375
361.907	11495
361.991	4832
362.075	5043
362.159	5175
362.243	12916
362.327	30209
362.411	48425
362.495	18758
362.580	8912
362.664	7453
362.748	7805
362.832	12864
362.916	27554
363.000	77499
363.084	108652
363.168	43660
363.252	14064
363.336	8737
363.420	6533
363.503	6191
363.587	6964
363.671	5442
363.755	4449
363.839	5836
363.923	5203
364.007	6612
364.091	9329
364.175	14256
364.258	37015
364.342	84308
364.426	152454
364.510	78466
364.594	25268
364.677	12248
364.761	11056
364.845	8898
364.929	5501
365.013	3782
365.096	4544
365.180	2763
365.264	5030
365.347	7067
365.431	4942
365.515	2119
365.598	1939
365.682	4364
365.766	2438
365.849	3399
365.933	2766
366.017	4915
366.100	2912
366.184	2751
366.267	4431
366.351	3581
366.435	3073
366.518	3448
366.602	3631
366.685	3088
366.769	3872
366.852	2936
366.936	3411
367.019	2368
367.103	2929
367.186	3847
367.270	3588
367.353	2857
367.436	4519
367.520	2964
367.603	4058
367.687	2088
367.770	2949
367.853	4259
367.937	5694
368.020	4477
368.104	2441
368.187	3287
368.270	3831
368.353	3025
368.437	3793
368.520	3779
368.603	2747
368.687	2635
368.770	4368
368.853	2726
368.936	3324
369.020	3494
369.103	2817
369.186	2058
369.269	2565
369.352	2900
369.436	2716
369.519	2513
369.602	2432
369.685	4213
369.768	2765
369.851	2828
369.934	3083
370.018	2697
370.101	1969
370.184	4890
370.267	4535
370.350	3532
370.433	4577
370.516	10732
370.599	25180
370.682	8495
370.765	7184
370.848	5676
370.931	5868
371.014	6478
371.097	3188
371.180	3297
371.263	4735
371.346	3234
371.429	5151
371.511	3725
371.594	3641
371.677	4836
371.760	6517
371.843	5490
371.926	11622
372.009	17439
372.091	14953
372.174	8217
372.257	11466
372.340	7941
372.423	8779
372.505	8432
372.588	5561
372.671	6184
372.754	6444
372.836	5990
372.919	6783
373.002	8003
373.085	5564
373.167	6538
373.250	6475
373.332	8112
373.415	12356
373.498	18873
373.580	16313
373.663	38221
373.746	33777
373.828	8120
373.911	6324
373.993	4369
374.076	6512
374.159	5170
374.241	4841
374.324	5682
374.406	6047
374.489	7689
374.571	13935
374.654	6835
374.736	6420
374.819	9841
374.901	15521
374.983	13167
375.066	7077
375.148	5112
375.231	5787
375.313	6986
375.395	5396
375.478	4881
375.560	5515
375.643	4967
375.725	6376
375.807	10744
375.890	10059
375.972	3434
376.054	3809
376.136	4120
376.219	4252
376.301	5516
376.383	7802
376.465	4558
376.548	3938
376.630	3774
376.712	7689
376.794	4091
376.877	3399
376.959	1645
377.041	3419
377.123	3335
377.205	3699
377.287	2706
377.369	3500
377.452	2527
377.534	3996
377.616	3149
377.698	2749
377.780	3330
377.862	3232
377.944	4097
378.026	2613
378.108	3303
378.190	3331
378.272	4128
378.354	3837
378.436	3470
378.518	2598
378.600	2979
378.682	5040
378.764	3942
378.846	3137
378.928	3170
379.010	2013
379.091	3871
379.173	3366
379.255	2074
379.337	3017
379.419	3211
379.501	5249
379.583	3228
379.664	3470
379.746	2532
379.828	5990
379.910	4093
379.991	5235
380.073	3145
380.155	4105
380.237	3713
380.318	3947
380.400	3336
380.482	4687
380.564	2884
380.645	4105
380.727	4106
380.809	5300
380.890	2872
380.972	2865
381.053	3507
381.135	4851
381.217	4285
381.298	7136
381.380	4627
381.461	5538
381.543	8037
381.624	9179
381.706	5557
381.787	5338
381.869	6285
381.951	7527
382.032	14732
382.113	13641
382.195	4813
382.276	9295
382.358	7861
382.439	11536
382.521	14375
382.602	19651
382.684	15973
382.765	29600
382.846	78571
382.928	160468
383.009	89518
383.090	79914
383.172	194510
383.253	218950
383.334	80651
383.416	37239
383.497	29545
383.578	34098
383.659	67888
383.741	177535
383.822	287336
383.903	153655
383.984	51658
384.066	30938
384.147	18492
384.228	15060
384.309	11336
384.390	11671
384.471	10695
384.553	9130
384.634	8690
384.715	10058
384.796	7912
384.877	9198
384.958	8818
385.039	7665
385.120	6933
385.201	8116
385.282	6839
385.363	9502
385.444	10237
385.525	9761
385.606	10634
385.687	10124
385.768	7663
385.849	7259
385.930	12407
386.011	15647
386.092	8276
386.173	7152
386.254	5937
386.335	7317
386.416	5473
386.496	6950
386.577	6672
386.658	5897
386.739	5368
386.820	6700
386.901	5691
386.981	7475
387.062	8844
387.143	8998
387.224	9105
387.304	10679
387.385	10610
387.466	8434
387.547	11064
387.627	10666
387.708	10743
387.789	12335
387.869	11171
387.950	9288
388.031	6618
388.111	5620
388.192	8197
388.273	9442
388.353	7339
388.434	5263
388.514	4168
388.595	8437
388.676	8302
388.756	5728
388.837	5290
388.917	4848
388.998	2424
389.078	5370
389.159	3908
389.239	3954
389.320	5889
389.400	3045
389.480	4681
389.561	5124
389.641	5733
389.722	4382
389.802	2569
389.883	5398
389.963	7605
390.043	4603
390.124	2893
390.204	5159
390.284	4672
390.365	3995
390.445	4563
390.525	5619
390.605	5657
390.686	3433
390.766	5008
390.846	5947
390.927	3846
391.007	3825
391.087	5251
391.167	4870
391.247	3039
391.328	5060
391.408	4440
391.488	4890
391.568	3895
391.648	4772
391.728	5451
391.808	7115
391.888	5375
391.969	6243
392.049	7259
392.129	8047
392.209	7990
392.289	10560
392.369	8954
392.449	9239
392.529	9227
392.609	12125
392.689	13569
392.769	15858
392.849	18234
392.929	24901
393.009	32856
393.089	48562
393.169	92564
393.248	223040
393.328	458251
393.408	421617
393.488	190875
393.568	79913
393.648	42919
393.728	26847
393.807	19718
393.887	17213
393.967	14103
394.047	11256
394.127	9343
394.206	9710
394.286	12609
394.366	37132
394.446	34990
394.525	10154
394.605	7503
394.685	6923
394.764	8476
394.844	14353
394.924	16493
395.003	7159
395.083	5817
395.163	5542
395.242	5247
395.322	5059
395.402	2896
395.481	7061
395.561	7087
395.640	21571
395.720	39012
395.799	19997
395.879	8466
395.958	7962
396.038	13847
396.117	48290
396.197	46964
396.276	16036
396.356	11501
396.435	15592
396.515	19430
396.594	33385
396.673	71746
396.753	209238
396.832	402954
396.912	272172
396.991	90136
397.070	39775
397.150	22046
397.229	21407
397.308	35680
397.388	59092
397.467	27191
397.546	11277
397.625	5499
397.705	8473
397.784	7004
397.863	6031
397.942	5544
398.022	5030
398.101	4893
398.180	6491
398.259	4116
398.338	5555
398.417	2918
398.497	3819
398.576	4627
398.655	2187
398.734	3696
398.813	3806
398.892	3526
398.971	4740
399.050	4145
399.129	2579
399.208	3002
399.287	3362
399.366	1651
399.445	3379
399.524	2821
399.603	1585
399.682	2775
399.761	3607
399.840	5194
399.919	5200
399.998	1600
400.077	2497
400.156	1163
400.235	5200
400.313	2568
400.392	956
400.471	3761
400.550	3494
400.629	1307
400.708	2803
400.786	1023
400.865	1948
400.944	130
401.023	3896
401.102	940
401.180	2156
401.259	1429
401.338	1955
401.416	1902
401.495	1591
401.574	3099
401.652	1720
401.731	2339
401.810	792
401.888	657
401.967	1511
402.046	1297
402.124	1798
402.203	191
402.281	2185
402.360	1551
402.438	3119
402.517	-207
402.596	2462
402.674	1333
402.753	1204
402.831	1832
402.910	3631
402.988	1233
403.066	4670
403.145	4044
403.223	3237
403.302	3756
403.380	4343
403.459	3292
403.537	2798
403.615	2871
403.694	1375
403.772	2165
403.850	1442
403.929	1114
404.007	1719
404.085	2035
404.164	1733
404.242	1384
404.320	3316
404.398	4780
404.477	3856
404.555	7924
404.633	7197
404.711	3463
404.789	2605
404.868	1019
404.946	777
405.024	1170
405.102	1890
405.180	97
405.258	727
405.336	1386
405.415	472
405.493	937
405.571	2180
405.649	771
405.727	893
405.805	2583
405.883	3194
405.961	1979
406.039	1122
406.117	-1
406.195	2545
406.273	1006
406.351	5788
406.429	3353
406.507	1902
406.585	1248
406.663	1217
406.740	705
406.818	534
406.896	772
406.974	2912
407.052	74
407.130	3868
407.208	3332
407.285	2667
407.363	971
407.441	1515
407.519	657
407.596	1604
407.674	1794
407.752	6220
407.830	4397
407.907	1983
407.985	226
408.063	1426
408.141	400
408.218	2625
408.296	252
408.373	1697
408.451	2253
408.529	1165
408.606	1415
408.684	2642
408.762	2104
408.839	2619
408.917	2316
408.994	2938
409.072	1437
409.149	4658
409.227	8044
409.304	12396
409.382	12133
409.459	14424
409.537	18619
409.614	15238
409.692	10990
409.769	11352
409.846	19295
409.924	22770
410.001	13618
410.079	9208
410.156	6612
410.233	5284
410.311	3780
410.388	3180
410.465	2983
410.543	3131
410.620	3778
410.697	4111
410.775	2690
410.852	2323
410.929	4436
411.006	5392
411.083	2457
411.161	3249
411.238	3483
411.315	2846
411.392	2356
411.469	3572
411.547	2307
411.624	61
411.701	1650
411.778	2686
411.855	1702
411.932	1729
412.009	1564
412.086	1989
412.163	2277
412.240	1530
412.317	2236
412.394	1413
412.471	2433
412.548	1950
412.625	1383
412.702	1745
412.779	2316
412.856	2454
412.933	1083
413.010	1976
413.087	1355
413.164	1942
413.241	2233
413.318	830
413.395	1660
413.471	1492
413.548	1399
413.625	2244
413.702	320
413.779	1656
413.855	1058
413.932	1235
414.009	-373
414.086	1065
414.162	757
414.239	1927
414.316	1200
414.393	3251
414.469	866
414.546	1252
414.623	1142
414.699	1081
414.776	1375
414.853	1342
414.929	643
415.006	984
415.082	786
415.159	1038
415.236	1359
415.312	1339
415.389	1292
415.465	962
415.542	800
415.618	98
415.695	1741
415.771	800
415.848	1000
415.924	1727
416.000	373
416.077	2429
416.153	493
416.230	107
416.306	935
416.383	1306
416.459	1055
416.535	943
416.612	296
416.688	2090
416.764	792
416.841	1536
416.917	291
416.993	2008
417.069	1114
417.146	1496
417.222	881
417.298	1279
417.374	29
417.451	1405
417.527	34
417.603	311
417.679	1117
417.755	1002
417.831	266
417.908	1993
417.984	1252
418.060	-66
418.136	1404
418.212	721
418.288	966
418.364	2410
418.440	145
418.516	1177
418.592	575
418.668	1983
418.744	434
418.820	1596
418.896	673
418.972	184
419.048	915
419.124	1953
419.200	85
419.276	1565
419.352	364
419.428	1163
419.504	751
419.579	1239
419.655	850
419.731	1799
419.807	1409
419.883	1730
419.959	1138
420.034	2455
420.110	1866
420.186	1960
420.262	2981
420.337	2345
420.413	1569
420.489	2724
420.565	3270
420.640	3099
420.716	2559
420.792	2651
420.867	3721
420.943	2945
421.019	3229
421.094	4191
421.170	4356
421.245	4182
421.321	5353
421.397	4923
421.472	6736
421.548	9029
421.623	8419
421.699	8909
421.774	9264
421.850	10265
421.925	12650
422.001	15560
422.076	19111
422.152	23898
422.227	30885
422.302	43983
422.378	63521
422.453	99030
422.529	147652
422.604	159529
422.679	128020
422.755	149695
422.830	142429
422.905	99094
422.981	67216
423.056	49630
423.131	36630
423.207	27559
423.282	21440
423.357	17984
423.432	14701
423.508	12541
423.583	10195
423.658	9943
423.733	8500
423.808	8075
423.883	8695
423.959	9203
424.034	10577
424.109	10368
424.184	6139
424.259	5205
424.334	4100
424.409	4216
424.484	3536
424.559	3165
424.634	2929
424.709	3598
424.784	2900
424.859	2330
424.934	2392
425.009	3611
425.084	2840
425.159	2656
425.234	2489
425.309	1655
425.384	1805
425.459	1785
425.534	2170
425.609	1166
425.683	1612
425.758	1614
425.833	1330
425.908	2391
425.983	1352
426.058	3850
426.132	2681
426.207	1868
426.282	1925
426.357	473
426.431	2011
426.506	1678
426.581	920
426.655	2110
426.730	1168
426.805	1097
426.879	1432
426.954	1884
427.029	1161
427.103	2979
427.178	3471
427.253	2002
427.327	829
427.402	1005
427.476	836
427.551	1376
427.625	1196
427.700	1989
427.774	-250
427.849	1775
427.923	745
427.998	1669
428.072	845
428.147	6322
428.221	24739
428.296	67134
428.370	32900
428.444	6076
428.519	2254
428.593	2293
428.667	2016
428.742	3660
428.816	9205
428.890	43526
428.965	57288
429.039	14529
429.113	2310
429.188	1732
429.262	931
429.336	2514
429.410	1544
429.485	2364
429.559	1032
429.633	1762
429.707	2716
429.781	8566
429.855	40374
429.930	52026
430.004	13700
430.078	9026
430.152	29322
430.226	92194
430.300	79842
430.374	18081
430.448	5722
430.522	3919
430.596	4322
430.670	14245
430.744	53262
430.818	51227
430.892	9496
430.966	2747
431.040	2326
431.114	858
431.188	190
431.262	1071
431.336	72
431.410	701
431.484	730
431.557	2435
431.631	1142
431.705	3863
431.779	19840
431.853	64963
431.927	37380
432.000	6474
432.074	1156
432.148	1182
432.222	423
432.295	54
432.369	-177
432.443	1044
432.516	1701
432.590	3870
432.664	1141
432.737	379
432.811	-31
432.885	436
432.958	434
433.032	248
433.106	23
433.179	-22
433.253	-371
433.326	474
433.400	11
433.473	270
433.547	-423
433.620	533
433.694	175
433.767	1771
433.841	-245
433.914	179
433.988	-81
434.061	584
434.134	1
434.208	524
434.281	-23
434.355	675
434.428	33
434.501	412
434.575	-969
434.648	654
434.721	53
434.795	431
434.868	-411
434.941	36
435.014	259
435.088	886
435.161	1543
435.234	2243
435.307	2145
435.381	3133
435.454	5018
435.527	9825
435.600	9316
435.673	7142
435.746	3752
435.819	3534
435.892	1725
435.966	1709
436.039	139
436.112	1638
436.185	566
436.258	662
436.331	-277
436.404	881
436.477	-149
436.550	398
436.623	842
436.696	254
436.769	309
436.842	-133
436.915	-195
436.987	463
437.060	419
437.133	363
437.206	-761
437.279	1115
437.352	-383
437.425	-47
437.498	39
437.570	680
437.643	3
437.716	332
437.789	-421
437.861	466
437.934	-267
438.007	-252
438.080	-1273
438.152	488
438.225	23
438.298	2376
438.370	4669
438.443	2358
438.516	255
438.588	-15
438.661	-904
438.734	481
438.806	-524
438.879	645
438.951	-274
439.024	-307
439.096	-62
439.169	424
439.241	320
439.314	306
439.386	77
439.459	52
439.531	-827
439.604	-506
439.676	141
439.749	664
439.821	-339
439.893	448
439.966	-659
440.038	-134
440.110	-429
440.183	201
440.255	-630
440.327	1123
440.400	819
440.472	2908
440.544	941
440.617	132
440.689	417
440.761	579
440.833	-187
440.905	-31
440.978	-159
441.050	219
441.122	713
441.194	-314
441.266	-381
441.338	574
441.411	259
441.483	1122
441.555	449
441.627	696
441.699	409
441.771	-209
441.843	-626
441.915	909
441.987	668
442.059	695
442.131	1014
442.203	818
442.275	1573
442.347	3849
442.419	11827
442.491	54977
442.563	95516
442.635	33759
442.706	6526
442.778	3330
442.850	1948
442.922	1746
442.994	1421
443.066	2488
443.137	2915
443.209	3470
443.281	7553
443.353	17183
443.425	60696
443.496	151769
443.568	144633
443.640	55184
443.711	12425
443.783	5855
443.855	3118
443.926	2622
443.998	1985
444.070	1831
444.141	1161
444.213	1231
444.285	1345
444.356	1145
444.428	297
444.499	397
444.571	615
444.642	1415
444.714	947
444.785	1734
444.857	1047
444.928	1599
445.000	2592
445.071	2549
445.143	3902
445.214	6779
445.285	11764
445.357	34221
445.428	107352
445.500	168326
445.571	134712
445.642	83074
445.714	26931
445.785	9437
445.856	3498
445.928	2489
445.999	1884
446.070	1759
446.141	658
446.213	321
446.284	194
446.355	668
446.426	680
446.497	755
446.569	-308
446.640	701
446.711	-83
446.782	-64
446.853	-363
446.924	566
446.995	-183
447.066	55
447.138	-23
447.209	25
447.280	-535
447.351	-210
447.422	-1070
447.493	-253
447.564	-921
447.635	-676
447.706	-929
447.777	812
447.847	-1397
447.918	-727
447.989	-697
448.060	108
448.131	-342
448.202	112
448.273	-1026
448.344	179
448.414	-902
448.485	-482
448.556	-181
448.627	-135
448.698	271
448.768	-823
448.839	-552
448.910	-534
448.981	-333
449.051	-101
449.122	-1169
449.193	-187
449.263	-526
449.334	-652
449.405	-827
449.475	-227
449.546	-407
449.616	194
449.687	367
449.758	258
449.828	-914
449.899	-326
449.969	-996
450.040	-263
450.110	-970
450.181	16
450.251	-1047
450.322	-691
450.392	-309
450.463	-36
450.533	-1134
450.604	-576
450.674	-751
450.744	283
450.815	-1091
450.885	896
450.955	682
451.026	-192
451.096	-309
451.166	376
451.237	390
451.307	1010
451.377	-108
451.447	-448
451.518	-120
451.588	-122
451.658	26
451.728	-931
451.799	-498
451.869	86
451.939	-1387
452.009	-236
452.079	-513
452.149	-6
452.219	-1031
452.289	446
452.360	-627
452.430	-168
452.500	473
452.570	2150
452.640	6051
452.710	17069
452.780	14728
452.850	5612
452.920	1446
452.990	915
453.060	294
453.129	-517
453.199	-1302
453.269	486
453.339	535
453.409	593
453.479	766
453.549	1001
453.619	451
453.688	-678
453.758	-1151
453.828	-226
453.898	-407
453.968	-162
454.037	-125
454.087	51
454.107	120
454.168	-860
454.177	-1012
454.247	-381
454.249	-376
454.316	-477
454.330	-394
454.386	-82
454.411	-740
454.456	-1950
454.492	-1214
454.525	-546
454.574	-378
454.595	-321
454.655	-208
454.665	-192
454.734	-493
454.736	-481
454.804	-329
454.817	-335
454.873	-409
454.898	-109
454.943	406
454.979	-294
455.013	-923
455.060	-732
455.082	-681
455.141	-680
455.152	-689
455.221	198
455.222	199
455.291	-319
455.303	-129
455.360	645
455.384	518
455.430	254
455.465	142
455.499	-10
455.546	-474
455.569	-683
455.627	-256
455.638	-204
455.707	-663
455.708	-652
455.777	193
455.789	90
455.846	-523
455.869	-488
455.916	-465
455.950	-618
455.985	-747
456.031	-347
456.054	-132
456.112	-819
456.124	-978
456.193	701
456.193	696
456.262	-131
456.274	-4
456.332	642
456.355	186
456.401	-815
456.436	-494
456.470	-105
456.516	-255
456.540	-393
456.597	169
456.609	313
456.678	55
456.678	43
456.747	-143
456.759	-198
456.817	-347
456.840	-113
456.886	281
456.920	331
456.955	398
457.001	414
457.024	362
457.082	658
457.093	780
457.162	965
457.163	976
457.232	-324
457.243	-287
457.301	251
457.324	226
457.370	134
457.405	487
457.439	916
457.485	919
457.508	830
457.566	1353
457.577	1523
457.646	2010
457.647	2035
457.715	6989
457.727	8182
457.784	15601
457.808	21847
457.853	29864
457.889	33168
457.922	31511
457.969	18699
457.991	18093
458.050	24266
458.060	25260
458.129	48861
458.130	49355
458.198	46760
458.211	41173
458.267	17982
458.292	11536
458.336	7454
458.372	7280
458.405	11266
458.453	18698
458.474	24156
458.533	46004
458.543	47733
458.611	77448
458.614	77492
458.680	41297
458.694	31599
458.749	11344
458.775	7549
458.818	4783
458.855	3835
458.887	3097
458.936	2237
458.955	1935
459.016	1541
459.024	1573
459.093	1998
459.097	1984
459.162	865
459.177	831
459.230	1361
459.257	1585
459.299	1529
459.338	1473
459.368	1379
459.418	980
459.437	900
459.499	1483
459.505	1540
459.574	1111
459.579	1108
459.643	1148
459.659	1148
459.711	1201
459.740	1220
459.780	893
459.820	675
459.849	650
459.900	856
459.917	1001
459.981	1120
459.986	1110
460.054	1296
460.061	1305
460.123	1101
460.141	1046
460.191	1188
460.222	999
460.260	492
460.302	666
460.328	1016
460.382	1101
460.397	970
460.462	1031
460.465	1070
460.534	1504
460.543	1578
460.602	4068
460.623	5143
460.671	7024
460.703	8925
460.739	8691
460.783	6399
460.808	5037
460.864	1801
460.876	1517
460.944	881
460.945	878
461.013	1277
461.024	1245
461.081	1100
461.104	1375
461.150	1615
461.184	1369
461.218	1188
461.264	1436
461.286	1539
461.345	1315
461.355	1262
461.423	1079
461.425	1069
461.491	891
461.505	1026
461.559	1225
461.585	824
461.628	759
461.665	1282
461.696	1427
461.745	1247
461.764	1174
461.825	1436
461.832	1498
461.901	1448
461.905	1470
461.969	1155
461.985	1097
462.037	2147
462.065	2601
462.105	1827
462.145	1236
462.173	1448
462.225	1676
462.241	1624
462.305	1378
462.310	1357
462.378	1491
462.385	1427
462.446	1519
462.465	1684
462.514	1686
462.545	1594
462.582	1695
462.625	1938
462.650	1904
462.705	1613
462.718	1518
462.785	1302
462.786	1305
462.854	1168
462.865	1156
462.922	1422
462.945	1459
462.990	1279
463.025	1307
463.058	1519
463.104	1712
463.126	1644
463.184	1696
463.194	1751
463.262	1641
463.264	1650
463.330	1580
463.344	1495
463.398	2016
463.424	2360
463.466	2058
463.504	1731
463.533	1829
463.583	1990
463.601	2031
463.663	2019
463.669	1939
463.737	1297
463.743	1212
463.805	1669
463.823	1872
463.873	2426
463.903	2640
463.940	2228
463.982	1838
464.008	2059
464.062	2430
464.076	2258
464.142	1586
464.144	1591
464.211	1513
464.221	1508
464.279	1555
464.301	1517
464.347	1647
464.381	1923
464.414	1796
464.461	1362
464.482	1475
464.540	1928
464.550	1858
464.617	1069
464.620	1057
464.685	1936
464.699	2008
464.753	2001
464.779	2098
464.820	1833
464.859	1519
464.888	1483
464.938	1484
464.956	1751
465.018	2557
465.023	2475
465.091	1568
465.098	1450
465.158	2087
465.177	2330
465.226	2110
465.257	1892
465.293	1952
465.336	1997
465.361	1938
465.416	1865
465.428	1749
465.495	1154
465.496	1159
465.563	1402
465.575	1488
465.631	2190
465.654	2402
465.698	2210
465.734	2080
465.765	2104
465.813	2099
465.833	1969
465.893	1684
465.900	1750
465.968	2200
465.972	2227
466.035	2399
466.052	2430
466.102	2094
466.131	1902
466.170	2013
466.210	2081
466.237	2095
466.290	2253
466.304	2166
466.369	1470
466.372	1482
466.439	1927
466.449	1972
466.506	3022
466.528	3412
466.573	2999
466.607	2664
466.641	2709
466.687	2848
466.708	2858
466.766	2748
466.775	2662
466.842	2026
466.845	1992
466.909	2347
466.925	2424
466.977	2167
467.004	2035
467.044	2353
467.083	2660
467.111	2829
467.163	3114
467.178	3112
467.242	3098
467.245	3108
467.312	3221
467.321	3232
467.379	2762
467.400	2583
467.446	3164
467.480	3578
467.559	3365
467.638	2770
467.717	2891
467.796	3142
467.875	3421
467.955	2679
468.034	3794
468.113	4732
468.192	5362
468.271	5805
468.350	9054
468.429	14866
468.508	15744
468.588	10144
468.667	5606
468.746	4381
468.825	3557
468.904	2501
468.983	3362
469.062	2821
469.141	3236
469.220	2637
469.299	3850
469.378	1344
469.456	3085
469.535	2720
469.614	2227
469.693	2541
469.772	3740
469.851	3504
469.930	3259
470.009	3692
470.088	4916
470.166	7341
470.245	14593
470.324	19949
470.403	10734
470.482	5988
470.560	3929
470.639	3084
470.718	3407
470.797	3483
470.875	3381
470.954	2096
471.033	3199
471.111	2995
471.190	1868
471.269	2897
471.347	2351
471.426	3011
471.505	2690
471.583	3524
471.662	3600
471.740	3427
471.819	2704
471.898	2591
471.976	2917
472.055	2818
472.133	2927
472.212	2602
472.290	3166
472.369	2463
472.447	3041
472.526	2543
472.604	3897
472.683	3400
472.761	3362
472.839	3199
472.918	2422
472.996	2761
473.075	3624
473.153	4278
473.231	3855
473.310	3284
473.388	3271
473.466	3220
473.545	3510
473.623	3920
473.701	2762
473.780	4167
473.858	868
473.936	4772
474.014	3460
474.093	3789
474.171	3119
474.249	3654
474.327	3816
474.405	2970
474.484	3497
474.562	2011
474.640	2084
474.718	3462
474.796	3373
474.874	3719
474.952	3078
475.030	3275
475.108	3141
475.187	3004
475.265	4222
475.343	3718
475.421	3992
475.499	3460
475.577	3180
475.655	3841
475.733	2867
475.811	3148
475.889	2607
475.966	3287
476.044	2465
476.122	2654
476.200	3183
476.278	2290
476.356	3014
476.434	3052
476.512	2818
476.590	3326
476.667	3182
476.745	3199
476.823	3020
476.901	1955
476.979	3107
477.056	3196
477.134	2716
477.212	3335
477.290	3002
477.367	2820
477.445	2617
477.523	3077
477.601	2456
477.678	3265
477.756	3365
477.834	3314
477.911	3544
477.989	2984
478.066	2672
478.144	2214
478.222	2902
478.299	3063
478.377	3796
478.454	3338
478.532	2768
478.609	2896
478.687	2894
478.764	1615
478.842	3087
478.919	2421
478.997	3700
479.074	2615
479.152	3246
479.229	3244
479.307	2898
479.384	2941
479.461	3396
479.539	2529
479.616	2693
479.694	2950
479.771	2858
479.848	2103
479.926	1732
480.003	3320
480.080	3568
480.157	2885
480.235	3149
480.312	2951
480.389	3026
480.467	2430
480.544	3121
480.621	4252
480.698	3669
480.775	3753
480.853	3637
480.930	1993
481.007	3065
481.084	2778
481.161	3370
481.238	4370
481.315	3052
481.392	3383
481.470	3513
481.547	3871
481.624	2738
481.701	3565
481.778	3161
481.855	4006
481.932	4465
482.009	3888
482.086	4065
482.163	5066
482.240	6352
482.317	6559
482.393	5491
482.470	5107
482.547	4547
482.624	3625
482.701	4632
482.778	4466
482.855	3415
482.932	3746
483.009	3702
483.085	5482
483.162	5345
483.239	6616
483.316	5393
483.393	6417
483.469	5648
483.546	4407
483.623	4798
483.699	3718
483.776	2957
483.853	3364
483.930	3762
484.006	3539
484.083	4789
484.160	4472
484.236	3964
484.313	3529
484.389	4179
484.466	5718
484.543	5594
484.619	7891
484.696	9858
484.772	6630
484.849	4639
484.925	4339
485.002	4209
485.078	4197
485.155	3454
485.231	2911
485.308	3445
485.384	3665
485.461	3550
485.537	3233
485.614	5344
485.690	3883
485.766	3261
485.843	3365
485.919	3425
485.995	3469
486.072	3379
486.148	3017
486.224	2623
486.301	2927
486.377	2880
486.453	2021
486.530	4148
486.606	3510
486.682	4379
486.758	4727
486.835	4221
486.911	2559
486.987	4884
487.063	5138
487.139	4843
487.215	5621
487.292	7287
487.368	8218
487.444	9104
487.520	14158
487.596	19150
487.672	48951
487.748	169558
487.824	268593
487.900	93628
487.976	22461
488.052	9397
488.128	7879
488.204	6005
488.280	5947
488.356	4896
488.432	4636
488.508	5335
488.584	4439
488.660	4753
488.736	2804
488.812	3192
488.888	4760
488.964	3765
489.039	4488
489.115	5079
489.191	4462
489.267	4334
489.343	3146
489.418	3614
489.494	3640
489.570	2427
489.646	4676
489.722	4512
489.797	2740
489.873	3796
489.949	4239
490.024	4213
490.100	2924
490.176	3994
490.251	3846
490.327	4879
490.403	3286
490.478	4549
490.554	4388
490.629	3207
490.705	4015
490.781	3587
490.856	3364
490.932	4262
491.007	3322
491.083	2956
491.158	2679
491.234	4033
491.309	4671
491.385	3144
491.460	2856
491.536	3066
491.611	3916
491.686	4005
491.762	3545
491.837	4017
491.913	4216
491.988	4691
492.063	5069
492.139	3689
492.214	3848
492.289	3701
492.365	3673
492.440	3987
492.515	3322
492.590	3725
492.666	2806
492.741	3992
492.816	3980
492.891	3691
492.967	4314
493.042	3803
493.117	2956
493.192	4675
493.267	4501
493.342	4663
493.418	5912
493.493	4105
493.568	4282
493.643	4036
493.718	4377
493.793	3659
493.868	2936
493.943	4334
494.018	3623
494.093	3673
494.168	3516
494.243	3036
494.318	4002
494.393	5070
494.468	4080
494.543	4289
494.618	4405
494.693	3747
494.768	4958
494.842	4441
494.917	3955
494.992	4179
495.067	3518
495.142	3824
495.217	4558
495.292	4250
495.366	3935
495.441	3557
495.516	4673
495.591	4715
495.665	5665
495.740	7425
495.815	4979
495.890	4509
495.964	1666
496.039	6614
496.114	4347
496.188	5343
496.263	5766
496.338	4737
496.412	3664
496.487	4728
496.561	5119
496.636	5025
496.710	3906
496.785	4615
496.860	4552
496.934	4510
497.009	5116
497.083	3917
497.158	4920
497.232	4360
497.307	5385
497.381	5658
497.455	5923
497.530	5164
497.604	4994
497.679	4673
497.753	5199
497.827	3801
497.902	3787
497.976	5046
498.050	5492
498.125	9370
498.199	11117
498.273	5991
498.348	5429
498.422	5888
498.496	6350
498.570	8000
498.645	5484
498.719	2743
498.793	4793
498.867	3550
498.941	3879
499.016	6096
499.090	7500
499.164	7135
499.238	5091
499.312	4702
499.386	5592
499.460	6059
499.534	7155
499.609	8871
499.683	5978
499.757	4723
499.831	4044
499.905	5569
499.979	6858
500.053	4101
500.127	4416
500.201	4259
500.275	5183
500.349	5185
500.422	5220
500.496	7044
500.570	7605
500.644	11987
500.718	11691
500.792	5622
500.866	3694
500.940	2614
501.013	2522
501.087	2690
501.161	2794
501.235	1931
501.309	4974
501.382	5818
501.456	6122
501.530	4059
501.603	2904
501.677	2523
501.751	2438
501.825	4105
501.898	3545
501.972	3837
502.046	3584
502.119	2461
502.193	3817
502.266	2859
502.340	4006
502.413	2567
502.487	3860
502.561	2763
502.634	2845
502.708	3280
502.781	2489
502.855	4059
502.928	1695
503.002	3076
503.075	1744
503.149	3047
503.222	3681
503.295	2369
503.369	3078
503.442	3201
503.516	4861
503.589	5417
503.662	5548
503.736	6714
503.809	8633
503.882	9653
503.956	14880
504.029	31378
504.102	99108
504.175	163605
504.249	65029
504.322	19430
504.395	10017
504.468	6576
504.542	4722
504.615	2937
504.688	3836
504.761	1520
504.834	4626
504.907	3233
504.980	3372
505.053	2392
505.127	-5
505.200	5691
505.273	2662
505.346	1613
505.419	1205
505.492	3105
505.565	1755
505.638	1971
505.711	1484
505.784	1865
505.857	2748
505.930	3758
506.003	437
506.076	4899
506.149	1887
506.221	-132
506.294	3629
506.367	834
506.440	3220
506.513	3887
506.586	2733
506.659	1668
506.731	2219
506.804	1923
506.877	1393
506.950	2450
507.022	2751
507.095	1219
507.168	2329
507.241	3576
507.313	2072
507.386	1100
507.459	3144
507.531	2300
507.604	1417
507.677	3561
507.749	1010
507.822	2983
507.894	1373
507.967	2479
508.040	1517
508.112	2682
508.185	2404
508.257	1234
508.330	2965
508.402	1634
508.475	2182
508.547	2385
508.620	1767
508.692	2068
508.765	2752
508.837	2263
508.909	2990
508.982	2469
509.054	2579
509.127	2420
509.199	1764
509.271	1387
509.344	2085
509.416	2002
509.488	1909
509.560	1511
509.633	2121
509.705	2129
509.777	1996
509.849	2039
509.922	1380
509.994	1580
510.066	3653
510.138	-36
510.210	3720
510.283	2384
510.355	2504
510.427	2186
510.499	3209
510.571	1933
510.643	1213
510.715	3958
510.787	752
510.859	3960
510.931	1784
511.003	2776
511.076	3175
511.148	1552
511.219	1298
511.291	3598
511.363	2636
511.435	2862
511.507	1664
511.579	2788
511.651	2699
511.723	2334
511.795	2061
511.867	1481
511.939	2763
512.010	1190
512.082	2264
512.154	1111
512.226	2774
512.298	2687
512.369	2324
512.441	3107
512.513	2267
512.585	1408
512.656	2942
512.728	2020
512.800	1949
512.871	3429
512.943	2727
513.015	1696
513.086	2901
513.158	2506
513.230	922
513.301	2738
513.373	2382
513.444	1422
513.516	2172
513.588	2151
513.659	2564
513.731	2578
513.802	1857
513.874	4041
513.945	3132
514.016	1679
514.088	3053
514.159	658
514.231	2882
514.302	2367
514.374	3402
514.445	859
514.516	4596
514.588	1517
514.659	1997
514.730	1363
514.802	2751
514.873	347
514.944	4649
515.016	2794
515.087	2683
515.158	1753
515.229	3567
515.301	624
515.372	3567
515.443	2135
515.514	2471
515.585	2302
515.656	4025
515.728	4010
515.799	2554
515.870	3376
515.941	4611
516.012	3361
516.083	4996
516.154	4409
516.225	6485
516.296	8977
516.367	9247
516.438	11248
516.509	14165
516.580	22259
516.651	87147
516.722	314818
516.793	149740
516.864	23123
516.935	20225
517.006	24842
517.077	31750
517.148	70185
517.219	345355
517.289	557599
517.360	100883
517.431	22201
517.502	11016
517.573	10271
517.643	9103
517.714	8564
517.785	10573
517.856	11929
517.926	16009
517.997	20461
518.068	27273
518.138	38440
518.209	58512
518.280	223597
518.350	758226
518.421	347996
518.492	56010
518.562	30092
518.633	27082
518.703	31808
518.774	70756
518.845	200305
518.915	217811
518.986	60828
519.056	22330
519.127	14270
519.197	10955
519.268	7806
519.338	8349
519.408	5804
519.479	4960
519.549	3374
519.620	6025
519.690	3297
519.760	3428
519.831	3538
519.901	3215
519.971	3984
520.042	3098
520.112	2310
520.182	4517
520.253	3106
520.323	2961
520.393	2709
520.463	4492
520.534	240
520.604	4966
520.674	3821
520.744	1870
520.814	2302
520.885	3810
520.955	1785
521.025	2903
521.095	2169
521.165	3498
521.235	2139
521.305	1457
521.375	3419
521.445	2579
521.515	2246
521.585	4039
521.655	507
521.725	2940
521.795	3478
521.865	10
521.935	4888
522.005	1919
522.075	3063
522.145	3890
522.215	1509
522.285	3213
522.355	3030
522.424	3880
522.494	1423
522.564	3456
522.634	2257
522.704	4902
522.774	2690
522.843	3219
522.913	2347
522.983	3321
523.053	2201
523.122	3743
523.192	2550
523.262	2719
523.331	2945
523.401	3648
523.471	2744
523.540	3506
523.610	2731
523.680	3637
523.749	3964
523.819	3085
523.888	2780
523.958	2458
524.027	3390
524.097	3643
524.166	2841
524.236	2308
524.305	4780
524.375	2135
524.444	2287
524.514	5272
524.583	1452
524.653	1771
524.722	4251
524.791	2773
524.861	4400
524.930	2467
524.999	2775
525.069	4610
525.138	3573
525.207	3600
525.277	4780
525.346	3599
525.415	5747
525.484	5633
525.554	5029
525.623	7096
525.692	8599
525.761	11113
525.830	15965
525.900	19553
525.969	31775
526.038	61553
526.107	119065
526.176	371975
526.245	329573
526.314	90004
526.383	170727
526.452	261443
526.522	336620
526.591	354603
526.660	61106
526.729	31976
526.797	34324
526.867	42643
526.935	121929
527.004	502970
527.073	370388
527.142	52362
527.211	18746
527.280	11921
527.349	8975
527.418	5667
527.487	6594
527.555	4399
527.624	4948
527.693	3035
527.762	5916
527.831	2760
527.899	4690
527.968	3843
528.037	2692
528.106	3489
528.174	4465
528.243	4525
528.312	4081
528.380	2884
528.449	2017
528.518	4309
528.586	2323
528.655	5032
528.723	3272
528.792	3392
528.861	2791
528.929	2006
528.998	4353
529.066	3775
529.135	3295
529.203	2512
529.272	2181
529.340	4473
529.409	4887
529.477	3178
529.545	3184
529.614	6180
529.682	1434
529.751	3988
529.819	7484
529.887	4222
529.956	3550
530.024	5599
530.092	3485
530.161	4816
530.229	3647
530.297	4274
530.365	5781
530.434	5041
530.502	3383
530.570	5309
530.638	2971
530.707	4608
530.775	6670
530.843	3339
530.911	4401
530.979	4966
531.047	4583
531.115	5290
531.183	5530
531.252	4501
531.320	4676
531.388	3129
531.456	5502
531.524	3524
531.592	6479
531.660	6639
531.728	3596
531.796	3916
531.864	5681
531.932	4279
532.000	3655
532.067	4683
532.135	5942
532.203	5736
532.271	4619
532.339	7183
532.407	6227
532.475	6861
532.542	6206
532.610	5616
532.678	5308
532.746	7017
532.814	10878
532.881	7648
532.949	6569
533.017	6345
533.084	5800
533.152	6832
533.220	5884
533.287	3618
533.355	5684
533.423	7204
533.490	5361
533.558	6533
533.625	6181
533.693	5104
533.761	6160
533.828	5774
533.896	4949
533.963	7203
534.031	7763
534.098	9032
534.166	10171
534.233	8394
534.300	11192
534.368	10583
534.435	10594
534.503	11850
534.570	12940
534.637	14170
534.705	17201
534.772	19773
534.840	32490
534.907	153885
534.974	231961
535.041	35276
535.109	14391
535.176	10982
535.243	10963
535.310	10110
535.378	8061
535.445	9378
535.512	9333
535.579	10496
535.646	8684
535.714	9320
535.781	10882
535.848	10327
535.915	10078
535.982	9153
536.049	8903
536.116	11123
536.183	9003
536.250	8418
536.317	8960
536.384	9927
536.451	10496
536.518	11585
536.585	8562
536.652	10766
536.719	10917
536.786	8122
536.853	9181
536.920	10828
536.987	9053
537.053	9072
537.120	11428
537.187	13084
537.254	10768
537.321	10200
537.388	11968
537.454	9192
537.521	9242
537.588	10422
537.654	11062
537.721	10850
537.788	12241
537.855	10991
537.921	11326
537.988	10234
538.055	10553
538.121	8761
538.188	9354
538.254	9015
538.321	10299
538.388	10446
538.454	12185
538.521	12462
538.587	12202
538.654	11114
538.720	10186
538.787	11919
538.853	11636
538.920	11079
538.986	9870
539.053	9905
539.119	10112
539.185	9655
539.252	11855
539.318	11226
539.385	13286
539.451	10814
539.517	12114
539.583	11432
539.650	10262
539.716	11387
539.782	10232
539.849	10009
539.915	11290
539.981	11202
540.047	10640
540.114	9972
540.180	11846
540.246	11026
540.312	12408
540.378	11956
540.444	12027
540.510	11564
540.576	13457
540.643	11346
540.709	9050
540.775	10847
540.841	11839
540.907	10740
540.973	10956
541.039	11793
541.105	11434
541.171	11954
541.237	12370
541.303	12266
541.369	13717
541.435	12413
541.500	11459
541.566	10103
541.632	10500
541.698	10249
541.764	12366
541.830	10871
541.896	10683
541.961	12843
542.027	10631
542.093	12106
542.159	13442
542.224	10669
542.290	12719
542.356	10743
542.421	11707
542.487	11135
542.553	9900
542.618	12031
542.684	10355
542.750	10745
542.815	11771
542.881	10220
542.947	12791
543.012	13417
543.078	11353
543.143	10045
543.209	11735
543.274	9634
543.340	10180
543.405	11302
543.471	11906
543.536	12510
543.602	11739
543.667	10225
543.732	13043
543.798	10942
543.863	12874
543.928	11225
543.994	11851
544.059	12943
544.124	12372
544.190	12810
544.255	12492
544.320	13370
544.386	12328
544.451	13289
544.516	12849
544.581	12329
544.646	13552
544.712	14212
544.777	14257
544.842	12832
544.907	13272
544.972	13599
545.037	14855
545.102	14782
545.168	14263
545.233	14768
545.298	16037
545.363	14067
545.428	16007
545.493	16772
545.558	16423
545.623	16620
545.688	16235
545.753	16469
545.818	17722
545.883	18532
545.947	19169
546.012	19506
546.077	19675
546.142	21724
546.207	20760
546.272	23367
546.337	22708
546.401	25289
546.466	26619
546.531	25695
546.596	28980
546.661	29846
546.725	32033
546.790	32193
546.855	37641
546.919	39126
546.984	45228
547.049	47806
547.113	54147
547.178	60093
547.243	68348
547.307	79092
547.372	88618
547.436	90059
547.501	92785
547.565	101032
547.630	93558
547.695	88943
547.759	89300
547.823	90286
547.888	91208
547.952	94840
548.017	96563
548.081	99520
548.146	97882
548.210	102294
548.274	109763
548.339	110278
548.403	100583
548.468	93788
548.532	92115
548.596	93950
548.660	93392
548.725	100938
548.789	110881
548.853	108712
548.917	103691
548.982	100733
549.046	91985
549.110	84867
549.174	85078
549.238	96955
549.303	109159
549.367	112409
549.431	107767
549.495	99867
549.559	99562
549.623	113806
549.687	126935
549.751	122011
549.815	142453
549.879	148294
549.943	142527
550.007	146826
550.071	149076
550.135	134256
550.199	127175
550.263	125983
550.327	117765
550.391	120135
550.455	131583
550.519	139559
550.582	147069
550.646	165923
550.710	170844
550.774	166016
550.838	169030
550.901	172203
550.965	179603
551.029	186602
551.093	197996
551.156	210124
551.220	232139
551.284	260958
551.347	214158
551.411	180778
551.475	171890
551.538	179696
551.602	172663
551.666	160016
551.729	153561
551.793	149201
551.856	147098
551.920	144477
551.983	145826
552.047	142275
552.110	143987
552.174	143320
552.237	150135
552.301	142122
552.364	134645
552.428	131031
552.491	134175
552.554	138734
552.618	137959
552.681	141383
552.745	138088
552.808	155120
552.871	177098
552.934	153449
552.998	140227
553.061	135403
553.124	130951
553.187	129149
553.251	131818
553.314	132387
553.377	133835
553.440	139440
553.503	144874
553.567	144189
553.630	144296
553.693	144148
553.756	144525
553.819	142347
553.882	137641
553.945	137586
554.008	137630
554.071	139233
554.134	141464
554.197	134046
554.260	130295
554.323	131256
554.386	130887
554.449	137682
554.512	141010
554.575	131499
554.638	133031
554.701	131233
554.764	130806
554.827	126741
554.889	122445
554.952	113887
555.015	111228
555.078	114651
555.141	115568
555.203	114572
555.266	112955
555.329	114028
555.391	107545
555.454	106729
555.517	104678
555.580	100053
555.642	96066
555.705	94945
555.768	93419
555.830	92026
555.893	87864
555.955	84487
556.018	83611
556.080	83602
556.143	85511
556.206	84925
556.268	82890
556.330	80448
556.393	79049
556.455	75401
556.518	75643
556.580	72387
556.643	70308
556.705	68731
556.767	67163
556.830	65773
556.892	64926
556.955	64333
557.017	62173
557.079	61096
557.142	60166
557.204	59077
557.266	59449
557.328	55465
557.391	52219
557.453	50949
557.515	51688
557.577	51217
557.639	51974
557.701	50548
557.764	50346
557.826	50964
557.888	52767
557.950	53315
558.012	57181
558.074	66137
558.136	123610
558.198	299830
558.260	130595
558.322	55671
558.384	54632
558.446	56735
558.508	59201
558.570	65131
558.632	72593
558.694	84408
558.756	127236
558.818	333731
558.880	730753
558.942	331673
559.003	316851
559.065	176933
559.127	69697
559.189	63751
559.251	65725
559.312	84118
559.374	182085
559.436	543923
559.498	314829
559.559	81038
559.621	63880
559.683	66042
559.744	93270
559.806	283387
559.868	448138
559.929	117422
559.991	66954
560.052	97972
560.114	274727
560.176	194261
560.237	153719
560.299	270072
560.360	72082
560.422	30779
560.483	26046
560.545	23739
560.606	23384
560.667	21902
560.729	21372
560.790	20075
560.852	20039
560.913	19804
560.974	19303
561.036	18652
561.097	18976
561.158	18422
561.220	18954
561.281	17137
561.342	16865
561.403	16879
561.465	17803
561.526	17702
561.587	18975
561.648	16022
561.709	15723
561.771	15459
561.832	15712
561.893	15702
561.954	14481
562.015	15329
562.076	14025
562.137	14714
562.198	15229
562.259	14319
562.320	14652
562.381	14356
562.442	14296
562.503	13588
562.564	13842
562.625	13754
562.686	14025
562.747	14006
562.808	13570
562.869	13474
562.930	12730
562.991	11714
563.051	12479
563.112	12555
563.173	12592
563.234	12174
563.294	12288
563.355	12784
563.416	12131
563.477	12262
563.537	12008
563.598	11517
563.659	12136
563.720	10662
563.780	11333
563.841	11619
563.901	12196
563.962	11557
564.023	11789
564.083	12317
564.144	10866
564.204	11854
564.265	11630
564.325	10223
564.386	10953
564.446	10704
564.507	10022
564.567	11022
564.628	10927
564.688	10593
564.749	10957
564.809	10745
564.869	10838
564.930	10347
564.990	10744
565.050	9875
565.111	10824
565.171	10484
565.231	10872
565.292	11453
565.352	10440
565.412	10806
565.472	10267
565.532	10644
565.593	10497
565.653	9880
565.713	10369
565.773	10429
565.833	11409
565.893	12326
565.953	9519
566.013	10540
566.074	9741
566.134	9901
566.194	9415
566.254	9517
566.314	9493
566.374	9200
566.434	9939
566.494	9491
566.554	9421
566.614	9826
566.673	9540
566.733	10461
566.793	9954
566.853	10103
566.913	10131
566.973	10308
567.033	10673
567.092	10189
567.152	10651
567.212	10166
567.272	9970
567.331	10966
567.391	10731
567.451	10895
567.511	11909
567.570	11171
567.630	10886
567.690	10130
567.749	10008
567.809	10633
567.868	11191
567.928	9780
567.988	9801
568.047	10143
568.107	9474
568.166	10288
568.226	9790
568.285	11743
568.345	11242
568.404	10449
568.464	10929
568.523	10232
568.582	11157
568.642	10236
568.701	10787
568.761	10208
568.820	10503
568.879	9333
568.939	10335
568.998	10950
569.057	9849
569.116	10248
569.176	10383
569.235	10101
569.294	10094
569.353	9531
569.413	9268
569.472	9780
569.531	9279
569.590	8730
569.649	9282
569.708	9530
569.767	8812
569.827	10147
569.886	9048
569.945	9490
570.004	9149
570.063	9130
570.122	9909
570.181	10285
570.240	9931
570.299	9252
570.358	10778
570.417	9670
570.475	9601
570.534	11323
570.593	11652
570.652	10749
570.711	9631
570.770	9811
570.829	9056
570.887	9525
570.946	10990
571.005	9754
571.064	10980
571.122	12774
571.181	10528
571.240	10077
571.299	10186
571.357	9089
571.416	9127
571.475	9585
571.533	9675
571.592	10650
571.650	10529
571.709	10276
571.768	12275
571.826	12366
571.885	11852
571.943	10385
572.002	9138
572.060	10004
572.119	9989
572.177	9335
572.236	10511
572.294	10307
572.352	11061
572.411	10341
572.469	9620
572.528	9670
572.586	9314
572.644	9224
572.703	9710
572.761	8432
572.819	9284
572.877	8456
572.936	9108
572.994	8988
573.052	8711
573.110	8934
573.169	9512
573.227	9075
573.285	8564
573.343	9459
573.401	9282
573.459	9142
573.517	8529
573.576	9909
573.634	9372
573.692	8275
573.750	9177
573.808	8222
573.866	8321
573.924	7827
573.982	8794
574.040	8001
574.098	8904
574.155	8031
574.213	8384
574.271	7851
574.329	9315
574.387	8667
574.445	7160
574.503	7673
574.560	8546
574.618	7918
574.676	8079
574.734	7721
574.792	7132
574.849	7860
574.907	7344
574.965	5927
575.022	6404
575.080	6319
575.138	5894
575.195	6051
575.253	6302
575.311	6251
575.368	7007
575.426	6200
575.483	6695
575.541	6530
575.598	6702
575.656	7058
575.713	6331
575.771	7429
575.828	6517
575.886	5945
575.943	6778
576.001	5558
576.058	5280
576.115	5664
576.173	5279
576.230	5788
576.287	6522
576.345	6600
576.402	6909
576.459	6888
576.517	5625
576.574	5724
576.631	5788
576.688	5559
576.746	5836
576.803	5774
576.860	5208
576.917	6664
576.974	5915
577.031	5938
577.089	5763
577.146	5389
577.203	5031
577.260	5784
577.317	4907
577.374	4643
577.431	5523
577.488	5375
577.545	4796
577.602	6118
577.659	5617
577.716	5845
577.773	5571
577.830	5336
577.886	5924
577.943	4965
578.000	5252
578.057	5101
578.114	6111
578.171	5991
578.227	4311
578.284	5263
578.341	5549
578.398	6539
578.454	4695
578.511	5126
578.568	6172
578.625	5955
578.681	5473
578.738	4469
578.794	5753
578.851	5890
578.908	5804
578.964	4950
579.021	5629
579.077	5110
579.134	5531
579.190	5973
579.247	5418
579.303	5140
579.360	5552
579.416	5670
579.473	6012
579.529	4409
579.586	5722
579.642	6031
579.698	5482
579.755	5908
579.811	5981
579.867	5199
579.924	4859
579.980	4834
580.036	6014
580.093	5218
580.149	6149
580.205	5666
580.261	6153
580.317	5839
580.374	6297
580.430	6075
580.486	5732
580.542	5150
580.598	5767
580.619	5808
580.654	5882
580.692	6206
580.710	6372
580.765	5711
580.767	5695
580.823	6340
580.838	6280
580.879	6115
580.911	6214
580.935	6303
580.984	6292
580.991	6297
581.047	6530
581.057	6396
581.103	5812
581.130	5876
581.159	5930
581.203	5933
581.215	5950
581.270	5546
581.276	5573
581.326	5793
581.349	5922
581.382	6141
581.422	6182
581.438	6201
581.494	6243
581.494	6237
581.550	5760
581.567	5937
581.606	6282
581.640	5744
581.661	5434
581.713	6542
581.717	6640
581.773	6013
581.786	6088
581.829	6174
581.859	5838
581.885	5660
581.932	5766
581.940	5760
581.996	6388
582.004	6395
582.052	6412
582.077	6242
582.107	6140
582.150	6796
582.163	6966
582.219	5988
582.223	5995
582.274	6107
582.296	5787
582.330	5264
582.368	5460
582.386	5589
582.441	5918
582.441	5917
582.497	5290
582.514	5550
582.552	6301
582.587	6233
582.608	6111
582.659	5490
582.663	5441
582.719	6343
582.732	6187
582.774	5664
582.805	5642
582.830	5755
582.877	6799
582.885	6937
582.941	6637
582.950	6612
582.996	6451
583.023	6876
583.052	7485
583.095	6652
583.107	6401
583.162	6436
583.168	6510
583.218	6780
583.240	6505
583.273	6403
583.313	6131
583.328	6009
583.384	6468
583.385	6465
583.439	6250
583.458	6246
583.494	6291
583.531	6180
583.549	6143
583.603	6192
583.605	6200
583.660	6342
583.676	6525
583.715	6751
583.748	6850
583.770	7014
583.820	7299
583.825	7299
583.881	6937
583.893	6772
583.936	6384
583.965	6628
583.991	6808
584.038	7312
584.046	7404
584.101	6142
584.110	6376
584.156	7559
584.183	7150
584.211	6751
584.255	7006
584.266	7063
584.321	6966
584.328	6932
584.376	6660
584.400	7081
584.431	7722
584.472	7754
584.486	7717
584.541	7422
584.545	7494
584.596	8954
584.617	8655
584.651	8206
584.689	8650
584.706	8737
584.761	9065
584.762	9066
584.816	9829
584.834	9859
584.871	9976
584.906	10019
584.926	9850
584.978	10002
584.980	10048
585.035	11145
585.051	11512
585.090	12393
585.123	13681
585.145	14519
585.195	14891
585.200	14978
585.254	17490
585.267	18299
585.309	21051
585.340	22228
585.364	23328
585.412	26994
585.419	27682
585.473	33330
585.484	34821
585.528	43994
585.556	53828
585.583	74558
585.628	123053
585.637	141117
585.692	300252
585.700	326256
585.747	401890
585.772	342967
585.801	219842
585.845	79401
585.856	62237
585.910	33865
585.917	31056
585.965	23359
585.989	20919
586.019	18995
586.061	17038
586.074	16634
586.128	15635
586.133	15543
586.183	15533
586.205	15616
586.237	15354
586.277	14827
586.292	14729
586.346	14684
586.349	14685
586.401	15008
586.421	14866
586.455	14543
586.493	14776
586.509	15113
586.564	14669
586.565	14677
586.618	16540
586.637	17224
586.672	18772
586.709	20950
586.727	21898
586.781	23477
586.781	23491
586.835	18739
586.853	17493
586.889	16255
586.925	15590
586.944	15421
586.996	15651
586.998	15690
587.052	15528
587.068	15606
587.106	15900
587.140	16214
587.161	16203
587.212	15957
587.215	16016
587.269	16413
587.284	16572
587.323	16714
587.356	17191
587.377	17565
587.427	17997
587.431	18062
587.485	18121
587.499	18239
587.539	18445
587.571	18714
587.593	19440
587.643	21097
587.648	21195
587.702	20838
587.715	20877
587.755	20877
587.786	20871
587.810	21132
587.858	21409
587.864	21494
587.917	22177
587.930	22209
587.971	21904
588.001	21805
588.025	21826
588.073	21519
588.079	21580
588.133	22274
588.145	22377
588.187	22611
588.217	22470
588.241	23061
588.288	24513
588.295	24601
588.348	25117
588.360	25123
588.402	25491
588.431	25735
588.456	26105
588.503	26855
588.510	27171
588.564	29058
588.575	29532
588.617	31257
588.646	32308
588.671	33697
588.718	36582
588.725	37482
588.778	44489
588.789	46248
588.832	66769
588.861	82936
588.886	115905
588.932	186888
588.939	192114
588.993	223334
589.004	221463
589.047	129471
589.075	74442
589.100	59655
589.147	40041
589.154	39458
589.207	35434
589.218	34660
589.261	34826
589.290	35034
589.314	35867
589.361	37977
589.368	39314
589.421	50683
589.433	53386
589.475	87465
589.504	114293
589.528	144128
589.576	204234
589.582	197767
589.635	109260
589.647	90857
589.689	55572
589.718	34735
589.742	32572
589.790	28801
589.795	28689
589.849	27573
589.861	27215
589.902	26620
589.932	26254
589.955	26310
590.004	26131
590.009	26162
590.062	26085
590.075	25924
590.115	25545
590.146	25375
590.168	25478
590.218	25378
590.222	25478
590.275	26102
590.289	26187
590.328	26440
590.360	26663
590.381	27309
590.431	28389
590.435	28477
590.488	28893
590.503	28924
590.541	28774
590.574	28696
590.594	29082
590.645	29646
590.647	29770
590.700	31295
590.716	31664
590.753	32232
590.787	32726
590.806	32808
590.859	32751
590.859	32848
590.912	34023
590.930	34428
590.965	35127
591.001	35422
591.018	35087
591.071	33921
591.072	33826
591.124	33902
591.143	33880
591.177	34456
591.214	34728
591.230	34923
591.283	35496
591.285	35424
591.336	35170
591.356	35035
591.389	35324
591.427	35300
591.442	35337
591.495	35255
591.498	35158
591.547	35348
591.569	35374
591.600	35931
591.640	36372
591.653	36643
591.706	37356
591.711	37346
591.759	38429
591.782	38855
591.811	39483
591.853	40053
591.864	40206
591.917	40550
591.924	40485
591.969	40564
591.995	40461
592.022	40870
592.066	41294
592.075	41565
592.127	42538
592.137	42628
592.180	42985
592.208	42987
592.233	44259
592.279	46375
592.285	46568
592.338	47164
592.350	47170
592.390	47031
592.421	46716
592.443	47256
592.491	48062
592.495	48213
592.548	48581
592.562	48554
592.600	48419
592.633	48087
592.653	47854
592.704	46666
592.705	47030
592.775	51936
592.846	52289
592.916	52806
592.987	52004
593.058	53420
593.128	54618
593.199	53882
593.270	56052
593.341	56369
593.411	59647
593.482	61014
593.553	62014
593.623	61768
593.694	63311
593.764	64310
593.835	63287
593.906	64713
593.976	64784
594.047	66381
594.117	69602
594.188	71188
594.258	70015
594.329	71558
594.399	72732
594.470	75541
594.540	76450
594.611	79045
594.681	77726
594.751	77110
594.822	81950
594.892	84423
594.963	86205
595.033	88434
595.103	90903
595.174	92669
595.244	95149
595.314	95986
595.384	99487
595.455	102504
595.525	105542
595.595	109540
595.665	107765
595.736	105782
595.806	107864
595.876	109704
595.946	110928
596.016	115930
596.087	118778
596.157	117319
596.227	120861
596.297	125688
596.367	134383
596.437	141017
596.507	140775
596.577	140276
596.647	144644
596.717	152850
596.787	153133
596.857	154099
596.927	156546
596.997	156287
597.067	157558
597.137	158711
597.207	160727
597.277	159726
597.347	154656
597.417	149817
597.487	149362
597.557	154584
597.626	157894
597.696	159355
597.766	158479
597.836	148182
597.906	143266
597.975	139672
598.045	142521
598.115	149681
598.185	161835
598.254	178877
598.324	194973
598.394	195029
598.464	187730
598.533	184688
598.603	172219
598.672	167211
598.742	172130
598.812	170750
598.881	177997
598.951	175490
599.020	179624
599.090	186422
599.159	185673
599.229	180163
599.299	178155
599.368	179730
599.437	177221
599.507	163623
599.576	157219
599.646	154257
599.715	153451
599.785	153106
599.854	147750
599.924	146592
599.993	145083
600.062	149433
600.132	155234
600.201	163337
600.270	187784
600.340	197275
600.409	192182
600.478	190696
600.547	194496
600.617	171593
600.686	138793
600.755	127973
600.824	120701
600.894	117817
600.963	118700
601.032	115834
601.101	111715
601.170	106704
601.239	103590
601.308	103767
601.378	103223
601.447	105035
601.516	104299
601.585	106367
601.654	108654
601.723	106570
601.792	110889
601.861	113387
601.930	119175
601.999	118836
602.068	118353
602.137	119873
602.206	121721
602.275	123861
602.343	124478
602.412	126152
602.481	128093
602.550	128051
602.619	133136
602.688	133708
602.756	135578
602.825	136064
602.894	138355
602.963	142471
603.032	143566
603.100	146004
603.169	144375
603.238	144641
603.307	147636
603.375	148599
603.444	151123
603.513	154021
603.581	155942
603.650	157298
603.719	153719
603.787	160088
603.856	162595
603.924	166829
603.993	173200
604.061	181267
604.130	188566
604.198	192685
604.267	195055
604.335	199324
604.404	201053
604.472	202067
604.541	205312
604.609	207455
604.678	205474
604.746	206511
604.815	215228
604.883	218038
604.951	216638
605.020	221805
605.088	225331
605.156	230577
605.225	232638
605.293	232446
605.361	234217
605.429	237266
605.498	241524
605.566	247070
605.634	259491
605.702	270113
605.771	275888
605.839	275432
605.907	268546
605.975	259346
606.043	256622
606.111	254560
606.180	254909
606.248	254257
606.316	251015
606.384	249682
606.452	253631
606.520	257437
606.588	268059
606.656	269429
606.724	263269
606.792	248331
606.860	224218
606.928	205418
606.996	197444
607.064	194915
607.132	200703
607.200	214205
607.267	218462
607.335	224341
607.403	226603
607.471	219754
607.539	214174
607.607	211790
607.674	188017
607.742	187249
607.810	186485
607.878	186235
607.946	191426
608.013	200504
608.081	205465
608.149	205050
608.216	213204
608.284	219252
608.352	220377
608.419	216753
608.487	212741
608.555	209081
608.622	219465
608.690	230851
608.757	251007
608.825	256362
608.893	248500
608.960	234048
609.028	224121
609.095	226223
609.163	224293
609.230	199413
609.298	188471
609.365	196752
609.432	214195
609.500	230931
609.567	263100
609.635	297136
609.702	308148
609.769	291393
609.837	226095
609.904	199093
609.971	203927
610.039	219096
610.106	253888
610.173	382342
610.241	675692
610.308	395045
610.375	231331
610.442	211063
610.509	204717
610.577	206565
610.644	211361
610.711	218578
610.778	224240
610.845	232533
610.912	246224
610.980	253674
611.047	253576
611.114	249647
611.181	244755
611.248	243887
611.315	257821
611.382	263007
611.449	271406
611.516	275043
611.583	271437
611.650	272963
611.717	276506
611.784	278561
611.851	288273
611.918	297981
611.984	327830
612.051	393912
612.118	575054
612.185	994157
612.252	664347
612.319	361620
612.386	336134
612.452	314192
612.519	303997
612.586	300163
612.653	306141
612.719	316651
612.786	305338
612.853	284420
612.919	281189
612.986	284002
613.053	267326
613.120	254323
613.186	246497
613.253	248594
613.319	247602
613.386	248489
613.453	252431
613.519	252731
613.586	250899
613.652	251899
613.719	250271
613.785	254860
613.852	258623
613.918	255559
613.985	257465
614.051	267401
614.118	263383
614.184	255938
614.250	253309
614.317	260719
614.383	256362
614.449	262106
614.516	260998
614.582	261416
614.648	257275
614.715	255382
614.781	249779
614.847	249810
614.914	246563
614.980	243085
615.046	245260
615.112	252052
615.179	251634
615.245	255017
615.311	253426
615.377	255548
615.443	256357
615.509	259264
615.575	267308
615.642	263981
615.708	269038
615.774	278166
615.840	289596
615.906	300799
615.972	330157
616.038	415688
616.104	654763
616.170	1074326
616.236	851883
616.302	433981
616.368	376279
616.434	308220
616.500	298954
616.565	320717
616.631	367217
616.697	322153
616.763	332072
616.829	437270
616.895	653380
616.961	573940
617.026	321116
617.092	269626
617.158	265686
617.224	260024
617.289	242485
617.355	235279
617.421	232589
617.487	232874
617.552	223512
617.618	222417
617.684	222305
617.749	224510
617.815	215069
617.880	211807
617.946	211417
618.012	216896
618.077	220565
618.143	212365
618.208	212321
618.274	226889
618.339	226321
618.405	189246
618.470	190990
618.536	189870
618.601	186234
618.667	172212
618.732	168939
618.798	165729
618.863	165979
618.928	165587
618.994	168823
619.059	165950
619.124	168925
619.190	167934
619.255	165320
619.320	165562
619.386	167653
619.451	164159
619.516	159198
619.581	160614
619.647	165991
619.712	165766
619.777	160834
619.842	160465
619.907	163915
619.972	167101
620.038	165016
620.103	161094
620.168	162355
620.233	165645
620.298	166371
620.363	167578
620.428	172222
620.493	176997
620.558	178490
620.623	180065
620.688	177578
620.753	179083
620.818	180901
620.883	179067
620.948	180188
621.013	177401
621.078	175146
621.143	174348
621.207	176334
621.272	173090
621.337	168613
621.402	168381
621.467	166599
621.532	166589
621.596	167448
621.661	161059
621.726	162445
621.791	162889
621.855	164419
621.920	162706
621.985	165274
622.049	167443
622.114	167765
622.179	171209
622.243	174972
622.308	176679
622.373	184641
622.437	178840
622.502	171275
622.566	169538
622.631	169165
622.695	174640
622.760	171749
622.824	171651
622.889	173225
622.953	172944
623.018	180949
623.082	182056
623.147	181070
623.211	175983
623.276	177630
623.340	171327
623.404	167697
623.469	166212
623.533	168721
623.597	163913
623.662	163161
623.726	153172
623.790	145262
623.854	141370
623.919	145024
623.983	145863
624.047	149403
624.111	149629
624.176	151147
624.240	151366
624.304	157063
624.368	150933
624.432	152946
624.496	155443
624.560	163152
624.625	163248
624.689	162510
624.753	169059
624.817	159640
624.881	157048
624.945	144058
625.009	140448
625.073	143181
625.137	146197
625.201	152259
625.265	153707
625.329	146622
625.393	146819
625.456	149119
625.520	153569
625.584	153758
625.648	158411
625.712	160720
625.776	157740
625.839	150076
625.903	128956
625.967	121707
626.031	131724
626.095	151099
626.158	137945
626.222	111126
626.286	106732
626.349	101821
626.413	95378
626.477	96501
626.540	96765
626.604	95089
626.668	94256
626.731	92149
626.795	90804
626.858	91900
626.922	90131
626.986	89629
627.049	88386
627.113	94351
627.176	91122
627.240	87309
627.303	88624
627.366	85515
627.430	89138
627.493	86713
627.557	83154
627.620	87258
627.684	89547
627.747	88454
627.810	80004
627.874	75563
627.937	70532
628.000	75147
628.064	71505
628.127	64804
628.190	64343
628.253	62976
628.317	59534
628.380	57259
628.443	55384
628.506	55214
628.569	52867
628.632	50649
628.696	51115
628.759	49675
628.822	47675
628.885	47147
628.948	46411
629.011	45446
629.074	44606
629.137	43162
629.200	41778
629.263	43118
629.326	40424
629.389	41043
629.452	40180
629.515	40018
629.578	39338
629.641	40121
629.704	40168
629.767	39972
629.830	38966
629.892	38482
629.955	35908
630.018	39371
630.081	36581
630.144	38064
630.207	35168
630.269	38844
630.332	35456
630.395	35667
630.458	34591
630.520	32079
630.583	34554
630.646	34904
630.708	34774
630.771	34873
630.834	36856
630.896	35696
630.959	35805
631.021	33773
631.084	35116
631.146	34034
631.209	33443
631.272	33594
631.334	35094
631.397	34777
631.459	33455
631.522	36542
631.584	36585
631.646	38511
631.709	39676
631.771	38595
631.834	38183
631.896	36359
631.958	34919
632.021	35509
632.083	32379
632.145	33623
632.208	33082
632.270	32440
632.332	32802
632.395	31613
632.457	33176
632.519	30893
632.581	32222
632.643	30676
632.706	32308
632.768	30252
632.830	32413
632.892	32658
632.954	33196
633.016	34182
633.078	32302
633.141	32746
633.203	31746
633.265	32097
633.327	32950
633.389	32070
633.451	32384
633.513	32234
633.575	33255
633.637	32353
633.698	32449
633.760	36997
633.822	35944
633.884	35481
633.946	36389
634.008	37184
634.070	37821
634.132	38676
634.193	40457
634.255	43556
634.317	43222
634.379	43841
634.441	39290
634.502	36384
634.564	36014
634.626	31941
634.687	31740
634.749	30370
634.811	31565
634.873	30574
634.934	30651
634.996	31585
635.057	29973
635.119	30726
635.181	31559
635.242	32272
635.304	29618
635.365	33622
635.427	30606
635.488	30533
635.550	30741
635.611	31557
635.673	29898
635.734	32878
635.796	32496
635.857	36458
635.918	36431
635.980	40889
636.041	41780
636.102	44660
636.164	43590
636.225	43306
636.286	36085
636.348	35712
636.409	31933
636.470	31263
636.531	30986
636.593	29495
636.654	29684
636.715	29499
636.776	28816
636.838	27553
636.899	27527
636.960	27585
637.021	26181
637.082	26947
637.143	27595
637.204	25416
637.265	25609
637.326	26539
637.387	27364
637.448	25809
637.509	26525
637.570	26570
637.631	27539
637.692	25416
637.753	23911
637.814	25726
637.875	25150
637.936	25400
637.997	25705
638.058	23513
638.119	25591
638.179	25313
638.240	23478
638.301	24947
638.362	23292
638.423	24426
638.483	25020
638.544	21345
638.605	24122
638.666	23432
638.726	23790
638.787	23680
638.848	24192
638.908	22432
638.969	23140
639.030	22365
639.090	21727
639.151	22571
639.211	23432
639.272	22665
639.332	22797
639.393	22705
639.453	24031
639.514	24948
639.574	22313
639.635	21384
639.695	22893
639.756	19928
639.816	20583
639.877	21151
639.937	21960
639.997	21738
640.058	20193
640.118	19672
640.178	21524
640.239	20818
640.299	21210
640.359	21137
640.420	22945
640.480	24147
640.540	26781
640.600	25876
640.661	24716
640.721	21265
640.781	23452
640.841	20537
640.901	22284
640.961	21427
641.021	22485
641.082	21963
641.142	21275
641.202	21666
641.262	19192
641.322	21083
641.382	20158
641.442	21366
641.502	20322
641.562	20815
641.622	20740
641.682	21963
641.742	23555
641.802	22181
641.861	21046
641.921	19851
641.981	21117
642.041	20100
642.101	18578
642.161	17429
642.221	18637
642.280	19867
642.340	19596
642.400	18411
642.460	21038
642.519	19509
642.579	20229
642.639	20438
642.698	17568
642.758	22554
642.818	20889
642.877	18993
642.937	20206
642.997	20123
643.056	19476
643.116	18717
643.175	21459
643.235	21000
643.294	21440
643.354	21992
643.414	24077
643.473	26818
643.532	29835
643.592	38233
643.651	53763
643.711	83066
643.770	143897
643.830	315097
643.889	535050
643.948	154852
644.008	44813
644.067	31191
644.126	24809
644.186	23079
644.245	21888
644.304	19418
644.363	22305
644.423	18309
644.482	19216
644.541	21282
644.600	20347
644.659	27059
644.719	31349
644.778	42532
644.837	63639
644.896	124890
644.955	248843
645.014	80905
645.073	27950
645.132	22302
645.191	21566
645.250	21787
645.309	22694
645.368	24065
645.427	29691
645.486	47098
645.545	71073
645.604	26151
645.663	20350
645.722	20895
645.781	22040
645.840	24249
645.898	28000
645.957	38201
646.016	50899
646.075	77559
646.134	136458
646.192	335553
646.251	411379
646.310	85262
646.369	34200
646.427	31149
646.486	24281
646.545	20479
646.603	19832
646.662	19029
646.721	19142
646.779	17794
646.838	18962
646.896	23860
646.955	28886
647.014	42640
647.072	73283
647.131	180587
647.189	82323
647.248	20127
647.306	17660
647.365	16739
647.423	13757
647.481	17314
647.540	13976
647.598	15056
647.657	14839
647.715	15108
647.773	13427
647.832	15187
647.890	11375
647.948	12324
648.007	13003
648.065	11308
648.123	12295
648.181	12472
648.240	12652
648.298	10858
648.356	11565
648.414	13241
648.472	12607
648.531	12158
648.589	11275
648.647	11292
648.705	11838
648.763	11632
648.821	13179
648.879	12205
648.937	13425
648.995	15784
649.053	19729
649.111	28170
649.169	41035
649.227	64583
649.285	128976
649.343	324115
649.401	143639
649.459	28059
649.516	18010
649.574	14407
649.632	16417
649.690	17795
649.748	21469
649.806	28971
649.863	51010
649.921	133121
649.979	80906
650.037	16317
650.094	10961
650.152	11619
650.210	9389
650.268	9631
650.325	8664
650.383	8455
650.440	7291
650.498	9392
650.556	8804
650.613	8394
650.671	8672
650.728	8573
650.786	8681
650.843	12626
650.901	7964
650.958	8221
651.016	7432
651.073	8376
651.131	5857
651.188	5914
651.246	7335
651.303	6371
651.360	6822
651.418	7271
651.475	6770
651.532	5912
651.590	6501
651.647	6160
651.704	6882
651.762	6654
651.819	6395
651.876	5661
651.933	6634
651.990	6585
652.048	5203
652.105	6550
652.162	5907
652.219	5912
652.276	5438
652.333	6678
652.390	5004
652.448	5938
652.505	5675
652.562	5530
652.619	5524
652.676	5230
652.733	5997
652.790	5796
652.847	4794
652.904	5330
652.961	3890
653.017	4463
653.074	5859
653.131	4887
653.188	4746
653.245	5068
653.302	5602
653.359	5048
653.415	4640
653.472	5299
653.529	5186
653.586	4679
653.642	5070
653.699	5686
653.756	4167
653.813	4222
653.869	5400
653.926	4863
653.983	3855
654.039	6066
654.096	4934
654.152	5485
654.209	4726
654.266	4955
654.322	3171
654.379	4895
654.435	5361
654.492	4759
654.548	5301
654.605	3992
654.661	5274
654.717	4943
654.774	4984
654.830	4651
654.887	4337
654.943	4656
655.000	3908
655.056	5162
655.112	4232
655.168	3994
655.225	4847
655.281	5090
655.337	4393
655.394	4698
655.450	4830
655.506	4261
655.562	4406
655.618	5251
655.675	4174
655.731	4586
655.787	4516
655.843	4749
655.899	3871
655.955	5336
656.011	5344
656.067	4365
656.123	6028
656.179	5748
656.235	6293
656.291	4469
656.347	6342
656.403	4460
656.459	5509
656.515	4808
656.571	4569
656.627	4863
656.683	5058
656.739	4892
656.795	4904
656.850	4693
656.906	4735
656.962	5914
657.018	5623
657.074	6261
657.129	8899
657.185	12376
657.241	26759
657.297	14990
657.352	5576
657.408	4144
657.464	3978
657.519	4019
657.575	3370
657.630	4145
657.686	3902
657.742	3534
657.797	4261
657.853	3546
657.908	4432
657.964	3061
658.019	3621
658.075	4729
658.130	3257
658.186	3190
658.241	3924
658.297	2960
658.352	2823
658.407	3423
658.463	3124
658.518	3685
658.573	4246
658.629	2735
658.684	3026
658.739	3705
658.795	3018
658.850	2937
658.905	2579
658.960	4332
659.016	2960
659.071	3470
659.126	3400
659.181	3568
659.236	3819
659.291	4505
659.346	2228
659.401	4137
659.457	3631
659.512	2385
659.567	4173
659.622	3533
659.677	3340
659.732	2608
659.787	3889
659.842	3815
659.897	2861
659.952	4451
660.007	3611
660.061	3687
660.116	1728
660.171	2728
660.226	3635
660.281	3873
660.336	2784
660.391	3530
660.445	2579
660.500	4015
660.555	3866
660.610	3108
660.664	3608
660.719	2793
660.774	3564
660.828	2946
660.883	3061
660.938	3803
660.992	2908
661.047	2649
661.101	3235
661.156	3648
661.211	2404
661.265	2938
661.320	2273
661.374	3341
661.429	2276
661.483	4077
661.538	2228
661.592	2665
661.647	2928
661.701	3457
661.755	3002
661.810	2783
661.864	2789
661.919	2505
661.973	2970
662.027	3514
662.081	2542
662.136	2867
662.190	3106
662.244	3414
662.299	3118
662.353	3224
662.407	2995
662.461	3273
662.515	3261
662.569	2245
662.624	2366
662.678	2788
662.732	2611
662.786	2885
662.840	3035
662.894	2539
662.948	2393
663.002	3185
663.056	3076
663.110	2757
663.164	2999
663.218	3419
663.272	2905
663.326	3027
663.380	3930
663.434	4060
663.488	2791
663.542	2534
663.595	3067
663.649	3633
663.703	3819
663.757	3334
663.811	2365
663.864	2707
663.918	2608
663.972	2697
664.026	3161
664.079	2728
664.133	3822
664.187	3816
664.240	3105
664.294	3430
664.348	3094
664.401	2683
664.455	3224
664.508	2816
664.562	2265
664.615	2775
664.669	2478
664.722	2944
664.776	2583
664.829	3138
664.883	2351
664.936	1825
664.990	3540
665.043	4032
665.097	2324
665.150	3786
665.203	2348
665.257	3564
665.310	4187
665.363	2557
665.417	3529
665.470	2804
665.523	3526
665.576	4030
665.630	2560
665.683	3266
665.736	3766
665.789	3043
665.842	2914
665.895	3553
665.949	3020
666.002	3554
666.055	3261
666.108	3696
666.161	2906
666.214	3991
666.267	3247
666.320	3858
666.373	3850
666.426	3338
666.479	3691
666.532	3135
666.585	3345
666.638	3115
666.691	3373
666.744	3847
666.796	4256
666.849	3258
666.902	3956
666.955	3693
667.008	3656
667.060	3233
667.113	3603
667.166	4042
667.219	4424
667.271	3650
667.324	4014
667.377	4334
667.430	4079
667.482	3648
667.535	3521
667.587	3651
667.640	4011
667.693	3335
667.745	4219
667.798	3050
667.850	3658
667.903	3306
667.955	4083
668.008	4331
668.060	2985
668.113	3253
668.165	3112
668.218	3951
668.270	3092
668.322	3248
668.375	3073
668.427	3945
668.479	3052
668.532	3432
668.584	3111
668.636	3714
668.689	3221
668.741	3068
668.793	3165
668.845	3446
668.898	2940
668.950	3193
669.002	3869
669.054	2615
669.106	2809
669.158	3471
669.211	2901
669.263	3148
669.315	3873
669.367	2716
669.419	2239
669.471	3944
669.523	3106
669.575	2805
669.627	2168
669.679	3169
669.731	3240
669.783	3198
669.835	3313
669.886	2723
669.938	2919
669.990	2699
670.042	3060
670.094	3906
670.146	3133
670.197	2731
670.249	3342
670.301	4234
670.353	3452
670.404	5099
670.456	4566
670.508	6131
670.560	8125
670.611	12085
670.663	17334
670.715	39192
670.766	60058
670.818	19785
670.869	6547
670.921	4532
670.972	3672
671.024	3469
671.075	3413
671.127	2940
671.178	3777
671.230	3975
671.281	3756
671.333	4925
671.384	5630
671.436	7223
671.487	10471
671.538	14625
671.590	21890
671.641	33003
671.692	60906
671.744	107955
671.795	69225
671.846	23307
671.897	10847
671.949	6633
672.000	5759
672.051	5056
672.102	4063
672.153	3462
672.204	2419
672.256	3598
672.307	3680
672.358	3358
672.409	2192
672.460	3546
672.511	2101
672.562	2077
672.613	2848
672.664	2239
672.715	2461
672.766	2438
672.817	2463
672.868	2271
672.919	2322
672.970	2003
673.021	2184
673.071	1592
673.122	2008
673.173	2391
673.224	2244
673.275	2117
673.326	1739
673.376	2391
673.427	1744
673.478	1653
673.528	3000
673.579	1882
673.630	1701
673.680	2163
673.731	2566
673.782	1538
673.832	1794
673.883	1614
673.934	2052
673.984	2618
674.035	2722
674.085	1690
674.136	2537
674.186	2718
674.237	2395
674.287	2075
674.338	2042
674.388	1251
674.438	1438
674.489	2823
674.539	2469
674.589	2398
674.640	2227
674.690	1740
674.740	2656
674.791	2533
674.841	2266
674.891	1541
674.942	2249
674.992	1780
675.042	1116
675.092	1870
675.142	1476
675.193	1316
675.243	1859
675.293	2026
675.343	2087
675.393	1792
675.443	2318
675.493	1640
675.543	1685
675.593	1855
675.643	790
675.693	2772
675.743	2048
675.793	1773
675.843	998
675.893	2064
675.943	942
675.993	1583
676.043	1352
676.093	1746
676.142	1883
676.192	2087
676.242	1884
676.292	1392
676.341	1463
676.391	1530
676.441	767
676.491	1079
676.540	1396
676.590	2117
676.640	1305
676.689	1121
676.739	444
676.789	1061
676.838	1601
676.888	1389
676.937	1054
676.987	1732
677.037	907
677.086	1313
677.136	1034
677.185	504
677.235	1378
677.284	1979
677.333	-520
677.383	721
677.432	86
677.482	1658
677.531	1287
677.580	294
677.630	978
677.679	1706
677.728	962
677.778	997
677.827	1883
677.876	1806
677.925	886
677.975	953
678.024	997
678.073	2143
678.122	832
678.171	853
678.220	2164
678.269	2573
678.319	1035
678.368	2189
678.417	1428
678.466	1201
678.515	1393
678.564	680
678.613	1084
678.662	1070
678.711	700
678.760	1151
678.809	610
678.857	799
678.906	873
678.955	548
679.004	1605
679.053	964
679.102	745
679.151	511
679.199	1105
679.248	1274
679.297	1085
679.346	761
679.394	-120
679.443	389
679.492	1335
679.540	1016
679.589	696
679.638	1014
679.686	925
679.735	877
679.784	1274
679.832	1765
679.881	898
679.929	517
679.978	388
680.026	766
680.075	600
680.123	699
680.172	533
680.220	1048
680.268	753
680.317	261
680.365	54
680.414	178
680.462	402
680.510	1580
680.559	452
680.607	510
680.655	1133
680.703	885
680.752	775
680.800	1423
680.848	972
680.896	112
680.945	1931
680.993	-243
681.041	329
681.089	1188
681.137	503
681.185	253
681.233	401
681.258	781
681.281	1135
681.329	806
681.377	965
681.380	984
681.425	1242
681.473	720
681.502	857
681.521	935
681.569	888
681.617	947
681.624	966
681.665	1037
681.713	682
681.745	1186
681.761	1425
681.809	584
681.857	612
681.867	730
681.904	1093
681.952	879
681.989	563
682.000	469
682.048	1147
682.096	1086
682.111	840
682.143	281
682.191	1076
682.233	2313
682.239	2494
682.286	700
682.334	848
682.354	873
682.382	877
682.430	271
682.476	906
682.477	916
682.525	1084
682.572	807
682.598	783
682.620	743
682.667	505
682.715	1070
682.720	1063
682.763	960
682.810	507
682.841	1042
682.857	1301
682.905	585
682.952	945
682.963	1013
683.000	1247
683.047	748
683.085	1697
683.095	1944
683.142	1556
683.190	640
683.206	727
683.237	856
683.284	1376
683.328	712
683.332	655
683.379	1416
683.426	1050
683.449	1102
683.473	1160
683.521	786
683.568	1008
683.571	991
683.615	678
683.662	1188
683.693	749
683.709	481
683.757	917
683.804	1164
683.814	1112
683.851	975
683.898	1620
683.936	1302
683.945	1219
683.992	846
684.039	1533
684.057	1343
684.086	991
684.133	1047
684.179	1091
684.180	1092
684.227	914
684.274	1159
684.300	1322
684.321	1411
684.368	848
684.415	1600
684.422	1531
684.462	1151
684.509	808
684.543	706
684.556	664
684.603	1142
684.649	805
684.665	831
684.696	907
684.743	1383
684.786	1331
684.790	1313
684.837	985
684.883	1026
684.908	941
684.930	929
684.977	1812
685.023	1280
685.029	1337
685.070	1614
685.117	1452
685.150	1366
685.164	1372
685.210	1253
685.257	1932
685.272	2041
685.303	2132
685.350	2091
685.393	1264
685.396	1204
685.443	651
685.490	980
685.514	1080
685.536	1192
685.583	1767
685.629	934
685.636	1026
685.675	1517
685.722	1375
685.757	1573
685.768	1620
685.815	1282
685.861	1657
685.878	1604
685.908	1573
685.954	1091
686.000	1778
686.000	1786
686.047	1788
686.093	2158
686.121	1681
686.139	1396
686.185	1439
686.232	1550
686.242	1666
686.278	2031
686.324	2072
686.363	1504
686.370	1400
686.416	1011
686.463	2114
686.484	1869
686.509	1575
686.555	1303
686.601	1951
686.606	1932
686.647	1818
686.693	1994
686.727	2092
686.739	2113
686.785	1522
686.831	1626
686.848	1666
686.877	1822
686.923	1496
686.969	1993
686.969	1995
687.015	2127
687.061	2111
687.090	2147
687.107	2113
687.153	1738
687.199	1628
687.211	1600
687.245	1573
687.291	2037
687.332	2051
687.336	2062
687.382	2338
687.428	1852
687.453	2101
687.474	2229
687.520	2217
687.565	2206
687.574	2152
687.611	2091
687.657	2173
687.695	2372
687.702	2383
687.748	2411
687.794	2584
687.816	2246
687.839	1944
687.885	2195
687.931	2329
687.937	2295
687.976	2157
688.022	2247
688.058	2545
688.067	2570
688.113	2366
688.158	1856
688.179	1719
688.204	1703
688.249	2285
688.295	2013
688.300	2053
688.340	2251
688.386	2294
688.421	2079
688.431	2009
688.477	1893
688.522	1783
688.542	1966
688.567	2419
688.613	2681
688.658	3006
688.663	3022
688.703	2664
688.749	2378
688.784	2432
688.794	2502
688.839	2130
688.884	2482
688.905	2392
688.930	2316
688.975	2037
689.020	2437
689.026	2433
689.065	2293
689.110	2399
689.146	2183
689.155	2167
689.201	1999
689.246	2373
689.267	2336
689.291	2319
689.336	2605
689.381	2672
689.388	2691
689.426	2658
689.471	2589
689.509	2705
689.516	2732
689.561	2634
689.606	2409
689.630	2255
689.651	2161
689.696	2185
689.741	2319
689.750	2463
689.785	3012
689.830	2577
689.871	2449
689.875	2428
689.920	2593
689.965	2359
689.992	2363
690.010	2468
690.054	2500
690.099	2969
690.112	2966
690.144	2708
690.189	2323
690.233	2317
690.233	2322
690.278	2457
690.323	2577
690.354	3114
690.367	3280
690.412	3381
690.457	2824
690.474	2755
690.501	2720
690.546	3178
690.590	2940
690.595	2893
690.635	2449
690.680	2994
690.716	2866
690.724	2827
690.769	2641
690.813	2527
690.836	2401
690.857	2458
690.902	3127
690.946	2913
690.957	3044
690.991	3391
691.035	3452
691.077	3202
691.080	3185
691.124	3595
691.168	3233
691.198	3071
691.213	2967
691.257	2833
691.301	2616
691.318	2660
691.346	2956
691.390	2892
691.434	2790
691.439	2819
691.478	2923
691.522	3011
691.559	2992
691.567	2997
691.611	2973
691.655	2879
691.680	2806
691.699	2858
691.743	2802
691.787	3246
691.800	3261
691.831	3135
691.875	2968
691.919	2984
691.921	2981
691.964	3206
692.008	3122
692.041	3202
692.052	3230
692.096	3315
692.139	3407
692.162	3378
692.183	3262
692.227	3109
692.271	2853
692.282	2794
692.315	2972
692.359	3566
692.402	3151
692.403	3154
692.447	3245
692.490	3530
692.523	3476
692.534	3456
692.578	3505
692.622	3096
692.643	3155
692.666	3221
692.709	3472
692.753	3170
692.763	3153
692.797	3129
692.840	2982
692.884	2903
692.884	2911
692.928	3317
692.971	3241
693.004	3500
693.015	3566
693.059	3489
693.102	3629
693.124	3600
693.146	3367
693.189	3202
693.233	2547
693.245	2440
693.276	2761
693.320	3443
693.363	3578
693.365	3583
693.407	3295
693.450	2984
693.485	2617
693.493	2716
693.537	3422
693.580	3851
693.605	4317
693.624	4310
693.667	4414
693.710	3940
693.725	3883
693.753	4313
693.797	4869
693.840	5507
693.845	5529
693.883	4855
693.926	4405
693.966	3745
693.970	3727
694.013	3565
694.056	3435
694.086	3460
694.099	3487
694.142	3304
694.185	3297
694.206	3152
694.229	3202
694.272	3671
694.315	3910
694.326	3951
694.358	3832
694.401	3839
694.444	3757
694.446	3743
694.487	3919
694.530	3968
694.566	4148
694.573	4127
694.616	3762
694.659	3595
694.686	3350
694.702	3308
694.745	3363
694.787	3272
694.806	3270
694.830	3484
694.873	3867
694.916	4223
694.926	4247
694.959	4074
695.002	4104
695.044	3845
695.046	3837
695.087	3975
695.130	3992
695.166	3829
695.172	3850
695.215	4018
695.258	4520
695.286	4520
695.301	4503
695.343	4564
695.386	4595
695.406	4671
695.428	4981
695.471	5547
695.514	6022
695.526	6130
695.556	6231
695.599	6669
695.641	6703
695.646	6707
695.684	6237
695.726	5647
695.766	5141
695.769	5154
695.811	5153
695.854	5093
695.886	5095
695.896	5195
695.938	5556
695.981	5896
696.005	6034
696.023	6133
696.065	6266
696.108	6621
696.125	6741
696.150	6695
696.192	6596
696.235	6426
696.245	6367
696.277	6463
696.319	6588
696.361	6698
696.365	6683
696.404	6614
696.446	6734
696.485	6735
696.488	6775
696.530	6930
696.572	7214
696.604	7486
696.614	7473
696.656	7317
696.698	7119
696.724	6947
696.740	6966
696.783	6975
696.825	7075
696.844	7102
696.867	7121
696.909	7010
696.951	7002
696.964	6959
696.992	6996
697.034	7033
697.076	7148
697.083	7148
697.118	7426
697.160	7633
697.202	7926
697.203	7913
697.244	7728
697.286	7645
697.323	7423
697.327	7451
697.369	7682
697.411	7726
697.442	7879
697.453	7940
697.494	7949
697.536	8056
697.562	8053
697.578	8032
697.620	8046
697.661	7980
697.682	7943
697.703	8116
697.744	8360
697.786	8751
697.801	8810
697.828	8868
697.869	8980
697.911	9105
697.921	9112
697.952	9050
697.994	8945
698.035	8866
698.040	8831
698.077	8647
698.118	8412
698.160	8213
698.160	8192
698.201	8767
698.243	9305
698.279	9771
698.284	9809
698.325	9959
698.367	10132
698.399	10174
698.408	10211
698.449	10346
698.491	10455
698.518	10504
698.532	10559
698.573	10632
698.614	10725
698.638	10744
698.656	10613
698.697	10279
698.738	9904
698.757	9714
698.779	9738
698.820	9734
698.862	9733
698.877	9708
698.903	9969
698.944	10356
698.985	10737
698.996	10820
699.026	10647
699.067	10372
699.116	10021
699.235	10096
699.354	10236
699.474	9223
699.593	8915
699.713	10040
699.832	10205
699.951	10724
700.070	9428
700.190	9494
700.309	9068
700.428	8156
700.547	8261
700.667	9212
700.786	8837
700.905	8611
701.024	8867
701.143	7638
701.262	9627
701.381	8122
701.500	8473
701.619	8717
701.738	8514
701.857	9318
701.976	9337
702.095	9600
702.214	8732
702.333	8844
702.452	8963
702.571	9011
702.690	9009
702.809	8815
702.928	8385
703.047	8416
703.165	8922
703.284	8522
703.403	8844
703.522	8012
703.640	7888
703.759	8331
703.878	8451
703.997	7493
704.115	8338
704.234	7828
704.353	7521
704.471	7569
704.590	8165
704.708	7996
704.827	7291
704.946	6529
705.064	7810
705.183	5895
705.301	8330
705.420	7886
705.538	6841
705.656	6545
705.775	6736
705.893	6353
706.012	7601
706.130	6474
706.249	7703
706.367	6871
706.485	6482
706.604	6925
706.722	6816
706.840	6807
706.958	7103
707.077	6671
707.195	6292
707.313	6421
707.431	6471
707.549	5368
707.668	6215
707.786	7112
707.904	6634
708.022	6890
708.140	5871
708.258	6747
708.376	5707
708.494	6336
708.612	6701
708.730	5402
708.848	6035
708.966	5790
709.084	6729
709.202	5318
709.320	5594
709.438	5977
709.556	4821
709.674	4993
709.791	5744
709.909	5388
710.027	4923
710.145	5310
710.263	5055
710.380	5241
710.498	4913
710.616	5463
710.733	4798
710.851	6131
710.969	4998
711.086	5771
711.204	4739
711.322	5885
711.439	5212
711.557	5173
711.674	5024
711.792	4767
711.909	4959
712.027	5422
712.144	5082
712.262	5171
712.379	4076
712.497	4369
712.614	5121
712.732	5360
712.849	4644
712.966	5012
713.084	5026
713.201	4288
713.318	5536
713.436	5356
713.553	4460
713.670	5511
713.787	5215
713.905	4837
714.022	5168
714.139	5592
714.256	6486
714.373	10551
714.490	20825
714.608	64400
714.725	244890
714.842	119682
714.959	10867
715.076	7233
715.193	5691
715.310	5064
715.427	4980
715.544	4929
715.661	4305
715.778	4212
715.895	4209
716.011	5488
716.128	4817
716.245	4875
716.362	4506
716.479	3501
716.596	4396
716.713	4595
716.829	3112
716.946	4519
717.063	3442
717.180	3258
717.296	4422
717.413	4245
717.530	4598
717.646	3899
717.763	3518
717.880	4045
717.996	3970
718.113	4488
718.229	4042
718.346	4006
718.462	3219
718.579	3821
718.695	3350
718.812	3500
718.928	3515
719.045	3458
719.161	3716
719.277	4405
719.394	2726
719.510	4685
719.626	4114
719.743	5374
719.859	9384
719.975	23895
720.092	102189
720.208	117989
720.324	10040
720.440	4407
720.557	4590
720.673	4134
720.789	3478
720.905	4244
721.021	4006
721.137	3089
721.253	3021
721.369	3879
721.486	3357
721.602	3266
721.718	2633
721.834	2604
721.950	2651
722.066	1985
722.181	2542
722.297	3326
722.413	3406
722.529	3015
722.645	3240
722.761	3127
722.877	2798
722.993	3226
723.108	4442
723.224	2950
723.340	3340
723.456	3288
723.571	2563
723.687	2773
723.803	3872
723.918	2175
724.034	2853
724.150	3055
724.265	2799
724.381	3197
724.497	2670
724.612	2650
724.728	2569
724.843	2691
724.959	2850
725.074	3007
725.190	3331
725.305	2693
725.421	2022
725.536	4100
725.651	3036
725.767	2132
725.882	2037
725.997	2860
726.113	2876
726.228	2921
726.343	2803
726.459	2224
726.574	2719
726.689	2615
726.804	2769
726.920	2904
727.035	1494
727.150	2355
727.265	1873
727.380	2247
727.495	2633
727.610	3538
727.725	2237
727.841	1879
727.956	2878
728.071	3155
728.186	2610
728.301	2032
728.416	3092
728.531	2788
728.645	2949
728.760	2778
728.875	2648
728.990	2594
729.105	2499
729.220	2594
729.335	2128
729.449	2323
729.564	1902
729.679	2466
729.794	2138
729.908	3041
730.023	1819
730.138	2253
730.253	3357
730.367	2416
730.482	2299
730.596	2112
730.711	4470
730.826	4546
730.940	3220
731.055	4046
731.169	3116
731.284	3776
731.398	3789
731.513	4153
731.627	4558
731.742	6504
731.856	6381
731.970	6568
732.085	8849
732.199	11404
732.313	21040
732.428	59919
732.542	145798
732.656	44267
732.771	11613
732.885	9283
732.999	10505
733.113	10731
733.227	10557
733.342	9557
733.456	10835
733.570	9756
733.684	9353
733.798	8832
733.912	8320
734.026	8355
734.140	8511
734.254	8589
734.368	9533
734.482	9142
734.596	8838
734.710	8159
734.824	7523
734.938	8408
735.052	8563
735.166	8099
735.280	7917
735.393	6661
735.507	8011
735.621	7838
735.735	7757
735.849	7846
735.962	6801
736.076	7283
736.190	7235
736.303	7049
736.417	6991
736.531	6546
736.644	7262
736.758	6999
736.872	6629
736.985	7525
737.099	6670
737.212	7456
737.326	6680
737.439	7448
737.553	5541
737.666	7170
737.780	6224
737.893	7078
738.007	6113
738.120	6425
738.233	6497
738.347	6757
738.460	5418
738.573	7184
738.687	5732
738.800	6898
738.913	5781
739.026	5809
739.140	6422
739.253	6114
739.366	5976
739.479	6545
739.592	6140
739.705	5949
739.818	5894
739.932	5300
740.045	6212
740.158	5662
740.271	6921
740.384	4673
740.497	5252
740.610	4937
740.723	5008
740.836	5434
740.949	5454
741.062	6881
741.174	4866
741.287	6312
741.400	5278
741.513	5527
741.626	5523
741.739	5517
741.851	5196
741.964	6407
742.077	5183
742.189	5153
742.302	5710
742.415	5510
742.527	4506
742.640	4776
742.753	4272
742.865	5305
742.978	4253
743.090	4588
743.203	5382
743.316	4576
743.428	5376
743.541	4685
743.653	3959
743.766	5126
743.878	4978
743.990	4715
744.103	6734
744.215	5695
744.327	5288
744.440	6458
744.552	3551
744.664	3779
744.777	5144
744.889	4023
745.001	4668
745.113	4566
745.226	3355
745.338	4653
745.450	4144
745.562	3334
745.674	4196
745.786	5333
745.898	3783
746.010	3977
746.122	5176
746.234	4280
746.347	4336
746.459	4710
746.570	3797
746.682	6659
746.794	7280
746.906	3546
747.018	4249
747.130	4951
747.242	2879
747.354	3986
747.466	4228
747.577	3330
747.689	3813
747.801	3785
747.913	3807
748.024	4207
748.136	2978
748.248	3599
748.359	3784
748.471	4383
748.583	3588
748.694	2853
748.806	3886
748.918	3218
749.029	3512
749.141	3253
749.252	4245
749.364	2479
749.475	2221
749.587	3179
749.698	3724
749.809	4017
749.921	2870
750.032	2879
750.144	3138
750.255	3013
750.366	2806
750.478	3148
750.589	3094
750.700	2508
750.811	3266
750.923	3377
751.034	3016
751.145	4057
751.256	2260
751.367	3502
751.479	2716
751.590	1627
751.701	2480
751.812	2369
751.923	2065
752.034	2778
752.145	2312
752.256	3200
752.367	2932
752.478	3085
752.589	3296
752.700	2701
752.811	2762
752.922	2300
753.032	2442
753.143	2244
753.254	1359
753.365	3701
753.476	3589
753.586	2707
753.697	2714
753.808	2522
753.919	2338
754.029	3059
754.140	2271
754.251	2587
754.361	2925
754.472	3634
754.582	2566
754.693	2663
754.804	3539
754.914	1799
755.025	2013
755.135	3673
755.246	2600
755.356	1794
755.466	2726
755.577	2890
755.687	2672
755.798	2933
755.908	2384
756.018	2630
756.129	2102
756.239	2251
756.349	3162
756.460	2981
756.570	2520
756.680	2457
756.790	1891
756.900	1953
757.011	962
757.121	2612
757.231	3124
757.341	2325
757.451	2737
757.561	2024
757.671	2516
757.781	2183
757.891	2552
758.001	2136
758.111	2711
758.221	2801
758.331	2291
758.441	2474
758.551	1924
758.661	2143
758.771	3005
758.880	2631
758.990	2204
759.100	2109
759.210	3493
759.320	2197
759.429	3248
759.539	2415
759.649	2442
759.758	3289
759.868	2942
759.978	2860
760.087	3310
760.197	3528
760.307	2637
760.416	3218
760.526	1999
760.635	3247
760.745	3172
760.854	3285
760.964	3716
761.073	3178
761.182	2906
761.292	3061
761.401	2986
761.511	2118
761.620	1885
761.729	2265
761.839	1280
761.948	2064
762.057	2140
762.166	2253
762.276	1448
762.385	2918
762.494	2370
762.603	2064
762.712	2668
762.822	1676
762.931	2096
763.040	796
763.149	2113
763.258	1398
763.367	2880
763.476	2046
763.585	2160
763.694	2395
763.803	1781
763.912	2324
764.021	2857
764.130	1525
764.238	1859
764.347	2387
764.456	1850
764.565	2503
764.674	2339
764.783	2154
764.891	2044
765.000	3570
765.109	2767
765.217	2750
765.326	4289
765.435	4126
765.543	4758
765.652	4732
765.761	7263
765.869	9375
765.978	16041
766.086	29075
766.195	59544
766.303	141434
766.412	235727
766.520	169974
766.629	54798
766.737	25100
766.846	15040
766.954	10218
767.062	9443
767.171	5896
767.279	5596
767.387	4275
767.496	4416
767.604	3516
767.712	3512
767.820	3631
767.928	2981
768.037	3097
768.145	3570
768.253	3661
768.361	2900
768.469	2882
768.577	2548
768.685	3183
768.793	2905
768.901	3390
769.009	3317
769.117	3985
769.225	4451
769.333	8232
769.441	13044
769.549	23350
769.657	57301
769.765	150118
769.873	180469
769.981	60034
770.088	19356
770.196	10295
770.304	8086
770.412	6889
770.519	5164
770.627	4790
770.735	2936
770.842	4308
770.950	3704
771.058	4275
771.165	5408
771.273	4750
771.380	5707
771.488	8522
771.595	7502
771.703	7031
771.810	6348
771.918	6777
772.025	8252
772.133	9306
772.240	9474
772.348	10645
772.455	8551
772.562	9016
772.670	7717
772.777	8221
772.884	7736
772.991	7474
773.099	8072
773.206	7016
773.313	7453
773.420	7515
773.528	6779
773.635	7036
773.742	8241
773.849	7452
773.956	7115
774.063	7164
774.170	6645
774.277	7671
774.384	6594
774.491	6080
774.598	8132
774.705	7187
774.812	6004
774.919	6996
775.026	6197
775.133	7092
775.239	6939
775.346	6299
775.453	6748
775.560	5544
775.667	6798
775.773	5101
775.880	7136
775.987	5641
776.093	6989
776.200	6265
776.307	4648
776.413	6103
776.520	6560
776.627	5720
776.733	5061
776.840	5039
776.946	8898
777.053	8829
777.159	10111
777.266	7088
777.372	11129
777.478	8792
777.585	6850
777.691	5178
777.798	6087
777.904	5261
778.010	5204
778.117	5265
778.223	5475
778.329	5233
778.435	4707
778.542	5259
778.648	5072
778.754	4250
778.860	4686
778.966	4514
779.072	4201
779.178	4519
779.284	3865
779.391	4352
779.497	3587
779.603	5604
779.708	3141
779.815	5767
779.920	6907
780.026	5735
780.132	4592
780.238	2981
780.344	3829
780.450	6738
780.556	3329
780.661	4723
780.767	4591
780.873	2676
780.979	5088
781.085	3943
781.190	4242
781.296	3672
781.402	3720
781.507	3401
781.613	3138
781.719	3927
781.824	4437
781.930	3339
782.035	4578
782.141	4038
782.246	2878
782.352	3140
782.457	3288
782.563	3600
782.668	2793
782.773	2720
782.879	1979
782.984	3878
783.090	3694
783.195	3717
783.300	3534
783.405	3588
783.511	2403
783.616	2656
783.721	3352
783.826	2329
783.932	4085
784.037	3843
784.142	3753
784.247	2459
784.352	3148
784.457	2395
784.562	3348
784.667	3536
784.772	2199
784.877	2480
784.982	3302
785.087	2462
785.192	3146
785.297	2251
785.402	2675
785.507	2114
785.611	2925
785.716	2154
785.821	2523
785.926	3358
786.031	2663
786.135	2580
786.240	3010
786.345	851
786.450	2423
786.554	2508
786.659	1342
786.763	2790
786.868	2926
786.973	3614
787.077	1947
787.182	2434
787.286	2733
787.391	3159
787.495	1613
787.600	1749
787.704	2400
787.809	3012
787.913	1715
788.017	2109
788.122	2090
788.226	825
788.330	1124
788.435	2695
788.539	3257
788.643	1174
788.747	856
788.852	1976
788.956	1846
789.060	3021
789.164	2309
789.268	1106
789.372	2056
789.476	2210
789.580	1198
789.684	1966
789.788	2980
789.892	1356
789.996	1648
790.100	1731
790.204	2629
790.308	2907
790.412	513
790.516	1428
790.620	1442
790.724	2203
790.828	1467
790.931	552
791.035	3232
791.139	1677
791.242	985
791.346	2511
791.450	1592
791.554	1324
791.657	-334
791.761	2625
791.864	2509
791.968	2302
792.072	1627
792.175	2068
792.279	1239
792.382	847
792.486	1574
792.589	1563
792.693	1549
792.796	159
792.899	2808
793.003	2252
793.106	100
793.209	632
793.313	1702
793.416	184
793.519	1376
793.623	2067
793.726	1562
793.829	931
793.932	650
794.035	583
794.138	2966
794.242	3058
794.345	727
794.448	927
794.551	-274
794.654	4314
794.757	3373
794.860	1724
794.963	995
795.066	1179
795.169	2104
795.272	673
795.375	1964
795.477	1244
795.580	1603
795.683	510
795.786	1619
795.889	617
795.991	1619
796.094	2663
796.197	-48
796.300	3377
796.402	1098
796.505	-92
796.608	795
796.710	1577
796.813	943
796.915	971
797.018	1483
797.120	1986
797.223	642
797.326	2204
797.428	57
797.530	1136
797.633	894
797.735	1452
797.838	893
797.940	2134
798.042	-236
798.145	8
798.247	820
798.349	-768
798.452	1666
798.554	1052
798.656	202
798.758	2154
798.860	689
798.962	369
799.065	1198
799.167	-368
799.269	1287
799.371	1595
799.473	1536
799.575	-55
799.677	702
799.779	2524
799.881	41
799.983	1497
800.085	484
800.187	1362
800.289	-401
800.390	1291
800.492	331
800.594	1322
800.696	625
800.798	1184
800.899	723
801.001	714
801.103	902
801.205	597
801.306	741
801.408	-351
801.509	963
801.611	1463
801.713	229
801.814	432
801.916	410
802.017	718
802.119	-5
802.220	1033
802.322	-1245
802.423	2051
802.525	-1147
802.626	835
802.727	1142
802.829	1063
802.930	-1127
803.031	1537
803.133	406
803.234	873
803.335	829
803.436	-14
803.538	140
803.639	-75
803.740	1149
803.841	956
803.942	1515
804.043	783
804.144	768
804.245	361
804.346	-410
804.447	-89
804.548	-34
804.649	1142
804.750	-173
804.851	674
804.952	872
805.053	800
805.154	-475
805.255	687
805.355	1044
805.456	-80
805.557	693
805.658	-776
805.758	942
805.859	568
805.960	-140
806.061	166
806.161	255
806.262	184
806.362	-449
806.463	156
806.564	902
806.664	645
806.765	28
806.865	584
806.966	-933
807.066	-536
807.166	971
807.267	1645
807.367	454
807.468	561
807.568	-1417
807.668	1391
807.769	775
807.869	108
807.969	303
808.069	829
808.170	729
808.270	62
808.370	310
808.470	270
808.570	-590
808.670	-73
808.770	353
808.870	-358
808.970	557
809.070	224
809.170	-123
809.271	736
809.370	-94
809.470	504
809.570	-85
809.670	50
809.770	705
809.870	357
809.970	119
810.070	433
810.169	527
810.269	-1238
810.369	1052
810.469	313
810.568	-400
810.668	-399
810.768	-293
810.867	763
810.967	-296
811.066	0
811.166	27
811.265	1421
811.365	-368
811.464	-415
811.564	791
811.663	435
811.763	-872
811.862	478
811.962	566
812.061	-192
812.160	-416
812.260	46
812.359	253
812.458	-61
812.557	440
812.657	-210
812.756	281
812.855	341
812.954	-619
813.053	-239
813.153	46
813.252	-589
813.351	121
813.450	325
813.549	-83
813.648	868
813.747	-221
813.846	1117
813.945	818
814.044	997
814.143	178
814.242	1442
814.341	425
814.439	874
814.538	1020
814.637	177
814.736	1239
814.835	1343
814.933	-399
815.032	1387
815.131	3172
815.229	5664
815.328	5390
815.427	3726
815.525	3769
815.624	4417
815.722	3801
815.821	4489
815.919	4925
816.018	3322
816.116	4759
816.215	3830
816.313	4070
816.412	5220
816.510	3979
816.609	6864
816.707	5655
816.805	4708
816.904	5262
817.002	5013
817.100	5015
817.198	6366
817.296	4828
817.395	4221
817.493	4430
817.591	4626
817.689	4808
817.787	4415
817.885	4696
817.983	5182
818.081	5021
818.179	5243
818.277	7089
818.375	5149
818.473	4211
818.571	3789
818.669	5200
818.767	4660
818.865	3342
818.963	4163
819.061	4787
819.158	4144
819.256	6340
819.354	6612
819.452	7750
819.549	3330
819.647	5243
819.745	2770
819.842	4354
819.940	4137
820.038	3573
820.135	2954
820.233	5547
820.330	2779
820.428	2742
820.525	3968
820.623	3175
820.720	2874
820.818	3984
820.915	3661
821.012	4316
821.110	2631
821.207	4106
821.304	3020
821.402	4154
821.499	4207
821.596	4511
821.693	4310
821.791	3656
821.888	3294
821.985	4003
822.082	2628
822.179	4270
822.276	3136
822.373	2577
822.470	2856
822.567	2939
822.664	2771
822.761	3779
822.858	2320
822.955	2695
823.052	2356
823.149	3053
823.246	3115
823.343	1560
823.440	2806
823.536	1692
823.633	1463
823.730	2482
823.827	2574
823.923	2644
824.020	4041
824.117	3042
824.213	2174
824.310	2417
824.407	2379
824.503	2532
824.600	2080
824.696	2548
824.793	3416
824.889	1976
824.986	2027
825.082	1461
825.179	2101
825.275	2910
825.371	2748
825.468	1911
825.564	-197
825.660	3776
825.757	3021
825.853	1503
825.949	1122
826.045	1092
826.142	2337
826.238	1769
826.334	2780
826.430	1715
826.526	1061
826.622	1009
826.718	2591
826.814	2750
826.910	2144
827.006	895
827.102	849
827.198	3018
827.294	2105
827.390	1810
827.486	2493
827.582	507
827.678	1461
827.774	2419
827.869	698
827.965	2339
828.061	1248
828.157	2596
828.252	2062
828.348	596
828.444	1510
828.539	1191
828.635	1218
828.731	1706
828.826	228
828.922	1732
829.017	1359
829.113	2227
829.208	943
829.304	1361
829.399	3546
829.495	420
829.590	1919
829.685	389
829.781	2989
829.876	1313
829.971	-1
830.066	383
830.162	497
830.257	1713
830.352	843
830.447	1379
830.543	634
830.638	-128
830.733	1814
830.828	671
830.923	1837
831.018	1067
831.113	2317
831.208	-612
831.303	397
831.398	1041
831.493	1477
831.588	2364
831.683	-96
831.778	296
831.873	803
831.967	2005
832.062	1062
832.157	211
832.252	1580
832.346	1317
832.441	1330
832.536	1219
832.631	1063
832.725	968
832.820	1613
832.914	400
833.009	487
833.104	-464
833.198	1736
833.293	1070
833.387	1636
833.482	933
833.576	683
833.670	1090
833.765	1003
833.859	758
833.954	1659
834.048	472
834.142	490
834.237	-447
834.331	739
834.425	544
834.519	177
834.613	576
834.708	-66
834.802	489
834.896	458
834.990	1682
835.084	981
835.178	-538
835.272	704
835.366	396
835.460	1416
835.554	266
835.648	597
835.742	-161
835.836	790
835.930	-174
836.024	709
836.117	1248
836.211	706
836.305	153
836.399	1063
836.493	-897
836.586	1442
836.680	382
836.774	122
836.867	2117
836.961	830
837.055	377
837.148	98
837.242	-131
837.335	-524
837.429	660
837.522	422
837.616	137
837.709	855
837.803	568
837.896	1424
837.989	424
838.083	228
838.176	-179
838.269	-280
838.363	475
838.456	323
838.549	834
838.642	-275
838.735	-304
838.829	799
838.922	506
839.015	474
839.108	-710
839.201	1067
839.294	380
839.387	1131
839.480	-395
839.573	183
839.666	-350
839.759	681
839.852	-7
839.945	371
840.038	-268
840.131	496
840.223	-586
840.316	962
840.409	482
840.502	846
840.594	1285
840.687	-1408
840.780	420
840.873	-1137
840.965	-200
841.058	682
841.150	426
841.243	-883
841.336	335
841.428	413
841.521	-481
841.613	43
841.706	80
841.798	-816
841.890	-1017
841.983	-449
842.075	1334
842.167	11
842.260	-198
842.352	162
842.444	-753
842.537	-1004
842.629	222
842.721	398
842.813	-481
842.905	-382
842.997	417
843.090	342
843.182	190
843.274	-767
843.366	112
843.458	275
843.550	691
843.642	38
843.734	200
843.826	-745
843.918	-31
844.009	615
844.101	-559
844.193	44
844.285	776
844.377	-126
844.469	739
844.560	-556
844.652	59
844.744	433
844.835	-238
844.927	-198
845.019	268
845.110	-29
845.202	527
845.293	172
845.385	-551
845.476	217
845.568	777
845.659	-10
845.751	-386
845.842	78
845.934	-984
846.025	429
846.116	-385
846.208	-7
846.299	-616
846.390	-97
846.482	-396
846.573	410
846.664	562
846.755	-1082
846.846	-141
846.937	-1041
847.029	-650
847.120	-1087
847.211	-518
847.302	1220
847.393	-425
847.484	178
847.575	-436
847.666	-841
847.757	-356
847.847	111
847.938	235
848.029	-383
848.120	-590
848.211	-341
848.302	-1040
848.392	-300
848.483	-94
848.574	-694
848.664	-1004
848.755	-36
848.846	-774
848.936	-895
849.027	-781
849.118	1084
849.208	-1268
849.299	-12
849.389	1555
849.480	3168
849.570	6573
849.661	14968
849.751	17109
849.841	3007
849.932	-267
850.022	-1061
850.112	266
850.203	-784
850.293	-526
850.383	-556
850.474	-324
850.564	-820
850.654	-499
850.744	94
850.834	-497
850.924	-771
851.014	-132
851.104	-464
851.194	-1010
851.284	-577
851.374	-472
851.464	-1170
851.554	-752
851.644	-631
851.734	-46
851.824	200
851.914	-648
852.004	-464
852.094	-1302
852.183	-495
852.273	-92
852.363	-626
852.452	-421
852.542	-1380
852.632	-826
852.721	-50
852.811	-258
852.901	-238
852.990	-883
853.080	-315
853.169	-252
853.259	-1145
853.348	119
853.438	-148
853.527	1088
853.617	1279
853.706	4183
853.795	8082
853.885	19714
853.974	33370
854.063	60817
854.152	65197
854.242	16517
854.331	3494
854.420	1183
854.509	1258
854.598	293
854.687	-295
854.777	181
854.866	-364
854.955	528
855.044	-629
855.133	-149
855.222	-436
855.311	-731
855.400	-284
855.488	-798
855.577	-1086
855.666	-1032
855.755	-538
855.844	-140
855.933	-1005
856.021	-130
856.110	353
856.199	-1800
856.288	-1017
856.376	-759
856.465	-805
856.554	-936
856.642	-102
856.731	-440
856.819	-585
856.908	-238
856.996	94
857.085	-868
857.173	-412
857.262	-645
857.350	-535
857.438	-491
857.527	37
857.615	-1003
857.703	466
857.792	-1047
857.880	-675
857.968	-655
858.056	-829
858.145	-304
858.233	-723
858.321	-269
858.409	-849
858.497	-568
858.585	-1477
858.673	-264
858.761	-1273
858.849	-1077
858.937	-1478
859.025	-76
859.113	410
859.201	-710
859.289	-691
859.377	-788
859.465	-1026
859.552	-741
859.640	-1009
859.728	-1091
859.816	-504
859.903	-1400
859.991	-728
860.079	-412
860.166	-1206
860.254	-1157
860.342	211
860.429	-1588
860.517	-512
860.604	-422
860.692	129
860.779	-643
860.867	-510
860.954	-906
861.042	-721
861.129	-729
861.216	171
861.304	-971
861.391	-508
861.478	-235
861.565	-291
861.653	-464
861.740	-1275
861.827	-164
861.914	129
862.001	-383
862.089	-894
862.176	-110
862.263	-485
862.350	-269
862.437	-1743
862.524	-642
862.611	-65
862.698	-840
862.785	70
862.871	146
862.958	-50
863.045	-384
863.132	-839
863.219	-851
863.306	-1179
863.392	-329
863.479	152
863.566	-713
863.652	-16
863.739	-84
863.826	835
863.912	445
863.999	-636
864.086	-692
864.172	-288
864.259	-570
864.345	-473
864.432	-84
864.518	-550
864.604	-130
864.691	364
864.777	360
864.863	268
864.950	1529
865.036	2611
865.122	5216
865.209	4759
865.295	3501
865.381	3331
865.467	3669
865.553	4467
865.639	4627
865.726	6772
865.812	12364
865.898	19360
865.984	26782
866.070	49139
866.156	35381
866.242	9575
866.328	4705
866.414	2872
866.499	3176
866.585	2954
866.671	3809
866.757	3534
866.843	2688
866.928	2095
867.014	2335
867.100	2854
867.186	2521
867.271	2935
867.357	2391
867.442	2572
867.528	2899
867.614	3075
867.699	3184
867.785	3673
867.870	3731
867.956	2933
868.041	3046
868.127	2973
868.212	2969
868.297	2947
868.383	2520
868.468	2673
868.553	2384
868.639	2448
868.724	2181
868.809	2214
868.894	2226
868.979	1700
869.065	2711
869.150	1054
869.235	1844
869.320	1975
869.405	1569
869.490	2604
869.575	1461
869.660	2548
869.745	3331
869.830	1595
869.915	1660
870.000	1974
870.085	1741
870.169	3823
870.254	2394
870.339	1818
870.424	1704
870.509	1846
870.593	2325
870.678	2388
870.763	991
870.847	873
870.932	1540
871.016	1636
871.101	1091
871.186	1634
871.270	1772
871.355	394
871.439	1701
871.523	1261
871.608	974
871.692	2068
871.777	1893
871.861	1563
871.945	1329
872.030	1747
872.114	877
872.198	537
872.282	918
872.367	1096
872.451	1148
872.535	1354
872.619	1322
872.703	922
872.787	1547
872.871	1509
872.955	595
873.039	628
873.123	757
873.207	1437
873.291	576
873.375	1671
873.459	1533
873.543	597
873.627	979
873.711	935
873.794	1936
873.878	536
873.962	-309
874.045	1284
874.129	-114
874.137	-45
874.213	642
874.245	663
874.296	695
874.352	735
874.380	758
874.460	1726
874.464	1764
874.547	926
874.568	838
874.631	554
874.676	877
874.714	1158
874.784	1422
874.798	1472
874.881	1625
874.892	1482
874.965	511
874.999	1039
875.048	1762
875.107	969
875.131	638
875.215	345
875.215	345
875.298	372
875.323	461
875.381	721
875.430	1086
875.465	1269
875.538	1143
875.548	1131
875.631	741
875.646	552
875.714	-239
875.753	273
875.798	778
875.861	1358
875.881	1550
875.964	447
875.968	463
876.047	810
876.076	815
876.130	844
876.183	1095
876.213	1188
876.291	1533
876.296	1557
876.379	598
876.398	637
876.462	799
876.506	637
876.545	498
876.613	960
876.628	1041
876.711	1224
876.721	1239
876.794	1476
876.828	1157
876.877	683
876.935	681
876.960	688
877.043	1002
877.043	1002
877.125	1060
877.150	1293
877.208	1562
877.258	764
877.291	389
877.365	583
877.374	596
877.456	906
877.472	871
877.539	775
877.579	1054
877.622	1324
877.687	753
877.704	634
877.787	1158
877.794	1185
877.869	1132
877.901	959
877.952	785
878.008	730
878.034	693
878.115	33
878.117	27
878.199	785
878.222	964
878.282	1284
878.329	1426
878.364	1525
878.437	1485
878.447	1500
878.529	784
878.544	817
878.611	675
878.651	720
878.694	1059
878.758	1379
878.776	1377
878.858	798
878.865	782
878.941	420
878.972	346
879.023	572
879.078	216
879.105	87
879.185	1994
879.187	2023
879.269	1035
879.292	860
879.351	686
879.399	588
879.433	417
879.506	847
879.516	937
879.598	1098
879.613	1036
879.680	835
879.720	1122
879.762	1362
879.827	1337
879.844	1293
879.926	1375
879.933	1363
880.007	1307
880.040	1152
880.089	1114
880.147	2016
880.171	2398
880.253	2630
880.254	2627
880.335	2961
880.360	3509
880.417	6033
880.467	8690
880.499	9765
880.574	9683
880.580	9316
880.662	4046
880.680	2916
880.744	1376
880.787	954
880.825	866
880.893	989
880.907	976
880.989	1037
881.000	1010
881.070	1702
881.106	1994
881.152	1652
881.213	883
881.233	853
881.315	1371
881.319	1369
881.396	1241
881.426	1278
881.478	1514
881.532	1769
881.559	1794
881.639	1742
881.641	1742
881.722	1725
881.745	1622
881.803	1789
881.852	1922
881.885	1624
881.958	1091
881.966	1137
882.047	2117
882.064	2074
882.129	1103
882.171	562
882.210	270
882.277	249
882.291	341
882.372	1314
882.383	1376
882.454	2113
882.489	2224
882.535	1975
882.596	2038
882.616	1935
882.697	1224
882.702	1189
882.778	1416
882.808	1494
882.859	1139
882.914	894
882.940	1149
883.020	1276
883.021	1280
883.102	1426
883.127	1572
883.183	1950
883.233	2077
883.264	1674
883.339	808
883.345	808
883.426	511
883.445	593
883.507	1151
883.551	1365
883.587	1594
883.657	1696
883.668	1702
883.749	1915
883.763	1937
883.830	1256
883.869	1017
883.910	1157
883.975	1266
883.991	1332
884.072	1472
884.081	1480
884.152	2047
884.187	2376
884.233	2443
884.292	2393
884.314	2196
884.394	1243
884.398	1201
884.475	815
884.504	640
884.555	746
884.610	903
884.636	1133
884.716	1970
884.716	1981
884.797	2397
884.821	2449
884.877	1940
884.927	1531
884.958	1439
885.033	1118
885.038	1117
885.118	1188
885.139	1195
885.199	1349
885.244	1408
885.279	1533
885.350	1980
885.359	2083
885.439	2940
885.456	3006
885.520	2220
885.561	1877
885.600	1827
885.667	1578
885.680	1600
885.760	1668
885.773	1721
885.840	1555
885.878	1314
885.920	1244
885.984	1204
886.000	1289
886.080	1772
886.089	1809
886.160	2083
886.195	2049
886.240	1430
886.300	1010
886.320	1204
886.400	1844
886.406	1875
886.480	1670
886.511	1551
886.560	1378
886.616	1121
886.640	1200
886.720	1443
886.722	1443
886.800	1482
886.827	1500
886.879	1707
886.932	1938
886.959	2305
887.038	2949
887.039	2951
887.119	2320
887.143	2105
887.198	2132
887.248	1976
887.278	1946
887.354	1987
887.358	1980
887.437	1623
887.459	1545
887.517	2187
887.564	2556
887.596	2171
887.669	1339
887.676	1323
887.755	1244
887.774	1153
887.835	938
887.880	930
887.914	1414
887.985	2089
887.994	2190
888.073	3214
888.090	3393
888.153	3003
888.195	2783
888.232	2602
888.300	2087
888.311	2056
888.391	1908
888.405	1860
888.470	1332
888.510	1028
888.549	1442
888.615	2101
888.628	2219
888.708	2852
888.720	2949
888.787	2175
888.825	1662
888.866	1357
888.930	897
888.945	995
889.024	1570
889.035	1632
889.103	1977
889.140	2149
889.182	2076
889.245	1979
889.261	2089
889.340	2564
889.349	2614
889.419	1973
889.454	1631
889.498	1533
889.559	1403
889.577	1608
889.656	2486
889.664	2567
889.735	1904
889.768	1575
889.814	1965
889.873	2472
889.978	1958
890.083	1813
890.187	2520
890.292	2362
890.397	2206
890.501	1788
890.606	1348
890.710	2545
890.815	2921
890.919	2390
891.024	2344
891.128	1695
891.233	1274
891.337	3281
891.442	1815
891.546	1595
891.650	2297
891.755	807
891.859	3920
891.963	2229
892.068	1978
892.172	1822
892.276	487
892.380	2581
892.484	2751
892.589	3038
892.693	1786
892.797	2122
892.901	731
893.005	1709
893.109	3436
893.213	2148
893.317	1318
893.421	1008
893.525	1169
893.629	2015
893.733	2125
893.837	1249
893.941	1997
894.045	2204
894.148	1620
894.252	1258
894.356	2726
894.460	2302
894.564	1759
894.667	1917
894.771	1540
894.875	811
894.978	1400
895.082	1807
895.186	3020
895.289	1927
895.393	2419
895.496	2229
895.600	1576
895.703	1650
895.807	1130
895.910	2039
896.014	1810
896.117	760
896.221	2175
896.324	1359
896.427	1488
896.531	1301
896.634	895
896.737	1732
896.840	2466
896.944	1805
897.047	2193
897.150	1770
897.253	1488
897.356	907
897.460	1374
897.563	1709
897.666	2301
897.769	1703
897.872	1232
897.975	995
898.078	1744
898.181	2007
898.284	2075
898.387	1924
898.490	2429
898.593	1359
898.695	1399
898.798	1170
898.901	1337
899.004	1276
899.107	1496
899.209	1702
899.312	2698
899.415	1382
899.518	1266
899.620	1232
899.723	1269
899.826	1437
899.928	1345
900.031	1857
900.133	1784
900.236	1404
900.338	986
900.441	1611
900.543	1117
900.646	1128
900.748	1697
900.851	1602
900.953	840
901.055	813
901.158	939
901.260	-25
901.362	1379
901.465	-15
901.567	2165
901.669	2060
901.771	1895
901.873	1346
901.976	1540
902.078	933
902.180	466
902.282	1174
902.384	2066
902.486	2583
902.588	1418
902.690	701
902.792	874
902.894	1698
902.996	1519
903.098	1421
903.200	693
903.302	1178
903.404	1256
903.505	583
903.607	1341
903.709	1306
903.811	2025
903.913	797
904.014	37
904.116	523
904.218	851
904.319	1378
904.421	2755
904.523	952
904.624	760
904.726	781
904.827	405
904.929	1087
905.030	844
905.132	1564
905.233	397
905.335	1133
905.436	16
905.537	759
905.639	1626
905.740	232
905.841	1376
905.943	1396
906.044	527
906.145	1394
906.247	1212
906.348	802
906.449	1755
906.550	1209
906.651	1479
906.752	885
906.854	1029
906.955	150
907.056	646
907.157	1567
907.258	1062
907.359	217
907.460	441
907.561	515
907.662	1013
907.762	1090
907.863	856
907.964	848
908.065	550
908.166	388
908.267	604
908.367	296
908.468	829
908.569	749
908.670	1072
908.770	113
908.871	1132
908.971	680
909.072	975
909.173	101
909.273	830
909.374	1466
909.474	815
909.575	347
909.675	1155
909.776	1359
909.876	287
909.977	777
910.077	1204
910.177	545
910.278	1993
910.378	204
910.478	733
910.579	1636
910.679	724
910.779	1211
910.879	847
910.980	1274
911.080	576
911.180	318
911.280	-157
911.380	67
911.480	629
911.580	421
911.680	481
911.780	1613
911.880	1058
911.980	1062
912.080	85
912.180	1530
912.280	608
912.380	746
912.480	549
912.580	750
912.679	933
912.779	1207
912.879	9
912.979	510
913.078	136
913.178	60
913.278	-30
913.377	693
913.477	380
913.577	537
913.676	1226
913.776	1366
913.875	177
913.975	770
914.074	742
914.174	555
914.273	-127
914.373	1896
914.472	541
914.572	409
914.671	-68
914.770	576
914.870	138
914.969	-12
915.068	1074
915.167	83
915.267	312
915.366	1063
915.465	753
915.564	359
915.663	463
915.763	367
915.862	1170
915.961	1242
916.060	201
916.159	44
916.258	351
916.357	140
916.456	956
916.555	738
916.654	521
916.752	1276
916.851	371
916.950	157
917.049	650
917.148	382
917.247	641
917.345	179
917.444	-387
917.543	905
917.642	537
917.740	1153
917.839	561
917.937	1374
918.036	832
918.135	-1
918.233	-43
918.332	492
918.430	310
918.529	49
918.627	-51
918.726	995
918.824	-54
918.923	872
919.021	268
919.119	486
919.218	723
919.316	-33
919.414	91
919.512	461
919.611	1388
919.709	472
919.807	1501
919.905	1798
920.003	1441
920.102	751
920.200	1308
920.298	1734
920.396	1172
920.494	1686
920.592	594
920.690	1128
920.788	1070
920.886	1319
920.984	1978
921.082	785
921.180	1654
921.277	2028
921.375	1958
921.473	2879
921.571	2198
921.669	2108
921.766	1908
921.864	2179
921.962	2429
922.060	2024
922.157	2940
922.255	2966
922.352	2261
922.450	3389
922.548	2382
922.645	4316
922.743	4649
922.840	8720
922.938	8417
923.035	7885
923.133	8095
923.230	9195
923.327	11116
923.425	9064
923.522	9458
923.619	8163
923.717	7787
923.814	7544
923.911	8498
924.008	8549
924.106	7366
924.203	7120
924.300	8726
924.397	7387
924.494	7448
924.591	7039
924.688	7267
924.786	7263
924.883	7525
924.979	7536
925.077	7260
925.173	7564
925.270	7048
925.367	6930
925.464	7646
925.561	8271
925.658	7312
925.755	6353
925.852	7854
925.948	7242
926.045	6612
926.142	8152
926.239	8431
926.335	6402
926.432	8154
926.529	8573
926.625	8951
926.722	6439
926.818	7579
926.915	7451
927.011	5301
927.108	7303
927.204	5826
927.301	6483
927.397	7825
927.494	7124
927.590	4231
927.687	6077
927.783	7815
927.879	6869
927.976	4844
928.072	6434
928.168	7588
928.264	5826
928.361	6924
928.457	7476
928.553	5285
928.649	7248
928.745	5972
928.841	5855
928.937	6321
929.033	6140
929.129	6515
929.225	6624
929.321	5394
929.417	5954
929.513	6261
929.609	4580
929.705	5969
929.801	6354
929.897	5706
929.993	5406
930.089	5464
930.184	5275
930.280	6162
930.376	6766
930.471	4453
930.567	5078
930.663	5638
930.758	5004
930.854	5329
930.950	5256
931.045	4956
931.141	5402
931.236	6399
931.332	5583
931.427	4947
931.523	6309
931.618	4930
931.714	3532
931.809	5024
931.905	4607
932.000	3665
932.095	4523
932.191	6307
932.286	6661
932.381	3883
932.476	3286
932.572	4455
932.667	4012
932.762	3905
932.857	6071
932.952	5908
933.047	3812
933.142	3557
933.237	5501
933.332	5138
933.427	5469
933.522	3790
933.617	4166
933.712	4342
933.807	5575
933.902	5954
933.997	5541
934.092	3770
934.187	4251
934.282	3987
934.376	6110
934.471	4899
934.566	3653
934.661	4061
934.755	5291
934.850	4446
934.945	3598
935.039	2881
935.134	3855
935.228	4625
935.323	5685
935.417	3107
935.512	2770
935.606	3406
935.701	4272
935.795	5312
935.890	4463
935.984	3781
936.079	3729
936.173	4836
936.267	2847
936.362	2927
936.456	4678
936.550	5033
936.644	4262
936.738	2826
936.833	2894
936.927	2174
937.021	2785
937.115	4477
937.209	3527
937.303	3796
937.397	3452
937.491	4475
937.585	5191
937.679	3636
937.773	2905
937.867	1915
937.961	3739
938.055	5050
938.149	3097
938.243	2868
938.337	1872
938.430	3245
938.524	5418
938.618	3921
938.712	3543
938.805	2845
938.899	4949
938.993	4115
939.086	3213
939.180	3562
939.274	4619
939.367	4516
939.461	4111
939.554	3255
939.648	2779
939.741	2889
939.835	4466
939.928	4137
940.022	4051
940.115	3380
940.208	3264
940.302	4762
940.395	3930
940.488	2517
940.582	2766
940.675	2672
940.768	2852
940.861	3970
940.954	3106
941.048	2425
941.141	1752
941.234	2266
941.327	1984
941.420	4384
941.513	3519
941.606	2379
941.699	3447
941.792	4179
941.885	2739
941.978	2753
942.071	2854
942.164	1327
942.257	2443
942.349	2700
942.442	2818
942.535	1678
942.628	1654
942.721	3513
942.813	1595
942.906	3545
942.999	2078
943.091	2178
943.184	1928
943.277	2141
943.369	1673
943.462	2059
943.554	3065
943.647	2198
943.739	4189
943.832	2487
943.924	914
944.017	2171
944.109	911
944.201	1933
944.294	1946
944.386	2591
944.478	1633
944.571	1914
944.663	1300
944.755	2162
944.847	2725
944.940	1964
945.032	39
945.124	802
945.216	3311
945.308	2676
945.400	2335
945.492	2280
945.584	3080
945.676	2204
945.768	2556
945.860	3267
945.952	2410
946.044	2401
946.136	1978
946.228	2056
946.320	1707
946.412	1527
946.503	3074
946.595	2123
946.687	1227
946.779	170
946.870	1437
946.962	1087
947.054	2467
947.145	1874
947.237	1815
947.329	2022
947.420	2165
947.512	1056
947.603	1666
947.695	1964
947.786	1590
947.878	1514
947.969	2566
948.061	1418
948.152	1099
948.243	897
948.335	540
948.426	1138
948.517	1348
948.609	1999
948.700	2352
948.791	1131
948.882	1060
948.973	1027
949.065	1725
949.156	1918
949.247	144
949.338	1730
949.429	639
949.520	1554
949.611	1052
949.702	1540
949.793	2016
949.884	1769
949.975	1002
950.066	671
950.157	1215
950.247	264
950.338	798
950.429	1440
950.520	1889
950.611	538
950.701	1724
950.792	1880
950.883	1955
950.973	1014
951.064	1706
951.155	1411
951.245	2329
951.336	682
951.427	1923
951.517	2031
951.608	1148
951.698	516
951.788	1136
951.879	812
951.969	712
952.060	1216
952.150	1212
952.240	2037
952.331	151
952.421	2088
952.511	3
952.602	1087
952.692	578
952.782	1022
952.872	789
952.962	741
953.052	1134
953.143	481
953.233	1013
953.323	1421
953.413	996
953.503	1461
953.593	472
953.683	546
953.773	311
953.863	881
953.953	436
954.042	1265
954.132	840
954.222	770
954.312	111
954.402	629
954.492	632
954.581	881
954.671	1394
954.761	124
954.850	948
954.940	118
955.030	234
955.119	-33
955.209	362
955.298	302
955.388	1431
955.477	863
955.567	-251
955.656	727
955.746	854
955.835	688
955.925	218
956.014	1015
956.103	1415
956.193	1509
956.282	1294
956.371	878
956.461	800
956.550	93
956.639	939
956.728	785
956.817	541
956.906	681
956.995	1302
957.085	-166
957.174	970
957.263	-29
957.352	874
957.441	200
957.530	1007
957.619	499
957.708	-847
957.796	742
957.885	1055
957.974	-80
958.063	473
958.152	-518
958.241	995
958.329	588
958.418	253
958.507	206
958.596	2093
958.684	-418
958.773	268
958.861	-115
958.950	5
959.039	1382
959.127	561
959.216	522
959.304	746
959.393	-625
959.481	456
959.570	-756
959.658	-403
959.746	-914
959.835	530
959.923	320
960.011	-279
960.100	1008
960.188	563
960.276	100
960.365	209
960.453	-472
960.541	-561
960.629	446
960.717	-524
960.805	-1091
960.893	109
960.981	-367
961.069	1098
961.158	642
961.245	1622
961.333	569
961.421	32
961.509	21
961.597	1238
961.685	515
961.773	-240
961.861	244
961.949	931
962.036	-27
962.124	223
962.212	24
962.299	29
962.387	-522
962.475	519
962.562	-486
962.650	1004
962.738	703
962.825	-819
962.913	-490
963.000	-373
963.088	-118
963.175	161
963.263	-250
963.350	-404
963.438	-322
963.525	-571
963.612	878
963.700	593
963.787	325
963.874	-174
963.962	718
964.049	-461
964.136	42
964.223	-1040
964.310	-816
964.398	-349
964.485	-1062
964.572	460
964.659	605
964.746	-593
964.833	-215
964.920	-478
965.007	-212
965.094	425
965.181	66
965.268	-128
965.355	664
965.441	-159
965.528	-147
965.615	955
965.702	-165
965.789	-1088
965.875	1002
965.962	502
966.049	-877
966.136	1018
966.222	526
966.309	721
966.395	317
966.482	398
966.569	-701
966.655	-25
966.742	-556
966.828	-49
966.915	-502
967.001	-142
967.087	-833
967.174	-368
967.260	408
967.347	447
967.433	-124
967.519	421
967.605	-299
967.692	-491
967.778	-70
967.864	-405
967.950	122
968.036	126
968.123	-319
968.209	132
968.295	-596
968.381	1092
968.467	367
968.553	-1112
968.639	703
968.725	-468
968.811	1118
968.897	-168
968.983	-61
969.069	-710
969.154	643
969.240	684
969.326	-845
969.412	-375
969.497	-651
969.583	-811
969.669	722
969.755	-500
969.840	-140
969.926	662
970.012	783
970.097	2126
970.183	11
970.268	437
970.354	-142
970.439	-1304
970.525	468
970.610	-737
970.696	795
970.781	-219
970.866	-816
970.952	108
971.037	-102
971.122	1
971.208	-310
971.293	-522
971.378	-62
971.463	-438
971.549	-110
971.634	-231
971.719	-402
971.804	-704
971.889	-366
971.974	-178
972.059	-806
972.144	452
972.229	-441
972.314	319
972.399	-56
972.484	-379
972.569	464
972.654	-1529
972.739	188
972.824	-1287
972.908	-1496
972.993	-537
973.078	-655
973.163	-472
973.247	-50
973.332	-1176
973.417	419
973.501	-755
973.586	563
973.671	-142
973.755	-474
973.840	-44
973.924	843
974.009	-92
974.093	324
974.178	-367
974.262	683
974.346	-624
974.431	-496
974.515	-511
974.600	-322
974.684	37
974.768	-374
974.852	1441
974.937	-1727
975.021	616
975.105	-256
975.189	-647
975.273	210
975.358	-1141
975.442	-626
975.526	879
975.610	-812
975.694	-673
975.778	466
975.862	-370
975.946	-1735
976.030	832
976.114	-752
976.198	140
976.281	-716
976.365	636
976.449	-129
976.533	617
976.617	-1192
976.700	129
976.784	-729
976.868	-840
976.951	-1284
977.035	-676
977.119	-433
977.202	-469
977.286	-362
977.369	275
977.453	174
977.536	883
977.620	412
977.703	18
977.787	-1009
977.870	474
977.953	577
978.037	-1209
978.120	245
978.203	-632
978.287	12
978.370	-183
978.453	-881
978.536	-336
978.620	697
978.703	-520
978.786	-728
978.869	-89
978.952	-1314
979.035	1121
979.118	-495
979.201	-1138
979.284	-138
979.367	-763
979.450	144
979.533	-344
979.616	-371
979.699	-850
979.782	-62
979.865	-354
979.948	-524
980.030	-1027
980.113	-280
980.196	-1012
980.279	94
980.361	124
980.444	163
980.526	-61
980.609	583
980.692	384
980.774	503
980.857	-557
980.939	495
981.022	-62
981.104	-244
981.187	-252
981.269	-243
981.352	622
981.434	-1463
981.516	-50
981.599	1091
981.681	347
981.763	-397
981.846	-291
981.928	-345
982.010	-634
982.092	-132
982.174	176
982.256	-416
982.339	-501
982.421	-2
982.503	229
982.585	-971
982.667	-600
982.749	-232
982.831	349
982.913	-1780
982.995	23
983.077	-176
983.158	594
983.240	-928
983.322	1097
983.404	1386
983.486	192
983.568	392
983.649	-58
983.731	683
983.813	-185
983.894	838
983.976	-549
984.058	91
984.139	1489
984.221	-853
984.302	547
984.384	-323
984.465	-272
984.547	-116
984.628	-426
984.710	549
984.791	-189
984.872	-590
984.954	-216
985.035	1174
985.116	429
985.198	-589
985.279	1318
985.360	124
985.441	-238
985.522	158
985.604	-167
985.685	-1689
985.766	1106
985.847	719
985.928	-429
986.009	43
986.090	400
986.171	659
986.252	-301
986.333	128
986.414	339
986.495	166
986.576	23
986.656	781
986.737	757
986.818	-84
986.899	-81
986.980	-16
987.060	1404
987.141	66
987.222	623
987.302	553
987.383	1761
987.464	826
987.544	590
987.625	9
987.705	690
987.786	1390
987.866	1099
987.947	803
988.027	274
988.108	-419
988.188	884
988.268	102
988.349	639
988.429	29
988.509	805
988.589	698
988.670	64
988.750	998
988.830	384
988.910	1152
988.990	1107
989.070	152
989.151	-287
989.231	-410
989.311	1229
989.391	667
989.471	658
989.551	-117
989.631	-406
989.711	1350
989.791	-864
989.870	-621
989.950	1339
990.030	-27
990.110	806
990.190	308
990.269	193
990.349	-378
990.429	-557
990.509	724
990.588	228
990.668	229
990.747	-245
990.827	335
990.907	-375
990.986	-398
991.066	-121
991.145	-897
991.225	46
991.304	-107
991.383	-209
991.463	361
991.542	211
991.622	-506
991.701	-709
991.780	-428
991.859	-123
991.939	-1014
992.018	-256
992.097	495
992.176	-423
992.256	-558
992.335	-722
992.414	341
992.493	-645
992.572	-1024
992.651	290
992.730	-714
992.809	778
992.888	-101
992.967	-1358
993.046	59
993.125	-1698
993.203	-380
993.282	438
993.361	-772
993.440	-412
993.519	-578
993.597	-213
993.676	-578
993.755	-20
993.834	-471
993.912	-909
993.991	39
994.069	-1251
994.148	333
994.226	-897
994.305	175
994.384	-699
994.462	104
994.540	-1866
994.619	-962
994.697	-298
994.776	-1454
994.854	-615
994.932	-1467
995.011	-1311
995.089	-1257
995.167	-1284
995.245	-489
995.324	-891
995.402	-255
995.480	-1830
995.558	-539
995.636	-1583
995.714	-1150
995.792	294
995.870	-1463
995.948	-576
996.026	-555
996.104	-1940
996.182	-442
996.260	-1701
996.338	-206
996.416	-1358
996.494	-1273
996.572	-681
996.649	-1472
996.727	-1179
996.805	-95
996.883	-1301
996.960	-213
997.038	-630
997.116	-844
997.193	-1499
997.271	-1657
997.348	-1240
997.426	-359
997.504	-1027
997.581	-641
997.658	-832
997.736	-2444
997.813	-1313
997.891	225
997.968	-1636
998.046	-795
998.123	-1886
998.200	-1135
998.277	-745
998.355	-939
998.432	-2274
998.509	-1359
998.586	-645
998.663	-1235
998.741	-1711
998.818	-794
998.895	-1504
998.972	-194
999.049	-1062
999.126	-1741
999.203	-1146
999.280	-740
999.357	-1173
999.434	-1492
999.511	-1272
999.587	-964
999.664	-1604
999.741	-749
999.818	-847
999.895	-1570
999.971	-1338
1000.048	-1426
1000.125	-921
1000.202	-1969
1000.278	-1318
1000.355	-1150
1000.431	-1350
1000.508	-1226
1000.584	-1641
1000.661	-1624
1000.738	-1860
1000.814	-1472
1000.890	-920
1000.967	-1419
1001.043	-732
1001.120	-2647
1001.196	-1048
1001.272	-1398
1001.349	-260
1001.425	-674
1001.501	-2013
1001.577	-1733
1001.654	-1009
1001.730	-982
1001.806	-1363
1001.882	-1792
1001.958	-396
1002.034	-1316
1002.110	-803
1002.186	-1999
1002.262	-1259
1002.338	-2249
1002.414	-1000
1002.490	-1458
1002.566	-1030
1002.642	-1934
1002.718	-998
1002.794	-1274
1002.870	-757
1002.945	-1649
1003.021	-1593
1003.097	-697
1003.173	-669
1003.248	-2138
1003.324	-1169
1003.400	-686
1003.475	-1924
1003.551	-1106
1003.626	-874
1003.702	-1590
1003.777	-1123
1003.853	-1656
1003.928	-1497
1004.004	-1211
1004.079	-843
1004.155	-1110
1004.230	-2489
1004.305	-351
1004.381	-1256
1004.456	-1933
1004.531	-1291
1004.607	-1522
1004.682	-1745
1004.757	-1229
1004.832	-2038
1004.907	-1818
1004.982	-1246
1005.057	-1696
1005.133	-1802
1005.208	-1886
1005.283	-1746
1005.358	-797
1005.433	-2671
1005.508	-1417
1005.583	-1439
1005.657	-1739
1005.732	-621
1005.807	-2324
1005.882	-2172
1005.957	-1975
1006.032	-2026
1006.106	-1887
1006.181	-1516
1006.256	-1107
1006.331	-1576
1006.405	-2243
1006.480	-1368
1006.554	-1508
1006.629	-1743
1006.704	-2761
1006.778	-1512
1006.853	-537
1006.927	-1640
1007.002	-2088
1007.076	-1403
1007.150	-1284
1007.225	-1410
1007.299	-1583
1007.373	-1870
1007.448	-1410
1007.522	-1553
1007.596	-1241
1007.671	-1264
1007.745	-1490
1007.819	-2861
1007.893	-2088
1007.967	-1235
1008.041	-2502
1008.115	-861
1008.190	-2141
1008.264	-942
1008.338	-2026
1008.412	-1908
1008.486	-1797
1008.560	-1505
1008.633	-1803
1008.707	-1058
1008.781	-1131
1008.855	-1832
1008.929	-963
1009.003	-2790
1009.076	-1229
1009.150	-2210
1009.224	-1588
1009.298	-1366
1009.371	-2282
1009.445	-410
1009.519	-1613
1009.592	-2455
1009.666	-1470
1009.739	-1107
1009.813	-1923
1009.886	-518
1009.960	-2486
1010.033	-923
1010.107	-1230
1010.180	-2285
1010.253	-1406
1010.327	-1213
1010.400	-1115
1010.473	-1719
1010.547	-1056
1010.620	-1957
1010.693	-1790
1010.766	-1487
1010.840	-1713
1010.913	-1661
1010.986	-2409
1011.059	-1836
1011.132	-1160
1011.205	-1389
1011.278	-2013
1011.351	-1966
1011.424	-1167
1011.497	-1778
1011.570	-1328
1011.643	-2512
1011.716	-2631
1011.789	-2049
1011.862	-1118
1011.934	-967
1012.007	-3557
1012.080	-1953
1012.153	-1706
1012.225	-1120
1012.298	-1832
1012.371	-1803
1012.443	-1301
1012.516	-2551
1012.588	-1725
1012.661	-2085
1012.733	-2618
1012.806	-1498
1012.879	-2914
1012.951	-2100
1013.023	-2787
1013.096	-2433
1013.168	-1559
1013.241	-1575
1013.313	-1390
1013.385	-2227
1013.458	-2085
1013.530	-1822
1013.602	-2711
1013.674	-1317
1013.746	-2006
1013.819	-1959
1013.891	-1776
1013.963	-2037
1014.035	-1664
1014.107	-1741
1014.179	-1851
1014.251	-2516
1014.323	-1494
1014.395	-1429
1014.467	-2164
1014.539	-1628
1014.611	-2232
1014.683	-1519
1014.754	-2224
1014.826	-2792
1014.898	-1878
1014.970	-2876
1015.042	-563
1015.113	-1284
1015.185	-1095
1015.257	-2368
1015.328	-1993
1015.400	-2112
1015.471	-2070
1015.543	-1855
1015.615	-2110
1015.686	-1661
1015.757	-1903
1015.829	-1984
1015.901	-2042
1015.972	-1866
1016.043	-2023
1016.115	-2046
1016.186	-2656
1016.257	-2031
1016.328	-1809
1016.400	-1990
1016.471	-2414
1016.542	-968
1016.613	-1480
1016.685	-1658
1016.756	-1178
1016.827	-2261
1016.898	-1854
1016.969	-1781
1017.040	-2399
1017.111	-1794
1017.182	-2149
1017.253	-2615
1017.324	-1591
1017.395	-1700
1017.466	-1436
1017.537	-1579
1017.608	-1422
1017.678	-2202
1017.749	-2087
1017.820	-1586
1017.891	-2294
1017.961	-1790
1018.032	-2430
1018.103	-2939
1018.173	-2135
1018.244	-1730
1018.315	-2463
1018.385	-1753
1018.456	-2621
1018.526	-2461
1018.597	-1879
1018.667	-1990
1018.738	-1807
1018.808	-1360
1018.878	-2052
1018.949	-2271
1019.019	-1584
1019.089	-1806
1019.160	-1647
1019.230	-2482
1019.300	-1955
1019.371	-2954
1019.441	-1477
1019.511	-1429
1019.581	-1895
1019.651	-2479
1019.721	-3028
1019.791	-2282
1019.861	-2391
1019.931	-2146
1020.001	-2244
1020.071	-1744
1020.141	-2185
1020.211	-1977
1020.281	-2899
1020.351	-2371
1020.421	-1969
1020.491	-2348
1020.560	-2415
1020.630	-2310
1020.700	-2595
1020.770	-2396
1020.839	-1912
1020.909	-2383
1020.979	-2570
1021.048	-2500
1021.118	-1852
1021.187	-2246
1021.257	-2208
1021.326	-1849
1021.396	-2275
1021.465	-2436
1021.535	-2065
1021.604	-2891
1021.674	-2216
1021.743	-2439
1021.812	-1482
1021.882	-1242
1021.951	-1167
1022.020	-1463
1022.089	-1907
1022.159	-2155
1022.228	-2520
1022.297	-2407
1022.366	-1129
1022.435	-2598
1022.504	-2133
1022.573	-2550
1022.642	-1896
1022.711	-2562
1022.781	-1825
1022.849	-1987
1022.918	-1422
1022.987	-2310
1023.056	-2687
1023.125	-3106
1023.194	-2579
1023.263	-1796
1023.331	-1894
1023.400	-2422
1023.469	-2401
1023.538	-1169
1023.606	-2176
1023.675	-1924
1023.744	-3058
1023.812	-3190
1023.881	-1939
1023.949	-2350
1024.018	-3219
1024.086	-1813
1024.155	-2275
1024.223	-2301
1024.292	-2566
1024.360	-2085
1024.429	-2477
1024.497	-2765
1024.565	-2731
1024.634	-2548
1024.702	-1998
1024.770	-1021
1024.838	-2477
1024.907	-1477
1024.975	-2384
1025.043	-2351
1025.111	-3139
1025.179	-2325
1025.247	-2580
1025.315	-2096
1025.383	-1488
1025.451	-1064
1025.519	-2710
1025.587	-2156
1025.655	-1734
1025.723	-2300
1025.791	-1424
1025.859	-2682
1025.927	-2093
1025.995	-2577
1026.062	-2117
1026.130	-1843
1026.198	-2244
1026.266	-2638
1026.333	-1706
1026.401	-1937
1026.469	-2526
1026.536	-2796
1026.604	-1963
1026.671	-1755
1026.739	-2330
1026.806	-2257
1026.874	-2202
1026.941	-2384
1027.009	-2801
1027.076	-2736
1027.144	-1277
1027.211	-2516
1027.278	-3105
1027.345	-2502
1027.413	-1544
1027.480	-2317
1027.547	-2398
1027.614	-2678
1027.682	-2318
1027.749	-2335
1027.816	-2828
1027.883	-2609
1027.950	-2409
1028.017	-2698
1028.084	-1717
1028.151	-2555
1028.218	-2377
1028.285	-2106
1028.352	-2558
1028.419	-2444
1028.486	-2365
1028.553	-2410
1028.619	-2384
1028.686	-2351
1028.753	-2874
1028.820	-3103
1028.886	-1959
1028.953	-2474
1029.020	-2393
1029.086	-2344
1029.153	-2360
1029.220	-2829
1029.286	-2457
1029.353	-2707
1029.419	-2707
1029.486	-2192
1029.552	-2107
1029.619	-3100
1029.685	-2558
1029.751	-2979
1029.818	-1016
1029.884	-2587
1029.951	-1404
1030.017	-2304
1030.083	-2563
1030.149	-2640
1030.216	-2727
1030.282	-2397
1030.348	-1595
1030.414	-2996
1030.480	-2871
1030.546	-2345
1030.612	-2461
1030.678	-2656
1030.744	-2606
1030.810	-1413
1030.876	-2111
1030.942	-2613
1031.008	-1693
1031.074	-2641
1031.140	-2131
1031.206	-2180
1031.272	-2161
1031.337	-1979
1031.403	-2596
1031.469	-2932
1031.534	-2741
1031.600	-2688
1031.666	-2216
1031.731	-2444
1031.797	-1868
1031.863	-3055
1031.928	-2303
1031.994	-2376
1032.059	-2482
1032.125	-1673
1032.190	-2390
1032.256	-2022
1032.321	-1730
1032.386	-2055
1032.452	-1869
1032.517	-2294
1032.582	-2229
1032.647	-2187
1032.713	-1709
1032.778	-1784
1032.843	-2921
1032.908	-2327
1032.974	-2949
1033.039	-2072
1033.104	-1659
1033.169	-3327
1033.234	-2073
1033.299	-1899
1033.364	-2014
1033.429	-2158
1033.494	-2286
1033.559	-2250
1033.624	-1717
1033.688	-2928
1033.753	-2950
1033.818	-1771
1033.883	-2554
1033.948	-1752
1034.013	-1439
1034.077	-1412
1034.142	-878
1034.207	-763
1034.271	821
1034.336	308
1034.400	-1152
1034.465	-859
1034.530	-1911
1034.594	-1646
1034.658	-2276
1034.723	-2748
1034.787	-1662
1034.852	-1351
1034.916	-1802
1034.981	-1560
1035.045	-2568
1035.109	-2262
1035.173	-1841
1035.238	-2330
1035.302	-2197
1035.366	-2114
1035.430	-2037
1035.495	-1788
1035.559	-1953
1035.623	-2128
1035.687	-2600
1035.751	-1810
1035.815	-2578
1035.879	-1660
1035.943	-2556
1036.007	-2756
1036.071	-2016
1036.135	-2491
1036.198	-2393
1036.262	-2193
1036.326	-1663
1036.390	-1850
1036.454	-1994
1036.517	-2216
1036.581	-1162
1036.645	-1922
1036.709	-1600
1036.772	-2113
1036.836	-2106
1036.900	-1295
1036.963	-2022
1037.026	-1869
1037.090	-1771
1037.154	-1989
1037.217	-2461
1037.280	-1886
1037.344	-1563
1037.407	-2622
1037.471	-1933
1037.534	-2419
1037.597	-2290
1037.661	-2459
1037.724	-1545
1037.787	-2409
1037.850	-1678
1037.913	-1983
1037.977	-1907
1038.040	-1912
1038.103	-2263
1038.166	-1529
1038.229	-1383
1038.292	-1997
1038.355	-1892
1038.418	-2505
1038.481	-1215
1038.544	-2567
1038.607	-2171
1038.670	-2277
1038.732	-1565
1038.795	-2907
1038.858	-2106
1038.921	-2148
1038.984	-1939
1039.046	-2088
1039.109	-1899
1039.172	-1565
1039.234	-2524
1039.297	-2634
1039.360	-2645
1039.422	-2674
1039.485	-1227
1039.547	-2032
1039.610	-2262
1039.672	-2750
1039.734	-2328
1039.797	-2022
1039.859	-2427
1039.922	-2107
1039.984	-2061
1040.046	-2294
1040.109	-2059
1040.171	-2286
1040.233	-2346
1040.295	-1309
1040.358	-1903
1040.420	-1842
1040.482	-2030
1040.544	-2130
1040.606	-2487
1040.668	-1609
1040.730	-1093
1040.792	-1906
1040.854	-2286
1040.916	-2713
1040.978	-2543
1041.040	-1727
1041.102	-2143
1041.164	-2242
1041.225	-1488
1041.287	-1829
1041.349	-1888
1041.411	-2681
1041.472	-2811
1041.534	-2053
1041.596	-2149
1041.657	-2522
1041.719	-2030
1041.781	-2134
1041.842	-2150
1041.904	-2351
1041.965	-2518
1042.027	-2021
1042.088	-2118
1042.150	-2321
1042.211	-3264
1042.272	-1712
1042.334	-1866
1042.395	-2167
1042.456	-1965
1042.518	-1993
1042.579	-1348
1042.640	-3288
1042.701	-2433
1042.763	-2557
1042.824	-2197
1042.885	-2207
1042.946	-2811
1043.007	-1663
1043.068	-1736
1043.129	-2099
1043.190	-2929
1043.251	-1501
1043.312	-2259
1043.373	-2089
1043.434	-2074
1043.495	-2327
1043.556	-1668
1043.616	-1946
1043.677	-1190
1043.738	-1485
1043.799	-1302
1043.859	-1621
1043.920	-1568
1043.981	-2209
1044.041	-1001
1044.102	-2043
1044.162	-1870
1044.223	-2742
1044.284	-1819
1044.344	-1842
1044.405	-1886
1044.465	-2528
1044.525	-2023
1044.586	-1669
1044.646	-2261
1044.707	-2440
1044.767	-2076
1044.827	-1336
1044.887	-1848
1044.948	-1900
1045.008	-1316
1045.068	-2053
1045.128	-1793
1045.188	-1827
1045.249	-1446
1045.309	-2509
1045.369	-2087
1045.429	-2045
1045.489	-2336
1045.549	-1665
1045.609	-1493
1045.669	-2192
1045.729	-975
1045.789	-1695
1045.848	-1524
1045.908	-1273
1045.968	-1834
1046.028	-1937
1046.088	-1296
1046.147	-1487
1046.207	-2199
1046.267	-1502
1046.326	-1097
1046.386	-1515
1046.446	-870
1046.505	-1669
1046.565	-1210
1046.624	-1026
1046.684	-1213
1046.743	-991
1046.803	-338
1046.862	-256
1046.922	0
