'Start Wavelength	183.907
'End Wavelength	1046.922
'Gate Delay	5.000
'Gate Width (ms)	1.050
'Laser Output Level	0.000
'X Position	0.000
'Y Position	0.000
'Z Position	0.000
'Grid Point Number	1.000
'Shot Number	100.000
183.907	246.000
183.977	244.000
184.047	264
184.116	645
184.186	875
184.256	-483
184.325	-27
184.395	-105
184.465	524
184.534	-2
184.604	-659
184.674	83
184.743	438
184.813	50
184.883	469
184.952	-276
185.022	680
185.092	50
185.161	-25
185.231	49
185.301	736
185.370	1266
185.440	-450
185.509	217
185.579	-397
185.649	205
185.718	979
185.788	785
185.857	-72
185.927	92
185.996	137
186.066	179
186.136	444
186.205	79
186.275	494
186.344	-37
186.414	-244
186.483	452
186.553	1208
186.622	1301
186.692	727
186.761	-103
186.831	-706
186.900	-201
186.970	1143
187.039	313
187.109	579
187.178	841
187.248	-80
187.317	672
187.387	483
187.456	655
187.526	954
187.595	741
187.664	-394
187.734	572
187.803	173
187.873	663
187.942	1257
188.012	270
188.081	1109
188.150	627
188.220	1677
188.289	1485
188.358	721
188.428	284
188.497	-600
188.567	535
188.636	706
188.705	-444
188.775	351
188.844	19
188.913	1232
188.983	-203
189.052	778
189.121	-184
189.191	-9
189.260	942
189.329	608
189.399	991
189.468	167
189.537	43
189.606	248
189.676	718
189.745	1129
189.814	458
189.883	570
189.953	337
190.022	923
190.091	3438
190.161	4994
190.230	2336
190.299	124
190.368	483
190.437	724
190.507	694
190.576	445
190.645	586
190.714	742
190.783	-48
190.853	1252
190.922	104
190.991	841
191.060	343
191.129	93
191.198	441
191.268	608
191.337	292
191.406	480
191.475	296
191.544	-71
191.613	818
191.682	623
191.752	35
191.821	344
191.890	503
191.959	-66
192.028	1194
192.097	1006
192.166	380
192.235	-336
192.304	1083
192.373	26
192.442	1088
192.511	611
192.580	353
192.650	591
192.719	506
192.788	1421
192.857	451
192.926	-107
192.995	472
193.064	2927
193.133	2820
193.202	2179
193.271	996
193.340	1808
193.409	1734
193.478	2317
193.547	2296
193.615	2915
193.684	3692
193.753	1546
193.822	1367
193.891	632
193.960	1254
194.029	676
194.098	1219
194.167	463
194.236	823
194.305	170
194.374	602
194.443	865
194.512	859
194.580	96
194.649	1815
194.718	1003
194.787	667
194.856	-70
194.925	1209
194.994	669
195.062	364
195.131	947
195.200	773
195.269	1344
195.338	532
195.407	48
195.475	826
195.544	1551
195.613	1471
195.682	565
195.751	213
195.819	1093
195.888	1187
195.957	1260
196.026	939
196.094	990
196.163	1410
196.232	1020
196.301	1271
196.369	1289
196.438	986
196.507	1306
196.576	240
196.644	554
196.713	888
196.782	818
196.850	1035
196.919	821
196.988	794
197.056	921
197.125	997
197.194	749
197.262	670
197.331	630
197.400	978
197.468	1343
197.537	332
197.606	821
197.674	2612
197.743	4263
197.812	2143
197.880	4851
197.949	2862
198.017	3833
198.086	2703
198.155	1528
198.223	1618
198.292	5128
198.360	2927
198.429	1845
198.497	1352
198.566	2776
198.635	5414
198.703	2499
198.772	1711
198.840	5737
198.909	6603
198.977	2135
199.046	1208
199.114	1813
199.183	1843
199.251	719
199.320	1256
199.388	621
199.457	591
199.525	2064
199.594	1286
199.662	536
199.731	1051
199.799	1441
199.867	1265
199.936	385
200.004	1462
200.073	711
200.141	391
200.210	513
200.278	663
200.346	1375
200.415	1764
200.483	2018
200.552	1493
200.620	1094
200.688	212
200.757	1155
200.825	985
200.893	1404
200.962	546
201.030	760
201.098	619
201.167	1991
201.235	1321
201.303	1013
201.372	967
201.440	890
201.508	1053
201.577	556
201.645	722
201.713	575
201.781	996
201.850	1502
201.918	1519
201.986	1231
202.055	1798
202.123	986
202.191	1518
202.259	746
202.327	545
202.396	1552
202.464	849
202.532	1569
202.600	4179
202.669	3461
202.737	1319
202.805	1022
202.873	1702
202.941	1441
203.009	860
203.078	1143
203.146	1446
203.214	-20
203.282	354
203.350	1730
203.418	1940
203.487	1313
203.555	1200
203.623	361
203.691	1237
203.759	530
203.827	1001
203.895	1456
203.963	1443
204.031	1704
204.099	1429
204.168	1112
204.236	1674
204.304	1283
204.372	1107
204.440	1240
204.508	1108
204.576	1887
204.644	1489
204.712	1240
204.780	1211
204.848	1188
204.916	1078
204.984	871
205.052	1582
205.120	1071
205.188	1894
205.256	1490
205.324	1470
205.392	1617
205.460	1905
205.528	1429
205.596	1513
205.664	1679
205.732	1926
205.799	7108
205.867	11181
205.935	2746
206.003	2585
206.071	2250
206.139	1241
206.207	1548
206.275	1562
206.343	943
206.411	1176
206.478	2096
206.546	2150
206.614	1379
206.682	1989
206.750	2096
206.818	2763
206.885	3963
206.953	1419
207.021	1773
207.089	1270
207.157	1042
207.225	1597
207.292	2197
207.360	1854
207.428	2282
207.496	853
207.563	1983
207.631	1209
207.699	691
207.767	1528
207.834	1480
207.902	2178
207.970	1972
208.038	1047
208.105	1559
208.173	2393
208.241	3718
208.309	2506
208.376	2544
208.444	5225
208.512	3194
208.579	1543
208.647	3197
208.715	3238
208.782	1813
208.850	2292
208.918	1653
208.985	2676
209.053	2359
209.120	1967
209.188	1880
209.256	2123
209.323	1529
209.391	2179
209.459	2832
209.526	2211
209.594	2187
209.661	1805
209.729	2417
209.796	1923
209.864	2313
209.932	1069
209.999	3080
210.067	2677
210.134	2522
210.202	2186
210.269	2954
210.337	3883
210.404	2623
210.472	1697
210.539	1895
210.607	1872
210.674	2378
210.742	1920
210.809	2018
210.877	2435
210.944	3295
211.012	1864
211.079	4432
211.146	2927
211.214	1952
211.281	3406
211.349	3612
211.416	3556
211.484	2981
211.551	2022
211.618	2533
211.686	2928
211.753	953
211.821	3315
211.888	2933
211.955	2463
212.023	2510
212.090	2443
212.157	2887
212.225	3333
212.292	7012
212.359	11763
212.427	30097
212.494	14986
212.561	5621
212.629	4132
212.696	3366
212.763	3210
212.831	2251
212.898	3340
212.965	3649
213.032	2644
213.100	2739
213.167	3259
213.234	3425
213.301	2760
213.369	3707
213.436	3298
213.503	2697
213.570	2926
213.638	3662
213.705	3065
213.772	2447
213.839	3278
213.906	4900
213.973	3050
214.041	2012
214.108	2371
214.175	2432
214.242	2743
214.309	3185
214.376	3026
214.444	3019
214.511	3653
214.578	3177
214.645	3002
214.712	3753
214.779	2973
214.846	3510
214.913	4599
214.980	4059
215.048	4417
215.115	5146
215.182	3048
215.249	3423
215.316	2292
215.383	3587
215.450	3775
215.517	2056
215.584	3365
215.651	1968
215.718	2947
215.785	2848
215.852	1910
215.919	3532
215.986	3268
216.053	3141
216.120	1737
216.187	2878
216.254	2742
216.321	2828
216.388	3370
216.455	3380
216.522	3113
216.589	4221
216.656	6209
216.722	5312
216.789	4792
216.856	3923
216.923	4174
216.990	4308
217.057	3538
217.124	4903
217.191	4677
217.258	5727
217.324	6404
217.391	7681
217.458	5390
217.525	4563
217.592	4305
217.659	2738
217.725	4393
217.792	5055
217.859	4820
217.926	3240
217.993	2429
218.059	2943
218.126	2649
218.193	2833
218.260	2739
218.327	1310
218.393	1768
218.460	2992
218.527	1259
218.594	2427
218.660	4603
218.727	4973
218.794	2469
218.860	2610
218.927	2269
218.994	1613
219.061	2442
219.127	3412
219.194	5592
219.261	3486
219.327	1738
219.394	3169
219.461	1782
219.527	2277
219.594	3715
219.661	2940
219.727	1530
219.794	2487
219.860	2375
219.927	3451
219.994	4151
220.060	8211
220.127	6371
220.193	4426
220.260	4170
220.326	6623
220.393	8502
220.460	11810
220.526	8338
220.593	4845
220.659	6101
220.726	5974
220.792	15020
220.859	12721
220.925	14812
220.992	19329
221.058	20374
221.125	20812
221.191	16085
221.258	7170
221.324	4401
221.391	3887
221.457	3634
221.524	5176
221.590	5888
221.657	18559
221.723	14101
221.789	11262
221.856	11128
221.922	6338
221.989	5105
222.055	3117
222.121	2593
222.188	4658
222.254	3669
222.321	3142
222.387	2130
222.453	2159
222.520	2341
222.586	1468
222.652	2848
222.719	1678
222.785	2601
222.851	2196
222.918	2282
222.984	1737
223.050	881
223.116	797
223.183	2755
223.249	934
223.315	1267
223.382	1639
223.448	2987
223.514	1063
223.580	1377
223.647	2051
223.713	1566
223.779	1347
223.845	1686
223.911	2788
223.978	491
224.044	1974
224.110	2431
224.176	2341
224.242	1609
224.309	1898
224.375	1982
224.441	1560
224.507	1605
224.573	1371
224.639	2334
224.705	827
224.772	1968
224.838	1098
224.904	2487
224.970	2078
225.036	1424
225.102	1292
225.168	2457
225.234	2480
225.300	2267
225.366	2212
225.432	2026
225.499	2278
225.565	2775
225.631	1786
225.697	2719
225.763	3449
225.829	4185
225.895	3197
225.961	6185
226.027	5427
226.093	4168
226.159	5450
226.225	8563
226.291	17060
226.357	30854
226.423	16046
226.489	8580
226.554	5331
226.620	5807
226.686	7032
226.752	9989
226.818	17007
226.884	39500
226.950	36035
227.016	15373
227.082	7984
227.148	4847
227.214	5200
227.279	4539
227.345	4268
227.411	4524
227.477	5300
227.543	12163
227.609	12201
227.674	5844
227.740	3138
227.806	3186
227.872	3419
227.938	3450
228.003	4541
228.069	2929
228.135	1820
228.201	2312
228.267	2354
228.332	3744
228.398	3136
228.464	3234
228.530	1826
228.595	2344
228.661	1239
228.727	3671
228.792	3253
228.858	2056
228.924	2171
228.990	5217
229.055	2453
229.121	3878
229.187	2215
229.252	2265
229.318	2221
229.384	2490
229.449	2739
229.515	1164
229.581	1294
229.646	3785
229.712	2247
229.777	5618
229.843	6592
229.909	4892
229.974	5538
230.040	4240
230.105	3391
230.171	4161
230.236	6147
230.302	9803
230.368	6912
230.433	3062
230.499	3781
230.564	3247
230.630	2750
230.695	2848
230.761	3421
230.826	2079
230.892	4468
230.957	2303
231.023	2058
231.088	2030
231.154	3147
231.219	3782
231.284	3211
231.350	4409
231.415	1470
231.481	2650
231.546	2119
231.612	2097
231.677	1997
231.742	1096
231.808	3565
231.873	1867
231.939	1154
232.004	4829
232.069	4782
232.135	1895
232.200	2298
232.265	2557
232.331	2558
232.396	2480
232.461	1485
232.527	1212
232.592	1154
232.657	2594
232.723	4055
232.788	3282
232.853	2912
232.918	2895
232.984	968
233.049	1619
233.114	3095
233.179	3983
233.245	5232
233.310	6358
233.375	1532
233.440	2880
233.506	1681
233.571	1425
233.636	1693
233.701	2359
233.766	3349
233.832	5372
233.897	3126
233.962	1538
234.027	4010
234.092	2983
234.157	2639
234.222	2340
234.288	4262
234.353	12858
234.418	10730
234.483	6903
234.548	4978
234.613	3491
234.678	3827
234.743	3989
234.808	12345
234.873	7760
234.938	5561
235.004	3205
235.069	3921
235.134	3082
235.199	3302
235.264	3567
235.329	1971
235.394	2825
235.459	4556
235.524	3181
235.589	2835
235.654	3274
235.719	2183
235.784	3261
235.849	3306
235.913	6737
235.978	7102
236.043	8533
236.108	3720
236.173	3899
236.238	4580
236.303	2773
236.368	3312
236.433	5406
236.498	9255
236.563	8061
236.627	13083
236.692	49428
236.757	43763
236.822	15737
236.887	10583
236.952	9464
237.017	7030
237.081	8624
237.146	10040
237.211	21724
237.276	48348
237.341	83136
237.405	37769
237.470	14351
237.535	9331
237.600	6871
237.664	6051
237.729	4577
237.794	6321
237.859	13142
237.923	8826
237.988	5307
238.053	7369
238.118	7319
238.182	18308
238.247	18434
238.312	6743
238.376	5819
238.441	3153
238.506	5087
238.570	2274
238.635	4168
238.700	2672
238.764	3944
238.829	7257
238.893	10533
238.958	5845
239.023	5620
239.087	3586
239.152	3600
239.216	2152
239.281	3589
239.346	2909
239.410	3320
239.475	4221
239.539	16923
239.604	15391
239.668	5177
239.733	4568
239.797	7675
239.862	20671
239.926	19550
239.991	7859
240.055	3365
240.120	2999
240.184	3856
240.249	2153
240.313	3163
240.378	3721
240.442	8907
240.507	17961
240.571	5187
240.635	6834
240.700	9207
240.764	3863
240.829	3214
240.893	1660
240.957	3216
241.022	8835
241.086	15994
241.151	7039
241.215	1824
241.279	4270
241.344	7566
241.408	5702
241.472	3326
241.537	4559
241.601	3959
241.665	2908
241.730	3048
241.794	5177
241.858	2876
241.922	3706
241.987	3976
242.051	3255
242.115	2016
242.179	3184
242.244	3696
242.308	4387
242.372	2461
242.436	3781
242.501	3672
242.565	2549
242.629	3159
242.693	4244
242.757	2767
242.822	3238
242.886	3394
242.950	5125
243.014	3359
243.078	4352
243.142	4301
243.206	3212
243.271	5468
243.335	5410
243.399	9137
243.463	32629
243.527	99846
243.591	32048
243.655	11219
243.719	5931
243.783	6883
243.847	11367
243.911	15505
243.975	11214
244.040	7414
244.104	5790
244.168	4364
244.232	4911
244.296	9478
244.360	13488
244.424	6541
244.488	4676
244.552	4644
244.615	2319
244.679	3920
244.743	4219
244.807	4575
244.871	3389
244.935	3362
244.999	2181
245.063	2834
245.127	3723
245.191	9119
245.255	9388
245.319	5468
245.383	3287
245.446	3927
245.510	2163
245.574	4130
245.638	3623
245.702	2912
245.766	9482
245.829	6922
245.893	3580
245.957	3046
246.021	4488
246.085	4656
246.149	5743
246.212	12066
246.276	19275
246.340	8675
246.404	5126
246.467	6475
246.531	8007
246.595	5476
246.659	5274
246.722	3827
246.786	6256
246.850	6055
246.913	8387
246.977	3353
247.041	4666
247.104	4321
247.168	4680
247.232	10713
247.295	26952
247.359	12956
247.423	5154
247.486	8810
247.550	7009
247.614	4608
247.677	5157
247.741	5138
247.804	4316
247.868	6154
247.932	9356
247.995	25462
248.059	8629
248.122	4992
248.186	6202
248.249	9219
248.313	37192
248.376	41269
248.440	26287
248.503	8516
248.567	8893
248.630	9665
248.694	15305
248.757	18228
248.821	44441
248.884	24768
248.948	20913
249.011	30682
249.075	49919
249.138	44091
249.202	15778
249.265	9199
249.328	12364
249.392	8000
249.455	9267
249.519	6916
249.582	9534
249.645	14732
249.709	15662
249.772	16425
249.835	11224
249.899	9198
249.962	8332
250.025	7232
250.089	16849
250.152	22941
250.215	11134
250.279	8331
250.342	8725
250.405	10015
250.468	9581
250.532	13060
250.595	20834
250.658	80058
250.721	145211
250.785	45942
250.848	22624
250.911	14016
250.974	12150
251.038	15821
251.101	29660
251.164	17167
251.227	16858
251.290	18616
251.354	28563
251.417	116544
251.480	124977
251.543	79029
251.606	214446
251.669	171018
251.732	60296
251.795	48895
251.859	52154
251.922	136391
251.985	81409
252.048	28239
252.111	19187
252.174	17256
252.237	25880
252.300	57371
252.363	69410
252.426	169791
252.489	70146
252.552	28953
252.615	19041
252.678	21174
252.741	44106
252.804	69440
252.867	176829
252.930	91286
252.993	39624
253.056	22223
253.119	16921
253.182	14581
253.245	31022
253.308	21697
253.371	13838
253.434	12885
253.497	11754
253.559	23405
253.622	16339
253.685	15208
253.748	17810
253.811	8747
253.874	10569
253.937	10327
254.000	7920
254.062	14036
254.125	24445
254.188	17863
254.251	16477
254.314	8612
254.376	13576
254.439	15554
254.502	12825
254.565	14369
254.628	28621
254.690	13584
254.753	7979
254.816	6703
254.878	7139
254.941	16729
255.004	18852
255.067	7990
255.129	6655
255.192	4568
255.255	3153
255.317	5343
255.380	4157
255.443	2655
255.505	3764
255.568	3611
255.631	2743
255.693	3895
255.756	2503
255.819	4463
255.881	3517
255.944	3555
256.006	3245
256.069	2557
256.132	2894
256.194	4384
256.257	11779
256.319	9006
256.382	9035
256.444	6229
256.507	5392
256.569	4896
256.632	6289
256.694	8618
256.757	23333
256.819	79420
256.882	32221
256.944	11338
257.007	8550
257.069	8015
257.132	6428
257.194	6924
257.257	5732
257.319	6146
257.381	7454
257.444	18410
257.506	86363
257.569	96255
257.631	41758
257.693	20344
257.756	10497
257.818	8268
257.880	5842
257.943	6551
258.005	5434
258.067	4364
258.130	4557
258.192	5351
258.254	9663
258.317	6339
258.379	6062
258.441	12678
258.503	14666
258.566	15856
258.628	24091
258.690	6060
258.753	6586
258.815	9418
258.877	5905
258.939	4941
259.001	4800
259.064	4113
259.126	5414
259.188	7312
259.250	5196
259.312	6896
259.375	17256
259.437	10540
259.499	4754
259.561	4717
259.623	5647
259.685	5246
259.747	5435
259.809	15781
259.872	32535
259.934	47324
259.996	41055
260.058	10462
260.120	5080
260.182	4133
260.244	3511
260.306	3965
260.368	4620
260.430	3646
260.492	6047
260.554	12788
260.616	12783
260.678	20658
260.740	33152
260.802	8044
260.864	6366
260.926	4863
260.988	5477
261.050	4362
261.112	7232
261.174	26548
261.236	27713
261.298	7687
261.359	12762
261.421	19469
261.483	5924
261.545	5828
261.607	3443
261.669	4101
261.731	7535
261.793	19865
261.854	8316
261.916	5544
261.978	3495
262.040	4517
262.102	3760
262.164	7575
262.225	5992
262.287	4267
262.349	10365
262.411	9208
262.472	4597
262.534	8197
262.596	19059
262.658	7407
262.719	4208
262.781	5492
262.843	16759
262.904	9464
262.966	7336
263.028	10533
263.090	44639
263.151	138870
263.213	40849
263.275	15221
263.336	7416
263.398	6045
263.459	4268
263.521	3922
263.583	9805
263.644	7491
263.706	3002
263.767	1722
263.829	2962
263.891	2518
263.952	1911
264.014	2068
264.075	3007
264.137	5935
264.198	4954
264.260	2374
264.321	1838
264.383	5726
264.444	11221
264.506	3480
264.567	3070
264.629	4882
264.690	6090
264.752	4686
264.813	3091
264.875	2494
264.936	3512
264.998	2429
265.059	3136
265.120	4085
265.182	6829
265.243	35924
265.305	39327
265.366	9366
265.427	5153
265.489	4380
265.550	2146
265.611	4183
265.673	3031
265.734	4016
265.795	3291
265.857	3236
265.918	4540
265.979	10475
266.040	61562
266.102	55126
266.163	13277
266.224	7816
266.286	4892
266.347	3886
266.408	3538
266.469	4135
266.530	3032
266.592	2806
266.653	5582
266.714	9825
266.775	4149
266.836	2851
266.898	1776
266.959	2826
267.020	3043
267.081	3800
267.142	2886
267.203	1667
267.264	1610
267.326	3284
267.387	2206
267.448	2352
267.509	2254
267.570	1924
267.631	2226
267.692	2261
267.753	2912
267.814	2669
267.875	5388
267.936	13610
267.997	5967
268.058	4635
268.119	3185
268.180	2901
268.241	2199
268.302	3055
268.363	1790
268.424	3550
268.485	3456
268.546	1776
268.607	1240
268.668	1634
268.729	1163
268.790	2704
268.851	2488
268.912	6658
268.972	9592
269.033	4723
269.094	2036
269.155	2197
269.216	2549
269.277	2082
269.338	2586
269.398	2259
269.459	2777
269.520	4682
269.581	5046
269.642	6816
269.702	4665
269.763	3269
269.824	2651
269.885	3250
269.945	5672
270.006	3404
270.067	2617
270.128	1916
270.188	3118
270.249	2465
270.310	2164
270.370	2235
270.431	2798
270.492	2507
270.553	2490
270.613	5876
270.674	12463
270.734	5552
270.795	3683
270.856	4094
270.916	3861
270.977	2523
271.038	3067
271.098	3461
271.159	5221
271.219	6231
271.280	3203
271.340	2625
271.401	2943
271.462	9358
271.522	5376
271.583	2880
271.643	3238
271.704	3843
271.764	4585
271.825	9021
271.885	32883
271.946	51656
272.006	14616
272.066	20750
272.127	41287
272.187	14285
272.248	6921
272.308	7056
272.369	26993
272.429	16062
272.489	9092
272.550	8794
272.610	8304
272.671	7646
272.731	7076
272.791	11433
272.852	6153
272.912	5349
272.972	3038
273.033	3337
273.093	5629
273.153	5247
273.214	4544
273.274	5245
273.334	15491
273.394	38647
273.455	13643
273.515	12287
273.575	30447
273.635	12449
273.696	14884
273.756	37113
273.816	14824
273.876	8111
273.936	15630
273.997	30942
274.057	9224
274.117	6739
274.177	9069
274.237	39577
274.297	38699
274.358	23578
274.418	28838
274.478	22071
274.538	8151
274.598	6832
274.658	22336
274.718	30783
274.778	12774
274.838	6576
274.898	12054
274.958	42340
275.018	39611
275.078	25712
275.138	9417
275.198	4811
275.258	3891
275.318	6166
275.378	9477
275.438	10113
275.498	8077
275.558	18361
275.618	42264
275.678	26659
275.738	12735
275.798	9480
275.858	4813
275.918	3962
275.978	4861
276.038	4722
276.098	4112
276.157	6870
276.217	20233
276.277	10486
276.337	6717
276.397	3862
276.457	4723
276.517	3990
276.576	3285
276.636	3361
276.696	5558
276.756	11978
276.815	10389
276.875	4280
276.935	5041
276.995	5102
277.055	3664
277.114	3842
277.174	4516
277.234	17807
277.293	8909
277.353	4167
277.413	3622
277.472	3193
277.532	5199
277.592	5316
277.651	15109
277.711	32547
277.771	11231
277.830	34795
277.890	31471
277.950	20418
278.009	68446
278.069	26155
278.128	20406
278.188	31730
278.248	12373
278.307	32409
278.367	22342
278.426	6807
278.486	4716
278.545	4811
278.605	3727
278.664	4739
278.724	4947
278.783	12906
278.843	40484
278.902	12010
278.962	7206
279.021	6294
279.081	7911
279.140	8312
279.199	7412
279.259	7901
279.318	9277
279.378	12404
279.437	19436
279.496	65710
279.556	201166
279.615	171587
279.675	40204
279.734	21884
279.793	27819
279.853	54009
279.912	20840
279.971	11531
280.031	10790
280.090	21507
280.149	41413
280.208	26143
280.268	126990
280.327	152778
280.386	33275
280.445	21122
280.505	18300
280.564	9016
280.623	6753
280.682	10884
280.742	16879
280.801	5959
280.860	5290
280.919	4115
280.978	3188
281.037	3424
281.097	3728
281.156	4635
281.215	4334
281.274	4704
281.333	23087
281.392	20717
281.451	4868
281.510	3803
281.569	3165
281.628	3403
281.688	2804
281.747	3122
281.806	3142
281.865	2895
281.924	2707
281.983	2874
282.042	1697
282.101	2106
282.160	2670
282.219	2354
282.278	2389
282.337	11002
282.396	7907
282.454	2975
282.513	4056
282.572	15768
282.631	10402
282.690	3295
282.749	3110
282.808	3498
282.867	3534
282.926	3237
282.985	2453
283.043	2439
283.102	2539
283.161	3533
283.220	7873
283.279	21118
283.338	7508
283.396	4245
283.455	3706
283.514	4123
283.573	6539
283.631	5000
283.690	3395
283.749	2372
283.808	6728
283.866	9293
283.925	3119
283.984	2993
284.043	3676
284.101	4630
284.160	4001
284.219	4281
284.277	4779
284.336	6415
284.395	22404
284.453	21606
284.512	7704
284.570	9125
284.629	8051
284.688	7250
284.746	7576
284.805	8159
284.863	11608
284.922	14290
284.981	16768
285.039	24433
285.098	39500
285.156	92768
285.215	253591
285.273	257845
285.332	119789
285.390	55477
285.449	32518
285.507	21913
285.566	15937
285.624	11986
285.683	10031
285.741	8939
285.799	6733
285.858	7157
285.916	6069
285.975	4308
286.033	4615
286.091	4308
286.150	4676
286.208	4194
286.267	4141
286.325	4311
286.383	6660
286.442	4848
286.500	3634
286.558	3489
286.616	3471
286.675	4630
286.733	3633
286.791	3902
286.850	4724
286.908	5578
286.966	8772
287.024	4874
287.083	3851
287.141	2732
287.199	3208
287.257	5185
287.315	4558
287.374	3949
287.432	10988
287.490	7779
287.548	5311
287.606	4457
287.664	4414
287.723	6081
287.781	7299
287.839	7427
287.897	10073
287.955	15704
288.013	22338
288.071	40241
288.129	152958
288.187	443485
288.245	210580
288.303	64128
288.361	34843
288.419	23172
288.477	15820
288.535	12190
288.593	9662
288.651	8389
288.709	6285
288.767	5949
288.825	5188
288.883	4163
288.941	2929
288.999	3720
289.057	3520
289.115	2645
289.173	2602
289.231	3231
289.289	3447
289.346	2806
289.404	3492
289.462	5641
289.520	5481
289.578	3236
289.636	2236
289.694	2262
289.751	1904
289.809	1761
289.867	2688
289.925	2913
289.983	3825
290.040	2479
290.098	2629
290.156	2988
290.214	2810
290.271	2494
290.329	2271
290.387	1598
290.444	1422
290.502	1397
290.560	1332
290.617	1348
290.675	1967
290.733	1558
290.790	1841
290.848	1604
290.906	2905
290.963	2707
291.021	2204
291.078	2497
291.136	1692
291.194	6397
291.251	17384
291.309	5095
291.366	2084
291.424	1853
291.481	2387
291.539	2079
291.596	2443
291.654	1078
291.711	1130
291.769	2604
291.826	4372
291.884	3382
291.941	1964
291.999	2042
292.056	2889
292.114	3173
292.171	2015
292.228	2212
292.286	4200
292.343	5396
292.401	6207
292.458	4075
292.515	2533
292.573	4017
292.630	3461
292.687	3205
292.745	1882
292.802	3075
292.859	6554
292.917	19563
292.974	12111
293.031	4455
293.089	2496
293.146	2410
293.203	2014
293.260	2496
293.318	3115
293.375	3953
293.432	2541
293.489	2593
293.546	2587
293.604	4029
293.661	12979
293.718	41477
293.775	18321
293.832	8010
293.889	5824
293.947	6534
294.004	4443
294.061	4258
294.118	8577
294.175	16217
294.232	12654
294.289	5719
294.346	4159
294.403	4287
294.460	4461
294.517	3634
294.574	2853
294.631	3129
294.688	3555
294.745	8522
294.802	39360
294.859	33970
294.916	12420
294.973	8944
295.030	6014
295.087	5117
295.144	3575
295.201	4227
295.258	3045
295.315	3802
295.372	13703
295.429	34786
295.486	13738
295.542	6130
295.599	8478
295.656	13647
295.713	13658
295.770	27729
295.827	11296
295.883	5338
295.940	3339
295.997	7167
296.054	6331
296.111	4077
296.167	3866
296.224	2958
296.281	1738
296.338	2337
296.394	3045
296.451	4257
296.508	11652
296.564	23185
296.621	13344
296.678	32701
296.734	53640
296.791	18755
296.848	8728
296.904	8227
296.961	16010
297.018	33377
297.074	27425
297.131	10786
297.187	6878
297.244	9611
297.301	34385
297.357	73370
297.414	25457
297.470	9141
297.527	5243
297.583	4971
297.640	4493
297.696	3897
297.753	2971
297.809	2358
297.866	1903
297.922	3263
297.979	3005
298.035	2895
298.092	5105
298.148	18961
298.204	19239
298.261	9219
298.317	13884
298.374	44866
298.430	28739
298.486	10740
298.543	8215
298.599	7634
298.656	7262
298.712	12744
298.768	49227
298.824	40428
298.881	11592
298.937	6182
298.993	5288
299.050	5703
299.106	5368
299.162	4564
299.218	5189
299.275	4816
299.331	4788
299.387	8592
299.443	39506
299.500	50418
299.556	23071
299.612	8953
299.668	7924
299.724	15306
299.780	17907
299.837	8393
299.893	9656
299.949	33013
300.005	42429
300.061	32344
300.117	62306
300.173	30283
300.229	11586
300.285	11459
300.341	13170
300.397	6794
300.453	4662
300.510	4638
300.566	5936
300.622	7949
300.678	29540
300.734	47920
300.790	35455
300.845	43423
300.901	28696
300.957	38069
301.013	26602
301.069	10579
301.125	6826
301.181	6850
301.237	4924
301.293	4014
301.349	3423
301.405	3274
301.461	3034
301.516	4381
301.572	3691
301.628	8132
301.684	6765
301.740	10306
301.796	19652
301.851	13995
301.907	20738
301.963	21498
302.019	34962
302.074	113127
302.130	114326
302.186	48922
302.242	19079
302.297	12149
302.353	10853
302.409	21146
302.464	18313
302.520	12582
302.576	34737
302.631	43986
302.687	21960
302.743	8926
302.798	5857
302.854	3716
302.910	4204
302.965	5333
303.021	9200
303.076	9858
303.132	11640
303.187	13384
303.243	7633
303.299	4115
303.354	3332
303.410	3552
303.465	3422
303.521	3081
303.576	4001
303.632	4977
303.687	9444
303.743	35921
303.798	31417
303.853	11671
303.909	6696
303.964	4897
304.020	6505
304.075	10488
304.130	8344
304.186	16184
304.241	16492
304.297	13272
304.352	6959
304.358	6705
304.407	4644
304.449	4545
304.463	4512
304.518	4828
304.539	4805
304.573	4764
304.629	4963
304.630	5019
304.684	8279
304.720	20052
304.739	25647
304.794	44293
304.811	37578
304.850	21424
304.902	9170
304.905	8421
304.960	5887
304.992	6565
305.015	6933
305.071	5818
305.083	5386
305.126	3867
305.173	3385
305.181	3341
305.236	2732
305.264	3208
305.292	3681
305.347	4673
305.354	4701
305.402	5146
305.445	6274
305.457	6492
305.512	7878
305.535	7865
305.567	8026
305.622	7956
305.626	8172
305.678	17216
305.716	36286
305.733	41489
305.788	45772
305.807	38356
305.843	28695
305.897	41329
305.898	41404
305.953	41621
305.988	26542
306.008	19251
306.063	10023
306.078	8916
306.118	6894
306.168	5007
306.173	4850
306.228	4046
306.259	3562
306.283	3456
306.338	4087
306.349	4233
306.393	5088
306.440	6998
306.448	7202
306.503	6821
306.530	6347
306.558	7959
306.613	15819
306.620	16800
306.668	25190
306.711	38315
306.723	38848
306.778	29972
306.801	21867
306.833	14469
306.888	7514
306.892	7241
306.943	5869
306.982	5447
306.997	5456
307.052	5634
307.072	5637
307.107	5871
307.162	6273
307.163	6275
307.217	8310
307.253	9865
307.272	10057
307.327	10517
307.343	10069
307.381	9636
307.434	10019
307.436	10465
307.491	20996
307.524	30287
307.546	31252
307.600	32695
307.614	29865
307.655	20269
307.704	11722
307.710	11646
307.765	13538
307.795	15786
307.819	17795
307.874	23091
307.885	23794
307.929	24058
307.975	24404
307.984	26617
308.038	42881
308.065	52013
308.093	101854
308.148	216461
308.156	239568
308.202	331716
308.246	394613
308.257	377648
308.312	196013
308.336	123905
308.366	91596
308.421	54171
308.426	50606
308.475	33825
308.517	23060
308.530	21534
308.585	18467
308.607	17749
308.639	18298
308.694	18802
308.697	18864
308.748	27291
308.787	34778
308.803	33966
308.857	28552
308.877	26171
308.912	27259
308.967	30777
308.967	30779
309.021	45728
309.058	57228
309.076	76300
309.130	138611
309.148	160863
309.185	303180
309.238	537089
309.239	538345
309.293	534079
309.328	475697
309.348	406344
309.402	194297
309.418	139243
309.457	99167
309.508	58609
309.511	57860
309.566	49068
309.598	45306
309.620	48723
309.674	59650
309.688	62663
309.729	59094
309.778	50112
309.783	49245
309.837	37520
309.868	31700
309.892	39241
309.946	58837
309.959	64203
310.001	75585
310.049	86112
310.055	82899
310.109	46892
310.139	26896
310.163	22144
310.218	14036
310.229	12685
310.272	11736
310.319	10786
310.326	10533
310.381	8741
310.409	7903
310.435	7935
310.489	7948
310.499	7933
310.543	8273
310.589	8647
310.598	8638
310.652	8586
310.679	8384
310.706	7907
310.760	6994
310.769	6843
310.814	6824
310.859	6727
310.868	6696
310.923	6433
310.948	6260
310.977	7085
311.031	8811
311.038	9024
311.085	8538
311.128	7834
311.139	7853
311.193	7982
311.218	7961
311.247	7686
311.301	7146
311.308	7054
311.356	7294
311.398	7486
311.410	7337
311.464	6585
311.488	6157
311.518	6443
311.572	7006
311.578	7046
311.626	9241
311.668	11180
311.680	11048
311.734	10095
311.758	9688
311.788	9710
311.842	9674
311.847	9635
311.896	12395
311.937	14740
311.950	14406
312.004	12699
312.027	11889
312.058	10874
312.112	9009
312.117	8792
312.165	8749
312.207	8658
312.297	11620
312.386	7867
312.476	9961
312.566	17626
312.656	9436
312.745	6917
312.835	8763
312.925	9260
313.015	9280
313.104	8081
313.194	8662
313.284	8484
313.374	11090
313.463	9968
313.553	9332
313.643	8113
313.732	8414
313.822	8324
313.912	10325
314.001	11598
314.091	12040
314.180	13851
314.270	14207
314.360	14075
314.449	13737
314.539	9292
314.628	9317
314.718	10968
314.808	12527
314.897	9066
314.987	11717
315.076	13538
315.166	14520
315.255	12998
315.345	13527
315.434	12760
315.524	13634
315.613	15979
315.703	25664
315.792	62352
315.881	228436
315.971	58874
316.060	26648
316.150	24716
316.239	23789
316.328	12997
316.418	11106
316.507	11663
316.597	15676
316.686	13285
316.775	17885
316.865	23265
316.954	11871
317.043	9833
317.133	11516
317.222	9483
317.311	10893
317.400	9218
317.490	15974
317.579	15678
317.668	17798
317.757	32616
317.847	115239
317.936	374390
318.025	97870
318.114	74360
318.203	32637
318.293	25689
318.382	40630
318.471	32412
318.560	40275
318.649	62727
318.738	16732
318.828	14917
318.917	13998
319.006	13970
319.095	29873
319.184	82234
319.273	45244
319.362	24866
319.451	12649
319.540	11055
319.629	25120
319.718	33668
319.807	16479
319.896	31500
319.985	102444
320.074	33451
320.163	12753
320.252	16595
320.341	15836
320.430	13789
320.519	21474
320.608	13245
320.697	13782
320.786	13380
320.875	17967
320.964	21592
321.053	31360
321.142	43002
321.230	41030
321.319	35459
321.408	68591
321.497	30291
321.586	31930
321.675	30271
321.764	29098
321.852	22512
321.941	43160
322.030	27714
322.119	35141
322.207	69299
322.296	41799
322.385	31300
322.474	40083
322.562	91113
322.651	43307
322.740	36992
322.829	43382
322.917	34920
323.006	26714
323.095	24541
323.183	17936
323.272	23339
323.361	38317
323.449	89405
323.538	29949
323.626	65334
323.715	35789
323.804	19058
323.892	59365
323.981	31364
324.069	14761
324.158	33237
324.246	26959
324.335	17285
324.424	24264
324.512	10912
324.601	13453
324.689	16461
324.778	22775
324.866	24185
324.954	11026
325.043	11577
325.131	16994
325.220	23665
325.308	26006
325.397	21245
325.485	14154
325.574	9003
325.662	9328
325.750	9245
325.839	9277
325.927	6811
326.015	10677
326.104	11836
326.192	14225
326.280	7406
326.369	8097
326.457	12293
326.545	21044
326.634	9835
326.722	8215
326.810	7964
326.898	9361
326.987	11726
327.075	20551
327.163	15941
327.251	10165
327.340	13471
327.428	14193
327.516	11107
327.604	10897
327.692	8979
327.781	9322
327.869	12385
327.957	10308
328.045	10231
328.133	6894
328.221	7289
328.309	7989
328.397	7762
328.485	11418
328.574	16298
328.662	48140
328.750	21324
328.838	10750
328.926	7801
329.014	8899
329.102	10498
329.190	23525
329.278	15122
329.366	7638
329.454	6302
329.542	7626
329.630	6328
329.718	9563
329.806	10018
329.893	12415
329.981	15547
330.069	30775
330.157	127247
330.245	328744
330.333	150558
330.421	27027
330.509	21005
330.597	55468
330.684	30460
330.772	13294
330.860	14277
330.948	17441
331.036	8880
331.123	6680
331.211	6939
331.299	8660
331.387	15427
331.475	24808
331.562	9864
331.650	8159
331.738	7110
331.825	9019
331.913	6402
332.001	7551
332.089	8588
332.176	14733
332.264	28141
332.352	20722
332.439	10209
332.527	8584
332.614	6643
332.702	8739
332.790	7945
332.877	16407
332.965	26660
333.052	11491
333.140	12694
333.228	24912
333.315	9537
333.403	9207
333.490	18216
333.578	18396
333.665	33144
333.753	19193
333.840	10275
333.928	12811
334.015	22683
334.103	37973
334.190	100192
334.278	33060
334.365	28466
334.452	25379
334.540	18559
334.627	20766
334.715	26713
334.802	42968
334.889	135781
334.977	128116
335.064	41689
335.151	23698
335.239	19600
335.326	19833
335.413	59626
335.501	67291
335.588	19415
335.675	18947
335.762	22653
335.850	32633
335.937	38974
336.024	72296
336.111	164881
336.199	91461
336.286	37033
336.373	22287
336.460	16209
336.547	14398
336.635	14304
336.722	12573
336.809	10741
336.896	14507
336.983	33297
337.070	73461
337.157	99926
337.245	71192
337.332	41110
337.419	11475
337.506	9352
337.593	11345
337.680	25144
337.767	60706
337.854	20137
337.941	22823
338.028	25372
338.115	12595
338.202	12669
338.289	22488
338.376	63096
338.463	20855
338.550	40037
338.637	35134
338.724	15499
338.811	20575
338.898	7456
338.984	6928
339.071	8337
339.158	12111
339.245	24843
339.332	13613
339.419	16002
339.506	14035
339.593	5931
339.679	8192
339.766	6376
339.853	12023
339.940	18640
340.027	8258
340.113	7918
340.200	11850
340.287	7743
340.374	11758
340.460	16149
340.547	8418
340.634	15512
340.720	52696
340.807	25170
340.894	7157
340.980	6620
341.067	7373
341.154	7869
341.240	13928
341.327	24155
341.414	9772
341.500	8026
341.587	8436
341.674	7781
341.760	18508
341.847	19896
341.933	7908
342.020	4393
342.106	6438
342.193	8361
342.279	13858
342.366	11551
342.452	17657
342.539	11178
342.625	24397
342.712	52700
342.798	20883
342.885	9536
342.971	5639
343.058	4710
343.144	6574
343.230	6332
343.317	7279
343.403	5636
343.490	6213
343.576	5461
343.662	8342
343.749	8328
343.835	13021
343.921	22103
344.008	132820
344.094	258631
344.180	50547
344.267	20881
344.353	71178
344.439	58608
344.525	25938
344.612	12731
344.698	12811
344.784	8283
344.870	6861
344.957	6151
345.043	11648
345.129	8007
345.215	16883
345.301	8530
345.387	6803
345.474	5308
345.560	6236
345.646	6139
345.732	7048
345.818	7419
345.904	7424
345.990	8306
346.076	8864
346.162	10539
346.249	8205
346.335	6291
346.421	12445
346.507	35497
346.593	101339
346.679	20041
346.765	9634
346.851	9964
346.937	9531
347.023	8446
347.108	9166
347.194	7050
347.280	8188
347.366	12041
347.452	42866
347.538	136638
347.624	83524
347.710	56995
347.796	11589
347.882	7452
347.967	7191
348.053	8281
348.139	7069
348.225	6593
348.311	7222
348.397	5694
348.482	9766
348.568	10434
348.654	9827
348.740	23389
348.825	26308
348.911	19086
348.997	65022
349.083	106625
349.168	16076
349.254	7605
349.340	7294
349.425	5802
349.511	10383
349.597	10623
349.682	21497
349.768	65076
349.854	27170
349.939	7546
350.025	6585
350.110	6008
350.196	5201
350.282	4285
350.367	5559
350.453	8792
350.538	9421
350.624	8337
350.709	9308
350.795	5233
350.880	6515
350.966	9149
351.051	9718
351.137	6851
351.222	8711
351.308	21192
351.393	50470
351.479	11761
351.564	6399
351.649	6379
351.735	6433
351.820	4997
351.906	7625
351.991	9144
352.076	37835
352.162	46994
352.247	11503
352.332	7589
352.418	14094
352.503	18298
352.588	75166
352.673	52402
352.759	14154
352.844	8287
352.929	10503
353.014	10718
353.100	10168
353.185	17700
353.270	22235
353.355	18838
353.441	8087
353.526	8251
353.611	18524
353.696	18872
353.781	13328
353.866	6441
353.952	8608
354.037	18855
354.122	37741
354.207	33430
354.292	14030
354.377	7149
354.462	7309
354.547	9756
354.632	9370
354.717	14031
354.802	19497
354.887	8766
354.972	7163
355.057	5529
355.142	6367
355.227	8220
355.312	13441
355.397	27236
355.482	59294
355.567	27999
355.652	22841
355.737	25923
355.822	80160
355.907	55727
355.991	12164
356.076	7296
356.161	7121
356.246	6752
356.331	8951
356.416	23204
356.501	144273
356.585	126126
356.670	18993
356.755	14316
356.840	21762
356.924	106492
357.009	318125
357.094	101691
357.179	25278
357.263	17153
357.348	16184
357.433	14568
357.517	14945
357.602	12277
357.687	10985
357.771	17188
357.856	34413
357.941	24582
358.025	85134
358.110	316744
358.195	126563
358.279	20993
358.364	18465
358.448	54145
358.533	132315
358.617	92703
358.702	93540
358.787	32145
358.871	21077
358.956	16479
359.040	8988
359.125	6912
359.209	8091
359.294	18388
359.378	27610
359.462	18805
359.547	11255
359.631	6989
359.716	6964
359.800	6987
359.885	11044
359.969	8141
360.053	9711
360.138	8883
360.222	12691
360.306	19440
360.391	16018
360.475	24698
360.559	47641
360.644	52444
360.728	37894
360.812	83335
360.896	199537
360.981	70515
361.065	32664
361.149	12294
361.233	12208
361.318	11066
361.402	14293
361.486	12391
361.570	10805
361.654	14326
361.739	32377
361.823	142573
361.907	194802
361.991	35371
362.075	27500
362.159	46733
362.243	47659
362.327	74689
362.411	92695
362.495	41446
362.580	23032
362.664	20560
362.748	23461
362.832	36695
362.916	74067
363.000	189565
363.084	327967
363.168	280422
363.252	68379
363.336	30101
363.420	30625
363.503	77793
363.587	79468
363.671	22480
363.755	21198
363.839	26950
363.923	21577
364.007	35143
364.091	40598
364.175	64057
364.258	178152
364.342	251327
364.426	361015
364.510	183595
364.594	68017
364.677	60017
364.761	191083
364.845	121124
364.929	41234
365.013	30429
365.096	28214
365.180	28008
365.264	38323
365.347	110004
365.431	45053
365.515	15099
365.598	12017
365.682	11180
365.766	14253
365.849	15571
365.933	12140
366.017	13330
366.100	10095
366.184	7225
366.267	10340
366.351	8617
366.435	8696
366.518	7016
366.602	8148
366.685	8051
366.769	9997
366.852	14204
366.936	22362
367.019	14004
367.103	11184
367.186	16522
367.270	10121
367.353	6788
367.436	10283
367.520	7711
367.603	12486
367.687	15248
367.770	25330
367.853	16615
367.937	53328
368.020	76647
368.104	19866
368.187	19142
368.270	24797
368.353	21494
368.437	26009
368.520	42477
368.603	31203
368.687	58450
368.770	96009
368.853	23373
368.936	22006
369.020	18230
369.103	10809
369.186	8212
369.269	8811
369.352	17738
369.436	20530
369.519	13687
369.602	7891
369.685	10073
369.768	10338
369.851	9003
369.934	7677
370.018	10548
370.101	19512
370.184	16312
370.267	12807
370.350	19076
370.433	32659
370.516	108529
370.599	161972
370.682	58118
370.765	52002
370.848	69013
370.931	125754
371.014	44828
371.097	11799
371.180	8941
371.263	7930
371.346	6368
371.429	8179
371.511	8823
371.594	13551
371.677	17828
371.760	19450
371.843	23526
371.926	124207
372.009	240383
372.091	69407
372.174	52680
372.257	121467
372.340	45698
372.423	29090
372.505	28167
372.588	16137
372.671	43075
372.754	124040
372.836	56912
372.919	35454
373.002	57813
373.085	22404
373.167	23057
373.250	57652
373.332	120531
373.415	184057
373.498	338235
373.580	131937
373.663	259671
373.746	280541
373.828	53931
373.911	23195
373.993	22151
374.076	62074
374.159	52375
374.241	37670
374.324	102508
374.406	66421
374.489	113087
374.571	278877
374.654	104647
374.736	61879
374.819	178593
374.901	255138
374.983	241517
375.066	43441
375.148	19815
375.231	55314
375.313	90047
375.395	36402
375.478	14202
375.560	14152
375.643	16838
375.725	62590
375.807	222668
375.890	143781
375.972	43138
376.054	29663
376.136	34664
376.219	21832
376.301	72383
376.383	182781
376.465	66024
376.548	40080
376.630	57484
376.712	152139
376.794	65270
376.877	12308
376.959	6599
377.041	9979
377.123	14534
377.205	15877
377.287	6560
377.369	8219
377.452	9266
377.534	8442
377.616	8360
377.698	7689
377.780	7220
377.862	9541
377.944	9137
378.026	6884
378.108	7838
378.190	7865
378.272	7102
378.354	6699
378.436	7031
378.518	11331
378.600	29000
378.682	31198
378.764	70372
378.846	51297
378.928	16474
379.010	21682
379.091	13453
379.173	9347
379.255	7319
379.337	13084
379.419	40463
379.501	96867
379.583	37008
379.664	13303
379.746	27188
379.828	67584
379.910	92107
379.991	77528
380.073	15642
380.155	12103
380.237	9410
380.318	8155
380.400	9821
380.482	18391
380.564	24789
380.645	27199
380.727	22936
380.809	15252
380.890	10634
380.972	9601
381.053	9913
381.135	12979
381.217	27510
381.298	67944
381.380	33294
381.461	36130
381.543	160667
381.624	179630
381.706	32904
381.787	17968
381.869	21834
381.951	82702
382.032	264116
382.113	149393
382.195	29678
382.276	24947
382.358	58248
382.439	138778
382.521	166991
382.602	241761
382.684	108413
382.765	189563
382.846	197243
382.928	233421
383.009	131197
383.090	122305
383.172	393217
383.253	498608
383.334	195521
383.416	217446
383.497	111390
383.578	59487
383.659	109846
383.741	382450
383.822	783858
383.903	384429
383.984	163088
384.066	248645
384.147	144543
384.228	36980
384.309	29080
384.390	25201
384.471	19209
384.553	20628
384.634	24002
384.715	24588
384.796	15684
384.877	21802
384.958	67798
385.039	76021
385.120	28760
385.201	18071
385.282	18322
385.363	20660
385.444	20498
385.525	38420
385.606	112203
385.687	94081
385.768	25712
385.849	33961
385.930	132860
386.011	205090
386.092	55879
386.173	19184
386.254	16203
386.335	17354
386.416	18085
386.496	49699
386.577	67594
386.658	27296
386.739	18924
386.820	19321
386.901	16780
386.981	18081
387.062	18037
387.143	29726
387.224	74203
387.304	66012
387.385	29483
387.466	22951
387.547	25318
387.627	24052
387.708	41255
387.789	134586
387.869	154774
387.950	48392
388.031	17965
388.111	16469
388.192	25497
388.273	33214
388.353	23822
388.434	18313
388.514	35919
388.595	136061
388.676	152714
388.756	68905
388.837	62460
388.917	40246
388.998	13024
389.078	14719
389.159	13045
389.239	12092
389.320	17758
389.400	15361
389.480	32550
389.561	72958
389.641	38022
389.722	18403
389.802	23557
389.883	39005
389.963	90931
390.043	53813
390.124	18893
390.204	32710
390.284	80339
390.365	53759
390.445	91901
390.525	320748
390.605	275019
390.686	60768
390.766	23989
390.846	17663
390.927	13941
391.007	12990
391.087	16061
391.167	19334
391.247	15294
391.328	18070
391.408	21229
391.488	19305
391.568	14447
391.648	18717
391.728	22130
391.808	23344
391.888	25884
391.969	51053
392.049	70562
392.129	38122
392.209	48679
392.289	95861
392.369	58702
392.449	46067
392.529	41247
392.609	42860
392.689	57875
392.769	119361
392.849	111522
392.929	106845
393.009	191932
393.089	219847
393.169	339853
393.248	920231
393.328	2074593
393.408	1991792
393.488	825039
393.568	302907
393.648	155105
393.728	99921
393.807	70208
393.887	58274
393.967	49240
394.047	48009
394.127	50480
394.206	76048
394.286	243574
394.366	849806
394.446	839210
394.525	217882
394.605	65152
394.685	46120
394.764	56675
394.844	86727
394.924	71636
395.003	36149
395.083	27054
395.163	26009
395.242	23798
395.322	24764
395.402	21963
395.481	28546
395.561	48221
395.640	107775
395.720	128817
395.799	122603
395.879	94866
395.958	101426
396.038	350299
396.117	1088040
396.197	1103960
396.276	354872
396.356	127604
396.435	97360
396.515	95577
396.594	132517
396.673	271818
396.753	865500
396.832	1828777
396.912	1320511
396.991	398873
397.070	144010
397.150	81328
397.229	62256
397.308	87291
397.388	135712
397.467	72589
397.546	32664
397.625	23915
397.705	25709
397.784	23112
397.863	18072
397.942	15820
398.022	16609
398.101	30968
398.180	65580
398.259	37083
398.338	17603
398.417	13612
398.497	12783
398.576	13150
398.655	11375
398.734	10535
398.813	11083
398.892	27387
398.971	68451
399.050	34873
399.129	9318
399.208	8495
399.287	9043
399.366	7791
399.445	8074
399.524	7972
399.603	8337
399.682	13695
399.761	30849
399.840	75282
399.919	55774
399.998	11582
400.077	7693
400.156	6066
400.235	10498
400.313	6983
400.392	9493
400.471	37186
400.550	53957
400.629	15614
400.708	10226
400.786	8374
400.865	16393
400.944	17012
401.023	11602
401.102	4589
401.180	5947
401.259	5605
401.338	6936
401.416	8803
401.495	8507
401.574	7051
401.652	6977
401.731	9237
401.810	8395
401.888	5780
401.967	5594
402.046	7792
402.124	9889
402.203	9434
402.281	7930
402.360	10851
402.438	21364
402.517	13469
402.596	7905
402.674	6488
402.753	6732
402.831	6198
402.910	9795
402.988	35369
403.066	101365
403.145	56980
403.223	37688
403.302	83737
403.380	62148
403.459	57262
403.537	25430
403.615	11131
403.694	6329
403.772	6427
403.850	6469
403.929	5296
404.007	7656
404.085	14362
404.164	16642
404.242	8741
404.320	18308
404.398	43958
404.477	70229
404.555	199161
404.633	164931
404.711	40947
404.789	20725
404.868	9891
404.946	7363
405.024	4582
405.102	5376
405.180	4512
405.258	4691
405.336	5595
405.415	5679
405.493	11277
405.571	12004
405.649	5327
405.727	5845
405.805	9487
405.883	10142
405.961	9011
406.039	8966
406.117	5148
406.195	11620
406.273	51399
406.351	157367
406.429	86340
406.507	14236
406.585	7228
406.663	8702
406.740	9581
406.818	8807
406.896	5399
406.974	7963
407.052	17635
407.130	96247
407.208	119858
407.285	25253
407.363	7154
407.441	8334
407.519	8115
407.596	15359
407.674	75460
407.752	269429
407.830	190426
407.907	33051
407.985	11373
408.063	9027
408.141	5386
408.218	9673
408.296	9291
408.373	9518
408.451	8829
408.529	8527
408.606	5991
408.684	5824
408.762	5538
408.839	5514
408.917	5717
408.994	6934
409.072	7735
409.149	9512
409.227	15784
409.304	20997
409.382	22206
409.459	25300
409.537	32179
409.614	31941
409.692	24420
409.769	25063
409.846	33631
409.924	41222
410.001	30430
410.079	23414
410.156	18098
410.233	18448
410.311	15763
410.388	11799
410.465	10837
410.543	10351
410.620	8529
410.697	9898
410.775	10115
410.852	7515
410.929	10220
411.006	12450
411.083	9512
411.161	14486
411.238	13436
411.315	9153
411.392	6754
411.469	9790
411.547	8604
411.624	6194
411.701	6357
411.778	8927
411.855	13278
411.932	7760
412.009	5901
412.086	6775
412.163	5893
412.240	7110
412.317	6984
412.394	6719
412.471	5250
412.548	4730
412.625	4344
412.702	6479
412.779	10503
412.856	9076
412.933	3884
413.010	5211
413.087	7570
413.164	32886
413.241	42131
413.318	12366
413.395	8315
413.471	11471
413.548	5956
413.625	6001
413.702	5014
413.779	5723
413.855	2401
413.932	3795
414.009	2349
414.086	4130
414.162	4004
414.239	8710
414.316	34473
414.393	65967
414.469	22797
414.546	5236
414.623	3423
414.699	3982
414.776	5652
414.853	4798
414.929	4934
415.006	3758
415.082	4583
415.159	5230
415.236	3938
415.312	5412
415.389	9053
415.465	10889
415.542	5570
415.618	4979
415.695	8190
415.771	6247
415.848	4833
415.924	5789
416.000	3401
416.077	5095
416.153	2897
416.230	2835
416.306	2980
416.383	3701
416.459	3818
416.535	4035
416.612	3354
416.688	3930
416.764	2945
416.841	3950
416.917	3814
416.993	4265
417.069	5397
417.146	7509
417.222	10480
417.298	7262
417.374	3459
417.451	5149
417.527	6302
417.603	7507
417.679	4908
417.755	4760
417.831	3094
417.908	3566
417.984	2899
418.060	3236
418.136	10115
418.212	11909
418.288	5485
418.364	4652
418.440	4132
418.516	7724
418.592	8796
418.668	14936
418.744	20961
418.820	15325
418.896	5581
418.972	3861
419.048	4800
419.124	11513
419.200	8164
419.276	4688
419.352	2595
419.428	4224
419.504	5043
419.579	6918
419.655	5441
419.731	7312
419.807	15543
419.883	26716
419.959	18309
420.034	8127
420.110	14861
420.186	43697
420.262	32618
420.337	8658
420.413	7997
420.489	6471
420.565	6085
420.640	6562
420.716	7593
420.792	6178
420.867	7631
420.943	7894
421.019	11432
421.094	10864
421.170	8681
421.245	9071
421.321	10971
421.397	17175
421.472	62123
421.548	167213
421.623	92039
421.699	23122
421.774	18195
421.850	19932
421.925	24785
422.001	27917
422.076	29456
422.152	37713
422.227	50937
422.302	69047
422.378	105334
422.453	191045
422.529	421189
422.604	836895
422.679	990732
422.755	801301
422.830	412697
422.905	190365
422.981	110981
423.056	73554
423.131	52596
423.207	40192
423.282	33692
423.357	35627
423.432	27518
423.508	26077
423.583	34039
423.658	27392
423.733	15208
423.808	16802
423.883	17264
423.959	18371
424.034	18667
424.109	17344
424.184	11680
424.259	11197
424.334	8413
424.409	8264
424.484	7388
424.559	8221
424.634	7820
424.709	10021
424.784	9869
424.859	7735
424.934	10574
425.009	32165
425.084	48056
425.159	19005
425.234	5610
425.309	4846
425.384	9523
425.459	11999
425.534	5972
425.609	4691
425.683	4803
425.758	4996
425.833	5631
425.908	7542
425.983	20713
426.058	49044
426.132	20931
426.207	6874
426.282	6426
426.357	6683
426.431	4130
426.506	4511
426.581	4157
426.655	5122
426.730	3985
426.805	4565
426.879	5047
426.954	5914
427.029	11952
427.103	55875
427.178	124446
427.253	53952
427.327	8074
427.402	8404
427.476	13070
427.551	7633
427.625	5321
427.700	5557
427.774	3469
427.849	5983
427.923	4172
427.998	6856
428.072	7948
428.147	20527
428.221	103650
428.296	284074
428.370	147370
428.444	20586
428.519	11809
428.593	16097
428.667	14297
428.742	19468
428.816	38160
428.890	177004
428.965	254077
429.039	64536
429.113	20444
429.188	9655
429.262	5723
429.336	10837
429.410	22216
429.485	15864
429.559	13567
429.633	11505
429.707	9739
429.781	34483
429.855	173390
429.930	238622
430.004	78771
430.078	75236
430.152	133147
430.226	381223
430.300	351563
430.374	64595
430.448	19649
430.522	31319
430.596	66045
430.670	79194
430.744	266218
430.818	310018
430.892	57961
430.966	11483
431.040	6609
431.114	4461
431.188	4626
431.262	5261
431.336	4443
431.410	10676
431.484	18239
431.557	14835
431.631	7010
431.705	14212
431.779	75633
431.853	263496
431.927	169487
432.000	22980
432.074	6308
432.148	6798
432.222	4892
432.295	3815
432.369	3177
432.443	9463
432.516	55165
432.590	125701
432.664	42647
432.737	6088
432.811	2571
432.885	2390
432.958	2336
433.032	2058
433.106	1706
433.179	1862
433.253	1426
433.326	2493
433.400	774
433.473	2898
433.547	811
433.620	2927
433.694	5354
433.767	5249
433.841	1910
433.914	2271
433.988	2757
434.061	3715
434.134	2550
434.208	1974
434.281	1084
434.355	2115
434.428	2142
434.501	2241
434.575	1410
434.648	2341
434.721	1994
434.795	2336
434.868	1598
434.941	2457
435.014	1640
435.088	3036
435.161	3948
435.234	7063
435.307	8604
435.381	7388
435.454	8769
435.527	14779
435.600	15516
435.673	14113
435.746	9851
435.819	7881
435.892	5785
435.966	5765
436.039	4690
436.112	4651
436.185	3383
436.258	3093
436.331	1239
436.404	2034
436.477	2079
436.550	1929
436.623	2158
436.696	2718
436.769	1843
436.842	2171
436.915	2124
436.987	3994
437.060	1658
437.133	1333
437.206	1798
437.279	2402
437.352	1392
437.425	1937
437.498	2346
437.570	6754
437.643	4537
437.716	2392
437.789	1610
437.861	5157
437.934	12112
438.007	6345
438.080	1726
438.152	3480
438.225	11884
438.298	81817
438.370	186230
438.443	69287
438.516	12492
438.588	4127
438.661	2219
438.734	1903
438.806	3016
438.879	2946
438.951	3605
439.024	6723
439.096	2582
439.169	1852
439.241	1502
439.314	2438
439.386	1968
439.459	4584
439.531	6088
439.604	3085
439.676	1899
439.749	1332
439.821	1329
439.893	1711
439.966	1626
440.038	3011
440.110	3873
440.183	2305
440.255	1938
440.327	5101
440.400	30097
440.472	108929
440.544	64414
440.617	7905
440.689	5636
440.761	8277
440.833	10031
440.905	6660
440.978	1708
441.050	2564
441.122	2486
441.194	2457
441.266	1441
441.338	2792
441.411	6096
441.483	33632
441.555	42694
441.627	9886
441.699	5564
441.771	5481
441.843	2465
441.915	3488
441.987	2734
442.059	3861
442.131	4777
442.203	8150
442.275	10121
442.347	14351
442.419	35210
442.491	173916
442.563	342151
442.635	130505
442.706	33508
442.778	20703
442.850	9179
442.922	7400
442.994	6763
443.066	10575
443.137	11054
443.209	14344
443.281	21930
443.353	53195
443.425	214731
443.496	612862
443.568	561221
443.640	202602
443.711	42483
443.783	18184
443.855	11090
443.926	7990
443.998	6760
444.070	7401
444.141	6176
444.213	8603
444.285	8670
444.356	7822
444.428	5044
444.499	4460
444.571	3526
444.642	4316
444.714	5984
444.785	8645
444.857	9277
444.928	14911
445.000	11137
445.071	15300
445.143	19156
445.214	24723
445.285	41253
445.357	117675
445.428	427574
445.500	780675
445.571	511716
445.642	283757
445.714	87250
445.785	39027
445.856	17427
445.928	14562
445.999	11205
446.070	9162
446.141	7830
446.213	9930
446.284	4616
446.355	5501
446.426	3829
446.497	4325
446.569	5236
446.640	7753
446.711	5743
446.782	3700
446.853	3709
446.924	4357
446.995	3573
447.066	2798
447.138	4647
447.209	4233
447.280	2015
447.351	1991
447.422	324
447.493	2854
447.564	3048
447.635	5453
447.706	2362
447.777	2111
447.847	982
447.918	2169
447.989	2833
448.060	3901
448.131	6899
448.202	7340
448.273	4928
448.344	2626
448.414	1342
448.485	2432
448.556	903
448.627	1075
448.698	1948
448.768	1244
448.839	1261
448.910	3896
448.981	2971
449.051	2775
449.122	1347
449.193	2181
449.263	1346
449.334	1355
449.405	2959
449.475	8509
449.546	5310
449.616	6019
449.687	4056
449.758	2699
449.828	2011
449.899	2117
449.969	1484
450.040	2412
450.110	2565
450.181	3209
450.251	1462
450.322	2171
450.392	1620
450.463	2574
450.533	1523
450.604	2412
450.674	1261
450.744	3230
450.815	1595
450.885	3152
450.955	3024
451.026	2489
451.096	2457
451.166	2766
451.237	5377
451.307	11943
451.377	5180
451.447	2489
451.518	1813
451.588	1821
451.658	2470
451.728	3275
451.799	11638
451.869	11648
451.939	2431
452.009	2080
452.079	1400
452.149	2546
452.219	4485
452.289	13625
452.360	8437
452.430	3639
452.500	4046
452.570	7276
452.640	14633
452.710	36128
452.780	41480
452.850	28334
452.920	18942
452.990	8832
453.060	5516
453.129	6063
453.199	5263
453.269	19742
453.339	31606
453.409	43520
453.479	48222
453.549	66752
453.619	63760
453.688	21217
453.758	4121
453.828	3035
453.898	2071
453.968	2768
454.037	1537
454.087	1658
454.107	1704
454.168	1093
454.177	997
454.247	2264
454.249	2213
454.316	836
454.330	1064
454.386	1909
454.411	3339
454.456	5725
454.492	7092
454.525	8363
454.574	4762
454.595	3184
454.655	1877
454.665	1673
454.734	1460
454.736	1545
454.804	4664
454.817	5813
454.873	10642
454.898	10878
454.943	11430
454.979	7111
455.013	3095
455.060	2555
455.082	2370
455.141	1847
455.152	1764
455.221	9361
455.222	9422
455.291	13906
455.303	14179
455.360	15142
455.384	20721
455.430	30640
455.465	22214
455.499	14447
455.546	11425
455.569	10016
455.627	6760
455.638	6168
455.707	2337
455.708	2338
455.777	1729
455.789	1681
455.846	1504
455.869	1657
455.916	2013
455.950	1415
455.985	745
456.031	1177
456.054	1428
456.112	1184
456.124	1094
456.193	1123
456.193	1118
456.262	1300
456.274	1431
456.332	1998
456.355	2100
456.401	2268
456.436	1972
456.470	1640
456.516	1089
456.540	884
456.597	1398
456.609	1471
456.678	1395
456.678	1390
456.747	1617
456.759	1462
456.817	718
456.840	1022
456.886	1509
456.920	1204
456.955	1002
457.001	1739
457.024	2131
457.082	1198
457.093	979
457.162	2536
457.163	2544
457.232	3065
457.243	2956
457.301	2351
457.324	1924
457.370	1189
457.405	1914
457.439	2641
457.485	2596
457.508	2668
457.566	3640
457.577	3910
457.646	5063
457.647	5096
457.715	9840
457.727	11108
457.784	17281
457.808	25469
457.853	38572
457.889	46084
457.922	51300
457.969	35528
457.991	31188
458.050	30215
458.060	29947
458.129	59342
458.130	59988
458.198	77128
458.211	69218
458.267	39114
458.292	28736
458.336	14931
458.372	13913
458.405	16464
458.453	23302
458.474	26723
458.533	49893
458.543	52315
458.611	104458
458.614	104315
458.680	79870
458.694	66364
458.749	27039
458.775	20055
458.818	9948
458.855	7577
458.887	5913
458.936	4581
458.955	4219
459.016	3736
459.024	3615
459.093	3278
459.097	3224
459.162	2422
459.177	2594
459.230	3543
459.257	3539
459.299	3084
459.338	3377
459.368	3715
459.418	3541
459.437	3333
459.499	2968
459.505	3028
459.574	2767
459.579	2809
459.643	2510
459.659	2221
459.711	1841
459.740	2139
459.780	2447
459.820	2571
459.849	2512
459.900	2692
459.917	2910
459.981	3035
459.986	2965
460.054	2658
460.061	2554
460.123	2917
460.141	3229
460.191	3685
460.222	3654
460.260	3758
460.302	5008
460.328	5271
460.382	4391
460.397	4528
460.462	5462
460.465	5798
460.534	13389
460.543	14650
460.602	37078
460.623	47087
460.671	70238
460.703	104463
460.739	111144
460.783	86399
460.808	77505
460.864	21071
460.876	12505
460.944	4535
460.945	4443
461.013	3662
461.024	3486
461.081	3123
461.104	3447
461.150	3413
461.184	2681
461.218	2261
461.264	2306
461.286	2336
461.345	2316
461.355	2324
461.423	2694
461.425	2682
461.491	2258
461.505	2351
461.559	3589
461.585	3877
461.628	4150
461.665	5501
461.696	6377
461.745	8468
461.764	8561
461.825	4525
461.832	4332
461.901	2861
461.905	2927
461.969	2228
461.985	1799
462.037	2253
462.065	2676
462.105	2524
462.145	2600
462.173	3025
462.225	3701
462.241	3787
462.305	4947
462.310	4951
462.378	4679
462.385	4390
462.446	2680
462.465	2528
462.514	2725
462.545	3092
462.582	2961
462.625	2609
462.650	2627
462.705	2499
462.718	2374
462.785	2447
462.786	2455
462.854	1744
462.865	1867
462.922	3049
462.945	3289
462.990	3291
463.025	3122
463.058	2890
463.104	2341
463.126	1938
463.184	1675
463.194	1830
463.262	2215
463.264	2242
463.330	2290
463.344	2302
463.398	2817
463.424	3039
463.466	2675
463.504	2274
463.533	2457
463.583	2941
463.601	3009
463.663	2780
463.669	2782
463.737	3197
463.743	3218
463.805	4227
463.823	4644
463.873	5938
463.903	6585
463.940	6573
463.982	7396
464.008	6809
464.062	3659
464.076	3513
464.142	2823
464.144	2787
464.211	1920
464.221	1882
464.279	2482
464.301	2640
464.347	2364
464.381	2342
464.414	2781
464.461	2955
464.482	2724
464.540	2619
464.550	2783
464.617	3317
464.620	3345
464.685	3804
464.699	3852
464.753	4248
464.779	4609
464.820	5216
464.859	5709
464.888	5408
464.938	4725
464.956	4689
465.018	4525
465.023	4536
465.091	4602
465.098	4599
465.158	4071
465.177	3980
465.226	4460
465.257	4645
465.293	4404
465.336	4251
465.361	4714
465.416	5558
465.428	5670
465.495	6686
465.496	6700
465.563	7661
465.575	7925
465.631	8587
465.654	8950
465.698	7504
465.734	5601
465.765	5132
465.813	4579
465.833	4604
465.893	5224
465.900	5144
465.968	4097
465.972	4035
466.035	4094
466.052	4088
466.102	4192
466.131	4267
466.170	4840
466.210	5371
466.237	5271
466.290	5209
466.304	5318
466.369	5574
466.372	5577
466.439	5673
466.449	5657
466.506	6682
466.528	7131
466.573	8288
466.607	9036
466.641	10250
466.687	12078
466.708	12798
466.766	14940
466.775	14338
466.842	9483
466.845	9245
466.909	7961
466.925	7720
466.977	7595
467.004	7533
467.044	7687
467.083	7866
467.111	8196
467.163	8765
467.178	8711
467.242	8499
467.245	8499
467.312	8406
467.321	8391
467.379	7587
467.400	7280
467.446	7701
467.480	7996
467.559	6778
467.638	6409
467.717	6113
467.796	6891
467.875	7751
467.955	6639
468.034	9699
468.113	12562
468.192	16213
468.271	7910
468.350	9122
468.429	12915
468.508	12098
468.588	8969
468.667	6934
468.746	6447
468.825	5779
468.904	4720
468.983	5660
469.062	6239
469.141	7312
469.220	4745
469.299	5422
469.378	5195
469.456	7333
469.535	6065
469.614	5314
469.693	5638
469.772	7094
469.851	6439
469.930	5546
470.009	5861
470.088	6094
470.166	7108
470.245	8972
470.324	10189
470.403	6937
470.482	6213
470.560	5386
470.639	5802
470.718	7081
470.797	5222
470.875	6662
470.954	6875
471.033	6513
471.111	4951
471.190	4046
471.269	4287
471.347	3527
471.426	4971
471.505	5163
471.583	6123
471.662	5418
471.740	5227
471.819	5073
471.898	5076
471.976	5385
472.055	4959
472.133	6877
472.212	7375
472.290	5971
472.369	4551
472.447	4652
472.526	4730
472.604	5034
472.683	5040
472.761	5633
472.839	5185
472.918	4245
472.996	4408
473.075	5040
473.153	4645
473.231	3428
473.310	5560
473.388	4839
473.466	4136
473.545	5324
473.623	7932
473.701	6924
473.780	4578
473.858	3561
473.936	6208
474.014	4410
474.093	6206
474.171	8007
474.249	8449
474.327	5645
474.405	5304
474.484	4387
474.562	4071
474.640	4331
474.718	5409
474.796	4135
474.874	5208
474.952	4930
475.030	4720
475.108	4042
475.187	5572
475.265	6646
475.343	8103
475.421	8048
475.499	5644
475.577	4809
475.655	5814
475.733	7870
475.811	10779
475.889	8591
475.966	6837
476.044	4441
476.122	5329
476.200	7044
476.278	4864
476.356	3583
476.434	4074
476.512	5302
476.590	6527
476.667	6197
476.745	3857
476.823	3990
476.901	3604
476.979	3922
477.056	4375
477.134	3388
477.212	4584
477.290	4932
477.367	4068
477.445	3154
477.523	2846
477.601	3583
477.678	4345
477.756	4028
477.834	4530
477.911	3087
477.989	3337
478.066	3990
478.144	4216
478.222	5160
478.299	8968
478.377	7349
478.454	3943
478.532	3441
478.609	4189
478.687	3821
478.764	2847
478.842	3852
478.919	4486
478.997	3629
479.074	2802
479.152	4446
479.229	4092
479.307	2929
479.384	2979
479.461	3112
479.539	3015
479.616	3290
479.694	3729
479.771	2566
479.848	4181
479.926	2405
480.003	4924
480.080	3911
480.157	2957
480.235	2833
480.312	2840
480.389	3286
480.467	3996
480.544	3633
480.621	4515
480.698	2760
480.775	3604
480.853	3566
480.930	3667
481.007	4667
481.084	7149
481.161	10888
481.238	6002
481.315	3379
481.392	2835
481.470	2825
481.547	3307
481.624	2724
481.701	3044
481.778	2904
481.855	3318
481.932	5293
482.009	6983
482.086	5399
482.163	5071
482.240	7781
482.317	11631
482.393	8168
482.470	4659
482.547	4257
482.624	3735
482.701	3263
482.778	3459
482.855	3145
482.932	3747
483.009	3098
483.085	6563
483.162	9315
483.239	9156
483.316	5571
483.393	5635
483.469	4483
483.546	4754
483.623	4105
483.699	2969
483.776	3115
483.853	3744
483.930	5104
484.006	9720
484.083	15385
484.160	14854
484.236	23346
484.313	17313
484.389	11960
484.466	12582
484.543	12686
484.619	13736
484.696	14747
484.772	12762
484.849	10914
484.925	10252
485.002	9912
485.078	11554
485.155	9503
485.231	9059
485.308	9970
485.384	9408
485.461	11575
485.537	13535
485.614	14807
485.690	9407
485.766	8963
485.843	10666
485.919	13562
485.995	13714
486.072	8550
486.148	8682
486.224	8677
486.301	8810
486.377	9201
486.453	8818
486.530	11096
486.606	14215
486.682	14268
486.758	14310
486.835	14777
486.911	13611
486.987	19410
487.063	25889
487.139	35270
487.215	26631
487.292	15725
487.368	13348
487.444	14738
487.520	19891
487.596	26509
487.672	58035
487.748	148480
487.824	203516
487.900	62223
487.976	21738
488.052	14959
488.128	14235
488.204	11172
488.280	11154
488.356	11896
488.432	15736
488.508	18984
488.584	9737
488.660	8194
488.736	9418
488.812	8817
488.888	12453
488.964	16804
489.039	34596
489.115	46219
489.191	26164
489.267	9829
489.343	8563
489.418	6547
489.494	8113
489.570	6238
489.646	8772
489.722	7035
489.797	7974
489.873	10496
489.949	14293
490.024	11899
490.100	7162
490.176	6750
490.251	9881
490.327	11532
490.403	7890
490.478	7400
490.554	6339
490.629	5996
490.705	5937
490.781	7190
490.856	6368
490.932	7739
491.007	7712
491.083	7327
491.158	6876
491.234	7903
491.309	11467
491.385	10204
491.460	5946
491.536	7522
491.611	6362
491.686	7277
491.762	10494
491.837	21001
491.913	33112
491.988	45170
492.063	52190
492.139	10577
492.214	7269
492.289	6178
492.365	5633
492.440	5901
492.515	5778
492.590	5316
492.666	5284
492.741	6299
492.816	7731
492.891	4837
492.967	5714
493.042	4648
493.117	4575
493.192	5687
493.267	11814
493.342	28931
493.418	35658
493.493	6227
493.568	4931
493.643	4744
493.718	5739
493.793	7531
493.868	9959
493.943	6220
494.018	5960
494.093	4392
494.168	4808
494.243	4167
494.318	3865
494.393	3455
494.468	4201
494.543	3555
494.618	5585
494.693	4247
494.768	3150
494.842	3577
494.917	3884
494.992	4650
495.067	3719
495.142	3747
495.217	5764
495.292	4676
495.366	5828
495.441	5228
495.516	8159
495.591	13109
495.665	50065
495.740	98397
495.815	30510
495.890	5865
495.964	3433
496.039	7577
496.114	8558
496.188	13742
496.263	11046
496.338	5514
496.412	5603
496.487	5854
496.561	6983
496.636	7700
496.710	7214
496.785	8433
496.860	7646
496.934	5185
497.009	7181
497.083	6246
497.158	7281
497.232	8145
497.307	9833
497.381	10098
497.455	9715
497.530	12130
497.604	10856
497.679	12179
497.753	15469
497.827	20143
497.902	21251
497.976	23702
498.050	41837
498.125	100870
498.199	98097
498.273	33549
498.348	31046
498.422	25760
498.496	23406
498.570	18635
498.645	14930
498.719	11700
498.793	12578
498.867	13530
498.941	16729
499.016	43963
499.090	90192
499.164	29637
499.238	8350
499.312	7368
499.386	8973
499.460	7539
499.534	6606
499.609	6727
499.683	7916
499.757	7905
499.831	20193
499.905	59330
499.979	50040
500.053	8827
500.127	11927
500.201	9967
500.275	6062
500.349	5340
500.422	5823
500.496	9882
500.570	22243
500.644	40205
500.718	54742
500.792	13390
500.866	6223
500.940	5792
501.013	5042
501.087	5551
501.161	9964
501.235	9862
501.309	21535
501.382	47219
501.456	40980
501.530	11088
501.603	14565
501.677	6176
501.751	2605
501.825	6467
501.898	8257
501.972	17477
502.046	10662
502.119	4810
502.193	11377
502.266	19190
502.340	10062
502.413	9843
502.487	16430
502.561	7926
502.634	5660
502.708	5232
502.781	3454
502.855	3734
502.928	2658
503.002	2761
503.075	2648
503.149	2929
503.222	3904
503.295	2734
503.369	4755
503.442	5704
503.516	16623
503.589	33436
503.662	21515
503.736	10431
503.809	19590
503.882	17310
503.956	27520
504.029	40720
504.102	83796
504.175	111356
504.249	37755
504.322	14592
504.395	9352
504.468	5756
504.542	4582
504.615	2779
504.688	4288
504.761	1353
504.834	4991
504.907	6302
504.980	9492
505.053	4174
505.127	3523
505.200	6171
505.273	3895
505.346	2242
505.419	1568
505.492	2835
505.565	2505
505.638	2884
505.711	1668
505.784	1202
505.857	1719
505.930	3364
506.003	1314
506.076	3997
506.149	2408
506.221	1421
506.294	5116
506.367	8135
506.440	25908
506.513	12936
506.586	3117
506.659	1677
506.731	3355
506.804	3175
506.877	4739
506.950	2691
507.022	3703
507.095	1574
507.168	3593
507.241	3218
507.313	2113
507.386	2141
507.459	5687
507.531	2136
507.604	2420
507.677	3102
507.749	936
507.822	5111
507.894	8251
507.967	11109
508.040	5183
508.112	5734
508.185	5720
508.257	3595
508.330	7007
508.402	3794
508.475	3902
508.547	3860
508.620	4804
508.692	5727
508.765	4510
508.837	2995
508.909	4605
508.982	4010
509.054	4247
509.127	3305
509.199	3565
509.271	2681
509.344	2552
509.416	2257
509.488	2977
509.560	3081
509.633	3622
509.705	3553
509.777	4393
509.849	5988
509.922	3075
509.994	3202
510.066	4535
510.138	3109
510.210	11098
510.283	7457
510.355	6066
510.427	6319
510.499	5642
510.571	4520
510.643	4754
510.715	9062
510.787	5813
510.859	6424
510.931	5943
511.003	7562
511.076	7550
511.148	4159
511.219	4713
511.291	6246
511.363	6314
511.435	4468
511.507	3392
511.579	5481
511.651	4723
511.723	3178
511.795	3588
511.867	2868
511.939	5001
512.010	6017
512.082	5839
512.154	2714
512.226	5005
512.298	9270
512.369	10011
512.441	8870
512.513	8105
512.585	5165
512.656	6752
512.728	5096
512.800	4899
512.871	5078
512.943	5935
513.015	3377
513.086	6062
513.158	4357
513.230	5403
513.301	8596
513.373	9287
513.444	4989
513.516	4963
513.588	4441
513.659	5873
513.731	6173
513.802	4518
513.874	15083
513.945	19975
514.016	5665
514.088	4861
514.159	4392
514.231	8594
514.302	10265
514.374	7234
514.445	5296
514.516	11471
514.588	5790
514.659	6720
514.730	7878
514.802	10858
514.873	9126
514.944	11720
515.016	8512
515.087	7305
515.158	7088
515.229	10630
515.301	10794
515.372	16645
515.443	8478
515.514	6654
515.585	5387
515.656	7258
515.728	5265
515.799	3891
515.870	6324
515.941	5772
516.012	5184
516.083	8042
516.154	7778
516.225	11530
516.296	10053
516.367	9014
516.438	8740
516.509	11616
516.580	17984
516.651	69393
516.722	186386
516.793	68002
516.864	15595
516.935	14349
517.006	15520
517.077	23492
517.148	66182
517.219	252218
517.289	298187
517.360	51882
517.431	16760
517.502	7431
517.573	9689
517.643	8364
517.714	9994
517.785	10432
517.856	9783
517.926	13738
517.997	14008
518.068	16069
518.138	22340
518.209	43827
518.280	201062
518.350	556420
518.421	164934
518.492	23971
518.562	18678
518.633	19163
518.703	26743
518.774	64760
518.845	159041
518.915	135850
518.986	35680
519.056	19840
519.127	23445
519.197	28640
519.268	36247
519.338	20245
519.408	9287
519.479	12964
519.549	9156
519.620	7304
519.690	5324
519.760	4965
519.831	5483
519.901	5662
519.971	5403
520.042	4639
520.112	3902
520.182	7609
520.253	6100
520.323	4014
520.393	5306
520.463	9963
520.534	4416
520.604	11303
520.674	5257
520.744	5484
520.814	11327
520.885	10492
520.955	12167
521.025	34373
521.095	11749
521.165	5945
521.235	3754
521.305	3557
521.375	4373
521.445	5162
521.515	5302
521.585	7944
521.655	4608
521.725	6298
521.795	5193
521.865	1604
521.935	6863
522.005	3577
522.075	2830
522.145	5119
522.215	3376
522.285	5830
522.355	5898
522.424	10683
522.494	8339
522.564	8204
522.634	20129
522.704	47690
522.774	14283
522.843	5536
522.913	5186
522.983	6132
523.053	2985
523.122	5087
523.192	8542
523.262	29000
523.331	20243
523.401	5030
523.471	3303
523.540	4730
523.610	1714
523.680	3806
523.749	2871
523.819	5862
523.888	3921
523.958	3389
524.027	3311
524.097	3242
524.166	3868
524.236	3265
524.305	4923
524.375	2997
524.444	1586
524.514	5911
524.583	2821
524.653	3159
524.722	4496
524.791	2693
524.861	3928
524.930	2580
524.999	3073
525.069	6005
525.138	3234
525.207	3873
525.277	5295
525.346	4822
525.415	5427
525.484	6200
525.554	5765
525.623	9301
525.692	12835
525.761	11034
525.830	13269
525.900	16019
525.969	25113
526.038	51132
526.107	127460
526.176	341379
526.245	240279
526.314	73768
526.383	175193
526.452	225458
526.522	390090
526.591	310367
526.660	55000
526.729	30504
526.797	35402
526.867	75920
526.935	302436
527.004	718659
527.073	354403
527.142	33490
527.211	14929
527.280	12955
527.349	8970
527.418	4812
527.487	5905
527.555	3689
527.624	4149
527.693	2360
527.762	4549
527.831	1336
527.899	3588
527.968	3025
528.037	2080
528.106	5186
528.174	7450
528.243	5342
528.312	8531
528.380	9884
528.449	2164
528.518	4709
528.586	475
528.655	2526
528.723	2096
528.792	2624
528.861	1568
528.929	1317
528.998	2480
529.066	1847
529.135	2451
529.203	2203
529.272	962
529.340	3077
529.409	2962
529.477	1990
529.545	2238
529.614	5122
529.682	2249
529.751	4174
529.819	6567
529.887	3696
529.956	2970
530.024	4552
530.092	2509
530.161	5200
530.229	6159
530.297	2859
530.365	3714
530.434	2713
530.502	2090
530.570	3569
530.638	1298
530.707	4337
530.775	4223
530.843	2540
530.911	2483
530.979	3514
531.047	2177
531.115	3746
531.183	3123
531.252	3832
531.320	2687
531.388	2117
531.456	2624
531.524	1757
531.592	4241
531.660	6024
531.728	2725
531.796	3476
531.864	2832
531.932	4150
532.000	3927
532.067	3921
532.135	3483
532.203	5857
532.271	4774
532.339	11738
532.407	23326
532.475	12017
532.542	6965
532.610	6869
532.678	9311
532.746	50361
532.814	90743
532.881	19132
532.949	6074
533.017	5466
533.084	4192
533.152	3958
533.220	4438
533.287	4191
533.355	3580
533.423	4291
533.490	3019
533.558	3257
533.625	4309
533.693	4368
533.761	5263
533.828	5981
533.896	3799
533.963	9493
534.031	11155
534.098	15041
534.166	6856
534.233	5282
534.300	7682
534.368	7635
534.435	5949
534.503	7655
534.570	8336
534.637	8628
534.705	9106
534.772	13073
534.840	35458
534.907	174323
534.974	174010
535.041	18151
535.109	7040
535.176	6229
535.243	5162
535.310	6454
535.378	4023
535.445	5586
535.512	4336
535.579	4598
535.646	4137
535.714	5185
535.781	6829
535.848	6431
535.915	6117
535.982	5961
536.049	5177
536.116	6317
536.183	5017
536.250	5529
536.317	4878
536.384	7331
536.451	9743
536.518	9335
536.585	4637
536.652	9135
536.719	10917
536.786	6790
536.853	6308
536.920	10992
536.987	13958
537.053	14901
537.120	55941
537.187	35349
537.254	5625
537.321	4644
537.388	5296
537.454	4738
537.521	5020
537.588	4730
537.654	6888
537.721	6734
537.788	6143
537.855	5312
537.921	5562
537.988	5341
538.055	5254
538.121	5000
538.188	5354
538.254	9071
538.321	15729
538.388	9367
538.454	6134
538.521	5491
538.587	4939
538.654	4737
538.720	4850
538.787	5353
538.853	5561
538.920	6219
538.986	4736
539.053	4602
539.119	5094
539.185	5614
539.252	7719
539.318	9860
539.385	8582
539.451	6940
539.517	6986
539.583	8318
539.650	17459
539.716	34175
539.782	9971
539.849	5557
539.915	6505
539.981	5914
540.047	7004
540.114	6467
540.180	7199
540.246	5924
540.312	9324
540.378	16143
540.444	14841
540.510	20373
540.576	39497
540.643	11046
540.709	4593
540.775	5996
540.841	5650
540.907	8325
540.973	9156
541.039	10836
541.105	9033
541.171	6529
541.237	5339
541.303	6908
541.369	8768
541.435	9287
541.500	13833
541.566	7180
541.632	5001
541.698	5858
541.764	6271
541.830	5814
541.896	4241
541.961	5953
542.027	6506
542.093	6773
542.159	6506
542.224	6201
542.290	10476
542.356	14752
542.421	15436
542.487	8444
542.553	6154
542.618	6603
542.684	4885
542.750	6507
542.815	7293
542.881	12632
542.947	38457
543.012	22524
543.078	5848
543.143	5347
543.209	6313
543.274	6209
543.340	7083
543.405	17292
543.471	19826
543.536	6208
543.602	6873
543.667	4815
543.732	6765
543.798	5234
543.863	6689
543.928	4538
543.994	5368
544.059	6771
544.124	5439
544.190	6445
544.255	6752
544.320	6797
544.386	6532
544.451	9911
544.516	9954
544.581	10150
544.646	27495
544.712	32565
544.777	8428
544.842	7261
544.907	5765
544.972	6833
545.037	7789
545.102	9039
545.168	6817
545.233	8307
545.298	8656
545.363	8947
545.428	10592
545.493	19484
545.558	29981
545.623	12937
545.688	7285
545.753	8036
545.818	7597
545.883	9669
545.947	7539
546.012	8790
546.077	9174
546.142	10673
546.207	10452
546.272	12768
546.337	12172
546.401	12287
546.466	11446
546.531	10160
546.596	12890
546.661	13894
546.725	13103
546.790	13036
546.855	14663
546.919	15874
546.984	17794
547.049	20085
547.113	22299
547.178	23379
547.243	27390
547.307	31990
547.372	36163
547.436	35863
547.501	35473
547.565	40282
547.630	36728
547.695	35744
547.759	34747
547.823	34443
547.888	34636
547.952	37026
548.017	39137
548.081	46952
548.146	40249
548.210	40660
548.274	42089
548.339	40803
548.403	37110
548.468	34102
548.532	34629
548.596	37649
548.660	35371
548.725	41395
548.789	42504
548.853	43305
548.917	39877
548.982	38249
549.046	33791
549.110	31273
549.174	32171
549.238	37859
549.303	40988
549.367	43299
549.431	38492
549.495	37436
549.559	37147
549.623	45115
549.687	48911
549.751	50222
549.815	56552
549.879	56563
549.943	53780
550.007	58435
550.071	55835
550.135	52212
550.199	47383
550.263	47346
550.327	45986
550.391	49757
550.455	53354
550.519	54022
550.582	57748
550.646	67950
550.710	67899
550.774	64508
550.838	66361
550.901	68992
550.965	73382
551.029	76727
551.093	85887
551.156	96857
551.220	122569
551.284	135186
551.347	93396
551.411	82591
551.475	75398
551.538	71674
551.602	64282
551.666	61643
551.729	55504
551.793	55344
551.856	53576
551.920	53490
551.983	52595
552.047	52930
552.110	52891
552.174	56278
552.237	55847
552.301	51173
552.364	47604
552.428	46686
552.491	47473
552.554	49705
552.618	49490
552.681	50795
552.745	49149
552.808	57832
552.871	62040
552.934	53540
552.998	49115
553.061	49163
553.124	46626
553.187	45204
553.251	47353
553.314	48140
553.377	49377
553.440	56568
553.503	72283
553.567	75925
553.630	52721
553.693	50350
553.756	49936
553.819	48523
553.882	46038
553.945	48279
554.008	47192
554.071	47784
554.134	47598
554.197	43708
554.260	43545
554.323	46483
554.386	45215
554.449	47709
554.512	46950
554.575	45315
554.638	44262
554.701	44962
554.764	42809
554.827	42201
554.889	40179
554.952	37478
555.015	36077
555.078	37887
555.141	38399
555.203	37350
555.266	37332
555.329	38337
555.391	35537
555.454	36632
555.517	34595
555.580	33718
555.642	32227
555.705	31597
555.768	31203
555.830	30630
555.893	28719
555.955	29200
556.018	27839
556.080	28626
556.143	29614
556.206	28357
556.268	28383
556.330	29169
556.393	27844
556.455	26690
556.518	27567
556.580	26371
556.643	24013
556.705	24738
556.767	22721
556.830	24590
556.892	25718
556.955	28205
557.017	24751
557.079	22928
557.142	21725
557.204	24459
557.266	32052
557.328	25015
557.391	20391
557.453	18539
557.515	19900
557.577	22150
557.639	21409
557.701	21843
557.764	21859
557.826	24045
557.888	25062
557.950	25523
558.012	30607
558.074	47607
558.136	136126
558.198	272511
558.260	74668
558.322	32808
558.384	33851
558.446	37858
558.508	41050
558.570	49150
558.632	64864
558.694	90028
558.756	166926
558.818	597311
558.880	1094283
558.942	314715
559.003	298026
559.065	112785
559.127	47737
559.189	45854
559.251	54503
559.312	96526
559.374	290186
559.436	790465
559.498	279343
559.559	54814
559.621	45733
559.683	59128
559.744	120894
559.806	427350
559.868	475300
559.929	73151
559.991	51856
560.052	106800
560.114	283342
560.176	145389
560.237	179933
560.299	225247
560.360	36973
560.422	17004
560.483	14004
560.545	12938
560.606	11374
560.667	10441
560.729	10344
560.790	10032
560.852	9733
560.913	9086
560.974	8252
561.036	9459
561.097	8850
561.158	9191
561.220	9042
561.281	8621
561.342	9086
561.403	10802
561.465	12429
561.526	27153
561.587	25979
561.648	10041
561.709	7706
561.771	9115
561.832	7929
561.893	8199
561.954	8230
562.015	7613
562.076	7350
562.137	7646
562.198	7236
562.259	7898
562.320	7288
562.381	8538
562.442	10814
562.503	9607
562.564	7317
562.625	8007
562.686	7623
562.747	7568
562.808	7760
562.869	7159
562.930	7789
562.991	7346
563.051	6335
563.112	7236
563.173	7222
563.234	6453
563.294	6195
563.355	6816
563.416	6193
563.477	7566
563.537	6941
563.598	7758
563.659	7150
563.720	5502
563.780	7334
563.841	7969
563.901	6393
563.962	7529
564.023	7024
564.083	7703
564.144	7567
564.204	6598
564.265	6355
564.325	7780
564.386	10750
564.446	9895
564.507	6742
564.567	6938
564.628	6373
564.688	6556
564.749	5882
564.809	7697
564.869	7751
564.930	6329
564.990	7530
565.050	6467
565.111	6298
565.171	6465
565.231	6679
565.292	8277
565.352	5381
565.412	6572
565.472	6772
565.532	7622
565.593	7222
565.653	6407
565.713	6556
565.773	8780
565.833	10180
565.893	10738
565.953	7216
566.013	7748
566.074	8010
566.134	8932
566.194	10591
566.254	11177
566.314	8993
566.374	8352
566.434	8861
566.494	8779
566.554	9432
566.614	8461
566.673	10430
566.733	11747
566.793	11851
566.853	12019
566.913	11970
566.973	13191
567.033	12898
567.092	12150
567.152	12235
567.212	12924
567.272	12490
567.331	14144
567.391	15210
567.451	16424
567.511	17299
567.570	16451
567.630	13817
567.690	14049
567.749	14922
567.809	16568
567.868	17458
567.928	19846
567.988	23889
568.047	28175
568.107	36254
568.166	53887
568.226	89493
568.285	118282
568.345	96841
568.404	75582
568.464	61636
568.523	55110
568.582	56988
568.642	65693
568.701	85732
568.761	136824
568.820	207651
568.879	193997
568.939	135445
568.998	96088
569.057	70875
569.116	53931
569.176	43971
569.235	36670
569.294	29771
569.353	25621
569.413	22994
569.472	20524
569.531	18636
569.590	16588
569.649	15674
569.708	13255
569.767	13886
569.827	14215
569.886	12642
569.945	11555
570.004	11246
570.063	10624
570.122	10474
570.181	10013
570.240	9399
570.299	10567
570.358	9630
570.417	9474
570.475	9297
570.534	9589
570.593	9924
570.652	9242
570.711	8740
570.770	9417
570.829	9995
570.887	9382
570.946	8878
571.005	8223
571.064	8030
571.122	9081
571.181	8473
571.240	7719
571.299	6705
571.357	7298
571.416	7795
571.475	8571
571.533	8137
571.592	8495
571.650	6893
571.709	7101
571.768	8794
571.826	8523
571.885	7172
571.943	7095
572.002	6109
572.060	7491
572.119	6469
572.177	6954
572.236	5875
572.294	6620
572.352	7446
572.411	7313
572.469	6182
572.528	6193
572.586	6776
572.644	7951
572.703	7358
572.761	6304
572.819	5501
572.877	6170
572.936	5568
572.994	6252
573.052	5833
573.110	6382
573.169	6897
573.227	6679
573.285	6196
573.343	6729
573.401	6094
573.459	6739
573.517	5890
573.576	7229
573.634	6664
573.692	7596
573.750	6694
573.808	7277
573.866	6699
573.924	7311
573.982	6769
574.040	6212
574.098	6314
574.155	5862
574.213	6048
574.271	6639
574.329	7285
574.387	6734
574.445	4973
574.503	5812
574.560	4716
574.618	6436
574.676	5461
574.734	6121
574.792	5125
574.849	6393
574.907	4283
574.965	5018
575.022	4265
575.080	5269
575.138	4843
575.195	5777
575.253	5036
575.311	6055
575.368	4997
575.426	4529
575.483	5262
575.541	6657
575.598	5191
575.656	6106
575.713	5220
575.771	5721
575.828	5818
575.886	4255
575.943	6239
576.001	5265
576.058	4539
576.115	6596
576.173	5808
576.230	7277
576.287	6994
576.345	6874
576.402	6215
576.459	6468
576.517	5273
576.574	5710
576.631	5610
576.688	5183
576.746	4381
576.803	4168
576.860	4192
576.917	5366
576.974	4823
577.031	4646
577.089	5224
577.146	6027
577.203	5156
577.260	5727
577.317	5458
577.374	5395
577.431	4221
577.488	5182
577.545	5106
577.602	5072
577.659	4390
577.716	6112
577.773	5323
577.830	4829
577.886	5068
577.943	5412
578.000	4795
578.057	5994
578.114	5721
578.171	6087
578.227	6321
578.284	6252
578.341	6446
578.398	6556
578.454	5468
578.511	6945
578.568	5975
578.625	5443
578.681	4268
578.738	5984
578.794	4719
578.851	4465
578.908	5236
578.964	5838
579.021	5473
579.077	5275
579.134	5220
579.190	6203
579.247	5270
579.303	5852
579.360	5325
579.416	5138
579.473	5073
579.529	5133
579.586	6155
579.642	5469
579.698	4918
579.755	5691
579.811	5711
579.867	5631
579.924	5909
579.980	5945
580.036	6894
580.093	7139
580.149	9660
580.205	10127
580.261	7270
580.317	7659
580.374	7412
580.430	7832
580.486	7455
580.542	6160
580.598	6496
580.619	6454
580.654	6378
580.692	6497
580.710	6549
580.765	6603
580.767	6600
580.823	7068
580.838	7058
580.879	7020
580.911	6936
580.935	6859
580.984	6880
580.991	6884
581.047	6717
581.057	6664
581.103	6376
581.130	7165
581.159	7974
581.203	7793
581.215	7746
581.270	6890
581.276	6988
581.326	7824
581.349	7695
581.382	7487
581.422	7125
581.438	6967
581.494	6057
581.494	6068
581.550	6535
581.567	6853
581.606	7455
581.640	7479
581.661	7534
581.713	8276
581.717	8324
581.773	7668
581.786	7747
581.829	7939
581.859	7720
581.885	7558
581.932	7318
581.940	7273
581.996	8608
582.004	8481
582.052	7579
582.077	7828
582.107	8199
582.150	7561
582.163	7353
582.219	8111
582.223	8171
582.274	8877
582.296	8949
582.330	9035
582.368	9026
582.386	9060
582.441	9289
582.441	9283
582.497	9266
582.514	9383
582.552	9886
582.587	9872
582.608	9805
582.659	9438
582.663	9398
582.719	10239
582.732	10217
582.774	10202
582.805	10017
582.830	9906
582.877	10630
582.885	10725
582.941	10622
582.950	10776
582.996	11719
583.023	12056
583.052	12506
583.095	12719
583.107	12697
583.162	13328
583.168	13376
583.218	13668
583.240	13247
583.273	12627
583.313	12553
583.328	12626
583.384	13088
583.385	13086
583.439	12758
583.458	12448
583.494	11755
583.531	12471
583.549	13023
583.603	12675
583.605	12648
583.660	12593
583.676	12664
583.715	13088
583.748	13708
583.770	14151
583.820	13393
583.825	13313
583.881	14171
583.893	14077
583.936	13953
583.965	13879
583.991	13718
584.038	14098
584.046	14189
584.101	15017
584.110	14936
584.156	14761
584.183	15300
584.211	15760
584.255	15626
584.266	15633
584.321	16344
584.328	16401
584.376	16932
584.400	17263
584.431	17760
584.472	17104
584.486	16910
584.541	18022
584.545	18029
584.596	18184
584.617	18412
584.651	19432
584.689	20323
584.706	20418
584.761	20365
584.762	20352
584.816	21910
584.834	22169
584.871	22897
584.906	23378
584.926	23572
584.978	24770
584.980	24877
585.035	27354
585.051	27982
585.090	29973
585.123	31982
585.145	33679
585.195	36906
585.200	37365
585.254	42701
585.267	44026
585.309	49838
585.340	54692
585.364	58619
585.412	64598
585.419	66049
585.473	81543
585.484	85409
585.528	112512
585.556	137094
585.583	197904
585.628	325306
585.637	380170
585.692	785874
585.700	840517
585.747	997525
585.772	946202
585.801	627052
585.845	252368
585.856	219049
585.910	105296
585.917	92082
585.965	70507
585.989	61009
586.019	57061
586.061	51664
586.074	50830
586.128	46341
586.133	46034
586.183	46484
586.205	46207
586.237	45586
586.277	44277
586.292	44382
586.346	45096
586.349	45071
586.401	46037
586.421	46122
586.455	47268
586.493	48251
586.509	49961
586.564	55227
586.565	55270
586.618	66151
586.637	68808
586.672	66454
586.709	64303
586.727	65699
586.781	69276
586.781	69426
586.835	63170
586.853	61467
586.889	59540
586.925	57471
586.944	57771
586.996	59353
586.998	59572
587.052	61743
587.068	62060
587.106	63223
587.140	64552
587.161	65984
587.212	68310
587.215	68641
587.269	72773
587.284	73496
587.323	76536
587.356	78958
587.377	80790
587.427	84114
587.431	84656
587.485	90085
587.499	90999
587.539	94755
587.571	98030
587.593	101586
587.643	108248
587.648	109289
587.702	118146
587.715	120033
587.755	127310
587.786	132178
587.810	137280
587.858	147263
587.864	149156
587.917	164292
587.930	167225
587.971	181126
588.001	191351
588.025	201404
588.073	219863
588.079	223512
588.133	252005
588.145	257713
588.187	285033
588.217	303217
588.241	324424
588.288	365516
588.295	373495
588.348	432530
588.360	444361
588.402	505521
588.431	546712
588.456	594237
588.503	684315
588.510	703986
588.564	852932
588.575	883087
588.617	1069378
588.646	1198147
588.671	1379946
588.718	1735529
588.725	1825144
588.778	2512884
588.789	2650845
588.832	3297850
588.861	3727952
588.886	3782416
588.932	3726185
588.939	3689548
588.993	3282932
589.004	3220114
589.047	3710683
589.075	3920404
589.100	3555058
589.147	2830408
589.154	2750419
589.207	2099465
589.218	1964444
589.261	1806200
589.290	1700243
589.314	1770895
589.361	1913332
589.368	1988793
589.421	2591061
589.433	2717164
589.475	3332338
589.504	3733694
589.528	3707980
589.576	3507762
589.582	3524058
589.635	3620320
589.647	3603859
589.689	2854209
589.718	2319192
589.742	1973285
589.790	1287227
589.795	1256100
589.849	934832
589.861	858588
589.902	730416
589.932	632326
589.955	586008
590.004	483888
590.009	479323
590.062	411812
590.075	393894
590.115	360534
590.146	332925
590.168	319931
590.218	287095
590.222	286252
590.275	261978
590.289	254669
590.328	241774
590.360	229807
590.381	223874
590.431	206997
590.435	206962
590.488	193208
590.503	188614
590.541	182402
590.574	175871
590.594	173148
590.645	163853
590.647	164160
590.700	155396
590.716	152167
590.753	148865
590.787	144664
590.806	143497
590.859	138365
590.859	138825
590.912	133457
590.930	131200
590.965	129570
591.001	127228
591.018	126709
591.071	123046
591.072	122518
591.124	118358
591.143	116235
591.177	115748
591.214	114335
591.230	114157
591.283	111977
591.285	111438
591.336	111161
591.356	110406
591.389	108344
591.427	104904
591.442	104568
591.495	101723
591.498	101109
591.547	101024
591.569	100383
591.600	99573
591.640	97454
591.653	97685
591.706	97074
591.711	96603
591.759	97983
591.782	98149
591.811	99548
591.853	100495
591.864	99891
591.917	94745
591.924	93612
591.969	93800
591.995	93286
592.022	93285
592.066	92296
592.075	93187
592.127	96336
592.137	96517
592.180	99957
592.208	101517
592.233	98959
592.279	92927
592.285	93313
592.338	93324
592.350	92944
592.390	91562
592.421	89852
592.443	90769
592.491	91614
592.495	91999
592.548	92080
592.562	91720
592.600	91544
592.633	90688
592.653	90691
592.704	89205
592.705	89743
592.775	90751
592.846	92038
592.916	91867
592.987	92144
593.058	91878
593.128	91067
593.199	88253
593.270	88306
593.341	88842
593.411	92038
593.482	91791
593.553	91428
593.623	92570
593.694	94507
593.764	94969
593.835	92473
593.906	94388
593.976	95881
594.047	97022
594.117	104614
594.188	104832
594.258	98135
594.329	98767
594.399	100825
594.470	100913
594.540	103590
594.611	105399
594.681	105211
594.751	105978
594.822	110785
594.892	114148
594.963	116240
595.033	115600
595.103	117415
595.174	119557
595.244	131645
595.314	141250
595.384	124866
595.455	125432
595.525	129629
595.595	132110
595.665	132703
595.736	130334
595.806	130216
595.876	132792
595.946	133614
596.016	137857
596.087	140714
596.157	141145
596.227	142091
596.297	148555
596.367	157545
596.437	168142
596.507	173865
596.577	180962
596.647	171562
596.717	174170
596.787	178018
596.857	179102
596.927	178702
596.997	179688
597.067	183294
597.137	187391
597.207	186968
597.277	187496
597.347	180421
597.417	173636
597.487	173629
597.557	178112
597.626	183473
597.696	185900
597.766	187941
597.836	188238
597.906	167953
597.975	160372
598.045	162973
598.115	169216
598.185	181125
598.254	203108
598.324	219051
598.394	223479
598.464	214389
598.533	212777
598.603	197909
598.672	193326
598.742	197131
598.812	198209
598.881	203831
598.951	201619
599.020	204292
599.090	212192
599.159	215804
599.229	206428
599.299	201202
599.368	208600
599.437	206108
599.507	190314
599.576	185910
599.646	182304
599.715	180848
599.785	180244
599.854	174616
599.924	174217
599.993	172362
600.062	173715
600.132	178143
600.201	190642
600.270	219689
600.340	229789
600.409	224934
600.478	222779
600.547	228588
600.617	208844
600.686	168720
600.755	155717
600.824	150131
600.894	148469
600.963	146515
601.032	147499
601.101	140693
601.170	136593
601.239	133219
601.308	134945
601.378	136469
601.447	133570
601.516	135865
601.585	139780
601.654	147085
601.723	142061
601.792	145189
601.861	151389
601.930	158017
601.999	161385
602.068	157714
602.137	164611
602.206	165504
602.275	164964
602.343	166700
602.412	168954
602.481	166829
602.550	167527
602.619	169807
602.688	174233
602.756	175137
602.825	176047
602.894	179167
602.963	181066
603.032	184611
603.100	185202
603.169	183846
603.238	186451
603.307	185340
603.375	188245
603.444	193133
603.513	194081
603.581	196892
603.650	200259
603.719	191358
603.787	194505
603.856	200918
603.924	205475
603.993	212172
604.061	218936
604.130	229090
604.198	231299
604.267	236953
604.335	241425
604.404	244977
604.472	248640
604.541	250579
604.609	254308
604.678	257045
604.746	257621
604.815	266791
604.883	267844
604.951	266065
605.020	270886
605.088	272136
605.156	275135
605.225	279484
605.293	279890
605.361	282696
605.429	282468
605.498	290024
605.566	295623
605.634	310654
605.702	318772
605.771	331464
605.839	331020
605.907	321087
605.975	310000
606.043	304421
606.111	303106
606.180	307266
606.248	300663
606.316	298196
606.384	298570
606.452	298351
606.520	303042
606.588	306541
606.656	307227
606.724	301097
606.792	282631
606.860	254730
606.928	231641
606.996	222833
607.064	217638
607.132	226241
607.200	240097
607.267	248120
607.335	252721
607.403	257832
607.471	248235
607.539	239934
607.607	243650
607.674	213441
607.742	215347
607.810	214867
607.878	214595
607.946	218587
608.013	229241
608.081	232908
608.149	234113
608.216	244496
608.284	250295
608.352	250510
608.419	247959
608.487	250721
608.555	239833
608.622	246185
608.690	262353
608.757	289065
608.825	294309
608.893	287568
608.960	274930
609.028	264458
609.095	267439
609.163	256851
609.230	230292
609.298	208790
609.365	222233
609.432	237965
609.500	260377
609.567	301122
609.635	346727
609.702	363734
609.769	350312
609.837	274128
609.904	243102
609.971	258297
610.039	312080
610.106	458865
610.173	989211
610.241	2338363
610.308	1464423
610.375	459700
610.442	297636
610.509	258604
610.577	252722
610.644	248858
610.711	254711
610.778	259054
610.845	269735
610.912	286492
610.980	296886
611.047	305704
611.114	296797
611.181	281148
611.248	280143
611.315	296878
611.382	302931
611.449	317128
611.516	320823
611.583	317598
611.650	320465
611.717	329262
611.784	341951
611.851	368186
611.918	412228
611.984	523446
612.051	827291
612.118	1793541
612.185	4057867
612.252	2918975
612.319	797136
612.386	519812
612.452	432475
612.519	392988
612.586	382374
612.653	376481
612.719	385892
612.786	362018
612.853	334678
612.919	325804
612.986	330700
613.053	309462
613.120	288002
613.186	280696
613.253	281868
613.319	280150
613.386	281585
613.453	285668
613.519	288142
613.586	288950
613.652	301905
613.719	290915
613.785	293456
613.852	291163
613.918	288523
613.985	292447
614.051	315759
614.118	340915
614.184	326799
614.250	288215
614.317	293816
614.383	289029
614.449	295461
614.516	291637
614.582	292993
614.648	286945
614.715	285995
614.781	277081
614.847	281948
614.914	278561
614.980	272373
615.046	273148
615.112	282980
615.179	287018
615.245	299213
615.311	314237
615.377	375383
615.443	404808
615.509	348747
615.575	333741
615.642	326705
615.708	335439
615.774	358420
615.840	402045
615.906	473649
615.972	668842
616.038	1170217
616.104	2352545
616.170	4577950
616.236	4198986
616.302	1325922
616.368	824935
616.434	563321
616.500	469687
616.565	516024
616.631	677818
616.697	564904
616.763	564674
616.829	897132
616.895	1662290
616.961	1692621
617.026	764515
617.092	429034
617.158	349475
617.224	320414
617.289	285367
617.355	265653
617.421	257807
617.487	255275
617.552	236571
617.618	233786
617.684	231873
617.749	234862
617.815	221881
617.880	215367
617.946	214624
618.012	219306
618.077	222098
618.143	210144
618.208	212809
618.274	230693
618.339	232281
618.405	190552
618.470	188024
618.536	188267
618.601	187289
618.667	170862
618.732	159444
618.798	157967
618.863	157618
618.928	156545
618.994	159583
619.059	160198
619.124	170819
619.190	161660
619.255	155088
619.320	154149
619.386	154047
619.451	153900
619.516	146212
619.581	147623
619.647	154536
619.712	153036
619.777	145718
619.842	147746
619.907	151320
619.972	154285
620.038	152682
620.103	145883
620.168	146054
620.233	147807
620.298	149003
620.363	150452
620.428	157295
620.493	160651
620.558	161713
620.623	163194
620.688	162311
620.753	161813
620.818	164188
620.883	166051
620.948	165242
621.013	163397
621.078	160063
621.143	163523
621.207	167658
621.272	163501
621.337	157431
621.402	159552
621.467	160873
621.532	161518
621.596	157896
621.661	149542
621.726	148029
621.791	150381
621.855	149679
621.920	149717
621.985	153080
622.049	160626
622.114	158913
622.179	158341
622.243	160851
622.308	167699
622.373	174078
622.437	170340
622.502	158355
622.566	156852
622.631	157350
622.695	160537
622.760	159317
622.824	158819
622.889	160521
622.953	163624
623.018	184415
623.082	184488
623.147	172188
623.211	165536
623.276	166842
623.340	157931
623.404	149938
623.469	150374
623.533	154509
623.597	150954
623.662	149914
623.726	138355
623.790	127240
623.854	124016
623.919	127441
623.983	129807
624.047	131093
624.111	132623
624.176	137908
624.240	139692
624.304	148255
624.368	136462
624.432	137699
624.496	142348
624.560	151389
624.625	156638
624.689	149539
624.753	158532
624.817	148899
624.881	145989
624.945	129477
625.009	125961
625.073	129237
625.137	136273
625.201	147375
625.265	146483
625.329	136535
625.393	138574
625.456	137636
625.520	143815
625.584	148918
625.648	158328
625.712	176989
625.776	229887
625.839	229898
625.903	144212
625.967	119244
626.031	142866
626.095	188752
626.158	142050
626.222	105392
626.286	96669
626.349	92760
626.413	88021
626.477	89271
626.540	90345
626.604	88597
626.668	87343
626.731	85351
626.795	86848
626.858	87030
626.922	86551
626.986	85267
627.049	84123
627.113	88711
627.176	85922
627.240	82721
627.303	84434
627.366	83654
627.430	87643
627.493	85101
627.557	84809
627.620	85403
627.684	89450
627.747	91221
627.810	83358
627.874	76425
627.937	72936
628.000	77975
628.064	74319
628.127	65205
628.190	65898
628.253	64658
628.317	60735
628.380	59236
628.443	57530
628.506	58335
628.569	55482
628.632	52699
628.696	53134
628.759	53143
628.822	49629
628.885	49746
628.948	50002
629.011	48739
629.074	48698
629.137	45523
629.200	45712
629.263	48590
629.326	44816
629.389	44702
629.452	46133
629.515	44950
629.578	45960
629.641	46974
629.704	45557
629.767	45639
629.830	44303
629.892	43835
629.955	43227
630.018	46972
630.081	46756
630.144	50788
630.207	44961
630.269	46597
630.332	46442
630.395	44751
630.458	42431
630.520	41080
630.583	41386
630.646	42115
630.708	43154
630.771	44069
630.834	46010
630.896	44933
630.959	45951
631.021	44136
631.084	44944
631.146	47184
631.209	51316
631.272	47483
631.334	48901
631.397	50068
631.459	52594
631.522	55932
631.584	59490
631.646	63588
631.709	69885
631.771	72537
631.834	66983
631.896	60425
631.958	54180
632.021	51963
632.083	48795
632.145	47456
632.208	46382
632.270	45720
632.332	44577
632.395	44667
632.457	45008
632.519	42406
632.581	43721
632.643	41136
632.706	42904
632.768	40965
632.830	43138
632.892	44724
632.954	43959
633.016	44635
633.078	43928
633.141	44228
633.203	43400
633.265	44889
633.327	43522
633.389	44633
633.451	46535
633.513	49163
633.575	50312
633.637	49358
633.698	50558
633.760	51700
633.822	53093
633.884	56340
633.946	59409
634.008	61969
634.070	67569
634.132	74927
634.193	82793
634.255	90247
634.317	91721
634.379	90142
634.441	80203
634.502	70814
634.564	64644
634.626	57286
634.687	55525
634.749	51474
634.811	49151
634.873	47602
634.934	47858
634.996	47720
635.057	47136
635.119	48789
635.181	50638
635.242	52761
635.304	49110
635.365	53187
635.427	48848
635.488	50843
635.550	50471
635.611	52259
635.673	53249
635.734	61194
635.796	64623
635.857	74812
635.918	79279
635.980	90742
636.041	98900
636.102	104887
636.164	106650
636.225	102078
636.286	85477
636.348	76388
636.409	66061
636.470	58288
636.531	55611
636.593	51752
636.654	48926
636.715	44680
636.776	43456
636.838	40812
636.899	41053
636.960	39784
637.021	38513
637.082	38280
637.143	37187
637.204	35220
637.265	35568
637.326	36932
637.387	37459
637.448	35469
637.509	37453
637.570	35999
637.631	35423
637.692	31079
637.753	31892
637.814	33418
637.875	32418
637.936	33426
637.997	32833
638.058	34200
638.119	34031
638.179	30455
638.240	31386
638.301	30805
638.362	28932
638.423	30066
638.483	30502
638.544	28374
638.605	30599
638.666	30556
638.726	29038
638.787	30598
638.848	29920
638.908	28355
638.969	28197
639.030	26595
639.090	26572
639.151	26860
639.211	28556
639.272	32857
639.332	38816
639.393	34457
639.453	35090
639.514	38099
639.574	30505
639.635	27011
639.695	26888
639.756	25855
639.816	27234
639.877	28673
639.937	35312
639.997	39333
640.058	28555
640.118	25972
640.178	27555
640.239	25496
640.299	26144
640.359	28892
640.420	32636
640.480	36868
640.540	45014
640.600	47070
640.661	43863
640.721	45070
640.781	61362
640.841	64724
640.901	33385
640.961	29474
641.021	32852
641.082	37937
641.142	36070
641.202	29248
641.262	23810
641.322	25640
641.382	22829
641.442	24541
641.502	23831
641.562	25796
641.622	26241
641.682	31436
641.742	38509
641.802	34669
641.861	29009
641.921	26165
641.981	26102
642.041	26009
642.101	27199
642.161	22944
642.221	22628
642.280	21893
642.340	22443
642.400	22651
642.460	25049
642.519	23191
642.579	24794
642.639	25667
642.698	23202
642.758	28108
642.818	26222
642.877	25326
642.937	26519
642.997	27418
643.056	32338
643.116	26125
643.175	28368
643.235	27917
643.294	30572
643.354	34141
643.414	39003
643.473	49717
643.532	65162
643.592	95751
643.651	162544
643.711	301172
643.770	616589
643.830	1495321
643.889	2790716
643.948	765713
644.008	157304
644.067	85829
644.126	61128
644.186	47531
644.245	40172
644.304	34677
644.363	36459
644.423	31595
644.482	31867
644.541	34436
644.600	37082
644.659	50300
644.719	68203
644.778	109998
644.837	204392
644.896	444483
644.955	1011534
645.014	317657
645.073	71083
645.132	47214
645.191	40583
645.250	37137
645.309	39928
645.368	44576
645.427	64120
645.486	120456
645.545	211838
645.604	57994
645.663	33895
645.722	32676
645.781	38817
645.840	45940
645.898	60234
645.957	91884
646.016	152454
646.075	290761
646.134	595391
646.192	1566325
646.251	2116051
646.310	373308
646.369	107141
646.427	78399
646.486	54545
646.545	40969
646.603	35891
646.662	31780
646.721	30522
646.779	29835
646.838	33175
646.896	44547
646.955	68432
647.014	118525
647.072	243868
647.131	672026
647.189	302655
647.248	46484
647.306	30435
647.365	25744
647.423	20786
647.481	23066
647.540	19089
647.598	19312
647.657	18725
647.715	19733
647.773	17368
647.832	19253
647.890	16889
647.948	16628
648.007	15848
648.065	16247
648.123	16606
648.181	17950
648.240	17940
648.298	16583
648.356	16902
648.414	16763
648.472	15091
648.531	15415
648.589	15466
648.647	15050
648.705	16003
648.763	17384
648.821	18320
648.879	19459
648.937	24226
648.995	31189
649.053	45845
649.111	71461
649.169	129217
649.227	246225
649.285	542694
649.343	1487527
649.401	678787
649.459	106153
649.516	57514
649.574	43068
649.632	55069
649.690	61392
649.748	57853
649.806	88594
649.863	172370
649.921	476430
649.979	298429
650.037	40607
650.094	21841
650.152	20271
650.210	19007
650.268	21570
650.325	25965
650.383	35836
650.440	17139
650.498	14611
650.556	13064
650.613	12555
650.671	14423
650.728	13904
650.786	16430
650.843	23908
650.901	16151
650.958	12325
651.016	12100
651.073	10898
651.131	10987
651.188	11024
651.246	10456
651.303	10086
651.360	10992
651.418	10761
651.475	11229
651.532	9472
651.590	10595
651.647	9758
651.704	10208
651.762	10055
651.819	10657
651.876	9301
651.933	9981
651.990	11475
652.048	7836
652.105	9480
652.162	10340
652.219	8594
652.276	10635
652.333	9972
652.390	9077
652.448	9363
652.505	9625
652.562	9166
652.619	10767
652.676	12250
652.733	12036
652.790	9141
652.847	8277
652.904	8630
652.961	7593
653.017	8063
653.074	9708
653.131	9412
653.188	8827
653.245	8691
653.302	8778
653.359	8284
653.415	8986
653.472	8011
653.529	9354
653.586	8631
653.642	8550
653.699	9921
653.756	8396
653.813	8808
653.869	9307
653.926	8210
653.983	9673
654.039	8567
654.096	8558
654.152	9545
654.209	8031
654.266	9003
654.322	8201
654.379	10110
654.435	9731
654.492	9798
654.548	12815
654.605	15850
654.661	13558
654.717	9254
654.774	10009
654.830	10027
654.887	10092
654.943	12698
655.000	18414
655.056	13241
655.112	10157
655.168	8917
655.225	9274
655.281	10559
655.337	11351
655.394	14939
655.450	11089
655.506	11182
655.562	14645
655.618	12360
655.675	8231
655.731	8112
655.787	8338
655.843	9188
655.899	8033
655.955	8686
656.011	8290
656.067	7689
656.123	9073
656.179	8526
656.235	9999
656.291	8114
656.347	10380
656.403	9074
656.459	8110
656.515	9181
656.571	9105
656.627	8598
656.683	7877
656.739	8726
656.795	8797
656.850	8618
656.906	9658
656.962	9174
657.018	8525
657.074	10546
657.129	14984
657.185	22057
657.241	51185
657.297	27471
657.352	9552
657.408	7683
657.464	9829
657.519	8040
657.575	6935
657.630	7230
657.686	7665
657.742	7020
657.797	7648
657.853	7881
657.908	8153
657.964	6684
658.019	7922
658.075	8592
658.130	7909
658.186	6548
658.241	6970
658.297	6097
658.352	6691
658.407	7683
658.463	6664
658.518	7342
658.573	7482
658.629	6663
658.684	6349
658.739	7619
658.795	6841
658.850	7520
658.905	6716
658.960	7198
659.016	6905
659.071	6865
659.126	7624
659.181	8459
659.236	10396
659.291	10792
659.346	8170
659.401	8275
659.457	9085
659.512	8907
659.567	8088
659.622	6910
659.677	6752
659.732	6636
659.787	6922
659.842	7394
659.897	8438
659.952	7900
660.007	6533
660.061	7058
660.116	6724
660.171	6966
660.226	7044
660.281	7504
660.336	5609
660.391	7589
660.445	5738
660.500	7021
660.555	6794
660.610	5920
660.664	6652
660.719	6702
660.774	7024
660.828	6622
660.883	6618
660.938	7149
660.992	6011
661.047	6655
661.101	6177
661.156	6055
661.211	5864
661.265	6355
661.320	6205
661.374	7560
661.429	6063
661.483	7375
661.538	6754
661.592	8640
661.647	9291
661.701	17547
661.755	9548
661.810	6521
661.864	5932
661.919	6235
661.973	7539
662.027	6337
662.081	5425
662.136	5348
662.190	6396
662.244	6678
662.299	6329
662.353	5921
662.407	5660
662.461	6079
662.515	6503
662.569	5607
662.624	7245
662.678	6437
662.732	5553
662.786	5896
662.840	6581
662.894	6196
662.948	6263
663.002	6703
663.056	6592
663.110	5192
663.164	5311
663.218	5998
663.272	7005
663.326	7136
663.380	6924
663.434	6928
663.488	6060
663.542	6652
663.595	6699
663.649	6459
663.703	6495
663.757	6304
663.811	5747
663.864	5795
663.918	6455
663.972	6800
664.026	6343
664.079	5898
664.133	6918
664.187	6781
664.240	7123
664.294	7350
664.348	8959
664.401	6985
664.455	6084
664.508	6026
664.562	6381
664.615	5554
664.669	5225
664.722	6635
664.776	6102
664.829	6034
664.883	5528
664.936	6378
664.990	6333
665.043	6849
665.097	5938
665.150	8048
665.203	6091
665.257	6526
665.310	6593
665.363	6415
665.417	7038
665.470	6601
665.523	7559
665.576	6421
665.630	6843
665.683	6908
665.736	6771
665.789	7669
665.842	5664
665.895	6555
665.949	7193
666.002	7000
666.055	6938
666.108	7143
666.161	7634
666.214	7930
666.267	7845
666.320	8124
666.373	7169
666.426	7335
666.479	6978
666.532	8129
666.585	9541
666.638	9177
666.691	9133
666.744	8284
666.796	8457
666.849	7156
666.902	7217
666.955	8279
667.008	6671
667.060	5755
667.113	6343
667.166	7129
667.219	7034
667.271	6497
667.324	6767
667.377	6893
667.430	5949
667.482	7583
667.535	6162
667.587	6869
667.640	7739
667.693	8225
667.745	9945
667.798	12004
667.850	6239
667.903	6376
667.955	6113
668.008	6978
668.060	7794
668.113	7329
668.165	6398
668.218	6845
668.270	6587
668.322	5917
668.375	6508
668.427	7547
668.479	6211
668.532	7296
668.584	6273
668.636	6689
668.689	6496
668.741	6053
668.793	6281
668.845	6828
668.898	6237
668.950	6348
669.002	7513
669.054	6706
669.106	6352
669.158	6790
669.211	6305
669.263	6391
669.315	7849
669.367	8522
669.419	7645
669.471	8860
669.523	10372
669.575	11837
669.627	10479
669.679	8265
669.731	8297
669.783	7999
669.835	9677
669.886	8271
669.938	8179
669.990	7109
670.042	6949
670.094	7190
670.146	8502
670.197	9034
670.249	10401
670.301	12652
670.353	17430
670.404	23224
670.456	33832
670.508	52858
670.560	90171
670.611	159156
670.663	282463
670.715	691197
670.766	1006572
670.818	257122
670.869	47879
670.921	28631
670.972	20391
671.024	15913
671.075	13469
671.127	12385
671.178	11321
671.230	12634
671.281	11954
671.333	13184
671.384	14352
671.436	18157
671.487	25313
671.538	35410
671.590	54609
671.641	88825
671.692	152280
671.744	267391
671.795	204988
671.846	88221
671.897	44951
671.949	28662
672.000	20439
672.051	15796
672.102	14528
672.153	11311
672.204	10291
672.256	9673
672.307	8911
672.358	7314
672.409	6642
672.460	7340
672.511	6479
672.562	5750
672.613	6420
672.664	6561
672.715	6557
672.766	4921
672.817	5593
672.868	5593
672.919	4924
672.970	4462
673.021	5415
673.071	4899
673.122	4391
673.173	5970
673.224	5765
673.275	5555
673.326	5294
673.376	5628
673.427	4605
673.478	5554
673.528	5624
673.579	5176
673.630	4772
673.680	5515
673.731	4247
673.782	3819
673.832	4782
673.883	5360
673.934	4895
673.984	5183
674.035	4660
674.085	5688
674.136	5863
674.186	5806
674.237	6934
674.287	8958
674.338	6029
674.388	5721
674.438	6101
674.489	6326
674.539	6249
674.589	6469
674.640	6539
674.690	6172
674.740	4963
674.791	6290
674.841	5932
674.891	5768
674.942	5430
674.992	4384
675.042	4067
675.092	4156
675.142	4257
675.193	3930
675.243	2951
675.293	4553
675.343	4001
675.393	5016
675.443	4930
675.493	4198
675.543	4660
675.593	5126
675.643	3945
675.693	4643
675.743	5010
675.793	4340
675.843	3875
675.893	4638
675.943	4669
675.993	3984
676.043	4195
676.093	4133
676.142	4840
676.192	4303
676.242	4294
676.292	3800
676.341	3554
676.391	3561
676.441	3986
676.491	2544
676.540	3968
676.590	3956
676.640	4145
676.689	3519
676.739	2498
676.789	3092
676.838	3069
676.888	3616
676.937	3045
676.987	2843
677.037	2830
677.086	3054
677.136	2948
677.185	2925
677.235	2929
677.284	3451
677.333	3670
677.383	3257
677.432	2416
677.482	3834
677.531	3477
677.580	3021
677.630	2852
677.679	2579
677.728	2620
677.778	3672
677.827	3137
677.876	2376
677.925	2873
677.975	3705
678.024	3646
678.073	2789
678.122	4095
678.171	4534
678.220	4268
678.269	5936
678.319	6618
678.368	5514
678.417	4178
678.466	4331
678.515	4254
678.564	3795
678.613	2865
678.662	2646
678.711	2711
678.760	3235
678.809	3274
678.857	3685
678.906	4035
678.955	4031
679.004	4692
679.053	5629
679.102	5783
679.151	4071
679.199	3439
679.248	3757
679.297	2510
679.346	2810
679.394	2407
679.443	3331
679.492	3223
679.540	4382
679.589	3465
679.638	3328
679.686	3761
679.735	3333
679.784	3877
679.832	5045
679.881	3875
679.929	3211
679.978	1999
680.026	2930
680.075	2854
680.123	2331
680.172	2139
680.220	2296
680.268	2721
680.317	2027
680.365	2364
680.414	2126
680.462	2615
680.510	2556
680.559	2378
680.607	2716
680.655	2349
680.703	2580
680.752	2336
680.800	2323
680.848	2420
680.896	2399
680.945	2321
680.993	909
681.041	2347
681.089	1628
681.137	1880
681.185	2113
681.233	2352
681.258	2502
681.281	2620
681.329	2477
681.377	2653
681.380	2670
681.425	2523
681.473	3211
681.502	2760
681.521	2395
681.569	3470
681.617	2162
681.624	2329
681.665	3225
681.713	2304
681.745	2735
681.761	2898
681.809	3039
681.857	3545
681.867	3361
681.904	2628
681.952	3237
681.989	3230
682.000	3195
682.048	3153
682.096	2547
682.111	2674
682.143	2868
682.191	3279
682.233	4305
682.239	4435
682.286	4021
682.334	3147
682.354	3194
682.382	3206
682.430	3654
682.476	2785
682.477	2743
682.525	3835
682.572	2724
682.598	2849
682.620	2937
682.667	3692
682.715	3677
682.720	3750
682.763	4213
682.810	3742
682.841	3833
682.857	3823
682.905	3548
682.952	3341
682.963	3582
683.000	4325
683.047	4338
683.085	4533
683.095	4576
683.142	4067
683.190	4688
683.206	4474
683.237	3997
683.284	4154
683.328	4014
683.332	3984
683.379	3734
683.426	3462
683.449	3990
683.473	4487
683.521	4032
683.568	4800
683.571	4803
683.615	4573
683.662	4800
683.693	4450
683.709	4214
683.757	4709
683.804	4514
683.814	4541
683.851	4611
683.898	5067
683.936	4688
683.945	4570
683.992	4825
684.039	5362
684.057	5372
684.086	5396
684.133	5095
684.179	4785
684.180	4756
684.227	5602
684.274	5218
684.300	5490
684.321	5637
684.368	4608
684.415	5407
684.422	5363
684.462	5134
684.509	4742
684.543	4653
684.556	4593
684.603	5881
684.649	5778
684.665	5724
684.696	5569
684.743	5283
684.786	5641
684.790	5660
684.837	5763
684.883	6096
684.908	6354
684.930	6585
684.977	6081
685.023	6162
685.029	6131
685.070	5599
685.117	5812
685.150	5547
685.164	5522
685.210	6477
685.257	6698
685.272	6775
685.303	6756
685.350	6317
685.393	6642
685.396	6659
685.443	7057
685.490	7001
685.514	7153
685.536	7238
685.583	6684
685.629	6997
685.636	6939
685.675	6614
685.722	6738
685.757	6210
685.768	6021
685.815	6440
685.861	6850
685.878	6857
685.908	6937
685.954	6720
686.000	7427
686.000	7433
686.047	7748
686.093	8487
686.121	8501
686.139	8388
686.185	8262
686.232	7514
686.242	7397
686.278	6960
686.324	7047
686.363	7232
686.370	7284
686.416	7151
686.463	8144
686.484	7836
686.509	7484
686.555	7158
686.601	7157
686.606	7193
686.647	7393
686.693	7786
686.727	7055
686.739	6796
686.785	7775
686.831	7870
686.848	7838
686.877	7816
686.923	7492
686.969	7779
686.969	7779
687.015	7427
687.061	8032
687.090	8188
687.107	8190
687.153	8536
687.199	7786
687.211	7709
687.245	7752
687.291	8067
687.332	8903
687.336	8972
687.382	8566
687.428	9009
687.453	8953
687.474	8913
687.520	9185
687.565	9355
687.574	9338
687.611	10092
687.657	12260
687.695	13456
687.702	13960
687.748	18222
687.794	23814
687.816	23716
687.839	20584
687.885	16383
687.931	12727
687.937	12287
687.976	11394
688.022	9715
688.058	9022
688.067	9076
688.113	9136
688.158	8903
688.179	8897
688.204	8963
688.249	9097
688.295	9092
688.300	9058
688.340	9102
688.386	9866
688.421	9773
688.431	9678
688.477	9385
688.522	9809
688.542	9736
688.567	9715
688.613	9960
688.658	9780
688.663	9765
688.703	9616
688.749	9286
688.784	9443
688.794	9541
688.839	10070
688.884	9711
688.905	9815
688.930	9834
688.975	9915
689.020	9789
689.026	9780
689.065	10025
689.110	9675
689.146	10082
689.155	10257
689.201	11669
689.246	11560
689.267	11571
689.291	10960
689.336	10639
689.381	9569
689.388	9517
689.426	9986
689.471	9599
689.509	9532
689.516	9530
689.561	9752
689.606	9813
689.630	9729
689.651	9641
689.696	10025
689.741	9968
689.750	10053
689.785	10449
689.830	10223
689.871	9861
689.875	9834
689.920	9941
689.965	10093
689.992	9900
690.010	9834
690.054	10254
690.099	10412
690.112	10384
690.144	10328
690.189	10226
690.233	10266
690.233	10279
690.278	9992
690.323	10015
690.354	9856
690.367	9939
690.412	9845
690.457	10220
690.474	10331
690.501	10365
690.546	10361
690.590	10337
690.595	10306
690.635	10435
690.680	10649
690.716	10782
690.724	10885
690.769	11419
690.813	12637
690.836	12710
690.857	13359
690.902	15393
690.946	17010
690.957	17507
690.991	20817
691.035	25592
691.077	29684
691.080	29706
691.124	27804
691.168	26449
691.198	25497
691.213	24330
691.257	20923
691.301	17605
691.318	16255
691.346	15434
691.390	13871
691.434	13277
691.439	13107
691.478	12850
691.522	12730
691.559	12182
691.567	12124
691.611	12549
691.655	12358
691.680	12281
691.699	12136
691.743	12178
691.787	11622
691.800	11494
691.831	11678
691.875	12023
691.919	12460
691.921	12443
691.964	12250
692.008	12169
692.041	12046
692.052	12103
692.096	12437
692.139	12732
692.162	12613
692.183	12275
692.227	12398
692.271	11934
692.282	11808
692.315	11816
692.359	12062
692.402	12152
692.403	12176
692.447	12194
692.490	12313
692.523	12530
692.534	12594
692.578	12539
692.622	12235
692.643	12259
692.666	12242
692.709	12090
692.753	12089
692.763	11948
692.797	11937
692.840	12123
692.884	12382
692.884	12407
692.928	12508
692.971	12140
693.004	12000
693.015	12088
693.059	12199
693.102	12626
693.124	12644
693.146	12671
693.189	12782
693.233	12916
693.245	12920
693.276	13252
693.320	13737
693.363	14016
693.365	14011
693.407	14787
693.450	15352
693.485	15789
693.493	16065
693.537	17327
693.580	18615
693.605	19112
693.624	20319
693.667	23737
693.710	27133
693.725	28208
693.753	34954
693.797	46159
693.840	57455
693.845	58536
693.883	55265
693.926	51196
693.966	47879
693.970	47156
694.013	38664
694.056	30614
694.086	24653
694.099	23819
694.142	21362
694.185	18848
694.206	17729
694.229	17495
694.272	16590
694.315	15994
694.326	15776
694.358	15866
694.401	15979
694.444	16105
694.446	16078
694.487	15960
694.530	15431
694.566	15307
694.573	15261
694.616	14475
694.659	13822
694.686	13396
694.702	13418
694.745	13432
694.787	13384
694.806	13361
694.830	13586
694.873	13782
694.916	13941
694.926	14039
694.959	13944
695.002	13400
695.044	12980
695.046	12925
695.087	13299
695.130	13838
695.166	14293
695.172	14300
695.215	13939
695.258	13888
695.286	13587
695.301	13702
695.343	14156
695.386	14424
695.406	14607
695.428	14726
695.471	14944
695.514	15023
695.526	15057
695.556	15638
695.599	16294
695.641	16806
695.646	16835
695.684	16462
695.726	15987
695.766	15512
695.769	15531
695.811	15106
695.854	14991
695.886	14713
695.896	14810
695.938	15009
695.981	15447
696.005	15603
696.023	15834
696.065	16292
696.108	16766
696.125	16869
696.150	16886
696.192	17020
696.235	16976
696.245	16973
696.277	17194
696.319	17214
696.361	17282
696.365	17256
696.404	17603
696.446	17846
696.485	17976
696.488	18006
696.530	17784
696.572	17671
696.604	17564
696.614	17541
696.656	17130
696.698	16794
696.724	16549
696.740	16740
696.783	17079
696.825	17513
696.844	17635
696.867	17700
696.909	17736
696.951	17688
696.964	17728
696.992	17674
697.034	17070
697.076	16687
697.083	16602
697.118	17586
697.160	18561
697.202	19494
697.203	19471
697.244	19004
697.286	18550
697.323	17942
697.327	18016
697.369	18318
697.411	18663
697.442	18868
697.453	18967
697.494	19119
697.536	19314
697.562	19400
697.578	19398
697.620	19235
697.661	19078
697.682	18946
697.703	19135
697.744	19420
697.786	19750
697.801	19797
697.828	20107
697.869	20505
697.911	20907
697.921	20963
697.952	20766
697.994	20369
698.035	20010
698.040	19920
698.077	19663
698.118	19210
698.160	18800
698.160	18747
698.201	19382
698.243	19939
698.279	20417
698.284	20508
698.325	20816
698.367	21200
698.399	21384
698.408	21428
698.449	21400
698.491	21381
698.518	21293
698.532	21242
698.573	20960
698.614	20644
698.638	20417
698.656	20585
698.697	20841
698.738	21124
698.757	21194
698.779	21357
698.820	21561
698.862	21774
698.877	21795
698.903	22041
698.944	22344
698.985	22651
698.996	22679
699.026	22283
699.067	21651
699.116	20844
699.235	21736
699.354	21302
699.474	21353
699.593	20426
699.713	21458
699.832	20849
699.951	21874
700.070	21521
700.190	19222
700.309	19762
700.428	19249
700.547	18930
700.667	19385
700.786	20280
700.905	19155
701.024	19195
701.143	18626
701.262	19479
701.381	19614
701.500	19294
701.619	19897
701.738	19983
701.857	18622
701.976	18832
702.095	19096
702.214	19813
702.333	18981
702.452	19553
702.571	19379
702.690	18846
702.809	18856
702.928	17899
703.047	16909
703.165	18499
703.284	17434
703.403	17984
703.522	18916
703.640	18285
703.759	19805
703.878	21551
703.997	17778
704.115	17479
704.234	17517
704.353	17892
704.471	15973
704.590	15458
704.708	16288
704.827	16046
704.946	17106
705.064	16484
705.183	16319
705.301	17172
705.420	20112
705.538	18169
705.656	16286
705.775	17730
705.893	22536
706.012	24444
706.130	16972
706.249	17912
706.367	16830
706.485	18388
706.604	17332
706.722	18327
706.840	28251
706.958	52651
707.077	32933
707.195	17786
707.313	16169
707.431	15494
707.549	15497
707.668	15269
707.786	16652
707.904	16097
708.022	15541
708.140	15417
708.258	14957
708.376	16815
708.494	15570
708.612	16789
708.730	19157
708.848	18659
708.966	18133
709.084	17537
709.202	17343
709.320	16006
709.438	15868
709.556	16240
709.674	15985
709.791	16690
709.909	16149
710.027	14438
710.145	14906
710.263	16549
710.380	15155
710.498	15333
710.616	15341
710.733	14222
710.851	16209
710.969	15951
711.086	14868
711.204	15145
711.322	14987
711.439	15302
711.557	14415
711.674	14285
711.792	14881
711.909	15314
712.027	15100
712.144	13790
712.262	15106
712.379	15571
712.497	17724
712.614	17126
712.732	17207
712.849	16391
712.966	17618
713.084	19762
713.201	17049
713.318	17372
713.436	17657
713.553	17377
713.670	18659
713.787	19775
713.905	19429
714.022	19711
714.139	19481
714.256	27911
714.373	43968
714.490	87404
714.608	259126
714.725	1136760
714.842	1049383
714.959	81944
715.076	33701
715.193	24671
715.310	23249
715.427	17620
715.544	17671
715.661	16148
715.778	16433
715.895	16691
716.011	17646
716.128	16643
716.245	15252
716.362	16759
716.479	16599
716.596	15337
716.713	16327
716.829	14343
716.946	14914
717.063	12724
717.180	13210
717.296	13463
717.413	12914
717.530	13151
717.646	13258
717.763	12853
717.880	12340
717.996	12594
718.113	12747
718.229	12922
718.346	12032
718.462	12691
718.579	14771
718.695	21817
718.812	17756
718.928	15316
719.045	13429
719.161	12592
719.277	13319
719.394	12763
719.510	13626
719.626	15514
719.743	21414
719.859	35676
719.975	81555
720.092	355724
720.208	766608
720.324	80474
720.440	21918
720.557	17873
720.673	22711
720.789	22181
720.905	34307
721.021	16365
721.137	12688
721.253	11908
721.369	11740
721.486	12812
721.602	14831
721.718	10959
721.834	11456
721.950	11123
722.066	11393
722.181	10208
722.297	11482
722.413	9933
722.529	10470
722.645	10065
722.761	10559
722.877	11140
722.993	11767
723.108	15530
723.224	13370
723.340	11038
723.456	10275
723.571	9659
723.687	9968
723.803	10174
723.918	9908
724.034	9129
724.150	10022
724.265	10118
724.381	15527
724.497	17469
724.612	9353
724.728	8589
724.843	9682
724.959	10807
725.074	15777
725.190	15520
725.305	9441
725.421	9691
725.536	9737
725.651	9436
725.767	8059
725.882	9258
725.997	8540
726.113	8990
726.228	9131
726.343	8324
726.459	8116
726.574	8942
726.689	8455
726.804	8865
726.920	7873
727.035	8684
727.150	8330
727.265	8579
727.380	9110
727.495	8797
727.610	8465
727.725	8625
727.841	9435
727.956	12213
728.071	11080
728.186	8954
728.301	8985
728.416	9608
728.531	8387
728.645	7856
728.760	9208
728.875	11225
728.990	9039
729.105	9548
729.220	8650
729.335	10400
729.449	8354
729.564	7954
729.679	7742
729.794	8129
729.908	9225
730.023	8528
730.138	8143
730.253	8400
730.367	7489
730.482	7967
730.596	9266
730.711	10806
730.826	15407
730.940	20457
731.055	9732
731.169	9610
731.284	8767
731.398	9797
731.513	10484
731.627	11241
731.742	13904
731.856	14718
731.970	16119
732.085	21559
732.199	33101
732.313	61768
732.428	169924
732.542	493779
732.656	258353
732.771	47202
732.885	23748
732.999	18505
733.113	18513
733.227	16354
733.342	14677
733.456	14200
733.570	13707
733.684	13416
733.798	13149
733.912	12854
734.026	11903
734.140	12197
734.254	12028
734.368	15371
734.482	16013
734.596	11628
734.710	11266
734.824	11788
734.938	10910
735.052	12269
735.166	11550
735.280	11549
735.393	10662
735.507	11313
735.621	11358
735.735	15909
735.849	11373
735.962	11116
736.076	11064
736.190	10488
736.303	12882
736.417	13866
736.531	10324
736.644	10771
736.758	9475
736.872	9875
736.985	10161
737.099	9181
737.212	9634
737.326	10474
737.439	10233
737.553	9140
737.666	10761
737.780	9166
737.893	9148
738.007	9600
738.120	9516
738.233	9872
738.347	10167
738.460	9755
738.573	10124
738.687	9050
738.800	10135
738.913	11197
739.026	10637
739.140	9450
739.253	9508
739.366	8982
739.479	8783
739.592	8371
739.705	9730
739.818	9510
739.932	9273
740.045	9235
740.158	9166
740.271	10258
740.384	9365
740.497	9168
740.610	10277
740.723	9779
740.836	10060
740.949	10398
741.062	11141
741.174	10378
741.287	9157
741.400	8726
741.513	8784
741.626	10658
741.739	8824
741.851	9100
741.964	8802
742.077	7996
742.189	8771
742.302	10364
742.415	10159
742.527	9196
742.640	9081
742.753	8290
742.865	8461
742.978	7687
743.090	7820
743.203	7715
743.316	7543
743.428	7946
743.541	8047
743.653	7213
743.766	7758
743.878	7178
743.990	8057
744.103	9270
744.215	7687
744.327	7541
744.440	9581
744.552	10489
744.664	8378
744.777	7993
744.889	7426
745.001	7442
745.113	7516
745.226	7176
745.338	7204
745.450	7315
745.562	6423
745.674	7095
745.786	8219
745.898	7743
746.010	7537
746.122	7399
746.234	6617
746.347	7548
746.459	6895
746.570	7271
746.682	8332
746.794	7977
746.906	7018
747.018	6775
747.130	6662
747.242	7419
747.354	6050
747.466	7345
747.577	6714
747.689	7177
747.801	6787
747.913	6050
748.024	6650
748.136	6404
748.248	6691
748.359	6117
748.471	6953
748.583	5959
748.694	6199
748.806	7504
748.918	6877
749.029	7241
749.141	7443
749.252	7253
749.364	6516
749.475	10778
749.587	8302
749.698	6706
749.809	6480
749.921	5894
750.032	6146
750.144	6146
750.255	5975
750.366	5719
750.478	6242
750.589	6034
750.700	6162
750.811	6468
750.923	7068
751.034	11127
751.145	11863
751.256	6442
751.367	6165
751.479	6075
751.590	5724
751.701	5903
751.812	5598
751.923	5788
752.034	6396
752.145	6157
752.256	5137
752.367	5317
752.478	5601
752.589	5439
752.700	5794
752.811	5210
752.922	5261
753.032	6498
753.143	7190
753.254	4721
753.365	6551
753.476	5722
753.586	5694
753.697	5383
753.808	4785
753.919	5793
754.029	4557
754.140	4817
754.251	5562
754.361	5277
754.472	5764
754.582	4934
754.693	5608
754.804	6284
754.914	5023
755.025	5187
755.135	4848
755.246	5162
755.356	5347
755.466	5021
755.577	5363
755.687	6337
755.798	4506
755.908	4931
756.018	5292
756.129	5141
756.239	5932
756.349	5650
756.460	6157
756.570	7243
756.680	5422
756.790	6103
756.900	5814
757.011	4953
757.121	5166
757.231	4961
757.341	6180
757.451	5164
757.561	5303
757.671	4714
757.781	5027
757.891	5956
758.001	4984
758.111	5957
758.221	6302
758.331	7133
758.441	5938
758.551	7910
758.661	7350
758.771	7321
758.880	6249
758.990	5378
759.100	5735
759.210	6433
759.320	7060
759.429	6074
759.539	7506
759.649	8310
759.758	9600
759.868	9747
759.978	9077
760.087	10537
760.197	10376
760.307	10252
760.416	9063
760.526	8839
760.635	8979
760.745	9856
760.854	10484
760.964	12689
761.073	11790
761.182	10868
761.292	9796
761.401	8997
761.511	7773
761.620	7873
761.729	7553
761.839	6892
761.948	8254
762.057	7583
762.166	7861
762.276	5532
762.385	8146
762.494	7264
762.603	7238
762.712	7664
762.822	6273
762.931	7156
763.040	6134
763.149	6792
763.258	8554
763.367	7319
763.476	7509
763.585	8285
763.694	7962
763.803	8866
763.912	9542
764.021	7858
764.130	8665
764.238	9812
764.347	10960
764.456	10031
764.565	12620
764.674	10729
764.783	12262
764.891	12998
765.000	14675
765.109	16349
765.217	17124
765.326	22519
765.435	25679
765.543	30686
765.652	36713
765.761	49224
765.869	71258
765.978	112480
766.086	194462
766.195	378734
766.303	856052
766.412	1400895
766.520	1204820
766.629	554033
766.737	236365
766.846	133051
766.954	88989
767.062	64528
767.171	47750
767.279	37785
767.387	29609
767.496	25748
767.604	23231
767.712	20259
767.820	18013
767.928	17041
768.037	15685
768.145	16036
768.253	14895
768.361	14224
768.469	14103
768.577	14871
768.685	15479
768.793	16014
768.901	17073
769.009	20548
769.117	23557
769.225	32052
769.333	45877
769.441	75028
769.549	142814
769.657	324203
769.765	846016
769.873	1155355
769.981	568841
770.088	179777
770.196	87622
770.304	56507
770.412	41227
770.519	30578
770.627	24497
770.735	19360
770.842	18412
770.950	16095
771.058	13748
771.165	13778
771.273	13325
771.380	13006
771.488	12902
771.595	12508
771.703	11568
771.810	11882
771.918	11533
772.025	11747
772.133	11871
772.240	10596
772.348	12111
772.455	11464
772.562	10590
772.670	10473
772.777	10685
772.884	9999
772.991	9623
773.099	10146
773.206	8133
773.313	9863
773.420	9639
773.528	8307
773.635	8759
773.742	10099
773.849	8413
773.956	8760
774.063	9077
774.170	8889
774.277	9444
774.384	9194
774.491	7644
774.598	8330
774.705	8875
774.812	8696
774.919	8867
775.026	7653
775.133	7844
775.239	8370
775.346	7459
775.453	7980
775.560	7255
775.667	7491
775.773	6858
775.880	8287
775.987	7181
776.093	8123
776.200	7573
776.307	6714
776.413	6947
776.520	8149
776.627	6987
776.733	6748
776.840	5500
776.946	8317
777.053	7766
777.159	7917
777.266	6144
777.372	9043
777.478	8579
777.585	6956
777.691	6615
777.798	6981
777.904	7496
778.010	8039
778.117	7551
778.223	5687
778.329	6287
778.435	5290
778.542	6797
778.648	5722
778.754	5637
778.860	6073
778.966	6826
779.072	6454
779.178	6558
779.284	5295
779.391	5191
779.497	5592
779.603	8386
779.708	8712
779.815	18923
779.920	66887
780.026	88581
780.132	12553
780.238	5497
780.344	6605
780.450	7419
780.556	4870
780.661	4743
780.767	5660
780.873	5193
780.979	5284
781.085	5536
781.190	5445
781.296	4119
781.402	4752
781.507	4958
781.613	4440
781.719	4030
781.824	4997
781.930	4344
782.035	5520
782.141	4650
782.246	4324
782.352	4718
782.457	4909
782.563	5511
782.668	4807
782.773	4057
782.879	4192
782.984	4527
783.090	5754
783.195	6692
783.300	6224
783.405	5499
783.511	3977
783.616	5124
783.721	4785
783.826	4910
783.932	3920
784.037	4781
784.142	5018
784.247	4169
784.352	5085
784.457	3224
784.562	5047
784.667	4907
784.772	3982
784.877	3116
784.982	5300
785.087	4399
785.192	4814
785.297	3131
785.402	4314
785.507	3629
785.611	3898
785.716	3880
785.821	3844
785.926	3779
786.031	3863
786.135	3864
786.240	4163
786.345	2241
786.450	4037
786.554	4232
786.659	3499
786.763	3063
786.868	4135
786.973	4095
787.077	3669
787.182	3514
787.286	3610
787.391	3112
787.495	2063
787.600	3048
787.704	3020
787.809	3752
787.913	3296
788.017	3339
788.122	3952
788.226	3530
788.330	2492
788.435	3297
788.539	3667
788.643	2945
788.747	2954
788.852	3392
788.956	2719
789.060	3811
789.164	3396
789.268	3221
789.372	3773
789.476	2908
789.580	3334
789.684	2534
789.788	3618
789.892	2879
789.996	2945
790.100	2638
790.204	3269
790.308	3876
790.412	2131
790.516	3211
790.620	2828
790.724	3046
790.828	3130
790.931	2148
791.035	4288
791.139	2710
791.242	2739
791.346	3734
791.450	3333
791.554	3023
791.657	1955
791.761	3509
791.864	3534
791.968	3008
792.072	3047
792.175	2704
792.279	2602
792.382	3043
792.486	3053
792.589	1836
792.693	3710
792.796	2465
792.899	2763
793.003	3534
793.106	2230
793.209	2833
793.313	3883
793.416	1517
793.519	3686
793.623	5021
793.726	4512
793.829	2443
793.932	3274
794.035	1415
794.138	4170
794.242	4674
794.345	3521
794.448	4133
794.551	10723
794.654	31983
794.757	42810
794.860	6711
794.963	3268
795.066	2473
795.169	3764
795.272	2945
795.375	2922
795.477	1807
795.580	2676
795.683	1304
795.786	2650
795.889	847
795.991	3504
796.094	3500
796.197	1002
796.300	3202
796.402	2368
796.505	1669
796.608	1599
796.710	2756
796.813	3042
796.915	3251
797.018	2936
797.120	2943
797.223	1724
797.326	3004
797.428	2692
797.530	2064
797.633	2262
797.735	3584
797.838	3652
797.940	3455
798.042	822
798.145	2894
798.247	2377
798.349	1861
798.452	2672
798.554	2293
798.656	2645
798.758	4544
798.860	2862
798.962	2003
799.065	1218
799.167	1677
799.269	3613
799.371	3304
799.473	4868
799.575	2959
799.677	2194
799.779	4577
799.881	3401
799.983	3711
800.085	1605
800.187	1692
800.289	1315
800.390	1837
800.492	2465
800.594	2780
800.696	1495
800.798	1801
800.899	1317
801.001	1995
801.103	2634
801.205	1593
801.306	2553
801.408	1954
801.509	2133
801.611	2027
801.713	2082
801.814	1713
801.916	1043
802.017	1176
802.119	1513
802.220	2296
802.322	255
802.423	3670
802.525	2007
802.626	1645
802.727	1986
802.829	2030
802.930	-387
803.031	3363
803.133	1982
803.234	2157
803.335	632
803.436	725
803.538	1771
803.639	1087
803.740	2769
803.841	121
803.942	2305
804.043	2599
804.144	1775
804.245	1533
804.346	2197
804.447	1630
804.548	3182
804.649	3582
804.750	972
804.851	1627
804.952	1193
805.053	1862
805.154	69
805.255	2542
805.355	1907
805.456	835
805.557	1140
805.658	974
805.758	1277
805.859	1270
805.960	1473
806.061	1263
806.161	775
806.262	1455
806.362	979
806.463	1287
806.564	2541
806.664	1298
806.765	1834
806.865	1298
806.966	1167
807.066	168
807.166	2004
807.267	2165
807.367	1059
807.468	1714
807.568	410
807.668	1767
807.769	1889
807.869	1662
807.969	1415
808.069	1981
808.170	1568
808.270	859
808.370	2486
808.470	2635
808.570	2173
808.670	1309
808.770	1321
808.870	1118
808.970	1594
809.070	1266
809.170	690
809.271	2121
809.370	1391
809.470	1797
809.570	1932
809.670	509
809.770	1530
809.870	1935
809.970	1190
810.070	1677
810.169	1111
810.269	-27
810.369	2093
810.469	1889
810.568	1228
810.668	1050
810.768	1857
810.867	1654
810.967	1027
811.066	680
811.166	1344
811.265	2218
811.365	685
811.464	1088
811.564	1904
811.663	1846
811.763	948
811.862	1729
811.962	2470
812.061	1762
812.160	868
812.260	1568
812.359	1791
812.458	2334
812.557	6355
812.657	8101
812.756	3370
812.855	1512
812.954	1189
813.053	1595
813.153	1346
813.252	1738
813.351	1965
813.450	2010
813.549	1032
813.648	1641
813.747	1707
813.846	2288
813.945	1593
814.044	2132
814.143	1787
814.242	2929
814.341	1640
814.439	2463
814.538	2846
814.637	1697
814.736	1680
814.835	3943
814.933	2433
815.032	3066
815.131	3475
815.229	5056
815.328	5931
815.427	4770
815.525	4681
815.624	4495
815.722	4679
815.821	5585
815.919	5906
816.018	5257
816.116	6641
816.215	5206
816.313	5932
816.412	6535
816.510	7127
816.609	9071
816.707	8650
816.805	7822
816.904	8988
817.002	9494
817.100	10011
817.198	11181
817.296	11197
817.395	12648
817.493	15162
817.591	16104
817.689	22504
817.787	29285
817.885	45872
817.983	78149
818.081	165634
818.179	379543
818.277	821103
818.375	648533
818.473	224756
818.571	95755
818.669	63372
818.767	53648
818.865	53362
818.963	62172
819.061	89578
819.158	150123
819.256	303474
819.354	665388
819.452	1146186
819.549	756332
819.647	294214
819.745	132456
819.842	80597
819.940	54976
820.038	39847
820.135	31170
820.233	26210
820.330	19658
820.428	16587
820.525	16068
820.623	14382
820.720	12223
820.818	11376
820.915	9895
821.012	9614
821.110	7869
821.207	8781
821.304	7136
821.402	7977
821.499	8241
821.596	6308
821.693	6657
821.791	7427
821.888	6847
821.985	8798
822.082	7083
822.179	6504
822.276	4992
822.373	4551
822.470	4852
822.567	5880
822.664	3661
822.761	5085
822.858	3535
822.955	3801
823.052	4622
823.149	3472
823.246	3604
823.343	2983
823.440	4209
823.536	3969
823.633	3445
823.730	3223
823.827	3321
823.923	2845
824.020	4652
824.117	3956
824.213	3181
824.310	3724
824.407	3287
824.503	3909
824.600	2751
824.696	2893
824.793	3405
824.889	2810
824.986	2396
825.082	2191
825.179	3242
825.275	2924
825.371	2718
825.468	2076
825.564	2048
825.660	3226
825.757	2869
825.853	3019
825.949	1415
826.045	1219
826.142	2444
826.238	2176
826.334	2331
826.430	1307
826.526	2104
826.622	1037
826.718	2252
826.814	2209
826.910	2691
827.006	1712
827.102	732
827.198	3423
827.294	1947
827.390	2565
827.486	2456
827.582	921
827.678	1923
827.774	3279
827.869	856
827.965	2792
828.061	800
828.157	2393
828.252	2650
828.348	2752
828.444	2429
828.539	1084
828.635	2697
828.731	2671
828.826	1044
828.922	2560
829.017	2225
829.113	3225
829.208	2064
829.304	1781
829.399	3398
829.495	1982
829.590	2504
829.685	1315
829.781	2829
829.876	1890
829.971	942
830.066	580
830.162	2540
830.257	2136
830.352	1505
830.447	2263
830.543	1617
830.638	1141
830.733	3528
830.828	1405
830.923	2691
831.018	2688
831.113	1333
831.208	518
831.303	1225
831.398	1337
831.493	1642
831.588	4001
831.683	1172
831.778	1400
831.873	1918
831.967	1955
832.062	1828
832.157	624
832.252	1299
832.346	1295
832.441	2994
832.536	2724
832.631	4734
832.725	3629
832.820	1580
832.914	1163
833.009	1773
833.104	1295
833.198	2227
833.293	1138
833.387	1956
833.482	2307
833.576	1509
833.670	3087
833.765	2512
833.859	2083
833.954	2202
834.048	996
834.142	1687
834.237	977
834.331	1209
834.425	1976
834.519	1121
834.613	1534
834.708	964
834.802	1798
834.896	365
834.990	1350
835.084	1893
835.178	1316
835.272	605
835.366	790
835.460	3006
835.554	1843
835.648	1372
835.742	8
835.836	654
835.930	-337
836.024	1982
836.117	1489
836.211	915
836.305	782
836.399	1516
836.493	840
836.586	1875
836.680	630
836.774	725
836.867	1974
836.961	150
837.055	17
837.148	674
837.242	1118
837.335	1298
837.429	902
837.522	671
837.616	1457
837.709	2231
837.803	1433
837.896	1220
837.989	364
838.083	1213
838.176	2144
838.269	1327
838.363	1875
838.456	188
838.549	2014
838.642	2178
838.735	4669
838.829	2458
838.922	130
839.015	1183
839.108	83
839.201	763
839.294	897
839.387	778
839.480	-423
839.573	1474
839.666	1278
839.759	760
839.852	-7
839.945	878
840.038	374
840.131	483
840.223	1
840.316	810
840.409	795
840.502	-507
840.594	2042
840.687	-564
840.780	550
840.873	105
840.965	1275
841.058	1611
841.150	1604
841.243	812
841.336	1011
841.428	408
841.521	41
841.613	60
841.706	1291
841.798	316
841.890	670
841.983	245
842.075	641
842.167	153
842.260	1136
842.352	1431
842.444	1447
842.537	2059
842.629	2523
842.721	344
842.813	724
842.905	174
842.997	1848
843.090	1304
843.182	796
843.274	1072
843.366	5003
843.458	9025
843.550	6624
843.642	990
843.734	640
843.826	860
843.918	691
844.009	1377
844.101	120
844.193	732
844.285	722
844.377	683
844.469	1047
844.560	858
844.652	941
844.744	1258
844.835	412
844.927	946
845.019	795
845.110	227
845.202	957
845.293	671
845.385	-272
845.476	78
845.568	979
845.659	390
845.751	1048
845.842	39
845.934	-588
846.025	-486
846.116	421
846.208	102
846.299	636
846.390	116
846.482	656
846.573	1077
846.664	1313
846.755	790
846.846	1835
846.937	-776
847.029	-746
847.120	86
847.211	400
847.302	1645
847.393	-98
847.484	240
847.575	29
847.666	261
847.757	281
847.847	51
847.938	897
848.029	629
848.120	-89
848.211	-373
848.302	-669
848.392	268
848.483	217
848.574	-40
848.664	-360
848.755	455
848.846	377
848.936	650
849.027	729
849.118	1600
849.208	661
849.299	3154
849.389	6597
849.480	14857
849.570	31597
849.661	60482
849.751	98560
849.841	34035
849.932	5041
850.022	1319
850.112	1607
850.203	1685
850.293	373
850.383	928
850.474	211
850.564	232
850.654	159
850.744	153
850.834	490
850.924	1023
851.014	1535
851.104	-58
851.194	-2
851.284	540
851.374	1100
851.464	7
851.554	646
851.644	782
851.734	1402
851.824	675
851.914	370
852.004	1586
852.094	967
852.183	873
852.273	131
852.363	-122
852.452	1165
852.542	440
852.632	270
852.721	643
852.811	957
852.901	1359
852.990	1701
853.080	2047
853.169	1644
853.259	3034
853.348	2317
853.438	4890
853.527	7385
853.617	9429
853.706	19578
853.795	37654
853.885	83753
853.974	155767
854.063	282089
854.152	396520
854.242	158972
854.331	35030
854.420	14327
854.509	9296
854.598	6933
854.687	5041
854.777	5060
854.866	3090
854.955	2891
855.044	1697
855.133	1710
855.222	1226
855.311	655
855.400	1339
855.488	894
855.577	339
855.666	1283
855.755	1678
855.844	1589
855.933	2034
856.021	494
856.110	474
856.199	-278
856.288	46
856.376	540
856.465	331
856.554	1264
856.642	569
856.731	1421
856.819	634
856.908	173
856.996	-58
857.085	-219
857.173	434
857.262	453
857.350	-10
857.438	-671
857.527	723
857.615	467
857.703	231
857.792	-67
857.880	-272
857.968	-387
858.056	484
858.145	309
858.233	-261
858.321	813
858.409	1096
858.497	37
858.585	-482
858.673	441
858.761	-801
858.849	-547
858.937	-790
859.025	102
859.113	432
859.201	-662
859.289	690
859.377	-500
859.465	-231
859.552	2
859.640	-93
859.728	337
859.816	-492
859.903	647
859.991	-194
860.079	358
860.166	279
860.254	136
860.342	-152
860.429	-311
860.517	546
860.604	786
860.692	133
860.779	732
860.867	1112
860.954	302
861.042	418
861.129	819
861.216	643
861.304	-217
861.391	790
861.478	547
861.565	758
861.653	809
861.740	-479
861.827	519
861.914	116
862.001	89
862.089	117
862.176	57
862.263	-333
862.350	409
862.437	-913
862.524	73
862.611	-27
862.698	427
862.785	749
862.871	-60
862.958	1107
863.045	-494
863.132	-218
863.219	-514
863.306	-16
863.392	1311
863.479	360
863.566	-196
863.652	-105
863.739	-838
863.826	698
863.912	141
863.999	403
864.086	992
864.172	69
864.259	665
864.345	279
864.432	1159
864.518	759
864.604	619
864.691	267
864.777	1192
864.863	2157
864.950	2244
865.036	3133
865.122	4760
865.209	5027
865.295	4292
865.381	4977
865.467	6451
865.553	8179
865.639	12005
865.726	20637
865.812	42919
865.898	81716
865.984	120545
866.070	218823
866.156	222657
866.242	64614
866.328	17187
866.414	9389
866.499	7895
866.585	5595
866.671	4252
866.757	4409
866.843	4444
866.928	3762
867.014	3332
867.100	3116
867.186	3238
867.271	2372
867.357	3445
867.442	2864
867.528	2563
867.614	2721
867.699	2673
867.785	3250
867.870	2681
867.956	1895
868.041	2660
868.127	2814
868.212	3435
868.297	3225
868.383	3166
868.468	2843
868.553	3306
868.639	4427
868.724	6294
868.809	6135
868.894	2598
868.979	2475
869.065	2241
869.150	835
869.235	2096
869.320	617
869.405	1864
869.490	1349
869.575	1742
869.660	350
869.745	2157
869.830	1577
869.915	1597
870.000	2148
870.085	1597
870.169	2022
870.254	2057
870.339	881
870.424	1130
870.509	2292
870.593	1684
870.678	2662
870.763	770
870.847	1050
870.932	2301
871.016	2120
871.101	1224
871.186	1643
871.270	2788
871.355	336
871.439	1110
871.523	1167
871.608	1377
871.692	668
871.777	2712
871.861	1456
871.945	2043
872.030	1284
872.114	1452
872.198	565
872.282	1171
872.367	924
872.451	1338
872.535	997
872.619	2025
872.703	925
872.787	1046
872.871	891
872.955	1099
873.039	491
873.123	1705
873.207	1723
873.291	770
873.375	834
873.459	2134
873.543	1141
873.627	1462
873.711	204
873.794	2354
873.878	1351
873.962	827
874.045	693
874.129	1004
874.137	994
874.213	893
874.245	805
874.296	662
874.352	828
874.380	908
874.460	658
874.464	649
874.547	1367
874.568	1309
874.631	1121
874.676	1121
874.714	1127
874.784	1029
874.798	1008
874.881	2410
874.892	2190
874.965	727
874.999	1143
875.048	1679
875.107	1116
875.131	895
875.215	1842
875.215	1841
875.298	336
875.323	587
875.381	1116
875.430	1443
875.465	1740
875.538	1113
875.548	1009
875.631	898
875.646	744
875.714	53
875.753	115
875.798	192
875.861	968
875.881	1202
875.964	1136
875.968	1080
876.047	200
876.076	421
876.130	764
876.183	917
876.213	1019
876.291	1212
876.296	1222
876.379	1388
876.398	1204
876.462	628
876.506	734
876.545	843
876.613	831
876.628	823
876.711	722
876.721	736
876.794	885
876.828	1017
876.877	1112
876.935	1040
876.960	1069
877.043	764
877.043	765
877.125	1018
877.150	1349
877.208	1885
877.258	1216
877.291	922
877.365	1166
877.374	1169
877.456	1014
877.472	1108
877.539	1537
877.579	1524
877.622	1481
877.687	1847
877.704	1971
877.787	709
877.794	718
877.869	705
877.901	878
877.952	1231
878.008	951
878.034	795
878.115	748
878.117	749
878.199	388
878.222	544
878.282	943
878.329	1544
878.364	2038
878.437	1977
878.447	1913
878.529	259
878.544	222
878.611	302
878.651	528
878.694	793
878.758	916
878.776	962
878.858	739
878.865	780
878.941	880
878.972	580
879.023	298
879.078	161
879.105	189
879.185	961
879.187	968
879.269	1137
879.292	1048
879.351	1043
879.399	601
879.433	188
879.506	915
879.516	992
879.598	178
879.613	153
879.680	531
879.720	933
879.762	1172
879.827	794
879.844	618
879.926	405
879.933	387
880.007	625
880.040	570
880.089	624
880.147	1430
880.171	1636
880.253	2017
880.254	2020
880.335	2442
880.360	2618
880.417	3339
880.467	4977
880.499	5893
880.574	6358
880.580	6299
880.662	2502
880.680	1953
880.744	670
880.787	777
880.825	769
880.893	397
880.907	434
880.989	759
881.000	851
881.070	711
881.106	398
881.152	427
881.213	636
881.233	593
881.315	519
881.319	507
881.396	453
881.426	379
881.478	438
881.532	714
881.559	734
881.639	274
881.641	259
881.722	661
881.745	411
881.803	306
881.852	478
881.885	393
881.958	328
881.966	365
882.047	715
882.064	766
882.129	760
882.171	919
882.210	1004
882.277	1310
882.291	1387
882.372	955
882.383	871
882.454	471
882.489	525
882.535	507
882.596	398
882.616	344
882.697	237
882.702	221
882.778	514
882.808	698
882.859	552
882.914	305
882.940	274
883.020	485
883.021	490
883.102	533
883.127	649
883.183	804
883.233	673
883.264	397
883.339	429
883.345	459
883.426	-66
883.445	41
883.507	371
883.551	303
883.587	446
883.657	919
883.668	1001
883.749	1207
883.763	1233
883.830	663
883.869	504
883.910	457
883.975	168
883.991	133
884.072	178
884.081	141
884.152	367
884.187	688
884.233	735
884.292	397
884.314	237
884.394	-45
884.398	-61
884.475	62
884.504	71
884.555	247
884.610	404
884.636	385
884.716	681
884.716	685
884.797	673
884.821	684
884.877	741
884.927	480
884.958	363
885.033	468
885.038	480
885.118	853
885.139	807
885.199	568
885.244	682
885.279	662
885.350	420
885.359	441
885.439	521
885.456	520
885.520	472
885.561	508
885.600	551
885.667	671
885.680	673
885.760	395
885.773	397
885.840	620
885.878	704
885.920	770
885.984	665
886.000	686
886.080	1107
886.089	1138
886.160	945
886.195	752
886.240	504
886.300	342
886.320	415
886.400	564
886.406	576
886.480	372
886.511	279
886.560	490
886.616	691
886.640	656
886.720	729
886.722	718
886.800	153
886.827	105
886.879	609
886.932	956
886.959	872
887.038	787
887.039	790
887.119	753
887.143	756
887.198	655
887.248	534
887.278	651
887.354	979
887.358	969
887.437	625
887.459	570
887.517	1241
887.564	1653
887.596	1200
887.669	233
887.676	235
887.755	395
887.774	373
887.835	518
887.880	690
887.914	613
887.985	407
887.994	380
888.073	220
888.090	163
888.153	805
888.195	1208
888.232	745
888.300	-5
888.311	167
888.391	1295
888.405	1505
888.470	1006
888.510	680
888.549	596
888.615	423
888.628	477
888.708	817
888.720	870
888.787	842
888.825	791
888.866	504
888.930	65
888.945	228
889.024	1176
889.035	1292
889.103	1283
889.140	1251
889.182	1017
889.245	711
889.261	739
889.340	855
889.349	867
889.419	630
889.454	509
889.498	496
889.559	491
889.577	521
889.656	643
889.664	656
889.735	547
889.768	493
889.814	904
889.873	1447
889.978	609
890.083	932
890.187	1013
890.292	573
890.397	717
890.501	831
890.606	552
890.710	1317
890.815	361
890.919	1019
891.024	595
891.128	1003
891.233	699
891.337	727
891.442	321
891.546	536
891.650	449
891.755	139
891.859	1524
891.963	779
892.068	815
892.172	-44
892.276	630
892.380	390
892.484	614
892.589	766
892.693	997
892.797	570
892.901	707
893.005	596
893.109	586
893.213	1595
893.317	1182
893.421	138
893.525	244
893.629	-246
893.733	1004
893.837	415
893.941	758
894.045	910
894.148	-478
894.252	1296
894.356	1054
894.460	874
894.564	195
894.667	457
894.771	568
894.875	798
894.978	353
895.082	288
895.186	837
895.289	603
895.393	440
895.496	1114
895.600	490
895.703	554
895.807	409
895.910	404
896.014	172
896.117	115
896.221	508
896.324	866
896.427	663
896.531	352
896.634	2
896.737	706
896.840	725
896.944	35
897.047	-238
897.150	761
897.253	206
897.356	-198
897.460	-321
897.563	-170
897.666	78
897.769	447
897.872	297
897.975	-326
898.078	661
898.181	-56
898.284	-150
898.387	370
898.490	116
898.593	340
898.695	-304
898.798	1024
898.901	-504
899.004	687
899.107	217
899.209	103
899.312	336
899.415	12
899.518	-361
899.620	208
899.723	-588
899.826	18
899.928	898
900.031	436
900.133	93
900.236	-110
900.338	110
900.441	29
900.543	72
900.646	119
900.748	40
900.851	290
900.953	352
901.055	488
901.158	338
901.260	25
901.362	-99
901.465	-239
901.567	-129
901.669	-481
901.771	-394
901.873	250
901.976	176
902.078	207
902.180	-736
902.282	276
902.384	829
902.486	680
902.588	550
902.690	-142
902.792	638
902.894	611
902.996	-323
903.098	882
903.200	51
903.302	344
903.404	562
903.505	205
903.607	279
903.709	465
903.811	870
903.913	-28
904.014	611
904.116	-431
904.218	-53
904.319	-49
904.421	776
904.523	528
904.624	328
904.726	178
904.827	-380
904.929	745
905.030	532
905.132	441
905.233	345
905.335	472
905.436	-308
905.537	-117
905.639	62
905.740	90
905.841	-199
905.943	425
906.044	-321
906.145	-23
906.247	42
906.348	163
906.449	351
906.550	138
906.651	-61
906.752	655
906.854	265
906.955	-1010
907.056	-308
907.157	249
907.258	122
907.359	-659
907.460	-732
907.561	-496
907.662	-41
907.762	572
907.863	274
907.964	508
908.065	-72
908.166	-537
908.267	-109
908.367	-338
908.468	-415
908.569	-44
908.670	744
908.770	812
908.871	-168
908.971	-690
909.072	-257
909.173	211
909.273	137
909.374	-112
909.474	-490
909.575	31
909.675	-27
909.776	524
909.876	-22
909.977	-232
910.077	618
910.177	119
910.278	-330
910.378	-379
910.478	-221
910.579	-184
910.679	386
910.779	-187
910.879	560
910.980	177
911.080	-296
911.180	-542
911.280	-35
911.380	-779
911.480	-651
911.580	291
911.680	-53
911.780	-238
911.880	119
911.980	4
912.080	343
912.180	97
912.280	-512
912.380	343
912.480	-556
912.580	-317
912.679	438
912.779	-86
912.879	-549
912.979	26
913.078	-592
913.178	-305
913.278	-737
913.377	496
913.477	-494
913.577	-841
913.676	21
913.776	380
913.875	-348
913.975	-413
914.074	672
914.174	-51
914.273	-573
914.373	202
914.472	736
914.572	-914
914.671	127
914.770	-241
914.870	-131
914.969	-652
915.068	-390
915.167	154
915.267	-458
915.366	-140
915.465	-473
915.564	-138
915.663	409
915.763	-254
915.862	325
915.961	208
916.060	-107
916.159	358
916.258	-448
916.357	-53
916.456	182
916.555	-70
916.654	-443
916.752	807
916.851	25
916.950	57
917.049	-451
917.148	195
917.247	505
917.345	323
917.444	252
917.543	74
917.642	-103
917.740	-232
917.839	197
917.937	815
918.036	181
918.135	147
918.233	-799
918.332	251
918.430	254
918.529	-310
918.627	380
918.726	-686
918.824	156
918.923	-471
919.021	-455
919.119	152
919.218	-138
919.316	226
919.414	676
919.512	-456
919.611	-323
919.709	381
919.807	406
919.905	826
920.003	487
920.102	890
920.200	295
920.298	414
920.396	174
920.494	494
920.592	-375
920.690	577
920.788	-475
920.886	376
920.984	672
921.082	61
921.180	1025
921.277	912
921.375	731
921.473	1249
921.571	228
921.669	268
921.766	-267
921.864	173
921.962	1644
922.060	169
922.157	280
922.255	658
922.352	123
922.450	991
922.548	800
922.645	717
922.743	795
922.840	2061
922.938	2355
923.035	2341
923.133	2079
923.230	2476
923.327	2803
923.425	2626
923.522	2630
923.619	2918
923.717	1726
923.814	2301
923.911	1692
924.008	2875
924.106	2032
924.203	1778
924.300	2205
924.397	2084
924.494	2938
924.591	2881
924.688	1456
924.786	2404
924.883	2008
924.979	1967
925.077	2108
925.173	2304
925.270	2304
925.367	2397
925.464	2812
925.561	1889
925.658	2302
925.755	1979
925.852	2294
925.948	2307
926.045	2720
926.142	2337
926.239	2319
926.335	2364
926.432	2418
926.529	2914
926.625	2186
926.722	1796
926.818	1988
926.915	2140
927.011	2301
927.108	2255
927.204	2306
927.301	1084
927.397	1587
927.494	1633
927.590	534
927.687	751
927.783	2085
927.879	1607
927.976	759
928.072	1601
928.168	1495
928.264	2057
928.361	1654
928.457	1234
928.553	1225
928.649	1577
928.745	1644
928.841	308
928.937	1810
929.033	1412
929.129	651
929.225	1427
929.321	906
929.417	1989
929.513	1536
929.609	1381
929.705	948
929.801	1524
929.897	248
929.993	985
930.089	1070
930.184	1634
930.280	1106
930.376	1912
930.471	65
930.567	1211
930.663	1338
930.758	151
930.854	672
930.950	1133
931.045	795
931.141	1812
931.236	1223
931.332	1325
931.427	1228
931.523	920
931.618	737
931.714	883
931.809	1025
931.905	1104
932.000	733
932.095	1017
932.191	832
932.286	1594
932.381	1187
932.476	-10
932.572	1087
932.667	895
932.762	510
932.857	754
932.952	1197
933.047	-143
933.142	404
933.237	1662
933.332	548
933.427	1396
933.522	472
933.617	487
933.712	972
933.807	1427
933.902	1291
933.997	1035
934.092	-26
934.187	1068
934.282	440
934.376	939
934.471	848
934.566	644
934.661	1141
934.755	1280
934.850	1324
934.945	583
935.039	514
935.134	-43
935.228	896
935.323	967
935.417	315
935.512	-170
935.606	-166
935.701	643
935.795	212
935.890	399
935.984	510
936.079	-233
936.173	579
936.267	-7
936.362	-149
936.456	691
936.550	500
936.644	752
936.738	418
936.833	20
936.927	-458
937.021	222
937.115	-62
937.209	-89
937.303	757
937.397	383
937.491	840
937.585	-60
937.679	-307
937.773	-120
937.867	-262
937.961	263
938.055	309
938.149	129
938.243	-476
938.337	181
938.430	-166
938.524	886
938.618	205
938.712	755
938.805	-751
938.899	-412
938.993	584
939.086	-98
939.180	-378
939.274	555
939.367	483
939.461	53
939.554	-261
939.648	-777
939.741	386
939.835	832
939.928	86
940.022	34
940.115	-269
940.208	429
940.302	531
940.395	358
940.488	47
940.582	1186
940.675	-326
940.768	421
940.861	-9
940.954	-631
941.048	-697
941.141	-801
941.234	254
941.327	689
941.420	1033
941.513	293
941.606	-826
941.699	564
941.792	43
941.885	543
941.978	-135
942.071	284
942.164	-1585
942.257	109
942.349	65
942.442	-3
942.535	-624
942.628	-297
942.721	-438
942.813	-1610
942.906	599
942.999	-775
943.091	-1144
943.184	-1034
943.277	-1301
943.369	672
943.462	-1268
943.554	687
943.647	-141
943.739	737
943.832	-466
943.924	-1659
944.017	-571
944.109	-1417
944.201	-18
944.294	-8
944.386	-717
944.478	-734
944.571	-757
944.663	-6
944.755	-409
944.847	-102
944.940	-636
945.032	-1211
945.124	-1048
945.216	373
945.308	-578
945.400	-374
945.492	-252
945.584	-1084
945.676	-159
945.768	9
945.860	-205
945.952	-352
946.044	-230
946.136	-197
946.228	-309
946.320	-851
946.412	-934
946.503	-900
946.595	-489
946.687	-1049
946.779	-1127
946.870	-1009
946.962	-1494
947.054	-836
947.145	-538
947.237	-221
947.329	-361
947.420	-916
947.512	-1257
947.603	-1192
947.695	-599
947.786	-519
947.878	-1467
947.969	-181
948.061	-507
948.152	-516
948.243	-999
948.335	-587
948.426	-745
948.517	-1399
948.609	-886
948.700	-765
948.791	-863
948.882	-86
948.973	-1227
949.065	-1033
949.156	-753
949.247	-1829
949.338	-1121
949.429	-1330
949.520	-1408
949.611	-1405
949.702	75
949.793	-570
949.884	-573
949.975	-1208
950.066	-896
950.157	-901
950.247	-1066
950.338	-1180
950.429	-1157
950.520	-954
950.611	-2023
950.701	-560
950.792	-1698
950.883	-224
950.973	-396
951.064	-692
951.155	-1371
951.245	-422
951.336	-1120
951.427	-451
951.517	-667
951.608	-606
951.698	-847
951.788	-1134
951.879	-1656
951.969	-981
952.060	-1242
952.150	-1102
952.240	222
952.331	-2626
952.421	258
952.511	-648
952.602	-561
952.692	-871
952.782	-476
952.872	-1197
952.962	-1244
953.052	-1118
953.143	-1387
953.233	-1322
953.323	-1756
953.413	-650
953.503	-909
953.593	-890
953.683	-1192
953.773	-1727
953.863	-1496
953.953	-1778
954.042	-102
954.132	-1776
954.222	-225
954.312	-978
954.402	134
954.492	-808
954.581	-859
954.671	-1555
954.761	-1264
954.850	90
954.940	-1719
955.030	-896
955.119	-1366
955.209	-820
955.298	-1298
955.388	-915
955.477	-279
955.567	-1340
955.656	-402
955.746	-1230
955.835	-684
955.925	-1518
956.014	-611
956.103	-520
956.193	-701
956.282	-628
956.371	-1230
956.461	-1017
956.550	-1161
956.639	-1323
956.728	-1538
956.817	-1153
956.906	-1422
956.995	-618
957.085	-1292
957.174	-441
957.263	-1822
957.352	-771
957.441	-1623
957.530	-1078
957.619	-123
957.708	-499
957.796	-894
957.885	-756
957.974	-1647
958.063	-438
958.152	-1739
958.241	-199
958.329	-266
958.418	-1060
958.507	-1611
958.596	-445
958.684	-1875
958.773	-1076
958.861	-1865
958.950	-362
959.039	-621
959.127	-1225
959.216	-862
959.304	-549
959.393	-1400
959.481	-496
959.570	-410
959.658	-1228
959.746	-464
959.835	-107
959.923	-640
960.011	-1280
960.100	-631
960.188	-912
960.276	-1466
960.365	-203
960.453	-950
960.541	-1047
960.629	-1011
960.717	-1233
960.805	-1600
960.893	-1499
960.981	-1485
961.069	-82
961.158	-1770
961.245	-228
961.333	-269
961.421	-986
961.509	-805
961.597	-382
961.685	-1124
961.773	-221
961.861	-1264
961.949	-194
962.036	-1362
962.124	-418
962.212	-1578
962.299	-1082
962.387	-1638
962.475	-521
962.562	-1748
962.650	-377
962.738	-1043
962.825	-1692
962.913	-672
963.000	-1520
963.088	-1181
963.175	-771
963.263	-1555
963.350	-1334
963.438	-1605
963.525	-873
963.612	-422
963.700	-1120
963.787	-460
963.874	-672
963.962	-1127
964.049	-84
964.136	-976
964.223	-1120
964.310	-984
964.398	-787
964.485	-1110
964.572	-1849
964.659	-502
964.746	-928
964.833	-833
964.920	-995
965.007	-1063
965.094	-679
965.181	-859
965.268	-765
965.355	-118
965.441	-574
965.528	-1468
965.615	203
965.702	-801
965.789	-1194
965.875	-1025
965.962	-1128
966.049	-900
966.136	-483
966.222	-726
966.309	-211
966.395	-566
966.482	-11
966.569	-1205
966.655	-116
966.742	-1230
966.828	-383
966.915	-1485
967.001	-454
967.087	-1628
967.174	-756
967.260	-1079
967.347	-505
967.433	-1125
967.519	-405
967.605	-931
967.692	-1182
967.778	-1398
967.864	-1061
967.950	-558
968.036	-1618
968.123	-1116
968.209	-2251
968.295	-2233
968.381	541
968.467	-532
968.553	-2206
968.639	-251
968.725	-1302
968.811	-273
968.897	-608
968.983	-1389
969.069	-927
969.154	-801
969.240	537
969.326	-1097
969.412	-752
969.497	-2232
969.583	-1491
969.669	-595
969.755	-146
969.840	-1212
969.926	-42
970.012	-709
970.097	257
970.183	-957
970.268	-1197
970.354	-903
970.439	-2123
970.525	280
970.610	-1528
970.696	-161
970.781	-499
970.866	-1549
970.952	-158
971.037	-733
971.122	-1828
971.208	-902
971.293	-775
971.378	-1833
971.463	-1682
971.549	-439
971.634	-854
971.719	-1407
971.804	-1367
971.889	-633
971.974	-1243
972.059	-575
972.144	-510
972.229	-1782
972.314	-1746
972.399	227
972.484	-939
972.569	-406
972.654	-1889
972.739	-55
972.824	-1277
972.908	-1612
972.993	-1231
973.078	-1366
973.163	-1128
973.247	-1599
973.332	-2188
973.417	84
973.501	-1693
973.586	-737
973.671	-1468
973.755	-1183
973.840	-740
973.924	-776
974.009	-923
974.093	-1701
974.178	-683
974.262	-1379
974.346	-1069
974.431	-1594
974.515	-1004
974.600	-724
974.684	-15
974.768	-1523
974.852	-312
974.937	-2435
975.021	-876
975.105	-1156
975.189	-1624
975.273	-948
975.358	-2014
975.442	-2189
975.526	-416
975.610	-2490
975.694	-1613
975.778	-516
975.862	-792
975.946	-2799
976.030	-69
976.114	-1396
976.198	40
976.281	-1627
976.365	-603
976.449	-1601
976.533	-377
976.617	-1683
976.700	-1826
976.784	-1708
976.868	-2177
976.951	-1448
977.035	-1377
977.119	-1194
977.202	-1564
977.286	-685
977.369	-816
977.453	-920
977.536	-1652
977.620	-1590
977.703	-564
977.787	-1548
977.870	-521
977.953	-1286
978.037	-2461
978.120	-688
978.203	-2599
978.287	-1203
978.370	-1988
978.453	-1940
978.536	-1587
978.620	-279
978.703	-1288
978.786	-1870
978.869	-1281
978.952	-2369
979.035	-830
979.118	-1728
979.201	-1626
979.284	-708
979.367	-1953
979.450	-1820
979.533	-1692
979.616	-676
979.699	-1637
979.782	-1322
979.865	-1057
979.948	-1793
980.030	-821
980.113	-1730
980.196	-2284
980.279	-415
980.361	-1384
980.444	-1367
980.526	-1700
980.609	-407
980.692	-978
980.774	-1625
980.857	-2306
980.939	-813
981.022	-1861
981.104	-1766
981.187	-1111
981.269	-448
981.352	-1708
981.434	-1885
981.516	-1801
981.599	-920
981.681	-1443
981.763	-1464
981.846	-813
981.928	-1885
982.010	-1303
982.092	-2246
982.174	-614
982.256	-1483
982.339	-1533
982.421	-1961
982.503	-1217
982.585	-1969
982.667	-2349
982.749	-2387
982.831	-1886
982.913	-2828
982.995	-1186
983.077	-2557
983.158	-342
983.240	-2710
983.322	-913
983.404	-230
983.486	-1750
983.568	-423
983.649	-1569
983.731	-1840
983.813	-2159
983.894	-1287
983.976	-1975
984.058	-2034
984.139	-311
984.221	-2083
984.302	-844
984.384	-1708
984.465	-1182
984.547	-1146
984.628	-2011
984.710	-1603
984.791	-1349
984.872	-2147
984.954	-1046
985.035	-868
985.116	-1988
985.198	-1744
985.279	-844
985.360	-2056
985.441	-1367
985.522	-1662
985.604	-1248
985.685	-3046
985.766	-1159
985.847	-383
985.928	-1768
986.009	-1182
986.090	-1094
986.171	-1419
986.252	-2073
986.333	-2032
986.414	-1821
986.495	-1089
986.576	-2249
986.656	-1730
986.737	-1387
986.818	-1707
986.899	-1563
986.980	-1738
987.060	-1334
987.141	-1846
987.222	-1505
987.302	-648
987.383	-498
987.464	-1625
987.544	-1495
987.625	-2171
987.705	-1774
987.786	-1433
987.866	-1215
987.947	-1679
988.027	-1459
988.108	-1816
988.188	-546
988.268	-2288
988.349	-1523
988.429	-1701
988.509	-1648
988.589	-1664
988.670	-2729
988.750	-301
988.830	-2123
988.910	-1201
988.990	-1605
989.070	-1986
989.151	-2048
989.231	-1542
989.311	-1047
989.391	-1617
989.471	-2237
989.551	-2436
989.631	-1852
989.711	-165
989.791	-2202
989.870	-2467
989.950	-783
990.030	-1933
990.110	-1105
990.190	-2563
990.269	-1408
990.349	-2201
990.429	-1272
990.509	-977
990.588	-2087
990.668	-912
990.747	-1576
990.827	-1827
990.907	-1163
990.986	-1719
991.066	-1199
991.145	-2715
991.225	-1323
991.304	-2041
991.383	-1017
991.463	-1636
991.542	-1668
991.622	-1875
991.701	-1372
991.780	-1727
991.859	-1222
991.939	-1694
992.018	-2117
992.097	-1164
992.176	-393
992.256	-1037
992.335	-2086
992.414	-1018
992.493	-1941
992.572	-1816
992.651	-607
992.730	-1907
992.809	-1518
992.888	-1770
992.967	-2204
993.046	-790
993.125	-2402
993.203	-2391
993.282	-1055
993.361	-1178
993.440	-1840
993.519	-2541
993.597	-2033
993.676	-2108
993.755	-1078
993.834	-1678
993.912	-2203
993.991	-936
994.069	-2090
994.148	-1653
994.226	-1674
994.305	-954
994.384	-2087
994.462	-738
994.540	-1474
994.619	-2377
994.697	-1405
994.776	-1714
994.854	-710
994.932	-2275
995.011	-1053
995.089	-2972
995.167	-2233
995.245	-1878
995.324	-1497
995.402	-1630
995.480	-1969
995.558	-1621
995.636	-2017
995.714	-1730
995.792	-372
995.870	-1158
995.948	-846
996.026	-1384
996.104	-2882
996.182	-1448
996.260	-1652
996.338	-1316
996.416	-2299
996.494	-2428
996.572	-499
996.649	-2308
996.727	-1937
996.805	-1744
996.883	-1018
996.960	-1887
997.038	-1129
997.116	-795
997.193	-2501
997.271	-1380
997.348	-2205
997.426	-1457
997.504	-1885
997.581	-1471
997.658	-1454
997.736	-2070
997.813	-2072
997.891	-1216
997.968	-2178
998.046	-1720
998.123	-2011
998.200	-1986
998.277	-1987
998.355	-1451
998.432	-1851
998.509	-1915
998.586	-1252
998.663	-1348
998.741	-1459
998.818	-833
998.895	-2624
998.972	-1663
999.049	-536
999.126	-1524
999.203	-1447
999.280	-1640
999.357	-2021
999.434	-1449
999.511	-1943
999.587	-1354
999.664	-1422
999.741	-2094
999.818	-669
999.895	-1554
999.971	-1603
1000.048	-2038
1000.125	-1617
1000.202	-2098
1000.278	-1653
1000.355	-1465
1000.431	-1876
1000.508	-2543
1000.584	-1676
1000.661	-1636
1000.738	-1605
1000.814	-2386
1000.890	-742
1000.967	-1698
1001.043	-1121
1001.120	-2520
1001.196	-2127
1001.272	-1805
1001.349	-1891
1001.425	-1727
1001.501	-1657
1001.577	-1988
1001.654	-1487
1001.730	-1915
1001.806	-1593
1001.882	-2957
1001.958	-2363
1002.034	-1358
1002.110	-1840
1002.186	-2566
1002.262	-2527
1002.338	-2216
1002.414	-1662
1002.490	-1324
1002.566	-2024
1002.642	-2203
1002.718	-975
1002.794	-2452
1002.870	-1915
1002.945	-2150
1003.021	-1859
1003.097	-1924
1003.173	-1782
1003.248	-1831
1003.324	-1762
1003.400	-2326
1003.475	-2161
1003.551	-1686
1003.626	-1536
1003.702	-2215
1003.777	-1963
1003.853	-2435
1003.928	-2133
1004.004	-2476
1004.079	-1832
1004.155	-1471
1004.230	-2446
1004.305	-2055
1004.381	-2623
1004.456	-2472
1004.531	-1338
1004.607	-2137
1004.682	-2327
1004.757	-2047
1004.832	-2662
1004.907	-1716
1004.982	-1564
1005.057	-2100
1005.133	-1532
1005.208	-2068
1005.283	-2422
1005.358	-1432
1005.433	-2525
1005.508	-2505
1005.583	-2360
1005.657	-2387
1005.732	-1759
1005.807	-1644
1005.882	-1772
1005.957	-1563
1006.032	-2272
1006.106	-1626
1006.181	-1797
1006.256	-2196
1006.331	-2081
1006.405	-2865
1006.480	-2161
1006.554	-2763
1006.629	-1843
1006.704	-2290
1006.778	-1734
1006.853	-1966
1006.927	-1814
1007.002	-3236
1007.076	-1101
1007.150	-2305
1007.225	-2164
1007.299	-1796
1007.373	-3090
1007.448	-1936
1007.522	-1483
1007.596	-2396
1007.671	-2188
1007.745	-1602
1007.819	-2644
1007.893	-2782
1007.967	-1493
1008.041	-3446
1008.115	-2071
1008.190	-1890
1008.264	-1786
1008.338	-3555
1008.412	-2285
1008.486	-2829
1008.560	-2076
1008.633	-3060
1008.707	-2887
1008.781	-1687
1008.855	-2150
1008.929	-1369
1009.003	-2461
1009.076	-2572
1009.150	-2165
1009.224	-2606
1009.298	-2072
1009.371	-2885
1009.445	-1338
1009.519	-1834
1009.592	-2883
1009.666	-2048
1009.739	-2833
1009.813	-2245
1009.886	-1454
1009.960	-3312
1010.033	-2233
1010.107	-1971
1010.180	-2295
1010.253	-2257
1010.327	-2312
1010.400	-2475
1010.473	-3238
1010.547	-848
1010.620	-2912
1010.693	-2274
1010.766	-2860
1010.840	-1953
1010.913	-2124
1010.986	-2514
1011.059	-1416
1011.132	-2106
1011.205	-1640
1011.278	-2266
1011.351	-3057
1011.424	-2548
1011.497	-2136
1011.570	-2541
1011.643	-1994
1011.716	-3431
1011.789	-2281
1011.862	-2766
1011.934	-1601
1012.007	-3074
1012.080	-2227
1012.153	-2192
1012.225	-2215
1012.298	-2810
1012.371	-1764
1012.443	-2345
1012.516	-3154
1012.588	-1832
1012.661	-2629
1012.733	-3364
1012.806	-2166
1012.879	-2842
1012.951	-1981
1013.023	-2858
1013.096	-2316
1013.168	-3284
1013.241	-1500
1013.313	-2885
1013.385	-1860
1013.458	-3192
1013.530	-1930
1013.602	-3629
1013.674	-2851
1013.746	-3119
1013.819	-2869
1013.891	-1867
1013.963	-3238
1014.035	-3350
1014.107	-2092
1014.179	-3244
1014.251	-3220
1014.323	-2542
1014.395	-2644
1014.467	-2329
1014.539	-2573
1014.611	-2932
1014.683	-1998
1014.754	-2003
1014.826	-3536
1014.898	-2193
1014.970	-2808
1015.042	-1394
1015.113	-1783
1015.185	-2163
1015.257	-3365
1015.328	-2857
1015.400	-2744
1015.471	-3140
1015.543	-3027
1015.615	-3379
1015.686	-2131
1015.757	-2556
1015.829	-2294
1015.901	-3324
1015.972	-3096
1016.043	-3107
1016.115	-1705
1016.186	-3388
1016.257	-3459
1016.328	-2726
1016.400	-2308
1016.471	-3365
1016.542	-3305
1016.613	-2352
1016.685	-2494
1016.756	-2447
1016.827	-1953
1016.898	-3024
1016.969	-2171
1017.040	-3345
1017.111	-2744
1017.182	-3103
1017.253	-1943
1017.324	-2583
1017.395	-2715
1017.466	-3263
1017.537	-3068
1017.608	-2569
1017.678	-2703
1017.749	-2430
1017.820	-2572
1017.891	-3191
1017.961	-2586
1018.032	-2402
1018.103	-2017
1018.173	-2892
1018.244	-2339
1018.315	-3102
1018.385	-2423
1018.456	-2064
1018.526	-2916
1018.597	-3188
1018.667	-2134
1018.738	-2890
1018.808	-2330
1018.878	-3251
1018.949	-2068
1019.019	-2676
1019.089	-2287
1019.160	-2626
1019.230	-3000
1019.300	-2332
1019.371	-3033
1019.441	-2734
1019.511	-2852
1019.581	-2224
1019.651	-3394
1019.721	-2326
1019.791	-2557
1019.861	-2873
1019.931	-2527
1020.001	-2895
1020.071	-2848
1020.141	-3241
1020.211	-2546
1020.281	-3326
1020.351	-2936
1020.421	-2261
1020.491	-2008
1020.560	-3612
1020.630	-2720
1020.700	-2104
1020.770	-2444
1020.839	-2689
1020.909	-3115
1020.979	-3306
1021.048	-3116
1021.118	-2745
1021.187	-3156
1021.257	-2786
1021.326	-2751
1021.396	-3027
1021.465	-2683
1021.535	-2262
1021.604	-3773
1021.674	-2856
1021.743	-2747
1021.812	-3334
1021.882	-2371
1021.951	-2589
1022.020	-2282
1022.089	-2766
1022.159	-2931
1022.228	-2382
1022.297	-2252
1022.366	-2971
1022.435	-1989
1022.504	-2828
1022.573	-1841
1022.642	-2814
1022.711	-2942
1022.781	-2790
1022.849	-2544
1022.918	-2695
1022.987	-1807
1023.056	-2909
1023.125	-2646
1023.194	-1773
1023.263	-2397
1023.331	-2463
1023.400	-2997
1023.469	-2660
1023.538	-2328
1023.606	-3513
1023.675	-1928
1023.744	-3250
1023.812	-3342
1023.881	-2370
1023.949	-3201
1024.018	-3160
1024.086	-2908
1024.155	-3381
1024.223	-2594
1024.292	-2975
1024.360	-2446
1024.429	-2487
1024.497	-2851
1024.565	-2663
1024.634	-3191
1024.702	-1858
1024.770	-2020
1024.838	-3141
1024.907	-2488
1024.975	-3241
1025.043	-2985
1025.111	-3188
1025.179	-2324
1025.247	-2844
1025.315	-2259
1025.383	-3664
1025.451	-3489
1025.519	-3026
1025.587	-3172
1025.655	-2912
1025.723	-2852
1025.791	-2649
1025.859	-2539
1025.927	-1769
1025.995	-3212
1026.062	-2531
1026.130	-2016
1026.198	-3125
1026.266	-1677
1026.333	-2626
1026.401	-2132
1026.469	-1857
1026.536	-2220
1026.604	-2952
1026.671	-2453
1026.739	-2865
1026.806	-1473
1026.874	-3234
1026.941	-3379
1027.009	-2855
1027.076	-3612
1027.144	-1921
1027.211	-3294
1027.278	-2789
1027.345	-1861
1027.413	-3019
1027.480	-2867
1027.547	-2808
1027.614	-3615
1027.682	-1847
1027.749	-3506
1027.816	-2764
1027.883	-2499
1027.950	-2064
1028.017	-2810
1028.084	-2656
1028.151	-3620
1028.218	-2045
1028.285	-2721
1028.352	-2903
1028.419	-3120
1028.486	-2290
1028.553	-2138
1028.619	-2540
1028.686	-2479
1028.753	-3091
1028.820	-2844
1028.886	-2447
1028.953	-3298
1029.020	-2703
1029.086	-2462
1029.153	-2468
1029.220	-2602
1029.286	-2717
1029.353	-1904
1029.419	-2656
1029.486	-2820
1029.552	-2391
1029.619	-2022
1029.685	-3635
1029.751	-2755
1029.818	-1437
1029.884	-3071
1029.951	-1995
1030.017	-2185
1030.083	-3086
1030.149	-2609
1030.216	-2797
1030.282	-1746
1030.348	-2940
1030.414	-2629
1030.480	-2669
1030.546	-3417
1030.612	-2716
1030.678	-2835
1030.744	-2627
1030.810	-3226
1030.876	-1984
1030.942	-2285
1031.008	-2517
1031.074	-2606
1031.140	-3561
1031.206	-2394
1031.272	-3463
1031.337	-2538
1031.403	-1648
1031.469	-2092
1031.534	-2501
1031.600	-2226
1031.666	-2644
1031.731	-2832
1031.797	-3009
1031.863	-2270
1031.928	-2409
1031.994	-2205
1032.059	-2949
1032.125	-2022
1032.190	-3090
1032.256	-2518
1032.321	-2905
1032.386	-2358
1032.452	-2969
1032.517	-2732
1032.582	-2388
1032.647	-1601
1032.713	-2427
1032.778	-2321
1032.843	-2722
1032.908	-3375
1032.974	-2889
1033.039	-2546
1033.104	-2596
1033.169	-2831
1033.234	-2455
1033.299	-1808
1033.364	-2079
1033.429	-2310
1033.494	-2163
1033.559	-3703
1033.624	-2191
1033.688	-2643
1033.753	-2649
1033.818	-2512
1033.883	-2743
1033.948	-2011
1034.013	-1820
1034.077	-1430
1034.142	-2575
1034.207	-1829
1034.271	-1231
1034.336	-1144
1034.400	-1896
1034.465	-2038
1034.530	-2503
1034.594	-1878
1034.658	-3041
1034.723	-3020
1034.787	-2566
1034.852	-2427
1034.916	-1975
1034.981	-2880
1035.045	-3265
1035.109	-2450
1035.173	-2494
1035.238	-2877
1035.302	-2644
1035.366	-1890
1035.430	-2466
1035.495	-3783
1035.559	-2404
1035.623	-2715
1035.687	-2441
1035.751	-2699
1035.815	-2393
1035.879	-2115
1035.943	-3277
1036.007	-2952
1036.071	-3037
1036.135	-2477
1036.198	-2322
1036.262	-2810
1036.326	-2683
1036.390	-3206
1036.454	-2874
1036.517	-2495
1036.581	-2986
1036.645	-2116
1036.709	-1958
1036.772	-3306
1036.836	-2377
1036.900	-2873
1036.963	-2544
1037.026	-3507
1037.090	-3496
1037.154	-2477
1037.217	-1624
1037.280	-2968
1037.344	-3004
1037.407	-2965
1037.471	-2818
1037.534	-2886
1037.597	-2630
1037.661	-2459
1037.724	-2346
1037.787	-2630
1037.850	-3020
1037.913	-1928
1037.977	-2460
1038.040	-2448
1038.103	-1979
1038.166	-3044
1038.229	-2077
1038.292	-4015
1038.355	-2430
1038.418	-1624
1038.481	-3553
1038.544	-2263
1038.607	-2561
1038.670	-1672
1038.732	-3293
1038.795	-2531
1038.858	-2532
1038.921	-2162
1038.984	-2147
1039.046	-2559
1039.109	-2272
1039.172	-2258
1039.234	-2959
1039.297	-2344
1039.360	-2750
1039.422	-2390
1039.485	-2135
1039.547	-3282
1039.610	-2871
1039.672	-2328
1039.734	-2696
1039.797	-2579
1039.859	-2522
1039.922	-3503
1039.984	-2463
1040.046	-2639
1040.109	-2290
1040.171	-2948
1040.233	-2864
1040.295	-2447
1040.358	-2796
1040.420	-2605
1040.482	-2686
1040.544	-2725
1040.606	-2770
1040.668	-2370
1040.730	-2986
1040.792	-3027
1040.854	-2523
1040.916	-3450
1040.978	-2571
1041.040	-1909
1041.102	-2562
1041.164	-2734
1041.225	-3816
1041.287	-2455
1041.349	-2582
1041.411	-3363
1041.472	-3453
1041.534	-2881
1041.596	-2759
1041.657	-1647
1041.719	-2748
1041.781	-3165
1041.842	-2547
1041.904	-2773
1041.965	-3117
1042.027	-2982
1042.088	-2371
1042.150	-2719
1042.211	-2365
1042.272	-2610
1042.334	-3510
1042.395	-2160
1042.456	-3018
1042.518	-2559
1042.579	-2969
1042.640	-2047
1042.701	-2902
1042.763	-3187
1042.824	-3128
1042.885	-3001
1042.946	-3540
1043.007	-3124
1043.068	-2595
1043.129	-3242
1043.190	-1804
1043.251	-2091
1043.312	-2372
1043.373	-2441
1043.434	-3524
1043.495	-2676
1043.556	-1719
1043.616	-2385
1043.677	-3115
1043.738	-2145
1043.799	-3282
1043.859	-2727
1043.920	-3321
1043.981	-2051
1044.041	-2469
1044.102	-2464
1044.162	-2571
1044.223	-2803
1044.284	-3227
1044.344	-2802
1044.405	-2978
1044.465	-2206
1044.525	-2626
1044.586	-2648
1044.646	-2940
1044.707	-2749
1044.767	-2431
1044.827	-2276
1044.887	-2454
1044.948	-2861
1045.008	-2479
1045.068	-2386
1045.128	-2175
1045.188	-2600
1045.249	-1142
1045.309	-2219
1045.369	-2886
1045.429	-2327
1045.489	-3042
1045.549	-2486
1045.609	-2519
1045.669	-2341
1045.729	-3207
1045.789	-2709
1045.848	-2722
1045.908	-2076
1045.968	-1430
1046.028	-2045
1046.088	-2223
1046.147	-2126
1046.207	-2121
1046.267	-1952
1046.326	-1967
1046.386	-1924
1046.446	-2030
1046.505	-2415
1046.565	-1892
1046.624	-1454
1046.684	-1356
1046.743	-1567
1046.803	-2247
1046.862	-1116
1046.922	0
