'Start Wavelength	183.907
'End Wavelength	1046.922
'Gate Delay	5.000
'Gate Width (ms)	1.050
'Laser Output Level	0.000
'X Position	0.000
'Y Position	0.000
'Z Position	0.000
'Grid Point Number	1.000
'Shot Number	100.000
183.907	684.000
183.977	-209.000
184.047	855
184.116	108
184.186	771
184.256	-477
184.325	969
184.395	-803
184.465	1025
184.534	532
184.604	-477
184.674	385
184.743	-319
184.813	198
184.883	450
184.952	-198
185.022	-172
185.092	-37
185.161	753
185.231	-248
185.301	773
185.370	183
185.440	636
185.509	20
185.579	-251
185.649	596
185.718	709
185.788	60
185.857	-146
185.927	-140
185.996	-289
186.066	-145
186.136	-203
186.205	-318
186.275	182
186.344	-313
186.414	110
186.483	101
186.553	415
186.622	731
186.692	436
186.761	-82
186.831	543
186.900	-486
186.970	517
187.039	-133
187.109	411
187.178	34
187.248	406
187.317	279
187.387	303
187.456	295
187.526	1178
187.595	41
187.664	-28
187.734	467
187.803	428
187.873	430
187.942	829
188.012	-15
188.081	-263
188.150	503
188.220	1330
188.289	817
188.358	-161
188.428	-450
188.497	-78
188.567	-214
188.636	-60
188.705	-97
188.775	468
188.844	-350
188.913	608
188.983	429
189.052	-428
189.121	442
189.191	952
189.260	5
189.329	578
189.399	-344
189.468	315
189.537	-55
189.606	108
189.676	-420
189.745	148
189.814	394
189.883	23
189.953	432
190.022	1460
190.091	2385
190.161	2873
190.230	1697
190.299	631
190.368	622
190.437	324
190.507	-159
190.576	107
190.645	-92
190.714	-460
190.783	231
190.853	637
190.922	372
190.991	837
191.060	89
191.129	175
191.198	-639
191.268	386
191.337	-112
191.406	682
191.475	-436
191.544	-153
191.613	-98
191.682	878
191.752	-71
191.821	-101
191.890	-325
191.959	702
192.028	-268
192.097	500
192.166	124
192.235	350
192.304	342
192.373	1162
192.442	-44
192.511	1017
192.580	-168
192.650	60
192.719	-152
192.788	1518
192.857	91
192.926	580
192.995	420
193.064	780
193.133	1472
193.202	961
193.271	1284
193.340	384
193.409	669
193.478	1684
193.547	625
193.615	3040
193.684	3182
193.753	1921
193.822	182
193.891	677
193.960	388
194.029	642
194.098	-84
194.167	1029
194.236	1173
194.305	673
194.374	163
194.443	647
194.512	264
194.580	1278
194.649	814
194.718	886
194.787	280
194.856	105
194.925	326
194.994	567
195.062	339
195.131	58
195.200	746
195.269	1201
195.338	358
195.407	118
195.475	71
195.544	849
195.613	1133
195.682	260
195.751	121
195.819	1070
195.888	830
195.957	2277
196.026	725
196.094	1628
196.163	309
196.232	1023
196.301	600
196.369	1058
196.438	824
196.507	232
196.576	-92
196.644	89
196.713	-5
196.782	535
196.850	978
196.919	611
196.988	644
197.056	418
197.125	173
197.194	496
197.262	608
197.331	826
197.400	426
197.468	479
197.537	89
197.606	1109
197.674	1318
197.743	3587
197.812	820
197.880	3960
197.949	2013
198.017	2271
198.086	1622
198.155	1040
198.223	2021
198.292	4718
198.360	949
198.429	639
198.497	621
198.566	2275
198.635	3582
198.703	1591
198.772	1250
198.840	4844
198.909	3416
198.977	1696
199.046	483
199.114	1196
199.183	731
199.251	515
199.320	329
199.388	53
199.457	550
199.525	1468
199.594	74
199.662	630
199.731	224
199.799	621
199.867	595
199.936	819
200.004	897
200.073	1729
200.141	301
200.210	245
200.278	-491
200.346	807
200.415	583
200.483	819
200.552	279
200.620	1015
200.688	171
200.757	837
200.825	-57
200.893	1089
200.962	275
201.030	86
201.098	1051
201.167	429
201.235	1290
201.303	1360
201.372	313
201.440	272
201.508	210
201.577	857
201.645	972
201.713	357
201.781	578
201.850	1815
201.918	338
201.986	-215
202.055	1252
202.123	765
202.191	116
202.259	1219
202.327	1022
202.396	513
202.464	794
202.532	1036
202.600	3058
202.669	1413
202.737	-210
202.805	540
202.873	1158
202.941	489
203.009	1220
203.078	571
203.146	520
203.214	1586
203.282	275
203.350	1012
203.418	447
203.487	1072
203.555	-165
203.623	1230
203.691	803
203.759	876
203.827	283
203.895	358
203.963	1439
204.031	209
204.099	575
204.168	556
204.236	486
204.304	1119
204.372	1307
204.440	1440
204.508	622
204.576	456
204.644	467
204.712	833
204.780	924
204.848	875
204.916	181
204.984	990
205.052	757
205.120	1104
205.188	879
205.256	1136
205.324	753
205.392	502
205.460	1325
205.528	1157
205.596	1181
205.664	1530
205.732	729
205.799	3993
205.867	6487
205.935	1563
206.003	1437
206.071	1156
206.139	547
206.207	1260
206.275	760
206.343	969
206.411	878
206.478	1515
206.546	1276
206.614	1706
206.682	1483
206.750	1054
206.818	355
206.885	1250
206.953	-291
207.021	1609
207.089	1395
207.157	996
207.225	974
207.292	935
207.360	1417
207.428	603
207.496	692
207.563	1592
207.631	1442
207.699	742
207.767	562
207.834	661
207.902	1314
207.970	350
208.038	911
208.105	1107
208.173	802
208.241	2207
208.309	2231
208.376	1968
208.444	3955
208.512	2425
208.579	657
208.647	1664
208.715	1855
208.782	891
208.850	1493
208.918	1244
208.985	1403
209.053	1412
209.120	1831
209.188	865
209.256	1370
209.323	1630
209.391	1480
209.459	2585
209.526	980
209.594	458
209.661	1248
209.729	2017
209.796	1696
209.864	2163
209.932	-378
209.999	2437
210.067	1935
210.134	2052
210.202	826
210.269	2847
210.337	1661
210.404	1364
210.472	1260
210.539	2386
210.607	1605
210.674	1511
210.742	1482
210.809	1018
210.877	1601
210.944	2424
211.012	1062
211.079	3339
211.146	2325
211.214	1310
211.281	1554
211.349	1814
211.416	2533
211.484	2354
211.551	1652
211.618	1651
211.686	1539
211.753	1309
211.821	2101
211.888	1607
211.955	1059
212.023	1742
212.090	1879
212.157	2024
212.225	1842
212.292	5144
212.359	8914
212.427	23063
212.494	9130
212.561	4211
212.629	2049
212.696	2243
212.763	1717
212.831	1936
212.898	2129
212.965	2155
213.032	1902
213.100	2431
213.167	1215
213.234	3612
213.301	2414
213.369	2313
213.436	1698
213.503	1174
213.570	2652
213.638	1874
213.705	1948
213.772	1544
213.839	2324
213.906	2508
213.973	2298
214.041	2144
214.108	1350
214.175	2216
214.242	1206
214.309	1310
214.376	994
214.444	1795
214.511	2442
214.578	2299
214.645	1672
214.712	2177
214.779	1073
214.846	2047
214.913	1856
214.980	2855
215.048	2047
215.115	3449
215.182	2404
215.249	2185
215.316	1608
215.383	2251
215.450	1750
215.517	2653
215.584	1838
215.651	1667
215.718	962
215.785	2287
215.852	1580
215.919	2832
215.986	1960
216.053	2448
216.120	1911
216.187	2770
216.254	2620
216.321	2240
216.388	1949
216.455	3695
216.522	2126
216.589	2264
216.656	5059
216.722	5673
216.789	3391
216.856	3328
216.923	2863
216.990	3848
217.057	2245
217.124	4276
217.191	2911
217.258	4558
217.324	4567
217.391	6243
217.458	5087
217.525	3751
217.592	2515
217.659	2269
217.725	3260
217.792	4834
217.859	3719
217.926	2040
217.993	1758
218.059	2180
218.126	2152
218.193	2070
218.260	1521
218.327	1262
218.393	1274
218.460	1276
218.527	705
218.594	1890
218.660	3243
218.727	4804
218.794	1857
218.860	2335
218.927	643
218.994	875
219.061	1100
219.127	2739
219.194	3115
219.261	2426
219.327	804
219.394	1585
219.461	708
219.527	1066
219.594	2618
219.661	3071
219.727	129
219.794	1781
219.860	802
219.927	2396
219.994	2863
220.060	4675
220.127	2611
220.193	2992
220.260	2601
220.326	4897
220.393	6551
220.460	9137
220.526	5373
220.593	3935
220.659	4584
220.726	5157
220.792	11001
220.859	8959
220.925	11268
220.992	15179
221.058	14717
221.125	15358
221.191	11361
221.258	4906
221.324	3711
221.391	2116
221.457	2462
221.524	2658
221.590	3695
221.657	13890
221.723	8458
221.789	8171
221.856	7333
221.922	4069
221.989	2568
222.055	1677
222.121	935
222.188	3301
222.254	2372
222.321	1520
222.387	1617
222.453	1421
222.520	1232
222.586	1201
222.652	1340
222.719	1502
222.785	1169
222.851	1024
222.918	1528
222.984	1834
223.050	1225
223.116	389
223.183	1696
223.249	1179
223.315	519
223.382	2414
223.448	969
223.514	761
223.580	508
223.647	1160
223.713	-73
223.779	478
223.845	986
223.911	1460
223.978	866
224.044	1311
224.110	1141
224.176	1471
224.242	1688
224.309	623
224.375	998
224.441	916
224.507	1213
224.573	1500
224.639	1310
224.705	1329
224.772	442
224.838	1037
224.904	1162
224.970	1887
225.036	792
225.102	992
225.168	1210
225.234	1951
225.300	1614
225.366	1442
225.432	1486
225.499	768
225.565	1525
225.631	2056
225.697	2323
225.763	2789
225.829	1877
225.895	3295
225.961	4280
226.027	3933
226.093	3120
226.159	4697
226.225	7084
226.291	14968
226.357	23959
226.423	12336
226.489	6577
226.554	4441
226.620	4409
226.686	6108
226.752	8742
226.818	13633
226.884	31173
226.950	25921
227.016	11329
227.082	5357
227.148	3803
227.214	4003
227.279	2735
227.345	2493
227.411	2825
227.477	2507
227.543	2199
227.609	3816
227.674	3449
227.740	1907
227.806	2576
227.872	1969
227.938	2055
228.003	2945
228.069	1505
228.135	1926
228.201	1855
228.267	1841
228.332	2015
228.398	3278
228.464	1942
228.530	1069
228.595	932
228.661	1427
228.727	2080
228.792	3225
228.858	1388
228.924	1247
228.990	3252
229.055	1942
229.121	2768
229.187	1763
229.252	1554
229.318	1691
229.384	1936
229.449	2606
229.515	-108
229.581	250
229.646	2678
229.712	2121
229.777	4731
229.843	5452
229.909	3045
229.974	3937
230.040	2812
230.105	3282
230.171	2709
230.236	3490
230.302	5479
230.368	4716
230.433	2631
230.499	2269
230.564	2635
230.630	1722
230.695	2554
230.761	2002
230.826	15
230.892	4055
230.957	1475
231.023	1677
231.088	2152
231.154	1950
231.219	2343
231.284	2919
231.350	3138
231.415	983
231.481	2714
231.546	1756
231.612	2156
231.677	1903
231.742	783
231.808	2376
231.873	577
231.939	161
232.004	4073
232.069	4012
232.135	1975
232.200	2022
232.265	1709
232.331	876
232.396	929
232.461	1129
232.527	919
232.592	1180
232.657	1300
232.723	4634
232.788	2726
232.853	2457
232.918	1385
232.984	1409
233.049	435
233.114	3922
233.179	3429
233.245	6109
233.310	6238
233.375	989
233.440	1951
233.506	1560
233.571	1202
233.636	2452
233.701	1527
233.766	4226
233.832	6143
233.897	2815
233.962	1377
234.027	3510
234.092	2987
234.157	1692
234.222	1896
234.288	4922
234.353	14171
234.418	12072
234.483	6412
234.548	4310
234.613	2894
234.678	3333
234.743	3194
234.808	14823
234.873	8596
234.938	4535
235.004	2445
235.069	3622
235.134	2611
235.199	2329
235.264	2277
235.329	1671
235.394	3009
235.459	3562
235.524	3210
235.589	2972
235.654	2614
235.719	742
235.784	2561
235.849	2923
235.913	7594
235.978	8376
236.043	9096
236.108	3968
236.173	3656
236.238	4440
236.303	2113
236.368	3256
236.433	5462
236.498	9709
236.563	5878
236.627	12709
236.692	40681
236.757	32139
236.822	13436
236.887	9392
236.952	7439
237.017	5910
237.081	8396
237.146	8867
237.211	18221
237.276	40992
237.341	66410
237.405	31406
237.470	12183
237.535	9685
237.600	6004
237.664	5421
237.729	3483
237.794	5403
237.859	11350
237.923	8785
237.988	4292
238.053	7802
238.118	7282
238.182	20384
238.247	16521
238.312	8504
238.376	5588
238.441	3465
238.506	4706
238.570	1701
238.635	3301
238.700	2495
238.764	2633
238.829	8868
238.893	9671
238.958	5130
239.023	3828
239.087	3001
239.152	3572
239.216	2520
239.281	2655
239.346	2639
239.410	2885
239.475	4075
239.539	18977
239.604	14165
239.668	4377
239.733	2371
239.797	2712
239.862	4543
239.926	13422
239.991	6166
240.055	2204
240.120	1936
240.184	2574
240.249	2522
240.313	1788
240.378	2520
240.442	10482
240.507	17329
240.571	5036
240.635	8661
240.700	9692
240.764	3790
240.829	2819
240.893	1631
240.957	2662
241.022	10743
241.086	17416
241.151	7649
241.215	1973
241.279	4787
241.344	8749
241.408	4067
241.472	2869
241.537	3547
241.601	3286
241.665	1193
241.730	2424
241.794	4195
241.858	1768
241.922	3306
241.987	2670
242.051	2730
242.115	801
242.179	2795
242.244	1822
242.308	3236
242.372	2950
242.436	3641
242.501	1761
242.565	1656
242.629	1878
242.693	3132
242.757	1904
242.822	2491
242.886	3032
242.950	2815
243.014	2413
243.078	4083
243.142	2859
243.206	3170
243.271	3407
243.335	4247
243.399	6027
243.463	23231
243.527	59943
243.591	17972
243.655	7614
243.719	4448
243.783	4253
243.847	7988
243.911	9727
243.975	10619
244.040	5979
244.104	4832
244.168	2782
244.232	5418
244.296	6856
244.360	9162
244.424	4992
244.488	4814
244.552	3992
244.615	2276
244.679	2904
244.743	3791
244.807	2633
244.871	2731
244.935	3036
244.999	1130
245.063	2303
245.127	3848
245.191	6117
245.255	4919
245.319	4137
245.383	3215
245.446	3313
245.510	1748
245.574	2681
245.638	3790
245.702	2204
245.766	9159
245.829	4922
245.893	3429
245.957	2726
246.021	4591
246.085	2928
246.149	4842
246.212	12795
246.276	18112
246.340	6763
246.404	5596
246.467	5456
246.531	7659
246.595	6137
246.659	6491
246.722	3883
246.786	5723
246.850	5076
246.913	7564
246.977	2668
247.041	3656
247.104	3962
247.168	4363
247.232	11356
247.295	25244
247.359	10993
247.423	4802
247.486	9227
247.550	6475
247.614	3792
247.677	6061
247.741	3797
247.804	4308
247.868	5980
247.932	10343
247.995	24107
248.059	8424
248.122	3804
248.186	6317
248.249	9907
248.313	41408
248.376	37963
248.440	24843
248.503	8218
248.567	8416
248.630	9866
248.694	13769
248.757	18790
248.821	43157
248.884	22075
248.948	22547
249.011	30860
249.075	49613
249.138	40384
249.202	13679
249.265	9101
249.328	15041
249.392	8011
249.455	7251
249.519	5369
249.582	6865
249.645	11981
249.709	8765
249.772	6464
249.835	7017
249.899	7372
249.962	6326
250.025	5527
250.089	16952
250.152	20218
250.215	9092
250.279	7044
250.342	7828
250.405	7651
250.468	6443
250.532	9799
250.595	15490
250.658	58860
250.721	92010
250.785	29644
250.848	15357
250.911	9242
250.974	9593
251.038	12182
251.101	26831
251.164	13375
251.227	14531
251.290	12569
251.354	20641
251.417	83878
251.480	76875
251.543	53718
251.606	155452
251.669	105242
251.732	39175
251.795	36529
251.859	38296
251.922	94481
251.985	49432
252.048	18207
252.111	14824
252.174	12452
252.237	23906
252.300	50858
252.363	56480
252.426	116491
252.489	46388
252.552	22776
252.615	15832
252.678	16882
252.741	39341
252.804	54937
252.867	120455
252.930	64135
252.993	32385
253.056	18761
253.119	13174
253.182	10795
253.245	20505
253.308	14526
253.371	14418
253.434	11807
253.497	11672
253.559	21796
253.622	14674
253.685	17716
253.748	16159
253.811	8131
253.874	12107
253.937	11404
254.000	7906
254.062	14722
254.125	24054
254.188	18395
254.251	16076
254.314	7896
254.376	14709
254.439	14782
254.502	13364
254.565	14964
254.628	28075
254.690	15480
254.753	8114
254.816	6798
254.878	8929
254.941	17294
255.004	17254
255.067	7432
255.129	7134
255.192	4197
255.255	3692
255.317	4847
255.380	4282
255.443	2499
255.505	3255
255.568	2537
255.631	2645
255.693	3352
255.756	1841
255.819	3190
255.881	2247
255.944	2871
256.006	2578
256.069	2004
256.132	3285
256.194	5007
256.257	16082
256.319	10972
256.382	9563
256.444	5243
256.507	3799
256.569	2983
256.632	4427
256.694	8565
256.757	21308
256.819	58991
256.882	23769
256.944	9967
257.007	7593
257.069	6831
257.132	5351
257.194	5165
257.257	4214
257.319	4184
257.381	6261
257.444	15943
257.506	72877
257.569	73547
257.631	33901
257.693	17209
257.756	8917
257.818	8285
257.880	5342
257.943	5174
258.005	4917
258.067	3534
258.130	3972
258.192	5602
258.254	11751
258.317	5543
258.379	4023
258.441	13140
258.503	11135
258.566	17712
258.628	24170
258.690	5489
258.753	4855
258.815	8007
258.877	5158
258.939	4398
259.001	3665
259.064	2726
259.126	5281
259.188	6806
259.250	5652
259.312	5343
259.375	14793
259.437	8172
259.499	4537
259.561	3095
259.623	3992
259.685	3281
259.747	4446
259.809	18569
259.872	32661
259.934	48967
259.996	37041
260.058	8852
260.120	4320
260.182	3687
260.244	3410
260.306	2369
260.368	3885
260.430	2526
260.492	5892
260.554	11533
260.616	10003
260.678	23340
260.740	32850
260.802	8018
260.864	6295
260.926	3480
260.988	4681
261.050	3690
261.112	6632
261.174	29077
261.236	25041
261.298	7291
261.359	14485
261.421	20063
261.483	4756
261.545	4584
261.607	2737
261.669	3331
261.731	9353
261.793	21360
261.854	7490
261.916	5138
261.978	4168
262.040	4092
262.102	4128
262.164	8015
262.225	6372
262.287	4050
262.349	10134
262.411	6551
262.472	4705
262.534	9052
262.596	20930
262.658	6115
262.719	3473
262.781	5660
262.843	20700
262.904	8417
262.966	6993
263.028	7769
263.090	41246
263.151	94773
263.213	26994
263.275	10785
263.336	4899
263.398	4316
263.459	3393
263.521	2659
263.583	9015
263.644	5178
263.706	2636
263.767	2397
263.829	2444
263.891	1142
263.952	1754
264.014	1814
264.075	2260
264.137	4194
264.198	4142
264.260	990
264.321	2178
264.383	5543
264.444	9234
264.506	2124
264.567	2432
264.629	3179
264.690	4303
264.752	2816
264.813	2399
264.875	1666
264.936	2516
264.998	625
265.059	1554
265.120	2164
265.182	5031
265.243	29226
265.305	27636
265.366	6624
265.427	3937
265.489	2868
265.550	1265
265.611	3172
265.673	2525
265.734	2127
265.795	2389
265.857	1796
265.918	2572
265.979	7759
266.040	49788
266.102	38502
266.163	9707
266.224	7183
266.286	3519
266.347	2720
266.408	2783
266.469	3590
266.530	3245
266.592	1830
266.653	5577
266.714	8697
266.775	2124
266.836	1840
266.898	1668
266.959	2261
267.020	1724
267.081	1866
267.142	1130
267.203	897
267.264	920
267.326	2514
267.387	1071
267.448	290
267.509	1975
267.570	1561
267.631	724
267.692	-517
267.753	2019
267.814	1021
267.875	5230
267.936	10801
267.997	3084
268.058	2412
268.119	1803
268.180	2151
268.241	1090
268.302	891
268.363	867
268.424	2136
268.485	2676
268.546	1145
268.607	899
268.668	862
268.729	499
268.790	1586
268.851	1720
268.912	5872
268.972	7559
269.033	3236
269.094	2469
269.155	1587
269.216	1764
269.277	2336
269.338	1474
269.398	1340
269.459	1949
269.520	2695
269.581	4613
269.642	5634
269.702	3211
269.763	2098
269.824	2142
269.885	2656
269.945	4804
270.006	2238
270.067	1389
270.128	893
270.188	535
270.249	1325
270.310	1484
270.370	1902
270.431	2180
270.492	374
270.553	2339
270.613	4847
270.674	11382
270.734	4066
270.795	2524
270.856	3809
270.916	3432
270.977	1293
271.038	3289
271.098	2587
271.159	5455
271.219	4419
271.280	2101
271.340	1528
271.401	3406
271.462	10043
271.522	4764
271.583	2624
271.643	3692
271.704	2141
271.764	3934
271.825	8298
271.885	34868
271.946	44915
272.006	12023
272.066	19963
272.127	35230
272.187	8163
272.248	4593
272.308	5171
272.369	25119
272.429	12279
272.489	8857
272.550	6838
272.610	8173
272.671	6469
272.731	7128
272.791	12110
272.852	5263
272.912	4308
272.972	2500
273.033	2797
273.093	5781
273.153	4472
273.214	2788
273.274	2491
273.334	14392
273.394	31867
273.455	11052
273.515	10756
273.575	27149
273.635	9465
273.696	16173
273.756	34706
273.816	12013
273.876	6793
273.936	20721
273.997	32974
274.057	7269
274.117	4765
274.177	7971
274.237	40564
274.297	34301
274.358	26052
274.418	27456
274.478	17900
274.538	7188
274.598	5998
274.658	30385
274.718	38075
274.778	13236
274.838	6260
274.898	16915
274.958	52495
275.018	39736
275.078	21207
275.138	8159
275.198	3408
275.258	3586
275.318	4851
275.378	10017
275.438	8966
275.498	5808
275.558	24421
275.618	47047
275.678	21821
275.738	12187
275.798	7681
275.858	3845
275.918	1598
275.978	3014
276.038	3057
276.098	2075
276.157	6357
276.217	20539
276.277	8345
276.337	6161
276.397	2870
276.457	3827
276.517	1974
276.576	1946
276.636	1194
276.696	4462
276.756	12054
276.815	8526
276.875	2718
276.935	4752
276.995	2913
277.055	1673
277.114	1964
277.174	3949
277.234	15175
277.293	4974
277.353	3174
277.413	2536
277.472	1783
277.532	2249
277.592	2672
277.651	11107
277.711	18953
277.771	6353
277.830	25751
277.890	19703
277.950	15139
278.009	46945
278.069	14956
278.128	13893
278.188	17824
278.248	8119
278.307	21577
278.367	13398
278.426	4376
278.486	2345
278.545	2608
278.605	2469
278.664	1545
278.724	3414
278.783	12353
278.843	35652
278.902	8728
278.962	5355
279.021	5034
279.081	7692
279.140	6170
279.199	4651
279.259	4096
279.318	5809
279.378	6193
279.437	14119
279.496	56921
279.556	173844
279.615	121668
279.675	29391
279.734	16517
279.793	26839
279.853	43846
279.912	14500
279.971	8042
280.031	7609
280.090	16246
280.149	28318
280.208	20694
280.268	109929
280.327	106114
280.386	23625
280.445	17149
280.505	14282
280.564	5700
280.623	5014
280.682	9232
280.742	13454
280.801	4080
280.860	2692
280.919	2879
280.978	2409
281.037	1309
281.097	1264
281.156	1803
281.215	3118
281.274	2957
281.333	21844
281.392	14840
281.451	3331
281.510	1749
281.569	1458
281.628	1212
281.688	1262
281.747	1568
281.806	1367
281.865	1097
281.924	816
281.983	1830
282.042	1215
282.101	-54
282.160	1759
282.219	593
282.278	2184
282.337	9509
282.396	5860
282.454	1494
282.513	3522
282.572	14789
282.631	7322
282.690	1634
282.749	1153
282.808	2107
282.867	1789
282.926	2231
282.985	1754
283.043	518
283.102	1478
283.161	2553
283.220	7437
283.279	17801
283.338	4959
283.396	1778
283.455	2104
283.514	1550
283.573	3427
283.631	2982
283.690	1740
283.749	668
283.808	5856
283.866	6825
283.925	729
283.984	958
284.043	2511
284.101	2429
284.160	1694
284.219	1802
284.277	2078
284.336	4105
284.395	22588
284.453	15717
284.512	4858
284.570	5819
284.629	4317
284.688	3913
284.746	3302
284.805	4069
284.863	5594
284.922	6580
284.981	9023
285.039	12395
285.098	24237
285.156	66209
285.215	207050
285.273	186250
285.332	69455
285.390	32464
285.449	18481
285.507	12289
285.566	8542
285.624	6009
285.683	5987
285.741	3605
285.799	3280
285.858	3175
285.916	2815
285.975	1347
286.033	1576
286.091	1006
286.150	570
286.208	1326
286.267	2107
286.325	941
286.383	4942
286.442	3480
286.500	1038
286.558	763
286.616	729
286.675	1862
286.733	1772
286.791	1552
286.850	1741
286.908	3516
286.966	6747
287.024	1539
287.083	1430
287.141	432
287.199	2061
287.257	3325
287.315	2224
287.374	1785
287.432	8416
287.490	4726
287.548	3326
287.606	1869
287.664	1863
287.723	3053
287.781	5728
287.839	3031
287.897	5564
287.955	7262
288.013	11898
288.071	28291
288.129	118670
288.187	307656
288.245	135390
288.303	43212
288.361	22875
288.419	14407
288.477	8651
288.535	5607
288.593	5761
288.651	3702
288.709	2440
288.767	2284
288.825	1706
288.883	1501
288.941	736
288.999	1439
289.057	1728
289.115	118
289.173	982
289.231	542
289.289	1732
289.346	883
289.404	1111
289.462	3748
289.520	3860
289.578	1410
289.636	570
289.694	-641
289.751	2
289.809	-430
289.867	567
289.925	1827
289.983	1856
290.040	49
290.098	-99
290.156	1119
290.214	1547
290.271	-39
290.329	-230
290.387	-598
290.444	124
290.502	-814
290.560	-423
290.617	-825
290.675	-156
290.733	-28
290.790	890
290.848	-201
290.906	139
290.963	-363
291.021	545
291.078	266
291.136	25
291.194	5479
291.251	13283
291.309	2564
291.366	1247
291.424	383
291.481	-333
291.539	232
291.596	228
291.654	-935
291.711	-322
291.769	42
291.826	4038
291.884	837
291.941	-583
291.999	-243
292.056	834
292.114	261
292.171	170
292.228	487
292.286	513
292.343	3617
292.401	4441
292.458	1680
292.515	476
292.573	1307
292.630	1695
292.687	2646
292.745	1152
292.802	419
292.859	5054
292.917	17332
292.974	10163
293.031	1704
293.089	958
293.146	-55
293.203	-34
293.260	533
293.318	1520
293.375	1216
293.432	642
293.489	-373
293.546	317
293.604	1691
293.661	13091
293.718	36651
293.775	14338
293.832	5760
293.889	3120
293.947	4522
294.004	2336
294.061	1808
294.118	6629
294.175	12000
294.232	9007
294.289	2238
294.346	1351
294.403	1732
294.460	2147
294.517	785
294.574	694
294.631	-266
294.688	2188
294.745	8091
294.802	36810
294.859	26641
294.916	10173
294.973	6458
295.030	4682
295.087	2239
295.144	2866
295.201	1526
295.258	1701
295.315	2706
295.372	15194
295.429	31026
295.486	10300
295.542	3817
295.599	7150
295.656	10577
295.713	12524
295.770	23226
295.827	8077
295.883	1935
295.940	2864
295.997	5531
296.054	5229
296.111	2031
296.167	1301
296.224	62
296.281	690
296.338	162
296.394	795
296.451	1554
296.508	11159
296.564	19280
296.621	11531
296.678	33095
296.734	45887
296.791	14369
296.848	6515
296.904	5651
296.961	15704
297.018	30624
297.074	20673
297.131	6785
297.187	4549
297.244	7888
297.301	34613
297.357	63971
297.414	19919
297.470	6239
297.527	3464
297.583	2513
297.640	2402
297.696	882
297.753	1152
297.809	-219
297.866	-166
297.922	540
297.979	828
298.035	682
298.092	4155
298.148	16216
298.204	15720
298.261	6553
298.317	13317
298.374	41093
298.430	21652
298.486	10621
298.543	6895
298.599	4910
298.656	5106
298.712	9886
298.768	35488
298.824	25898
298.881	7170
298.937	2960
298.993	3292
299.050	3167
299.106	1999
299.162	1834
299.218	2186
299.275	1192
299.331	2052
299.387	7544
299.443	36321
299.500	32136
299.556	10092
299.612	3871
299.668	2652
299.724	1828
299.780	2123
299.837	2116
299.893	4830
299.949	24491
300.005	28129
300.061	24366
300.117	45137
300.173	20464
300.229	7607
300.285	7915
300.341	9920
300.397	4434
300.453	2908
300.510	1789
300.566	1935
300.622	1092
300.678	5048
300.734	16536
300.790	24121
300.845	33534
300.901	17307
300.957	22798
301.013	17895
301.069	5860
301.125	3717
301.181	2702
301.237	2386
301.293	1308
301.349	731
301.405	991
301.461	1434
301.516	1998
301.572	1641
301.628	5809
301.684	4818
301.740	9847
301.796	16312
301.851	11252
301.907	19314
301.963	18421
302.019	37948
302.074	109452
302.130	102876
302.186	43231
302.242	16362
302.297	9737
302.353	8908
302.409	17869
302.464	15421
302.520	12067
302.576	35590
302.631	39389
302.687	18989
302.743	7455
302.798	4223
302.854	2235
302.910	2933
302.965	3480
303.021	8270
303.076	7814
303.132	10476
303.187	11337
303.243	5781
303.299	2406
303.354	1582
303.410	1367
303.465	647
303.521	621
303.576	1604
303.632	2699
303.687	8835
303.743	32917
303.798	26354
303.853	9106
303.909	4143
303.964	2997
304.020	5641
304.075	8946
304.130	8483
304.186	15205
304.241	15042
304.297	11285
304.352	5415
304.358	5119
304.407	2724
304.449	2910
304.463	2976
304.518	2276
304.539	2239
304.573	2177
304.629	2981
304.630	3048
304.684	6479
304.720	18354
304.739	24189
304.794	37731
304.811	31827
304.850	17872
304.902	6839
304.905	6133
304.960	3364
304.992	4014
305.015	4497
305.071	3191
305.083	2936
305.126	1963
305.173	860
305.181	706
305.236	1536
305.264	1699
305.292	1772
305.347	2004
305.354	2012
305.402	2228
305.445	3665
305.457	4054
305.512	5076
305.535	5026
305.567	4970
305.622	4649
305.626	4944
305.678	12147
305.716	28615
305.733	34284
305.788	36135
305.807	30648
305.843	22383
305.897	32715
305.898	32805
305.953	32057
305.988	19877
306.008	13527
306.063	6098
306.078	5446
306.118	4293
306.168	2483
306.173	2301
306.228	1948
306.259	1459
306.283	1233
306.338	1854
306.349	1960
306.393	2302
306.440	3692
306.448	3925
306.503	3021
306.530	3061
306.558	3721
306.613	8415
306.620	9265
306.668	16262
306.711	26436
306.723	27815
306.778	21515
306.801	15928
306.833	9883
306.888	4404
306.892	4154
306.943	1966
306.982	2377
306.997	2526
307.052	1645
307.072	1661
307.107	1942
307.162	2368
307.163	2381
307.217	4058
307.253	4839
307.272	4820
307.327	5332
307.343	4745
307.381	4155
307.434	4246
307.436	4397
307.491	10181
307.524	16341
307.546	18275
307.600	20415
307.614	18271
307.655	11437
307.704	5619
307.710	5304
307.765	6039
307.795	6773
307.819	7374
307.874	12166
307.885	12185
307.929	10967
307.975	10296
307.984	10890
308.038	17341
308.065	23034
308.093	44380
308.148	99606
308.156	113612
308.202	174910
308.246	201804
308.257	196684
308.312	102697
308.336	68945
308.366	49278
308.421	29310
308.426	27772
308.475	17490
308.517	11953
308.530	10679
308.585	8816
308.607	8280
308.639	7903
308.694	7879
308.697	7951
308.748	11684
308.787	15440
308.803	15310
308.857	12151
308.877	10826
308.912	10628
308.967	11547
308.967	11588
309.021	17381
309.058	22644
309.076	29960
309.130	56644
309.148	68096
309.185	135703
309.238	259104
309.239	259534
309.293	266311
309.328	225685
309.348	191904
309.402	85890
309.418	60975
309.457	39687
309.508	23759
309.511	23166
309.566	18672
309.598	17300
309.620	17743
309.674	21551
309.688	22673
309.729	21413
309.778	17080
309.783	16697
309.837	12767
309.868	11140
309.892	14922
309.946	26029
309.959	29575
310.001	36386
310.049	40410
310.055	39068
310.109	22336
310.139	12905
310.163	9844
310.218	5914
310.229	5391
310.272	4627
310.319	3792
310.326	3606
310.381	2673
310.409	2128
310.435	2233
310.489	2916
310.499	2979
310.543	2507
310.589	2179
310.598	2223
310.652	2596
310.679	2715
310.706	2215
310.760	1052
310.769	910
310.814	1490
310.859	1851
310.868	1782
310.923	1650
310.948	1530
310.977	1856
311.031	2549
311.038	2640
311.085	2215
311.128	1731
311.139	1762
311.193	1910
311.218	1945
311.247	1845
311.301	1689
311.308	1688
311.356	1681
311.398	1478
311.410	1466
311.464	1468
311.488	1434
311.518	1300
311.572	1152
311.578	1138
311.626	1965
311.668	2657
311.680	2720
311.734	2913
311.758	2994
311.788	2476
311.842	1601
311.847	1505
311.896	2686
311.937	3728
311.950	3645
312.004	3237
312.027	3045
312.058	2927
312.112	2729
312.117	2709
312.165	2154
312.207	1687
312.297	2192
312.386	1310
312.476	3063
312.566	6194
312.656	2360
312.745	805
312.835	1919
312.925	1637
313.015	2039
313.104	1764
313.194	2189
313.284	2043
313.374	2849
313.463	2163
313.553	2787
313.643	1063
313.732	1178
313.822	1469
313.912	1629
314.001	1844
314.091	1966
314.180	2081
314.270	3216
314.360	3140
314.449	2729
314.539	1294
314.628	1863
314.718	1102
314.808	2074
314.897	693
314.987	2097
315.076	2971
315.166	4035
315.255	2780
315.345	3306
315.434	2706
315.524	2769
315.613	2978
315.703	4388
315.792	3788
315.881	4737
315.971	2066
316.060	5950
316.150	5914
316.239	7159
316.328	1642
316.418	2231
316.507	2368
316.597	3302
316.686	2305
316.775	3489
316.865	5202
316.954	2008
317.043	1547
317.133	1451
317.222	1133
317.311	1560
317.400	1047
317.490	4182
317.579	2878
317.668	1947
317.757	3115
317.847	5660
317.936	8926
318.025	9497
318.114	3323
318.203	2826
318.293	4058
318.382	7308
318.471	5771
318.560	7359
318.649	11210
318.738	2832
318.828	3338
318.917	3196
319.006	3858
319.095	8706
319.184	18065
319.273	15248
319.362	8676
319.451	3174
319.540	3488
319.629	10075
319.718	12963
319.807	3227
319.896	8649
319.985	25069
320.074	9413
320.163	2787
320.252	4079
320.341	3038
320.430	2627
320.519	6728
320.608	2922
320.697	1914
320.786	1899
320.875	4017
320.964	5824
321.053	10319
321.142	15921
321.230	13961
321.319	10860
321.408	23596
321.497	6866
321.586	10004
321.675	8619
321.764	7334
321.852	5314
321.941	14621
322.030	7104
322.119	10371
322.207	25248
322.296	9548
322.385	3668
322.474	10222
322.562	34294
322.651	11004
322.740	11559
322.829	13966
322.917	9422
323.006	8131
323.095	6314
323.183	4096
323.272	6657
323.361	13814
323.449	31495
323.538	8815
323.626	22161
323.715	11039
323.804	4856
323.892	20159
323.981	9794
324.069	3262
324.158	10551
324.246	7553
324.335	5105
324.424	8571
324.512	2640
324.601	3273
324.689	5805
324.778	8823
324.866	6840
324.954	1417
325.043	2284
325.131	4733
325.220	6866
325.308	7861
325.397	6973
325.485	3727
325.574	1591
325.662	2253
325.750	1883
325.839	2559
325.927	1325
326.015	2589
326.104	3154
326.192	4386
326.280	1475
326.369	2025
326.457	3339
326.545	6819
326.634	2392
326.722	1434
326.810	925
326.898	1857
326.987	2167
327.075	7374
327.163	5455
327.251	1324
327.340	2282
327.428	3258
327.516	744
327.604	1261
327.692	1738
327.781	1837
327.869	2894
327.957	1745
328.045	2159
328.133	1432
328.221	1254
328.309	1770
328.397	1381
328.485	2447
328.574	4131
328.662	18502
328.750	5578
328.838	2090
328.926	1213
329.014	1090
329.102	1982
329.190	6396
329.278	3764
329.366	1404
329.454	394
329.542	1258
329.630	-128
329.718	1522
329.806	1809
329.893	1022
329.981	702
330.069	2025
330.157	6361
330.245	16548
330.333	7209
330.421	2092
330.509	4431
330.597	22526
330.684	9687
330.772	2578
330.860	1439
330.948	3025
331.036	1244
331.123	600
331.211	398
331.299	1431
331.387	2414
331.475	6401
331.562	1588
331.650	1399
331.738	543
331.825	2275
331.913	1440
332.001	1129
332.089	471
332.176	2721
332.264	8440
332.352	5636
332.439	2151
332.527	1990
332.614	1101
332.702	1306
332.790	991
332.877	5187
332.965	7274
333.052	2126
333.140	1873
333.228	5820
333.315	922
333.403	1628
333.490	4507
333.578	4192
333.665	7200
333.753	4236
333.840	1223
333.928	1743
334.015	4496
334.103	8844
334.190	24359
334.278	4226
334.365	2160
334.452	1811
334.540	1513
334.627	1160
334.715	2015
334.802	5129
334.889	37944
334.977	28574
335.064	2126
335.151	1741
335.239	1298
335.326	2310
335.413	11191
335.501	12347
335.588	1384
335.675	1696
335.762	1447
335.850	1964
335.937	1594
336.024	7862
336.111	32100
336.199	9173
336.286	1500
336.373	1169
336.460	467
336.547	1263
336.635	1342
336.722	1951
336.809	718
336.896	2612
336.983	7623
337.070	17452
337.157	22196
337.245	22013
337.332	11898
337.419	1758
337.506	902
337.593	420
337.680	4022
337.767	11035
337.854	3924
337.941	5002
338.028	6834
338.115	1444
338.202	2292
338.289	6084
338.376	20272
338.463	5444
338.550	6987
338.637	6363
338.724	3223
338.811	4825
338.898	1352
338.984	737
339.071	508
339.158	2827
339.245	8522
339.332	4189
339.419	4843
339.506	3879
339.593	-262
339.679	2022
339.766	698
339.853	3039
339.940	6935
340.027	1683
340.113	2124
340.200	2883
340.287	1616
340.374	3595
340.460	4979
340.547	2154
340.634	5485
340.720	22695
340.807	8815
340.894	2201
340.980	1287
341.067	1464
341.154	2169
341.240	4004
341.327	8900
341.414	2688
341.500	1991
341.587	2426
341.674	1319
341.760	7420
341.847	7163
341.933	2096
342.020	-127
342.106	1193
342.193	2109
342.279	5466
342.366	3314
342.452	6331
342.539	2524
342.625	10217
342.712	22363
342.798	8483
342.885	2650
342.971	298
343.058	684
343.144	1052
343.230	1490
343.317	1644
343.403	783
343.490	677
343.576	-349
343.662	1266
343.749	2223
343.835	2544
343.921	7395
344.008	64129
344.094	117409
344.180	20260
344.267	6179
344.353	29063
344.439	22090
344.525	9332
344.612	4406
344.698	3892
344.784	2365
344.870	2072
344.957	1945
345.043	3805
345.129	1334
345.215	5683
345.301	2529
345.387	1640
345.474	-73
345.560	1112
345.646	932
345.732	610
345.818	1543
345.904	2135
345.990	1427
346.076	1908
346.162	1752
346.249	1675
346.335	846
346.421	2516
346.507	13355
346.593	41627
346.679	6577
346.765	2125
346.851	1429
346.937	1051
347.023	1098
347.108	2513
347.194	1360
347.280	1419
347.366	1986
347.452	13542
347.538	52160
347.624	34440
347.710	21581
347.796	2568
347.882	1013
347.967	730
348.053	1193
348.139	1431
348.225	600
348.311	1177
348.397	746
348.482	2866
348.568	1315
348.654	365
348.740	-80
348.825	-237
348.911	4873
348.997	27571
349.083	43597
349.168	4542
349.254	1321
349.340	1399
349.425	1069
349.511	2581
349.597	1979
349.682	7415
349.768	25309
349.854	10058
349.939	293
350.025	1195
350.110	624
350.196	811
350.282	-139
350.367	979
350.453	1774
350.538	2398
350.624	1748
350.709	1909
350.795	404
350.880	1368
350.966	1462
351.051	2460
351.137	1054
351.222	2199
351.308	8111
351.393	19693
351.479	3716
351.564	1449
351.649	1236
351.735	1216
351.820	1480
351.906	703
351.991	2126
352.076	15825
352.162	18436
352.247	3516
352.332	2387
352.418	4640
352.503	6861
352.588	32352
352.673	21812
352.759	5195
352.844	1417
352.929	2837
353.014	3188
353.100	2712
353.185	4979
353.270	7446
353.355	6623
353.441	1699
353.526	1505
353.611	7477
353.696	7135
353.781	4714
353.866	774
353.952	2506
354.037	6937
354.122	16215
354.207	14166
354.292	5655
354.377	1635
354.462	1342
354.547	2298
354.632	2519
354.717	3277
354.802	4608
354.887	1823
354.972	920
355.057	42
355.142	13
355.227	2099
355.312	4665
355.397	10641
355.482	27649
355.567	10798
355.652	7816
355.737	9445
355.822	33194
355.907	21349
355.991	3590
356.076	1018
356.161	1625
356.246	868
356.331	2047
356.416	7831
356.501	62957
356.585	53139
356.670	5429
356.755	4672
356.840	7510
356.924	46380
357.009	144031
357.094	44311
357.179	7780
357.263	3776
357.348	6353
357.433	5171
357.517	4854
357.602	3204
357.687	2625
357.771	4981
357.856	10646
357.941	7652
358.025	37373
358.110	145984
358.195	56384
358.279	5992
358.364	4552
358.448	22626
358.533	56827
358.617	37559
358.702	38296
358.787	12335
358.871	6962
358.956	4975
359.040	1743
359.125	1153
359.209	1633
359.294	5175
359.378	7513
359.462	4935
359.547	2361
359.631	1253
359.716	351
359.800	425
359.885	2981
359.969	948
360.053	1861
360.138	1059
360.222	3289
360.306	6376
360.391	4454
360.475	8829
360.559	18317
360.644	21126
360.728	14326
360.812	36841
360.896	86125
360.981	27633
361.065	10967
361.149	3456
361.233	3467
361.318	1280
361.402	2037
361.486	2504
361.570	1977
361.654	3256
361.739	12133
361.823	62619
361.907	83563
361.991	10188
362.075	7080
362.159	14189
362.243	9198
362.327	3276
362.411	4638
362.495	2584
362.580	2048
362.664	758
362.748	550
362.832	501
362.916	1265
363.000	7833
363.084	54605
363.168	92303
363.252	17790
363.336	3915
363.420	6784
363.503	15459
363.587	15282
363.671	3628
363.755	2940
363.839	5109
363.923	2258
364.007	6036
364.091	6183
364.175	5494
364.258	23696
364.342	10206
364.426	7125
364.510	2244
364.594	5955
364.677	16025
364.761	76788
364.845	47613
364.929	12781
365.013	9784
365.096	8994
365.180	8806
365.264	8304
365.347	23511
365.431	9180
365.515	1342
365.598	1540
365.682	1757
365.766	1049
365.849	1642
365.933	2115
366.017	2516
366.100	321
366.184	97
366.267	2114
366.351	1568
366.435	522
366.518	50
366.602	1435
366.685	1054
366.769	2017
366.852	2036
366.936	6878
367.019	2745
367.103	643
367.186	2103
367.270	945
367.353	-114
367.436	1554
367.520	113
367.603	1658
367.687	3202
367.770	8571
367.853	5173
367.937	20390
368.020	28980
368.104	5171
368.187	6619
368.270	8706
368.353	7488
368.437	9060
368.520	12500
368.603	11114
368.687	22249
368.770	38505
368.853	7406
368.936	7906
369.020	4627
369.103	2105
369.186	711
369.269	256
369.352	5246
369.436	8009
369.519	3360
369.602	381
369.685	2437
369.768	2641
369.851	1939
369.934	573
370.018	1699
370.101	6453
370.184	5355
370.267	2824
370.350	5188
370.433	10195
370.516	34411
370.599	35996
370.682	7510
370.765	19420
370.848	27890
370.931	50514
371.014	16419
371.097	1448
371.180	1855
371.263	795
371.346	-602
371.429	1716
371.511	714
371.594	3450
371.677	5792
371.760	4739
371.843	6978
371.926	55291
372.009	111752
372.091	29864
372.174	20605
372.257	48147
372.340	15917
372.423	6951
372.505	6869
372.588	2806
372.671	17726
372.754	50829
372.836	21429
372.919	8009
373.002	11449
373.085	5611
373.167	6968
373.250	22586
373.332	48019
373.415	80705
373.498	149104
373.580	50056
373.663	67680
373.746	87198
373.828	14793
373.911	5959
373.993	4736
374.076	11804
374.159	11391
374.241	12351
374.324	40904
374.406	26492
374.489	48949
374.571	118855
374.654	43471
374.736	23598
374.819	74626
374.901	113567
374.983	106739
375.066	14706
375.148	3308
375.231	11200
375.313	19874
375.395	6928
375.478	1291
375.560	2235
375.643	3817
375.725	26062
375.807	94682
375.890	58972
375.972	13328
376.054	8962
376.136	10258
376.219	6328
376.301	30146
376.383	76054
376.465	27291
376.548	15676
376.630	23769
376.712	62081
376.794	26279
376.877	1847
376.959	1137
377.041	1924
377.123	1750
377.205	2157
377.287	307
377.369	1234
377.452	805
377.534	1364
377.616	931
377.698	114
377.780	-472
377.862	1661
377.944	1540
378.026	109
378.108	1056
378.190	855
378.272	1103
378.354	135
378.436	-553
378.518	1809
378.600	6631
378.682	10719
378.764	26724
378.846	20466
378.928	4373
379.010	5793
379.091	3009
379.173	1497
379.255	1024
379.337	3582
379.419	15401
379.501	39094
379.583	13412
379.664	3601
379.746	9582
379.828	27234
379.910	36627
379.991	30408
380.073	3924
380.155	2126
380.237	2126
380.318	1969
380.400	1348
380.482	6101
380.564	8891
380.645	8306
380.727	7164
380.809	4476
380.890	1677
380.972	1145
381.053	1255
381.135	2988
381.217	9252
381.298	26463
381.380	11476
381.461	14569
381.543	67070
381.624	74095
381.706	10598
381.787	3991
381.869	5190
381.951	36406
382.032	116246
382.113	66894
382.195	8174
382.276	6888
382.358	20508
382.439	56173
382.521	70233
382.602	102628
382.684	44223
382.765	72276
382.846	62815
382.928	58678
383.009	31173
383.090	27601
383.172	99476
383.253	134790
383.334	57791
383.416	80534
383.497	38529
383.578	11258
383.659	23293
383.741	96989
383.822	214843
383.903	105051
383.984	53680
384.066	98219
384.147	55390
384.228	9006
384.309	6127
384.390	4293
384.471	1870
384.553	3430
384.634	5585
384.715	6212
384.796	2141
384.877	5729
384.958	26044
385.039	28180
385.120	7752
385.201	3911
385.282	3107
385.363	3476
385.444	2581
385.525	11369
385.606	42363
385.687	35213
385.768	4497
385.849	9111
385.930	55423
386.011	90217
386.092	19340
386.173	3180
386.254	2032
386.335	3180
386.416	2992
386.496	16347
386.577	23199
386.658	7403
386.739	2640
386.820	2524
386.901	687
386.981	2896
387.062	699
387.143	5953
387.224	25376
387.304	20769
387.385	5593
387.466	1229
387.547	2268
387.627	1525
387.708	11442
387.789	51183
387.869	57659
387.950	14484
388.031	1271
388.111	-329
388.192	3370
388.273	4978
388.353	2727
388.434	3240
388.514	12115
388.595	56170
388.676	63726
388.756	25679
388.837	24073
388.917	13595
388.998	184
389.078	2239
389.159	1816
389.239	1442
389.320	3927
389.400	2267
389.480	9471
389.561	25510
389.641	12472
389.722	3983
389.802	5318
389.883	13125
389.963	33996
390.043	18304
390.124	2304
390.204	10003
390.284	29455
390.365	17598
390.445	25158
390.525	91311
390.605	83031
390.686	16274
390.766	4413
390.846	3163
390.927	547
391.007	787
391.087	1660
391.167	1106
391.247	-759
391.328	2460
391.408	2751
391.488	2387
391.568	-1106
391.648	2244
391.728	3891
391.808	4501
391.888	4965
391.969	15362
392.049	20945
392.129	7659
392.209	11701
392.289	30661
392.369	12663
392.449	4761
392.529	2222
392.609	4757
392.689	9273
392.769	29665
392.849	23547
392.929	13844
393.009	35152
393.089	23653
393.169	7233
393.248	34459
393.328	166326
393.408	171598
393.488	26860
393.568	5440
393.648	3089
393.728	2252
393.807	1726
393.887	3019
393.967	2531
394.047	4143
394.127	5246
394.206	15041
394.286	75045
394.366	289545
394.446	285868
394.525	58966
394.605	11716
394.685	7958
394.764	10349
394.844	14073
394.924	9265
395.003	4840
395.083	3713
395.163	3644
395.242	2877
395.322	3729
395.402	1119
395.481	4459
395.561	6756
395.640	17913
395.720	15289
395.799	17406
395.879	16147
395.958	23625
396.038	110770
396.117	381660
396.197	385393
396.276	97060
396.356	22113
396.435	11077
396.515	7543
396.594	7420
396.673	11653
396.753	46300
396.832	152256
396.912	119616
396.991	27815
397.070	6207
397.150	1717
397.229	2547
397.308	1201
397.388	1349
397.467	1532
397.546	783
397.625	34
397.705	3735
397.784	2428
397.863	836
397.942	-142
398.022	-49
398.101	3361
398.180	11247
398.259	4805
398.338	2326
398.417	1564
398.497	38
398.576	1266
398.655	-440
398.734	39
398.813	834
398.892	4743
398.971	13459
399.050	5122
399.129	-221
399.208	-495
399.287	661
399.366	-1053
399.445	-262
399.524	5
399.603	-859
399.682	1949
399.761	8094
399.840	16979
399.919	10892
399.998	474
400.077	-796
400.156	-1025
400.235	2412
400.313	-298
400.392	1609
400.471	14159
400.550	22049
400.629	3997
400.708	1565
400.786	-300
400.865	873
400.944	1086
401.023	3712
401.102	-592
401.180	154
401.259	154
401.338	139
401.416	553
401.495	1526
401.574	422
401.652	722
401.731	1570
401.810	4
401.888	-231
401.967	-731
402.046	-986
402.124	1777
402.203	775
402.281	1224
402.360	122
402.438	3187
402.517	-27
402.596	1037
402.674	-503
402.753	-19
402.831	-185
402.910	1851
402.988	8860
403.066	28548
403.145	16275
403.223	10273
403.302	22329
403.380	18210
403.459	14472
403.537	5285
403.615	1337
403.694	-416
403.772	-204
403.850	187
403.929	-370
404.007	287
404.085	3327
404.164	3523
404.242	787
404.320	7506
404.398	20658
404.477	32423
404.555	84650
404.633	71373
404.711	17933
404.789	7588
404.868	792
404.946	286
405.024	-225
405.102	-278
405.180	-1165
405.258	-801
405.336	231
405.415	-469
405.493	1299
405.571	2853
405.649	-930
405.727	-1340
405.805	1826
405.883	512
405.961	242
406.039	266
406.117	-1221
406.195	3311
406.273	21034
406.351	64980
406.429	35698
406.507	2859
406.585	81
406.663	1156
406.740	1781
406.818	1371
406.896	-205
406.974	2165
407.052	5587
407.130	38785
407.208	49182
407.285	9727
407.363	-367
407.441	-16
407.519	-403
407.596	1327
407.674	2128
407.752	6737
407.830	5725
407.907	2474
407.985	26
408.063	1478
408.141	-1151
408.218	738
408.296	-409
408.373	1053
408.451	792
408.529	1419
408.606	-337
408.684	43
408.762	-638
408.839	-677
408.917	-1495
408.994	-485
409.072	-1718
409.149	-543
409.227	-598
409.304	-199
409.382	-776
409.459	-1411
409.537	26
409.614	-199
409.692	-255
409.769	-1000
409.846	-307
409.924	1445
410.001	-1773
410.079	-167
410.156	-208
410.233	1087
410.311	522
410.388	-60
410.465	171
410.543	129
410.620	-634
410.697	744
410.775	229
410.852	-893
410.929	1065
411.006	1600
411.083	-685
411.161	398
411.238	509
411.315	128
411.392	-498
411.469	1123
411.547	190
411.624	-1229
411.701	-723
411.778	1397
411.855	3787
411.932	1109
412.009	-583
412.086	-215
412.163	88
412.240	102
412.317	508
412.394	-216
412.471	-486
412.548	-430
412.625	-589
412.702	118
412.779	1196
412.856	718
412.933	-1775
413.010	-126
413.087	1484
413.164	11611
413.241	16348
413.318	2854
413.395	1786
413.471	2664
413.548	348
413.625	497
413.702	-1176
413.779	215
413.855	-469
413.932	-1714
414.009	-1851
414.086	-871
414.162	-284
414.239	1479
414.316	13563
414.393	27593
414.469	8832
414.546	-702
414.623	-335
414.699	-55
414.776	-140
414.853	117
414.929	-732
415.006	-1077
415.082	-771
415.159	-437
415.236	-504
415.312	846
415.389	2172
415.465	2932
415.542	574
415.618	-59
415.695	1832
415.771	1261
415.848	142
415.924	139
416.000	-1648
416.077	-44
416.153	-1435
416.230	-988
416.306	-1030
416.383	-628
416.459	-392
416.535	-1219
416.612	-1523
416.688	-134
416.764	-1104
416.841	-1102
416.917	-1153
416.993	-68
417.069	-355
417.146	571
417.222	1664
417.298	1244
417.374	-630
417.451	408
417.527	609
417.603	1244
417.679	655
417.755	817
417.831	-926
417.908	165
417.984	-1168
418.060	-702
418.136	2566
418.212	3768
418.288	447
418.364	487
418.440	-401
418.516	1666
418.592	861
418.668	4083
418.744	6805
418.820	5597
418.896	-576
418.972	-1148
419.048	-361
419.124	3409
419.200	901
419.276	-315
419.352	-1749
419.428	191
419.504	-762
419.579	823
419.655	381
419.731	931
419.807	5557
419.883	10209
419.959	5729
420.034	1492
420.110	3991
420.186	16790
420.262	12714
420.337	847
420.413	-635
420.489	-523
420.565	11
420.640	-1086
420.716	144
420.792	-1520
420.867	-485
420.943	-1117
421.019	696
421.094	719
421.170	-661
421.245	-1237
421.321	-1124
421.397	-522
421.472	330
421.548	2075
421.623	1660
421.699	512
421.774	300
421.850	-264
421.925	1438
422.001	1025
422.076	-637
422.152	296
422.227	446
422.302	2538
422.378	811
422.453	1742
422.529	6967
422.604	44366
422.679	96348
422.755	46187
422.830	6416
422.905	1258
422.981	-553
423.056	-154
423.131	-141
423.207	-464
423.282	-172
423.357	4227
423.432	1533
423.508	2545
423.583	6844
423.658	5736
423.733	-193
423.808	1043
423.883	927
423.959	444
424.034	-853
424.109	-703
424.184	-1277
424.259	-1062
424.334	-1000
424.409	-799
424.484	-1122
424.559	-865
424.634	-1108
424.709	209
424.784	1031
424.859	1116
424.934	2268
425.009	13021
425.084	18599
425.159	6416
425.234	-111
425.309	-740
425.384	1482
425.459	2360
425.534	-287
425.609	-590
425.683	-1278
425.758	-807
425.833	-291
425.908	1582
425.983	7333
426.058	21851
426.132	7760
426.207	696
426.282	-147
426.357	-1018
426.431	-1086
426.506	371
426.581	-901
426.655	-277
426.730	-261
426.805	-585
426.879	-564
426.954	-246
427.029	3348
427.103	24180
427.178	54705
427.253	22315
427.327	1432
427.402	471
427.476	2779
427.551	319
427.625	-890
427.700	-15
427.774	-934
427.849	-10
427.923	-1946
427.998	-445
428.072	-718
428.147	845
428.221	4615
428.296	7162
428.370	1076
428.444	-259
428.519	-377
428.593	1670
428.667	443
428.742	1257
428.816	947
428.890	4958
428.965	5434
429.039	1973
429.113	974
429.188	-24
429.262	-1255
429.336	1973
429.410	7523
429.485	4227
429.559	293
429.633	632
429.707	-1740
429.781	1004
429.855	6998
429.930	12879
430.004	8135
430.078	9695
430.152	7891
430.226	9023
430.300	8234
430.374	-969
430.448	327
430.522	3722
430.596	11201
430.670	10509
430.744	31726
430.818	51871
430.892	11660
430.966	78
431.040	-191
431.114	-1293
431.188	-1352
431.262	-566
431.336	-1711
431.410	1192
431.484	3472
431.557	3226
431.631	-813
431.705	-910
431.779	-788
431.853	3333
431.927	1567
432.000	-117
432.074	-554
432.148	-1065
432.222	-1372
432.295	-479
432.369	-844
432.443	1709
432.516	23559
432.590	54725
432.664	18412
432.737	1432
432.811	-1220
432.885	-784
432.958	-816
433.032	-835
433.106	-1468
433.179	-696
433.253	-653
433.326	-597
433.400	-2042
433.473	-381
433.547	-2245
433.620	-56
433.694	1049
433.767	947
433.841	-2025
433.914	-916
433.988	-1539
434.061	-128
434.134	-1646
434.208	-1058
434.281	-1769
434.355	-1312
434.428	-999
434.501	-1013
434.575	-1566
434.648	-1020
434.721	-1616
434.795	-549
434.868	-1416
434.941	-1598
435.014	-1642
435.088	-1067
435.161	-972
435.234	459
435.307	-42
435.381	-137
435.454	-1127
435.527	-1208
435.600	-1252
435.673	-1070
435.746	-1398
435.819	-1210
435.892	-1133
435.966	-1563
436.039	-1937
436.112	-57
436.185	-1332
436.258	-550
436.331	-1943
436.404	-1068
436.477	-1216
436.550	-1249
436.623	-495
436.696	-1360
436.769	-906
436.842	-536
436.915	-799
436.987	-262
437.060	-1026
437.133	-1361
437.206	-1043
437.279	-650
437.352	-1266
437.425	-1053
437.498	-195
437.570	986
437.643	513
437.716	-397
437.789	-1335
437.861	276
437.934	1184
438.007	787
438.080	-1532
438.152	-349
438.225	3879
438.298	37409
438.370	85727
438.443	33264
438.516	3175
438.588	-385
438.661	-1168
438.734	-791
438.806	-643
438.879	-161
438.951	-409
439.024	617
439.096	-463
439.169	-573
439.241	-922
439.314	-1699
439.386	-851
439.459	300
439.531	293
439.604	-321
439.676	-946
439.749	-1302
439.821	-1150
439.893	-320
439.966	-1268
440.038	-620
440.110	-818
440.183	-547
440.255	-1216
440.327	347
440.400	11944
440.472	49548
440.544	32600
440.617	2593
440.689	1124
440.761	697
440.833	1857
440.905	1585
440.978	-1486
441.050	-1171
441.122	-954
441.194	-867
441.266	-1268
441.338	-780
441.411	1207
441.483	14823
441.555	20452
441.627	3875
441.699	-896
441.771	-390
441.843	-1288
441.915	-606
441.987	-1625
442.059	-797
442.131	-1099
442.203	-294
442.275	-626
442.347	620
442.419	-864
442.491	1166
442.563	2601
442.635	1911
442.706	3325
442.778	3882
442.850	-1351
442.922	-901
442.994	-1522
443.066	-306
443.137	-512
443.209	-701
443.281	-1077
443.353	927
443.425	2025
443.496	5777
443.568	5679
443.640	1082
443.711	-309
443.783	-748
443.855	-1979
443.926	-946
443.998	-2010
444.070	-367
444.141	-945
444.213	510
444.285	1569
444.356	1564
444.428	-356
444.499	-689
444.571	-1198
444.642	-1100
444.714	-623
444.785	1172
444.857	-169
444.928	1606
445.000	114
445.071	543
445.143	774
445.214	18
445.285	-228
445.357	2744
445.428	6433
445.500	13626
445.571	8370
445.642	2873
445.714	1439
445.785	3197
445.856	602
445.928	1770
445.999	424
446.070	-17
446.141	42
446.213	2067
446.284	-1086
446.355	-697
446.426	-1707
446.497	-824
446.569	110
446.640	1851
446.711	1026
446.782	-569
446.853	-577
446.924	189
446.995	-235
447.066	-19
447.138	-232
447.209	-643
447.280	-553
447.351	-914
447.422	-1959
447.493	414
447.564	661
447.635	1884
447.706	-548
447.777	-1006
447.847	-1351
447.918	-1308
447.989	-532
448.060	207
448.131	325
448.202	2297
448.273	958
448.344	346
448.414	-386
448.485	-1044
448.556	-708
448.627	-631
448.698	-593
448.768	-713
448.839	-1808
448.910	-221
448.981	-232
449.051	-630
449.122	-1701
449.193	-540
449.263	-324
449.334	-704
449.405	-421
449.475	2723
449.546	1458
449.616	365
449.687	477
449.758	-794
449.828	-1409
449.899	-872
449.969	-1399
450.040	-1121
450.110	-106
450.181	-12
450.251	-1671
450.322	-854
450.392	-795
450.463	-669
450.533	-1029
450.604	-543
450.674	-1142
450.744	-277
450.815	-1792
450.885	-714
450.955	-423
451.026	-770
451.096	-2176
451.166	-981
451.237	-458
451.307	1619
451.377	354
451.447	-752
451.518	-2183
451.588	-1285
451.658	-584
451.728	-788
451.799	1668
451.869	3167
451.939	-385
452.009	-957
452.079	-1525
452.149	-549
452.219	-627
452.289	3431
452.360	1655
452.430	199
452.500	-468
452.570	-9
452.640	-568
452.710	693
452.780	3240
452.850	5376
452.920	6235
452.990	1839
453.060	-78
453.129	594
453.199	344
453.269	4328
453.339	10969
453.409	17642
453.479	14131
453.549	22680
453.619	21278
453.688	10053
453.758	556
453.828	-533
453.898	-972
453.968	-545
454.037	-973
454.087	-378
454.107	-142
454.168	-898
454.177	-1025
454.247	-317
454.249	-316
454.316	-675
454.330	-661
454.386	-683
454.411	-277
454.456	284
454.492	1077
454.525	1774
454.574	951
454.595	607
454.655	-263
454.665	-412
454.734	-720
454.736	-662
454.804	497
454.817	928
454.873	2516
454.898	2969
454.943	3748
454.979	2632
455.013	1663
455.060	440
455.082	-57
455.141	497
455.152	744
455.221	5477
455.222	5628
455.291	9882
455.303	11615
455.360	17346
455.384	24241
455.430	33131
455.465	23996
455.499	17055
455.546	8515
455.569	4556
455.627	3564
455.638	3438
455.707	634
455.708	647
455.777	220
455.789	15
455.846	-868
455.869	-525
455.916	53
455.950	-89
455.985	-334
456.031	-183
456.054	-32
456.112	139
456.124	155
456.193	-60
456.193	-77
456.262	-141
456.274	48
456.332	990
456.355	869
456.401	444
456.436	325
456.470	296
456.516	279
456.540	225
456.597	39
456.609	4
456.678	-427
456.678	-443
456.747	-295
456.759	-330
456.817	-321
456.840	-284
456.886	-303
456.920	-84
456.955	142
457.001	193
457.024	281
457.082	353
457.093	328
457.162	1015
457.163	1030
457.232	934
457.243	833
457.301	259
457.324	-177
457.370	-759
457.405	34
457.439	683
457.485	99
457.508	-184
457.566	511
457.577	667
457.646	416
457.647	433
457.715	762
457.727	737
457.784	813
457.808	1036
457.853	1164
457.889	979
457.922	956
457.969	1400
457.991	1571
458.050	1552
458.060	1496
458.129	1479
458.130	1480
458.198	1017
458.211	1069
458.267	1029
458.292	694
458.336	461
458.372	890
458.405	1268
458.453	1031
458.474	865
458.533	1017
458.543	1087
458.611	2359
458.614	2392
458.680	1721
458.694	1481
458.749	966
458.775	876
458.818	765
458.855	472
458.887	279
458.936	640
458.955	746
459.016	324
459.024	332
459.093	1498
459.097	1525
459.162	1246
459.177	1267
459.230	1700
459.257	1889
459.299	1847
459.338	2019
459.368	2163
459.418	1959
459.437	1828
459.499	1604
459.505	1606
459.574	1033
459.579	1067
459.643	1346
459.659	1365
459.711	1541
459.740	1665
459.780	1942
459.820	2106
459.849	1776
459.900	1546
459.917	1773
459.981	2126
459.986	2080
460.054	2009
460.061	1981
460.123	2425
460.141	2573
460.191	3196
460.222	3630
460.260	3612
460.302	3878
460.328	3664
460.382	2761
460.397	2721
460.462	2150
460.465	2198
460.534	3909
460.543	4162
460.602	6727
460.623	7696
460.671	11315
460.703	14548
460.739	11947
460.783	7976
460.808	7313
460.864	3315
460.876	2913
460.944	1946
460.945	1936
461.013	2492
461.024	2493
461.081	2150
461.104	2429
461.150	2877
461.184	2754
461.218	2471
461.264	2177
461.286	2290
461.345	2254
461.355	2152
461.423	2293
461.425	2270
461.491	1712
461.505	1848
461.559	3330
461.585	3669
461.628	4500
461.665	5800
461.696	6185
461.745	7015
461.764	6468
461.825	3603
461.832	3621
461.901	2881
461.905	2919
461.969	1756
461.985	1412
462.037	2114
462.065	2530
462.105	2513
462.145	2571
462.173	3041
462.225	3752
462.241	3922
462.305	4886
462.310	4800
462.378	3731
462.385	3479
462.446	2850
462.465	2718
462.514	2278
462.545	2342
462.582	2566
462.625	2663
462.650	2704
462.705	2637
462.718	2557
462.785	2591
462.786	2608
462.854	2778
462.865	2908
462.922	2862
462.945	2938
462.990	3177
463.025	3029
463.058	2632
463.104	1864
463.126	1825
463.184	2489
463.194	2678
463.262	3038
463.264	3081
463.330	2785
463.344	2604
463.398	2993
463.424	3149
463.466	2608
463.504	2162
463.533	2579
463.583	3345
463.601	3339
463.663	3186
463.669	3274
463.737	4509
463.743	4610
463.805	5241
463.823	5449
463.873	7248
463.903	8334
463.940	8058
463.982	7749
464.008	6622
464.062	3848
464.076	3718
464.142	2915
464.144	2920
464.211	3193
464.221	3261
464.279	3471
464.301	3518
464.347	3854
464.381	4257
464.414	4125
464.461	3684
464.482	3765
464.540	4215
464.550	4343
464.617	4769
464.620	4787
464.685	6326
464.699	6650
464.753	7253
464.779	7559
464.820	7872
464.859	8143
464.888	7254
464.938	5669
464.956	6017
465.018	6978
465.023	6931
465.091	6382
465.098	6315
465.158	5655
465.177	5436
465.226	5519
465.257	5563
465.293	5969
465.336	6490
465.361	7068
465.416	8199
465.428	8275
465.495	8805
465.496	8826
465.563	9740
465.575	9939
465.631	10533
465.654	10730
465.698	8405
465.734	6389
465.765	6253
465.813	5795
465.833	5635
465.893	5479
465.900	5610
465.968	6556
465.972	6616
466.035	5664
466.052	5378
466.102	5577
466.131	5725
466.170	5725
466.210	5620
466.237	5846
466.290	6338
466.304	6313
466.369	6012
466.372	6043
466.439	6700
466.449	6774
466.506	7168
466.528	7328
466.573	9181
466.607	10477
466.641	12582
466.687	15534
466.708	16168
466.766	17900
466.775	16919
466.842	9234
466.845	8851
466.909	7889
466.925	7666
466.977	7644
467.004	7636
467.044	8044
467.083	8428
467.111	9622
467.163	11805
467.178	11982
467.242	12610
467.245	12530
467.312	10355
467.321	10049
467.379	10012
467.400	9967
467.446	10141
467.480	10235
467.559	9256
467.638	9224
467.717	9254
467.796	10915
467.875	11765
467.955	9317
468.034	12343
468.113	16260
468.192	19746
468.271	9315
468.350	7285
468.429	7809
468.508	7816
468.588	7658
468.667	7857
468.746	8780
468.825	8712
468.904	7937
468.983	8731
469.062	10629
469.141	11072
469.220	7257
469.299	8120
469.378	8010
469.456	12313
469.535	9717
469.614	9661
469.693	9727
469.772	10546
469.851	11827
469.930	9645
470.009	9088
470.088	8923
470.166	10137
470.245	13331
470.324	12373
470.403	10740
470.482	9068
470.560	9402
470.639	10258
470.718	12157
470.797	8535
470.875	10445
470.954	10344
471.033	9705
471.111	6326
471.190	7728
471.269	6305
471.347	6985
471.426	7862
471.505	9579
471.583	8732
471.662	8814
471.740	7234
471.819	7894
471.898	6604
471.976	9031
472.055	7658
472.133	8205
472.212	9101
472.290	8095
472.369	6788
472.447	7177
472.526	7067
472.604	8335
472.683	8677
472.761	9268
472.839	8203
472.918	7654
472.996	6980
473.075	7451
473.153	7274
473.231	6598
473.310	8071
473.388	8090
473.466	7669
473.545	10218
473.623	13658
473.701	11671
473.780	6940
473.858	6529
473.936	8690
474.014	7545
474.093	9027
474.171	9100
474.249	10434
474.327	7669
474.405	6240
474.484	7661
474.562	7506
474.640	7195
474.718	7126
474.796	6526
474.874	6630
474.952	6308
475.030	6566
475.108	7088
475.187	7049
475.265	9559
475.343	12622
475.421	13064
475.499	6320
475.577	7003
475.655	8611
475.733	10921
475.811	14584
475.889	12674
475.966	8751
476.044	8098
476.122	10652
476.200	12491
476.278	7625
476.356	6543
476.434	7129
476.512	9132
476.590	11369
476.667	8740
476.745	6150
476.823	7284
476.901	5843
476.979	6335
477.056	5726
477.134	6461
477.212	6959
477.290	6787
477.367	5147
477.445	5945
477.523	4437
477.601	5625
477.678	5936
477.756	6490
477.834	6588
477.911	4996
477.989	6301
478.066	5531
478.144	6482
478.222	9005
478.299	14290
478.377	9865
478.454	4948
478.532	5549
478.609	5683
478.687	6801
478.764	6126
478.842	6256
478.919	6952
478.997	6457
479.074	4916
479.152	5060
479.229	5942
479.307	5202
479.384	5029
479.461	4441
479.539	4939
479.616	4952
479.694	4403
479.771	5025
479.848	5666
479.926	5298
480.003	7479
480.080	5967
480.157	4659
480.235	5035
480.312	4930
480.389	4835
480.467	6591
480.544	7245
480.621	5989
480.698	4587
480.775	5572
480.853	5340
480.930	5299
481.007	5556
481.084	5103
481.161	4943
481.238	5195
481.315	4083
481.392	4472
481.470	4942
481.547	4150
481.624	4609
481.701	4378
481.778	4643
481.855	4727
481.932	6354
482.009	8011
482.086	6100
482.163	6040
482.240	10771
482.317	17830
482.393	9664
482.470	4889
482.547	4559
482.624	4534
482.701	5008
482.778	4349
482.855	4104
482.932	4585
483.009	3224
483.085	4141
483.162	4461
483.239	5273
483.316	3225
483.393	4476
483.469	3779
483.546	5096
483.623	4756
483.699	4394
483.776	5251
483.853	5346
483.930	7098
484.006	13322
484.083	21412
484.160	24800
484.236	37079
484.313	25086
484.389	19397
484.466	18078
484.543	16718
484.619	16271
484.696	17237
484.772	17337
484.849	17532
484.925	15219
485.002	16810
485.078	16253
485.155	16214
485.231	14949
485.308	14806
485.384	16021
485.461	17503
485.537	20898
485.614	20974
485.690	15367
485.766	15758
485.843	17274
485.919	23539
485.995	21074
486.072	14649
486.148	13833
486.224	13348
486.301	14032
486.377	15769
486.453	14703
486.530	16999
486.606	22700
486.682	21955
486.758	20813
486.835	20805
486.911	20083
486.987	29939
487.063	42771
487.139	53234
487.215	34468
487.292	17779
487.368	15274
487.444	15214
487.520	17490
487.596	14256
487.672	17378
487.748	22705
487.824	23456
487.900	14552
487.976	14363
488.052	14312
488.128	16761
488.204	14463
488.280	13967
488.356	16354
488.432	20652
488.508	24221
488.584	14246
488.660	13638
488.736	13816
488.812	15253
488.888	19447
488.964	30212
489.039	62392
489.115	79272
489.191	34273
489.267	13826
489.343	11998
489.418	11559
489.494	12220
489.570	9954
489.646	12366
489.722	11014
489.797	11983
489.873	14478
489.949	19791
490.024	16619
490.100	9863
490.176	10632
490.251	14440
490.327	18002
490.403	9339
490.478	10163
490.554	9453
490.629	10120
490.705	8945
490.781	11293
490.856	10155
490.932	12404
491.007	12618
491.083	11446
491.158	9464
491.234	11246
491.309	15549
491.385	12950
491.460	8941
491.536	10832
491.611	9305
491.686	12884
491.762	18671
491.837	38335
491.913	57813
491.988	81717
492.063	82263
492.139	15389
492.214	10161
492.289	9273
492.365	8694
492.440	9984
492.515	8227
492.590	9755
492.666	7731
492.741	10823
492.816	10142
492.891	8102
492.967	8501
493.042	9582
493.117	7831
493.192	13519
493.267	37685
493.342	102917
493.418	100949
493.493	11702
493.568	7133
493.643	9204
493.718	9414
493.793	12288
493.868	15838
493.943	9578
494.018	8093
494.093	6879
494.168	7098
494.243	5873
494.318	5813
494.393	6236
494.468	5805
494.543	6765
494.618	7852
494.693	7044
494.768	6485
494.842	6676
494.917	5989
494.992	7296
495.067	6108
495.142	7167
495.217	7478
495.292	6787
495.366	8440
495.441	9787
495.516	12804
495.591	27326
495.665	91785
495.740	166901
495.815	37904
495.890	7948
495.964	4994
496.039	8950
496.114	5968
496.188	7366
496.263	6166
496.338	5663
496.412	6488
496.487	8314
496.561	10163
496.636	10409
496.710	6654
496.785	8452
496.860	7966
496.934	7257
497.009	8021
497.083	6767
497.158	7043
497.232	8600
497.307	9220
497.381	7635
497.455	6222
497.530	9063
497.604	7585
497.679	8658
497.753	10874
497.827	10828
497.902	10012
497.976	15273
498.050	40520
498.125	112366
498.199	80780
498.273	21995
498.348	16912
498.422	14647
498.496	14125
498.570	13057
498.645	7653
498.719	7067
498.793	9426
498.867	13285
498.941	18227
499.016	53084
499.090	100522
499.164	21847
499.238	6552
499.312	7194
499.386	9609
499.460	6631
499.534	6436
499.609	7575
499.683	8830
499.757	9822
499.831	27983
499.905	72737
499.979	43664
500.053	11891
500.127	16570
500.201	13551
500.275	7650
500.349	6650
500.422	7769
500.496	18132
500.570	35964
500.644	51514
500.718	60279
500.792	11120
500.866	6664
500.940	7382
501.013	6422
501.087	8465
501.161	15278
501.235	14726
501.309	29331
501.382	61280
501.456	39164
501.530	15501
501.603	16844
501.677	8182
501.751	4625
501.825	7813
501.898	12281
501.972	22836
502.046	10686
502.119	7838
502.193	16206
502.266	24399
502.340	9873
502.413	14710
502.487	19324
502.561	9981
502.634	6336
502.708	7359
502.781	5524
502.855	5466
502.928	2812
503.002	5104
503.075	4268
503.149	4962
503.222	4022
503.295	4538
503.369	5082
503.442	7677
503.516	22233
503.589	37495
503.662	19685
503.736	10647
503.809	19526
503.882	14529
503.956	23861
504.029	17770
504.102	13991
504.175	11488
504.249	4050
504.322	5379
504.395	5219
504.468	4154
504.542	3265
504.615	4018
504.688	4680
504.761	3812
504.834	6940
504.907	9446
504.980	13256
505.053	5865
505.127	7497
505.200	8723
505.273	4728
505.346	4022
505.419	4093
505.492	4352
505.565	3592
505.638	3522
505.711	2580
505.784	2991
505.857	2236
505.930	4816
506.003	2375
506.076	5218
506.149	4362
506.221	4017
506.294	6216
506.367	13377
506.440	32278
506.513	13350
506.586	5590
506.659	3965
506.731	4337
506.804	6835
506.877	7923
506.950	4389
507.022	4302
507.095	4262
507.168	5818
507.241	5357
507.313	4098
507.386	5153
507.459	9530
507.531	5436
507.604	4094
507.677	5038
507.749	2670
507.822	8142
507.894	15514
507.967	16001
508.040	7669
508.112	8324
508.185	6843
508.257	6605
508.330	10587
508.402	6049
508.475	6528
508.547	6416
508.620	6537
508.692	6967
508.765	5965
508.837	5011
508.909	5322
508.982	5379
509.054	6961
509.127	5426
509.199	4689
509.271	5168
509.344	4512
509.416	5622
509.488	4696
509.560	6777
509.633	6341
509.705	8486
509.777	8118
509.849	10666
509.922	5707
509.994	6566
510.066	6823
510.138	7095
510.210	15424
510.283	11745
510.355	10251
510.427	9102
510.499	7987
510.571	7458
510.643	8378
510.715	14976
510.787	9390
510.859	9911
510.931	9548
511.003	12179
511.076	10242
511.148	6585
511.219	7117
511.291	10078
511.363	9271
511.435	7419
511.507	6351
511.579	7488
511.651	7221
511.723	6914
511.795	6274
511.867	6280
511.939	6592
512.010	9224
512.082	8396
512.154	5609
512.226	7496
512.298	13709
512.369	15310
512.441	13687
512.513	12860
512.585	8359
512.656	9427
512.728	9765
512.800	7154
512.871	8296
512.943	7668
513.015	7182
513.086	8407
513.158	9255
513.230	9694
513.301	15181
513.373	15434
513.444	7657
513.516	6490
513.588	7422
513.659	9114
513.731	10153
513.802	9244
513.874	25345
513.945	30295
514.016	8439
514.088	7779
514.159	8351
514.231	12862
514.302	13911
514.374	10561
514.445	7909
514.516	12747
514.588	9112
514.659	7847
514.730	10613
514.802	10266
514.873	7544
514.944	9277
515.016	8909
515.087	9211
515.158	9974
515.229	9855
515.301	7237
515.372	8632
515.443	6653
515.514	7030
515.585	5885
515.656	7434
515.728	7432
515.799	7313
515.870	7716
515.941	7692
516.012	8155
516.083	13028
516.154	12615
516.225	15846
516.296	14262
516.367	9698
516.438	12095
516.509	14600
516.580	25427
516.651	82985
516.722	200541
516.793	56896
516.864	17512
516.935	15488
517.006	18514
517.077	30607
517.148	80953
517.219	248627
517.289	231252
517.360	42432
517.431	15136
517.502	8810
517.573	8812
517.643	9940
517.714	11525
517.785	10795
517.856	11216
517.926	14319
517.997	14291
518.068	15914
518.138	24639
518.209	48812
518.280	206913
518.350	477461
518.421	103537
518.492	15301
518.562	10030
518.633	8837
518.703	6879
518.774	10007
518.845	9989
518.915	9871
518.986	7995
519.056	12680
519.127	28902
519.197	37474
519.268	43001
519.338	16367
519.408	11688
519.479	17160
519.549	9854
519.620	8454
519.690	5766
519.760	5281
519.831	6347
519.901	5892
519.971	6029
520.042	5904
520.112	5877
520.182	9008
520.253	9688
520.323	5915
520.393	7870
520.463	12630
520.534	7856
520.604	14813
520.674	7551
520.744	8301
520.814	17647
520.885	14267
520.955	17846
521.025	36321
521.095	10703
521.165	6438
521.235	4652
521.305	4881
521.375	5617
521.445	7804
521.515	8872
521.585	12135
521.655	7387
521.725	8921
521.795	6044
521.865	2604
521.935	9034
522.005	4318
522.075	3983
522.145	5933
522.215	4845
522.285	5951
522.355	8646
522.424	12194
522.494	9307
522.564	12270
522.634	36116
522.704	73720
522.774	17345
522.843	7294
522.913	6923
522.983	8182
523.053	5625
523.122	7566
523.192	15227
523.262	50475
523.331	28077
523.401	6811
523.471	4979
523.540	5364
523.610	3773
523.680	3489
523.749	3233
523.819	4794
523.888	3949
523.958	2927
524.027	3910
524.097	4164
524.166	4676
524.236	4605
524.305	6183
524.375	3312
524.444	1779
524.514	4725
524.583	4155
524.653	3307
524.722	5397
524.791	2370
524.861	5057
524.930	3066
524.999	4654
525.069	6051
525.138	3972
525.207	3094
525.277	4091
525.346	3417
525.415	4630
525.484	4060
525.554	3584
525.623	3623
525.692	3481
525.761	2159
525.830	3907
525.900	3048
525.969	4666
526.038	4276
526.107	4275
526.176	9684
526.245	7936
526.314	10251
526.383	10646
526.452	7953
526.522	18388
526.591	24352
526.660	27094
526.729	10844
526.797	17884
526.867	61665
526.935	196420
527.004	95905
527.073	25217
527.142	4365
527.211	5199
527.280	7167
527.349	6048
527.418	2373
527.487	4697
527.555	1373
527.624	3023
527.693	828
527.762	3958
527.831	2036
527.899	3380
527.968	2815
528.037	2073
528.106	6638
528.174	11281
528.243	7328
528.312	13766
528.380	12505
528.449	2702
528.518	3843
528.586	882
528.655	3145
528.723	2688
528.792	2496
528.861	1717
528.929	728
528.998	3162
529.066	2567
529.135	2348
529.203	1123
529.272	509
529.340	3225
529.409	4216
529.477	2313
529.545	1661
529.614	4438
529.682	1774
529.751	3193
529.819	5592
529.887	2430
529.956	3190
530.024	3195
530.092	1943
530.161	5301
530.229	8113
530.297	1908
530.365	3072
530.434	2494
530.502	344
530.570	2556
530.638	530
530.707	2987
530.775	3560
530.843	1117
530.911	1441
530.979	1626
531.047	656
531.115	2898
531.183	1583
531.252	2552
531.320	2006
531.388	408
531.456	3217
531.524	233
531.592	3085
531.660	4485
531.728	1642
531.796	1675
531.864	2957
531.932	2701
532.000	2654
532.067	3220
532.135	3936
532.203	5477
532.271	4782
532.339	16803
532.407	34136
532.475	11040
532.542	6931
532.610	8429
532.678	16383
532.746	84262
532.814	118650
532.881	17309
532.949	3237
533.017	2355
533.084	1555
533.152	1840
533.220	3385
533.287	2850
533.355	1334
533.423	2701
533.490	1631
533.558	2713
533.625	3639
533.693	2253
533.761	3962
533.828	3769
533.896	3703
533.963	13590
534.031	15176
534.098	17015
534.166	4723
534.233	3101
534.300	5221
534.368	4366
534.435	2965
534.503	2771
534.570	2664
534.637	1595
534.705	2172
534.772	2365
534.840	2310
534.907	6472
534.974	5029
535.041	2529
535.109	2620
535.176	1828
535.243	2589
535.310	2832
535.378	1998
535.445	2258
535.512	2877
535.579	2920
535.646	1065
535.714	3049
535.781	5216
535.848	4881
535.915	5616
535.982	5534
536.049	3938
536.116	5106
536.183	3885
536.250	4353
536.317	3465
536.384	5866
536.451	10720
536.518	8605
536.585	4774
536.652	9159
536.719	12754
536.786	5876
536.853	5988
536.920	11869
536.987	18175
537.053	22412
537.120	83045
537.187	35988
537.254	3234
537.321	3014
537.388	3527
537.454	1510
537.521	2577
537.588	2238
537.654	4355
537.721	4213
537.788	4695
537.855	3273
537.921	3339
537.988	2312
538.055	3072
538.121	3143
538.188	4901
538.254	11222
538.321	20657
538.388	8309
538.454	2005
538.521	3416
538.587	2700
538.654	2159
538.720	2896
538.787	2055
538.853	3443
538.920	4106
538.986	3667
539.053	2583
539.119	4121
539.185	2768
539.252	6429
539.318	8104
539.385	6464
539.451	4269
539.517	6039
539.583	8404
539.650	25529
539.716	40480
539.782	7792
539.849	3928
539.915	4523
539.981	4989
540.047	5645
540.114	5120
540.180	5242
540.246	4491
540.312	9254
540.378	21776
540.444	17246
540.510	27278
540.576	50521
540.643	7425
540.709	2660
540.775	3165
540.841	2828
540.907	6112
540.973	8953
541.039	10690
541.105	9896
541.171	3775
541.237	3580
541.303	4571
541.369	7051
541.435	10089
541.500	17679
541.566	6213
541.632	2393
541.698	2406
541.764	3918
541.830	2178
541.896	2569
541.961	3898
542.027	3213
542.093	3301
542.159	3684
542.224	4496
542.290	10479
542.356	19060
542.421	16678
542.487	7090
542.553	3944
542.618	3834
542.684	3094
542.750	3689
542.815	6106
542.881	15663
542.947	53360
543.012	20346
543.078	2740
543.143	3171
543.209	3661
543.274	3809
543.340	6999
543.405	22528
543.471	21163
543.536	3718
543.602	3200
543.667	1727
543.732	3766
543.798	2512
543.863	2986
543.928	2251
543.994	2358
544.059	2336
544.124	2134
544.190	3125
544.255	3220
544.320	3817
544.386	3271
544.451	7634
544.516	7827
544.581	9501
544.646	37867
544.712	34679
544.777	5590
544.842	3319
544.907	3598
544.972	2867
545.037	3844
545.102	3616
545.168	3264
545.233	4010
545.298	4429
545.363	4975
545.428	7750
545.493	22294
545.558	33639
545.623	7827
545.688	2860
545.753	3289
545.818	3198
545.883	4674
545.947	2514
546.012	3006
546.077	3055
546.142	3932
546.207	4041
546.272	7658
546.337	5799
546.401	4551
546.466	3821
546.531	2610
546.596	4325
546.661	3802
546.725	3889
546.790	2217
546.855	2836
546.919	2013
546.984	3104
547.049	2243
547.113	3380
547.178	2194
547.243	3747
547.307	4684
547.372	4405
547.436	2798
547.501	2995
547.565	4468
547.630	6443
547.695	5125
547.759	3755
547.823	2308
547.888	3355
547.952	2393
548.017	3808
548.081	3831
548.146	4647
548.210	3208
548.274	2634
548.339	2674
548.403	3543
548.468	1941
548.532	2329
548.596	2040
548.660	2592
548.725	3150
548.789	3645
548.853	4319
548.917	3019
548.982	3825
549.046	3185
549.110	2066
549.174	3171
549.238	1593
549.303	2492
549.367	3710
549.431	2246
549.495	2092
549.559	3144
549.623	3398
549.687	4861
549.751	7531
549.815	2657
549.879	3143
549.943	1909
550.007	3253
550.071	3631
550.135	6559
550.199	3313
550.263	3381
550.327	3865
550.391	3142
550.455	2862
550.519	3473
550.582	4226
550.646	7924
550.710	5200
550.774	2303
550.838	2763
550.901	2550
550.965	3582
551.029	2450
551.093	3651
551.156	5307
551.220	9853
551.284	6206
551.347	4954
551.411	10920
551.475	7832
551.538	3664
551.602	2948
551.666	2556
551.729	1582
551.793	2381
551.856	2801
551.920	3878
551.983	3498
552.047	1968
552.110	2805
552.174	1827
552.237	2413
552.301	1788
552.364	2363
552.428	2071
552.491	2323
552.554	3371
552.618	3331
552.681	3303
552.745	4729
552.808	10579
552.871	11022
552.934	5334
552.998	4208
553.061	2994
553.124	3020
553.187	3475
553.251	3743
553.314	4632
553.377	6063
553.440	14209
553.503	55403
553.567	46557
553.630	5009
553.693	2975
553.756	2336
553.819	2970
553.882	2015
553.945	2366
554.008	1876
554.071	546
554.134	2568
554.197	2360
554.260	2679
554.323	3927
554.386	2743
554.449	1830
554.512	2582
554.575	1609
554.638	2329
554.701	2230
554.764	1856
554.827	2170
554.889	1373
554.952	1226
555.015	1596
555.078	1362
555.141	2451
555.203	1403
555.266	2262
555.329	1856
555.391	2036
555.454	2675
555.517	2048
555.580	1514
555.642	1937
555.705	1733
555.768	1441
555.830	1599
555.893	1107
555.955	2968
556.018	2879
556.080	1808
556.143	1929
556.206	2507
556.268	3325
556.330	2590
556.393	2710
556.455	1499
556.518	4839
556.580	3749
556.643	2386
556.705	1523
556.767	855
556.830	3397
556.892	4560
556.955	9342
557.017	4510
557.079	2493
557.142	2421
557.204	5860
557.266	16476
557.328	6467
557.391	1354
557.453	2255
557.515	2545
557.577	5448
557.639	3431
557.701	2077
557.764	403
557.826	1908
557.888	2427
557.950	1409
558.012	1151
558.074	1808
558.136	4256
558.198	5789
558.260	3339
558.322	1325
558.384	2031
558.446	3363
558.508	3429
558.570	6246
558.632	19407
558.694	20236
558.756	7884
558.818	17631
558.880	28388
558.942	6410
559.003	5720
559.065	3272
559.127	2521
559.189	1801
559.251	2252
559.312	2994
559.374	8041
559.436	17811
559.498	6425
559.559	1712
559.621	1825
559.683	2479
559.744	5250
559.806	11978
559.868	10396
559.929	1993
559.991	3372
560.052	3275
560.114	7320
560.176	3814
560.237	6924
560.299	7052
560.360	1993
560.422	1352
560.483	2671
560.545	2173
560.606	1518
560.667	1393
560.729	1696
560.790	1525
560.852	2675
560.913	979
560.974	1960
561.036	1256
561.097	2270
561.158	1537
561.220	1935
561.281	2087
561.342	3038
561.403	4713
561.465	9175
561.526	30586
561.587	24683
561.648	2504
561.709	2323
561.771	1830
561.832	2157
561.893	2284
561.954	1180
562.015	2706
562.076	2225
562.137	1759
562.198	1726
562.259	1669
562.320	2293
562.381	3079
562.442	6917
562.503	2809
562.564	2049
562.625	1039
562.686	2153
562.747	1664
562.808	2770
562.869	1526
562.930	3210
562.991	2387
563.051	1677
563.112	1511
563.173	1751
563.234	1505
563.294	1896
563.355	2593
563.416	1785
563.477	1719
563.537	1992
563.598	2916
563.659	1782
563.720	2491
563.780	2332
563.841	2968
563.901	1646
563.962	1130
564.023	1634
564.083	2097
564.144	2263
564.204	2365
564.265	1676
564.325	2943
564.386	6113
564.446	4107
564.507	2098
564.567	1792
564.628	1553
564.688	1434
564.749	1966
564.809	2485
564.869	2727
564.930	1571
564.990	2761
565.050	1297
565.111	1718
565.171	2046
565.231	2021
565.292	3562
565.352	1622
565.412	2559
565.472	2757
565.532	3181
565.593	1919
565.653	1760
565.713	2874
565.773	3295
565.833	5395
565.893	6157
565.953	2290
566.013	1824
566.074	1964
566.134	3580
566.194	5531
566.254	6475
566.314	2632
566.374	2130
566.434	2679
566.494	2093
566.554	2156
566.614	2200
566.673	2470
566.733	3216
566.793	3317
566.853	3123
566.913	2990
566.973	2917
567.033	3427
567.092	2394
567.152	2479
567.212	3415
567.272	4095
567.331	2885
567.391	3361
567.451	3208
567.511	4597
567.570	3845
567.630	3158
567.690	1893
567.749	3120
567.809	2821
567.868	4118
567.928	3475
567.988	4335
568.047	5350
568.107	5519
568.166	7959
568.226	11056
568.285	15340
568.345	12210
568.404	9612
568.464	8458
568.523	8010
568.582	8479
568.642	9476
568.701	10824
568.761	17571
568.820	25822
568.879	21658
568.939	16160
568.998	10554
569.057	7947
569.116	6429
569.176	6267
569.235	5027
569.294	3468
569.353	3766
569.413	3648
569.472	2772
569.531	2354
569.590	2365
569.649	2229
569.708	2994
569.767	2924
569.827	3074
569.886	2607
569.945	2114
570.004	3298
570.063	2818
570.122	2834
570.181	3190
570.240	3287
570.299	2796
570.358	3541
570.417	1151
570.475	2257
570.534	3452
570.593	3419
570.652	2693
570.711	2803
570.770	2458
570.829	3876
570.887	4217
570.946	4815
571.005	1530
571.064	1995
571.122	2555
571.181	2849
571.240	2432
571.299	1604
571.357	2497
571.416	2240
571.475	2112
571.533	2817
571.592	1518
571.650	2551
571.709	1480
571.768	1799
571.826	2359
571.885	1680
571.943	1066
572.002	1757
572.060	1679
572.119	2283
572.177	1106
572.236	1271
572.294	1920
572.352	1026
572.411	1214
572.469	1043
572.528	1309
572.586	1167
572.644	1568
572.703	3412
572.761	1024
572.819	2394
572.877	1622
572.936	1667
572.994	1915
573.052	1263
573.110	1722
573.169	2086
573.227	479
573.285	1782
573.343	1427
573.401	1441
573.459	1331
573.517	1418
573.576	1579
573.634	1630
573.692	979
573.750	1467
573.808	1965
573.866	1973
573.924	2187
573.982	1839
574.040	1071
574.098	2530
574.155	644
574.213	575
574.271	795
574.329	2089
574.387	391
574.445	1589
574.503	1018
574.560	576
574.618	385
574.676	1226
574.734	1063
574.792	1653
574.849	1344
574.907	1817
574.965	1063
575.022	1178
575.080	1225
575.138	2190
575.195	990
575.253	1858
575.311	2208
575.368	1957
575.426	1439
575.483	1648
575.541	1323
575.598	1721
575.656	1418
575.713	992
575.771	1431
575.828	1443
575.886	1662
575.943	2386
576.001	1213
576.058	1556
576.115	956
576.173	2822
576.230	3878
576.287	4758
576.345	1694
576.402	1863
576.459	958
576.517	1839
576.574	1762
576.631	2059
576.688	1317
576.746	1408
576.803	1348
576.860	584
576.917	2022
576.974	2315
577.031	1264
577.089	1903
577.146	1306
577.203	1237
577.260	2392
577.317	2024
577.374	2778
577.431	1953
577.488	1272
577.545	1190
577.602	2246
577.659	2237
577.716	2534
577.773	2635
577.830	1813
577.886	2187
577.943	1818
578.000	2446
578.057	2519
578.114	3055
578.171	4802
578.227	6057
578.284	4676
578.341	3763
578.398	2841
578.454	2783
578.511	2831
578.568	2316
578.625	1915
578.681	1655
578.738	1688
578.794	1056
578.851	1811
578.908	2435
578.964	1540
579.021	2845
579.077	2250
579.134	2469
579.190	1105
579.247	1873
579.303	1084
579.360	1305
579.416	2268
579.473	1486
579.529	1743
579.586	1839
579.642	2718
579.698	2345
579.755	2056
579.811	2123
579.867	1878
579.924	2302
579.980	3084
580.036	3999
580.093	5858
580.149	10991
580.205	9134
580.261	6244
580.317	4251
580.374	4143
580.430	3446
580.486	2923
580.542	2737
580.598	2786
580.619	2721
580.654	2610
580.692	2273
580.710	2113
580.765	1759
580.767	1748
580.823	2447
580.838	2412
580.879	2346
580.911	1947
580.935	1658
580.984	1608
580.991	1600
581.047	2507
581.057	2432
581.103	2104
581.130	2601
581.159	3115
581.203	3307
581.215	3368
581.270	2704
581.276	2695
581.326	2597
581.349	2957
581.382	3531
581.422	2884
581.438	2593
581.494	2183
581.494	2183
581.550	2295
581.567	2298
581.606	2333
581.640	2066
581.661	1897
581.713	1892
581.717	1895
581.773	1710
581.786	1854
581.829	2292
581.859	2155
581.885	2072
581.932	1534
581.940	1430
581.996	2578
582.004	2480
582.052	1939
582.077	1588
582.107	1209
582.150	1490
582.163	1558
582.219	1024
582.223	1095
582.274	1905
582.296	1896
582.330	1933
582.368	1980
582.386	2035
582.441	1706
582.441	1705
582.497	1742
582.514	1962
582.552	2555
582.587	2875
582.608	3017
582.659	1937
582.663	1856
582.719	2303
582.732	2370
582.774	2569
582.805	2177
582.830	1820
582.877	2646
582.885	2804
582.941	2342
582.950	2331
582.996	2176
583.023	2666
583.052	3355
583.095	4005
583.107	4165
583.162	5886
583.168	5853
583.218	5268
583.240	4867
583.273	4360
583.313	3203
583.328	2783
583.384	3012
583.385	3010
583.439	2656
583.458	2248
583.494	1594
583.531	2004
583.549	2288
583.603	1930
583.605	1916
583.660	2821
583.676	2777
583.715	2582
583.748	2401
583.770	2335
583.820	2805
583.825	2847
583.881	2426
583.893	2393
583.936	2342
583.965	2186
583.991	1965
584.038	2424
584.046	2501
584.101	2220
584.110	2214
584.156	2342
584.183	2281
584.211	2199
584.255	2674
584.266	2758
584.321	2318
584.328	2306
584.376	2529
584.400	2417
584.431	2142
584.472	2033
584.486	1964
584.541	2253
584.545	2227
584.596	1852
584.617	2045
584.651	2638
584.689	2942
584.706	2944
584.761	2805
584.762	2803
584.816	2670
584.834	2554
584.871	2380
584.906	2564
584.926	2627
584.978	2233
584.980	2226
585.035	3251
585.051	3271
585.090	3334
585.123	3637
585.145	3732
585.195	3098
585.200	3088
585.254	4319
585.267	4733
585.309	5945
585.340	6256
585.364	6337
585.412	4598
585.419	4276
585.473	3647
585.484	3408
585.528	3407
585.556	4195
585.583	4709
585.628	5077
585.637	5388
585.692	9032
585.700	9386
585.747	10231
585.772	8873
585.801	6224
585.845	3844
585.856	3589
585.910	3445
585.917	3407
585.965	3510
585.989	3582
586.019	3753
586.061	3817
586.074	3747
586.128	4134
586.133	4138
586.183	4467
586.205	4475
586.237	4406
586.277	4090
586.292	3873
586.346	3637
586.349	3629
586.401	3935
586.421	4085
586.455	4230
586.493	4393
586.509	4677
586.564	5676
586.565	5730
586.618	8105
586.637	7550
586.672	5519
586.709	4508
586.727	4225
586.781	4591
586.781	4594
586.835	4372
586.853	4444
586.889	4630
586.925	4454
586.944	4451
586.996	4901
586.998	4910
587.052	4973
587.068	5020
587.106	4987
587.140	4699
587.161	4630
587.212	5023
587.215	5059
587.269	5212
587.284	5369
587.323	5343
587.356	5086
587.377	5222
587.427	6403
587.431	6437
587.485	6137
587.499	5979
587.539	6305
587.571	6925
587.593	6796
587.643	6668
587.648	6771
587.702	7755
587.715	7993
587.755	8422
587.786	8630
587.810	8639
587.858	8698
587.864	8815
587.917	10705
587.930	11068
587.971	11965
588.001	12586
588.025	13071
588.073	14223
588.079	14458
588.133	16804
588.145	17359
588.187	19199
588.217	20676
588.241	22156
588.288	25034
588.295	25484
588.348	30213
588.360	31193
588.402	35401
588.431	38478
588.456	40986
588.503	47204
588.510	48296
588.564	57990
588.575	60567
588.617	72097
588.646	81703
588.671	91543
588.718	115934
588.725	121499
588.778	178534
588.789	194590
588.832	309863
588.861	407037
588.886	549377
588.932	839167
588.939	863547
588.993	941017
589.004	931801
589.047	582221
589.075	372315
589.100	276028
589.147	144013
589.154	137635
589.207	103313
589.218	97699
589.261	94409
589.290	94982
589.314	100369
589.361	117968
589.368	124306
589.421	190307
589.433	208853
589.475	361211
589.504	487756
589.528	619496
589.576	829509
589.582	805936
589.635	465086
589.647	400401
589.689	211087
589.718	100836
589.742	80788
589.790	47819
589.795	46259
589.849	34575
589.861	32303
589.902	27905
589.932	24190
589.955	22104
590.004	18561
590.009	18287
590.062	15572
590.075	14948
590.115	13721
590.146	13079
590.168	12996
590.218	12320
590.222	12194
590.275	10969
590.289	10648
590.328	10521
590.360	10253
590.381	9940
590.431	9391
590.435	9354
590.488	8521
590.503	8352
590.541	8544
590.574	8730
590.594	8441
590.645	7586
590.647	7581
590.700	7293
590.716	7258
590.753	6814
590.787	6284
590.806	6495
590.859	7325
590.859	7324
590.912	6689
590.930	6504
590.965	6500
591.001	6512
591.018	6401
591.071	5967
591.072	5961
591.124	6063
591.143	6131
591.177	5862
591.214	5564
591.230	5846
591.283	6890
591.285	6926
591.336	6870
591.356	6828
591.389	7219
591.427	7486
591.442	7042
591.495	5510
591.498	5392
591.547	5626
591.569	5815
591.600	6075
591.640	6223
591.653	6151
591.706	5906
591.711	5872
591.759	5640
591.782	5532
591.811	5720
591.853	5945
591.864	5889
591.917	5608
591.924	5546
591.969	5444
591.995	5468
592.022	5163
592.066	4565
592.075	4722
592.127	5778
592.137	5955
592.180	5678
592.208	5509
592.233	5575
592.279	5695
592.285	5662
592.338	5379
592.350	5302
592.390	5220
592.421	5202
592.443	5238
592.491	5277
592.495	5289
592.548	5458
592.562	5510
592.600	5130
592.633	4794
592.653	4789
592.704	4768
592.705	4803
592.775	5218
592.846	5146
592.916	5280
592.987	5859
593.058	5815
593.128	4452
593.199	4967
593.270	5110
593.341	3787
593.411	5160
593.482	4371
593.553	5379
593.623	4611
593.694	4201
593.764	3729
593.835	4706
593.906	4141
593.976	5183
594.047	3627
594.117	5248
594.188	4471
594.258	5158
594.329	3844
594.399	4258
594.470	4646
594.540	4737
594.611	4652
594.681	4046
594.751	3111
594.822	5379
594.892	6024
594.963	6105
595.033	4582
595.103	4448
595.174	4374
595.244	6048
595.314	6931
595.384	4667
595.455	3687
595.525	4796
595.595	3722
595.665	5001
595.736	4185
595.806	5051
595.876	3367
595.946	5023
596.016	3267
596.087	4097
596.157	3929
596.227	4756
596.297	3309
596.367	4585
596.437	4423
596.507	5682
596.577	6090
596.647	4626
596.717	4790
596.787	3862
596.857	3296
596.927	4815
596.997	3910
597.067	4279
597.137	4238
597.207	4906
597.277	3242
597.347	4235
597.417	3393
597.487	5440
597.557	4597
597.626	4790
597.696	4533
597.766	5955
597.836	5703
597.906	4630
597.975	4416
598.045	4311
598.115	3766
598.185	4077
598.254	4461
598.324	4844
598.394	4557
598.464	5787
598.533	4531
598.603	5093
598.672	4874
598.742	4614
598.812	4206
598.881	4165
598.951	3842
599.020	4578
599.090	4391
599.159	5011
599.229	4350
599.299	4000
599.368	3814
599.437	4429
599.507	3938
599.576	4464
599.646	4211
599.715	4681
599.785	3737
599.854	3998
599.924	4219
599.993	4336
600.062	3634
600.132	4572
600.201	4348
600.270	5297
600.340	4164
600.409	4375
600.478	4003
600.547	4268
600.617	3615
600.686	4053
600.755	4135
600.824	5171
600.894	3974
600.963	4805
601.032	3779
601.101	4380
601.170	3457
601.239	3821
601.308	4252
601.378	4255
601.447	4395
601.516	3781
601.585	3839
601.654	4859
601.723	3831
601.792	4203
601.861	4329
601.930	6131
601.999	5397
602.068	5244
602.137	4751
602.206	5108
602.275	4376
602.343	4762
602.412	5820
602.481	4176
602.550	3039
602.619	3572
602.688	3485
602.756	3090
602.825	3281
602.894	3518
602.963	2341
603.032	3207
603.100	2711
603.169	3512
603.238	3023
603.307	3802
603.375	3771
603.444	4336
603.513	2549
603.581	4317
603.650	2983
603.719	3701
603.787	2695
603.856	3765
603.924	2557
603.993	3598
604.061	2748
604.130	3834
604.198	3788
604.267	3401
604.335	3404
604.404	3117
604.472	2978
604.541	3446
604.609	3156
604.678	3775
604.746	3207
604.815	3963
604.883	3368
604.951	4299
605.020	3428
605.088	3354
605.156	2830
605.225	3588
605.293	3147
605.361	3396
605.429	3431
605.498	4407
605.566	3864
605.634	3975
605.702	3691
605.771	3685
605.839	4163
605.907	3349
605.975	3236
606.043	3890
606.111	3424
606.180	4575
606.248	4356
606.316	5009
606.384	3208
606.452	4876
606.520	7020
606.588	4706
606.656	2314
606.724	4108
606.792	3040
606.860	2972
606.928	2438
606.996	3988
607.064	2117
607.132	2982
607.200	3871
607.267	2683
607.335	3009
607.403	3816
607.471	1684
607.539	3109
607.607	4298
607.674	1805
607.742	3613
607.810	3779
607.878	3572
607.946	2786
608.013	3044
608.081	3582
608.149	3619
608.216	2612
608.284	3443
608.352	3294
608.419	2259
608.487	4770
608.555	2780
608.622	3096
608.690	2730
608.757	3750
608.825	3874
608.893	3571
608.960	4178
609.028	4500
609.095	4639
609.163	3443
609.230	2907
609.298	4077
609.365	2798
609.432	3767
609.500	3046
609.567	3538
609.635	3486
609.702	4306
609.769	4006
609.837	4343
609.904	3472
609.971	2871
610.039	5521
610.106	8343
610.173	13045
610.241	29494
610.308	45527
610.375	32535
610.442	7209
610.509	4444
610.577	4209
610.644	3727
610.711	3454
610.778	4736
610.845	2294
610.912	3430
610.980	4198
611.047	6412
611.114	4410
611.181	3738
611.248	1667
611.315	4751
611.382	2391
611.449	3335
611.516	3831
611.583	3703
611.650	2989
611.717	3121
611.784	2791
611.851	4192
611.918	4134
611.984	4645
612.051	6533
612.118	13950
612.185	30745
612.252	20763
612.319	4516
612.386	4250
612.452	4007
612.519	3034
612.586	5071
612.653	4170
612.719	3106
612.786	2987
612.853	2882
612.919	2354
612.986	3721
613.053	3336
613.120	2473
613.186	2256
613.253	3227
613.319	3949
613.386	3080
613.453	4266
613.519	4426
613.586	6304
613.652	10751
613.719	8080
613.785	6055
613.852	3695
613.918	3163
613.985	6378
614.051	10532
614.118	26385
614.184	25175
614.250	5116
614.317	3759
614.383	3748
614.449	2813
614.516	3152
614.582	3888
614.648	3535
614.715	2738
614.781	3580
614.847	3369
614.914	3273
614.980	2608
615.046	4244
615.112	3472
615.179	3162
615.245	3328
615.311	3832
615.377	5370
615.443	4855
615.509	4532
615.575	4992
615.642	3952
615.708	4430
615.774	4663
615.840	5159
615.906	6054
615.972	8251
616.038	12801
616.104	22458
616.170	44435
616.236	35512
616.302	10211
616.368	5315
616.434	3581
616.500	5653
616.565	5128
616.631	5446
616.697	3575
616.763	5416
616.829	5719
616.895	10213
616.961	8375
617.026	5522
617.092	2872
617.158	3942
617.224	2682
617.289	3763
617.355	2551
617.421	2774
617.487	3171
617.552	2692
617.618	2415
617.684	1461
617.749	4538
617.815	3912
617.880	2324
617.946	3946
618.012	2668
618.077	2845
618.143	2513
618.208	3870
618.274	3058
618.339	3062
618.405	1762
618.470	3473
618.536	2856
618.601	3065
618.667	1751
618.732	3521
618.798	3716
618.863	3470
618.928	2151
618.994	4081
619.059	4560
619.124	6456
619.190	4587
619.255	2843
619.320	2220
619.386	2860
619.451	1453
619.516	2909
619.581	2840
619.647	2500
619.712	3000
619.777	2681
619.842	3049
619.907	3205
619.972	3289
620.038	2111
620.103	1863
620.168	2701
620.233	3090
620.298	2521
620.363	2179
620.428	3137
620.493	2667
620.558	2705
620.623	2001
620.688	3787
620.753	2961
620.818	2697
620.883	1829
620.948	2685
621.013	2319
621.078	3133
621.143	1142
621.207	4859
621.272	3634
621.337	3465
621.402	3295
621.467	4354
621.532	3759
621.596	3684
621.661	3672
621.726	3212
621.791	2265
621.855	4347
621.920	3203
621.985	2848
622.049	4409
622.114	2670
622.179	3625
622.243	3554
622.308	3033
622.373	4568
622.437	2979
622.502	3156
622.566	3170
622.631	2244
622.695	4040
622.760	3737
622.824	4051
622.889	3218
622.953	3989
623.018	8671
623.082	8401
623.147	3329
623.211	3514
623.276	4475
623.340	2934
623.404	2753
623.469	3321
623.533	3245
623.597	2588
623.662	3341
623.726	2612
623.790	3159
623.854	2268
623.919	3529
623.983	2325
624.047	2721
624.111	3075
624.176	3043
624.240	2194
624.304	4538
624.368	1997
624.432	4074
624.496	3368
624.560	3942
624.625	3696
624.689	4350
624.753	2354
624.817	3609
624.881	2419
624.945	2795
625.009	2532
625.073	3574
625.137	3504
625.201	5945
625.265	6256
625.329	4271
625.393	3457
625.456	2953
625.520	2949
625.584	4898
625.648	4046
625.712	5119
625.776	10535
625.839	12814
625.903	4555
625.967	2603
626.031	6229
626.095	7720
626.158	2769
626.222	2835
626.286	2926
626.349	2189
626.413	1148
626.477	4023
626.540	2044
626.604	1387
626.668	3269
626.731	2367
626.795	2135
626.858	1989
626.922	2173
626.986	3347
627.049	1292
627.113	2362
627.176	3330
627.240	2662
627.303	2229
627.366	1958
627.430	2246
627.493	2545
627.557	1129
627.620	3660
627.684	2267
627.747	2430
627.810	52
627.874	2451
627.937	1712
628.000	4001
628.064	2675
628.127	933
628.190	2629
628.253	3044
628.317	1563
628.380	2524
628.443	1926
628.506	1405
628.569	1742
628.632	1888
628.696	1504
628.759	1976
628.822	907
628.885	2570
628.948	2010
629.011	2174
629.074	1309
629.137	2447
629.200	1449
629.263	2308
629.326	1501
629.389	2225
629.452	1975
629.515	1653
629.578	1109
629.641	2619
629.704	1229
629.767	2275
629.830	1697
629.892	1708
629.955	1357
630.018	3750
630.081	2202
630.144	4844
630.207	1240
630.269	2754
630.332	1321
630.395	1929
630.458	1670
630.520	897
630.583	2954
630.646	2839
630.708	763
630.771	1498
630.834	1540
630.896	842
630.959	1237
631.021	1544
631.084	1835
631.146	1952
631.209	2033
631.272	1815
631.334	1027
631.397	1991
631.459	1709
631.522	2605
631.584	1227
631.646	1408
631.709	2014
631.771	2757
631.834	1763
631.896	1912
631.958	746
632.021	2815
632.083	727
632.145	2626
632.208	692
632.270	2699
632.332	598
632.395	806
632.457	2110
632.519	1597
632.581	2788
632.643	814
632.706	1586
632.768	1882
632.830	1451
632.892	1772
632.954	1225
633.016	1853
633.078	258
633.141	1106
633.203	1104
633.265	1432
633.327	1526
633.389	794
633.451	2528
633.513	2794
633.575	2314
633.637	2184
633.698	2327
633.760	2218
633.822	1042
633.884	701
633.946	759
634.008	1354
634.070	1158
634.132	1862
634.193	1336
634.255	1480
634.317	648
634.379	2282
634.441	547
634.502	981
634.564	2196
634.626	2908
634.687	3379
634.749	1842
634.811	1633
634.873	1282
634.934	233
634.996	2122
635.057	854
635.119	560
635.181	1549
635.242	1910
635.304	-664
635.365	3174
635.427	452
635.488	1731
635.550	577
635.611	1528
635.673	-1247
635.734	2116
635.796	192
635.857	2609
635.918	569
635.980	2427
636.041	661
636.102	1616
636.164	1234
636.225	2157
636.286	-610
636.348	2043
636.409	577
636.470	259
636.531	1378
636.593	1370
636.654	1483
636.715	1491
636.776	1255
636.838	1025
636.899	1862
636.960	558
637.021	457
637.082	2351
637.143	1811
637.204	688
637.265	-616
637.326	1735
637.387	1343
637.448	85
637.509	944
637.570	256
637.631	1439
637.692	-547
637.753	-151
637.814	589
637.875	444
637.936	1529
637.997	569
638.058	821
638.119	1608
638.179	996
638.240	106
638.301	1239
638.362	271
638.423	-13
638.483	1654
638.544	-647
638.605	942
638.666	60
638.726	522
638.787	1865
638.848	356
638.908	365
638.969	811
639.030	517
639.090	-314
639.151	470
639.211	2064
639.272	2318
639.332	5601
639.393	2817
639.453	130
639.514	1189
639.574	940
639.635	1599
639.695	1314
639.756	1107
639.816	652
639.877	1648
639.937	4432
639.997	7294
640.058	586
640.118	439
640.178	1381
640.239	537
640.299	931
640.359	1129
640.420	192
640.480	1223
640.540	544
640.600	146
640.661	1554
640.721	41
640.781	2533
640.841	694
640.901	1816
640.961	969
641.021	1028
641.082	1381
641.142	3136
641.202	3068
641.262	-556
641.322	2100
641.382	293
641.442	1121
641.502	630
641.562	1967
641.622	-263
641.682	1546
641.742	-220
641.802	586
641.861	1280
641.921	794
641.981	2206
642.041	1491
642.101	2144
642.161	-216
642.221	670
642.280	294
642.340	853
642.400	259
642.460	1282
642.519	286
642.579	-312
642.639	2134
642.698	-2374
642.758	3005
642.818	349
642.877	902
642.937	615
642.997	1860
643.056	2768
643.116	319
643.175	1223
643.235	186
643.294	759
643.354	645
643.414	565
643.473	1584
643.532	202
643.592	838
643.651	1296
643.711	4325
643.770	6425
643.830	12931
643.889	29388
643.948	7854
644.008	437
644.067	-223
644.126	110
644.186	10
644.245	1201
644.304	-669
644.363	1975
644.423	-582
644.482	766
644.541	772
644.600	-1173
644.659	1014
644.719	-344
644.778	-3
644.837	1252
644.896	2631
644.955	4713
645.014	1713
645.073	692
645.132	31
645.191	1060
645.250	359
645.309	1191
645.368	701
645.427	929
645.486	293
645.545	2329
645.604	173
645.663	1012
645.722	-513
645.781	646
645.840	929
645.898	-274
645.957	2180
646.016	-521
646.075	2400
646.134	4019
646.192	12299
646.251	19613
646.310	2159
646.369	744
646.427	1026
646.486	-582
646.545	663
646.603	139
646.662	987
646.721	417
646.779	-246
646.838	-1425
646.896	1034
646.955	-318
647.014	1180
647.072	-208
647.131	3519
647.189	776
647.248	-644
647.306	953
647.365	1048
647.423	-2002
647.481	1918
647.540	-1026
647.598	754
647.657	-234
647.715	397
647.773	-514
647.832	1039
647.890	-1086
647.948	-191
648.007	907
648.065	-5
648.123	-495
648.181	2745
648.240	853
648.298	1571
648.356	809
648.414	1147
648.472	411
648.531	770
648.589	1191
648.647	1048
648.705	603
648.763	561
648.821	443
648.879	720
648.937	267
648.995	637
649.053	407
649.111	1075
649.169	1190
649.227	2043
649.285	3005
649.343	10503
649.401	6933
649.459	6952
649.516	5491
649.574	2472
649.632	10501
649.690	13516
649.748	3399
649.806	931
649.863	3635
649.921	3233
649.979	556
650.037	1034
650.094	-866
650.152	679
650.210	-775
650.268	1564
650.325	364
650.383	46
650.440	-1174
650.498	856
650.556	-121
650.613	-153
650.671	-125
650.728	-459
650.786	413
650.843	805
650.901	-1294
650.958	787
651.016	-856
651.073	914
651.131	-426
651.188	-1196
651.246	-276
651.303	-279
651.360	42
651.418	-363
651.475	314
651.532	-712
651.590	380
651.647	-405
651.704	-651
651.762	512
651.819	-274
651.876	275
651.933	306
651.990	1018
652.048	-1889
652.105	-754
652.162	426
652.219	-520
652.276	192
652.333	314
652.390	-1208
652.448	-246
652.505	-379
652.562	675
652.619	589
652.676	1739
652.733	1606
652.790	598
652.847	-756
652.904	403
652.961	-1394
653.017	2
653.074	1088
653.131	668
653.188	-1415
653.245	12
653.302	-331
653.359	-648
653.415	723
653.472	-1179
653.529	327
653.586	-446
653.642	-155
653.699	218
653.756	-770
653.813	-77
653.869	568
653.926	-168
653.983	-946
654.039	609
654.096	-296
654.152	929
654.209	-1509
654.266	-304
654.322	-976
654.379	616
654.435	240
654.492	184
654.548	1334
654.605	1139
654.661	1174
654.717	698
654.774	52
654.830	-380
654.887	-817
654.943	193
655.000	-327
655.056	740
655.112	199
655.168	-554
655.225	-272
655.281	329
655.337	233
655.394	169
655.450	275
655.506	694
655.562	-126
655.618	1459
655.675	-407
655.731	980
655.787	-13
655.843	1717
655.899	649
655.955	1874
656.011	1306
656.067	1803
656.123	2624
656.179	2761
656.235	4609
656.291	1495
656.347	3899
656.403	1387
656.459	1005
656.515	1734
656.571	1334
656.627	309
656.683	363
656.739	1851
656.795	1474
656.850	548
656.906	256
656.962	862
657.018	-469
657.074	-98
657.129	-82
657.185	915
657.241	174
657.297	286
657.352	253
657.408	-1011
657.464	971
657.519	191
657.575	-1177
657.630	-208
657.686	-657
657.742	-407
657.797	-258
657.853	-448
657.908	86
657.964	-269
658.019	-32
658.075	437
658.130	34
658.186	68
658.241	-430
658.297	12
658.352	-1131
658.407	-516
658.463	-39
658.518	496
658.573	-403
658.629	-1413
658.684	-368
658.739	-198
658.795	-1709
658.850	-415
658.905	-587
658.960	-220
659.016	-1185
659.071	-353
659.126	-224
659.181	199
659.236	1637
659.291	2229
659.346	-266
659.401	-134
659.457	700
659.512	104
659.567	512
659.622	-384
659.677	-582
659.732	-887
659.787	-36
659.842	-514
659.897	-433
659.952	3
660.007	-375
660.061	-801
660.116	-1008
660.171	-753
660.226	-1023
660.281	730
660.336	-475
660.391	64
660.445	-727
660.500	-537
660.555	-142
660.610	-471
660.664	-672
660.719	-826
660.774	-267
660.828	440
660.883	-105
660.938	367
660.992	-2295
661.047	24
661.101	-879
661.156	51
661.211	-1376
661.265	-88
661.320	-282
661.374	-4
661.429	167
661.483	338
661.538	-1309
661.592	-683
661.647	258
661.701	-214
661.755	-635
661.810	-12
661.864	-1072
661.919	-506
661.973	-743
662.027	168
662.081	-960
662.136	-714
662.190	-316
662.244	-421
662.299	-989
662.353	-202
662.407	-921
662.461	-507
662.515	-438
662.569	-1214
662.624	338
662.678	-700
662.732	-884
662.786	-450
662.840	-691
662.894	-535
662.948	-973
663.002	266
663.056	-857
663.110	-1249
663.164	-1274
663.218	-264
663.272	-11
663.326	51
663.380	-731
663.434	-259
663.488	-674
663.542	472
663.595	-589
663.649	232
663.703	483
663.757	-143
663.811	-1652
663.864	-292
663.918	-571
663.972	-188
664.026	-564
664.079	-25
664.133	58
664.187	333
664.240	-809
664.294	-1014
664.348	-279
664.401	579
664.455	-785
664.508	-597
664.562	-146
664.615	68
664.669	-1480
664.722	-119
664.776	75
664.829	44
664.883	-456
664.936	-992
664.990	-1011
665.043	-293
665.097	-1177
665.150	330
665.203	-515
665.257	-536
665.310	-583
665.363	-589
665.417	25
665.470	-1246
665.523	-891
665.576	222
665.630	-1030
665.683	-714
665.736	-1310
665.789	-575
665.842	-1070
665.895	-257
665.949	-772
666.002	-670
666.055	-822
666.108	141
666.161	-1312
666.214	-427
666.267	110
666.320	493
666.373	-2083
666.426	-397
666.479	-914
666.532	-840
666.585	-1052
666.638	-709
666.691	-653
666.744	-19
666.796	-1351
666.849	-261
666.902	-615
666.955	-1169
667.008	-1035
667.060	-799
667.113	-1120
667.166	-254
667.219	-424
667.271	159
667.324	-395
667.377	-435
667.430	-512
667.482	-127
667.535	-271
667.587	-575
667.640	-984
667.693	43
667.745	1024
667.798	1151
667.850	-572
667.903	-581
667.955	-625
668.008	-600
668.060	-703
668.113	-986
668.165	-389
668.218	60
668.270	-582
668.322	91
668.375	-258
668.427	-21
668.479	-916
668.532	-795
668.584	-744
668.636	-1094
668.689	-731
668.741	-871
668.793	-432
668.845	-272
668.898	-496
668.950	-129
669.002	-650
669.054	-1285
669.106	-1331
669.158	-572
669.211	-349
669.263	-281
669.315	510
669.367	361
669.419	-413
669.471	832
669.523	497
669.575	1647
669.627	308
669.679	379
669.731	-696
669.783	950
669.835	-371
669.886	637
669.938	-363
669.990	1123
670.042	-242
670.094	99
670.146	195
670.197	1385
670.249	1277
670.301	2118
670.353	3871
670.404	5920
670.456	10259
670.508	16330
670.560	26669
670.611	45772
670.663	79445
670.715	184344
670.766	311701
670.818	115128
670.869	17812
670.921	8270
670.972	5041
671.024	3003
671.075	2246
671.127	1156
671.178	800
671.230	676
671.281	737
671.333	-171
671.384	-381
671.436	199
671.487	79
671.538	471
671.590	-674
671.641	275
671.692	152
671.744	2013
671.795	-248
671.846	319
671.897	-742
671.949	-571
672.000	-725
672.051	449
672.102	220
672.153	-607
672.204	-627
672.256	-387
672.307	54
672.358	650
672.409	-520
672.460	-359
672.511	-496
672.562	-964
672.613	-919
672.664	-100
672.715	-408
672.766	-136
672.817	30
672.868	-409
672.919	-1194
672.970	-905
673.021	72
673.071	-845
673.122	-513
673.173	403
673.224	52
673.275	-404
673.326	-577
673.376	-555
673.427	-854
673.478	-625
673.528	140
673.579	-613
673.630	-605
673.680	392
673.731	-475
673.782	-434
673.832	-743
673.883	475
673.934	-981
673.984	-539
674.035	-761
674.085	-175
674.136	-848
674.186	-927
674.237	-881
674.287	-777
674.338	-208
674.388	-303
674.438	-829
674.489	-93
674.539	-507
674.589	-732
674.640	-392
674.690	-675
674.740	-1075
674.791	-1068
674.841	-1045
674.891	-93
674.942	-724
674.992	-490
675.042	-356
675.092	-212
675.142	-1129
675.193	-442
675.243	-1450
675.293	-466
675.343	-759
675.393	-381
675.443	-22
675.493	-412
675.543	-1363
675.593	-711
675.643	-1623
675.693	-669
675.743	-1144
675.793	-578
675.843	-1802
675.893	-386
675.943	-883
675.993	-944
676.043	-1097
676.093	-119
676.142	-1434
676.192	-836
676.242	-1192
676.292	-542
676.341	-805
676.391	-589
676.441	-1358
676.491	-467
676.540	-821
676.590	-205
676.640	-607
676.689	-1095
676.739	-646
676.789	-428
676.838	-1114
676.888	-417
676.937	-1150
676.987	-338
677.037	-1606
677.086	-1518
677.136	-1038
677.185	-116
677.235	-1197
677.284	-1197
677.333	-1200
677.383	-710
677.432	-1206
677.482	-343
677.531	-1377
677.580	-906
677.630	-895
677.679	-1487
677.728	-955
677.778	-140
677.827	-846
677.876	-933
677.925	-1528
677.975	-473
678.024	-1791
678.073	-756
678.122	-856
678.171	-1168
678.220	-881
678.269	-254
678.319	-846
678.368	-1137
678.417	-521
678.466	-401
678.515	-682
678.564	-649
678.613	-1594
678.662	-1564
678.711	-851
678.760	-386
678.809	-1486
678.857	-1159
678.906	-1208
678.955	-952
679.004	-1593
679.053	-497
679.102	-997
679.151	-1176
679.199	-1172
679.248	-435
679.297	-1420
679.346	-828
679.394	-769
679.443	-1102
679.492	-996
679.540	-591
679.589	-1200
679.638	-682
679.686	-1226
679.735	-212
679.784	-1639
679.832	-566
679.881	-1501
679.929	-1062
679.978	-1129
680.026	-1570
680.075	-847
680.123	-1341
680.172	-1078
680.220	-423
680.268	-1216
680.317	-1178
680.365	-759
680.414	-1250
680.462	-821
680.510	-190
680.559	-913
680.607	-1720
680.655	-1403
680.703	-1254
680.752	-726
680.800	-498
680.848	-926
680.896	-1094
680.945	-1692
680.993	-1565
681.041	-1056
681.089	-795
681.137	-582
681.185	-1258
681.233	-977
681.258	-845
681.281	-735
681.329	-1280
681.377	-553
681.380	-537
681.425	-519
681.473	-198
681.502	-944
681.521	-1495
681.569	-929
681.617	-1765
681.624	-1647
681.665	-1006
681.713	-713
681.745	-825
681.761	-900
681.809	-1350
681.857	-174
681.867	-298
681.904	-786
681.952	-203
681.989	-812
682.000	-1019
682.048	-745
682.096	-620
682.111	-450
682.143	-139
682.191	-1701
682.233	-232
682.239	-25
682.286	-1768
682.334	-578
682.354	-647
682.382	-781
682.430	458
682.476	-758
682.477	-797
682.525	-23
682.572	-977
682.598	-670
682.620	-425
682.667	-576
682.715	238
682.720	166
682.763	-663
682.810	-462
682.841	-310
682.857	-269
682.905	-59
682.952	-588
682.963	-503
683.000	-249
683.047	146
683.085	762
683.095	928
683.142	-447
683.190	724
683.206	287
683.237	-593
683.284	1199
683.328	83
683.332	-21
683.379	675
683.426	107
683.449	317
683.473	550
683.521	-180
683.568	1093
683.571	1075
683.615	597
683.662	965
683.693	795
683.709	686
683.757	883
683.804	767
683.814	752
683.851	722
683.898	119
683.936	769
683.945	907
683.992	1015
684.039	1156
684.057	1090
684.086	940
684.133	1684
684.179	1134
684.180	1105
684.227	1081
684.274	1436
684.300	1648
684.321	1815
684.368	1665
684.415	1815
684.422	1751
684.462	1279
684.509	1195
684.543	913
684.556	791
684.603	763
684.649	811
684.665	881
684.696	1092
684.743	1320
684.786	2073
684.790	2123
684.837	814
684.883	2112
684.908	1468
684.930	865
684.977	1152
685.023	1252
685.029	1317
685.070	1693
685.117	1253
685.150	1553
685.164	1703
685.210	1903
685.257	2321
685.272	2237
685.303	1982
685.350	1885
685.393	2366
685.396	2406
685.443	2576
685.490	3074
685.514	3032
685.536	2841
685.583	2428
685.629	2406
685.636	2339
685.675	2029
685.722	2034
685.757	2118
685.768	2148
685.815	2139
685.861	2751
685.878	2657
685.908	2484
685.954	1838
686.000	2742
686.000	2753
686.047	2217
686.093	2312
686.121	2494
686.139	2560
686.185	2804
686.232	2128
686.242	2132
686.278	2177
686.324	2091
686.363	2293
686.370	2337
686.416	2987
686.463	2935
686.484	2775
686.509	2509
686.555	2945
686.601	2393
686.606	2449
686.647	3076
686.693	1751
686.727	2910
686.739	3313
686.785	2084
686.831	2258
686.848	2358
686.877	2554
686.923	2470
686.969	2665
686.969	2666
687.015	2351
687.061	2502
687.090	2878
687.107	3056
687.153	2880
687.199	2583
687.211	2597
687.245	2641
687.291	3140
687.332	3036
687.336	3029
687.382	3098
687.428	2633
687.453	2800
687.474	2930
687.520	3029
687.565	3060
687.574	2998
687.611	2734
687.657	3229
687.695	2736
687.702	2686
687.748	2875
687.794	3418
687.816	3420
687.839	3265
687.885	3085
687.931	3230
687.937	3194
687.976	3139
688.022	3622
688.058	3240
688.067	3140
688.113	3174
688.158	3280
688.179	3417
688.204	3608
688.249	3290
688.295	3922
688.300	3881
688.340	3568
688.386	3682
688.421	3358
688.431	3264
688.477	3439
688.522	3185
688.542	3528
688.567	3993
688.613	3611
688.658	3399
688.663	3396
688.703	3467
688.749	3799
688.784	4094
688.794	4157
688.839	3784
688.884	3767
688.905	3851
688.930	3977
688.975	3521
689.020	4092
689.026	4042
689.065	3789
689.110	3984
689.146	3887
689.155	3862
689.201	4124
689.246	3956
689.267	4067
689.291	4108
689.336	3864
689.381	4068
689.388	3999
689.426	3964
689.471	4067
689.509	4379
689.516	4412
689.561	4379
689.606	4304
689.630	4406
689.651	4521
689.696	4243
689.741	4529
689.750	4522
689.785	4491
689.830	4508
689.871	4241
689.875	4228
689.920	4700
689.965	4248
689.992	4245
690.010	4263
690.054	4372
690.099	4297
690.112	4380
690.144	4511
690.189	4593
690.233	3824
690.233	3830
690.278	4546
690.323	4881
690.354	5035
690.367	5105
690.412	5089
690.457	5044
690.474	5111
690.501	5217
690.546	5223
690.590	5417
690.595	5449
690.635	6145
690.680	6301
690.716	6609
690.724	6737
690.769	7736
690.813	9000
690.836	8962
690.857	10032
690.902	13459
690.946	16511
690.957	17296
690.991	23953
691.035	32268
691.077	41259
691.080	41376
691.124	40373
691.168	39836
691.198	38761
691.213	35630
691.257	27562
691.301	19111
691.318	15749
691.346	14124
691.390	11737
691.434	8934
691.439	8640
691.478	8206
691.522	7870
691.559	7083
691.567	7034
691.611	7096
691.655	6995
691.680	6828
691.699	6564
691.743	6219
691.787	5912
691.800	5590
691.831	5226
691.875	5611
691.919	5707
691.921	5690
691.964	5695
692.008	5976
692.041	6081
692.052	6083
692.096	6102
692.139	5871
692.162	5900
692.183	5959
692.227	5815
692.271	5612
692.282	5627
692.315	5825
692.359	5965
692.402	6022
692.403	6036
692.447	5947
692.490	6324
692.523	6062
692.534	5972
692.578	6004
692.622	5891
692.643	5999
692.666	6182
692.709	6434
692.753	6248
692.763	6248
692.797	6224
692.840	6100
692.884	6223
692.884	6243
692.928	6279
692.971	7027
693.004	7262
693.015	7271
693.059	6846
693.102	7300
693.124	7048
693.146	6997
693.189	7502
693.233	7632
693.245	7743
693.276	8152
693.320	8443
693.363	8724
693.365	8721
693.407	10021
693.450	11300
693.485	11992
693.493	12414
693.537	15004
693.580	17316
693.605	18638
693.624	21426
693.667	28036
693.710	34568
693.725	36862
693.753	50291
693.797	71635
693.840	92965
693.845	95280
693.883	93024
693.926	89655
693.966	87131
693.970	85331
694.013	64780
694.056	44155
694.086	29620
694.099	28020
694.142	23373
694.185	18256
694.206	15893
694.229	15163
694.272	13617
694.315	11968
694.326	11472
694.358	10709
694.401	10324
694.444	9518
694.446	9449
694.487	9249
694.530	9095
694.566	8994
694.573	8963
694.616	8633
694.659	7937
694.686	7747
694.702	7669
694.745	7335
694.787	6873
694.806	6689
694.830	6760
694.873	6861
694.916	7030
694.926	7009
694.959	7044
695.002	7252
695.044	7128
695.046	7113
695.087	7246
695.130	7370
695.166	7421
695.172	7451
695.215	7416
695.258	7553
695.286	7494
695.301	7457
695.343	7300
695.386	7474
695.406	7368
695.428	7122
695.471	6780
695.514	6516
695.526	6315
695.556	6289
695.599	6636
695.641	6628
695.646	6648
695.684	6676
695.726	6335
695.766	6101
695.769	6123
695.811	6263
695.854	6493
695.886	6519
695.896	6520
695.938	6382
695.981	6292
696.005	6240
696.023	6367
696.065	6633
696.108	6953
696.125	7048
696.150	7087
696.192	7205
696.235	7088
696.245	7074
696.277	7226
696.319	7368
696.361	7548
696.365	7536
696.404	7690
696.446	7909
696.485	8070
696.488	8079
696.530	7866
696.572	7652
696.604	7484
696.614	7526
696.656	7472
696.698	7641
696.724	7623
696.740	7551
696.783	7379
696.825	7202
696.844	7084
696.867	7089
696.909	6991
696.951	7009
696.964	6980
696.992	6944
697.034	6790
697.076	6748
697.083	6716
697.118	6886
697.160	7066
697.202	7207
697.203	7189
697.244	7242
697.286	7321
697.323	7270
697.327	7279
697.369	7232
697.411	7092
697.442	7052
697.453	7166
697.494	7479
697.536	7840
697.562	8001
697.578	7962
697.620	7842
697.661	7679
697.682	7603
697.703	7760
697.744	7846
697.786	8275
697.801	8326
697.828	8486
697.869	8665
697.911	8861
697.921	8907
697.952	8538
697.994	7933
698.035	7348
698.040	7252
698.077	7317
698.118	7399
698.160	7432
698.160	7408
698.201	7479
698.243	7522
698.279	7474
698.284	7488
698.325	7465
698.367	7456
698.399	7380
698.408	7427
698.449	7557
698.491	7652
698.518	7722
698.532	7644
698.573	7328
698.614	6981
698.638	6767
698.656	6855
698.697	7032
698.738	7183
698.757	7237
698.779	7282
698.820	7317
698.862	7360
698.877	7353
698.903	7606
698.944	7971
698.985	8342
698.996	8420
699.026	8189
699.067	7836
699.116	7392
699.235	7384
699.354	7304
699.474	7244
699.593	8703
699.713	8412
699.832	7806
699.951	8198
700.070	8901
700.190	6964
700.309	8268
700.428	8239
700.547	7831
700.667	7624
700.786	8500
700.905	7744
701.024	7606
701.143	7420
701.262	6874
701.381	6726
701.500	7859
701.619	8818
701.738	7764
701.857	8208
701.976	7436
702.095	7225
702.214	8672
702.333	7483
702.452	6891
702.571	7156
702.690	6682
702.809	6795
702.928	6649
703.047	7407
703.165	6830
703.284	7087
703.403	7150
703.522	7216
703.640	8347
703.759	7847
703.878	8493
703.997	6775
704.115	6938
704.234	5895
704.353	6647
704.471	7000
704.590	6145
704.708	6598
704.827	5955
704.946	6310
705.064	6823
705.183	6349
705.301	7200
705.420	8495
705.538	8662
705.656	7652
705.775	8650
705.893	14083
706.012	20162
706.130	8217
706.249	8671
706.367	6746
706.485	7410
706.604	7027
706.722	8160
706.840	8601
706.958	8301
707.077	7263
707.195	6763
707.313	7836
707.431	7222
707.549	6578
707.668	7374
707.786	7119
707.904	7471
708.022	7475
708.140	7382
708.258	6663
708.376	7282
708.494	6864
708.612	7269
708.730	9290
708.848	9185
708.966	7907
709.084	8206
709.202	7273
709.320	7969
709.438	7798
709.556	7485
709.674	7264
709.791	7931
709.909	6680
710.027	7494
710.145	7188
710.263	8117
710.380	7386
710.498	6732
710.616	7576
710.733	7398
710.851	6473
710.969	8064
711.086	7519
711.204	7479
711.322	7017
711.439	6992
711.557	7301
711.674	6815
711.792	8147
711.909	8051
712.027	8543
712.144	6815
712.262	7264
712.379	7242
712.497	8104
712.614	10209
712.732	8144
712.849	8116
712.966	7669
713.084	10483
713.201	8278
713.318	8749
713.436	8102
713.553	7731
713.670	8134
713.787	8979
713.905	7894
714.022	7554
714.139	8135
714.256	8563
714.373	7518
714.490	8349
714.608	10083
714.725	22083
714.842	26048
714.959	7566
715.076	6858
715.193	6628
715.310	6603
715.427	8147
715.544	7303
715.661	7176
715.778	7249
715.895	7171
716.011	7302
716.128	7160
716.245	7416
716.362	8534
716.479	8484
716.596	7383
716.713	7087
716.829	6986
716.946	7567
717.063	6671
717.180	6941
717.296	5984
717.413	6482
717.530	6880
717.646	6164
717.763	6311
717.880	6018
717.996	6434
718.113	6522
718.229	6286
718.346	5359
718.462	5799
718.579	7615
718.695	11538
718.812	9150
718.928	7545
719.045	6975
719.161	5770
719.277	5740
719.394	6313
719.510	7175
719.626	5939
719.743	5714
719.859	6562
719.975	6082
720.092	8936
720.208	14687
720.324	6892
720.440	6619
720.557	6975
720.673	9162
720.789	12025
720.905	17012
721.021	8034
721.137	5624
721.253	7026
721.369	6364
721.486	5967
721.602	7242
721.718	5955
721.834	4712
721.950	5971
722.066	5286
722.181	4784
722.297	5904
722.413	6184
722.529	6146
722.645	5221
722.761	5836
722.877	4935
722.993	5330
723.108	3861
723.224	5061
723.340	4961
723.456	5354
723.571	5917
723.687	5550
723.803	5535
723.918	5255
724.034	4450
724.150	4713
724.265	5896
724.381	7380
724.497	9416
724.612	4840
724.728	4333
724.843	4728
724.959	5179
725.074	7139
725.190	8672
725.305	4883
725.421	4884
725.536	4814
725.651	4984
725.767	4443
725.882	5390
725.997	4180
726.113	4713
726.228	3876
726.343	4418
726.459	4107
726.574	4197
726.689	4149
726.804	3998
726.920	4065
727.035	3976
727.150	4593
727.265	4004
727.380	4097
727.495	5188
727.610	5231
727.725	4629
727.841	4939
727.956	8792
728.071	8037
728.186	4304
728.301	3456
728.416	4913
728.531	4351
728.645	4417
728.760	5047
728.875	5155
728.990	5555
729.105	4962
729.220	5004
729.335	4346
729.449	4127
729.564	4434
729.679	3684
729.794	4548
729.908	4614
730.023	4824
730.138	4300
730.253	2791
730.367	3784
730.482	3858
730.596	4151
730.711	4110
730.826	4271
730.940	4067
731.055	4466
731.169	4242
731.284	3067
731.398	3611
731.513	3659
731.627	4692
731.742	4466
731.856	4456
731.970	3202
732.085	3269
732.199	3085
732.313	4034
732.428	3921
732.542	7159
732.656	6607
732.771	3278
732.885	3359
732.999	3877
733.113	3189
733.227	4317
733.342	3540
733.456	3183
733.570	2903
733.684	3422
733.798	3365
733.912	3430
734.026	3402
734.140	3020
734.254	3240
734.368	5442
734.482	5551
734.596	3046
734.710	3532
734.824	3171
734.938	2973
735.052	2961
735.166	3424
735.280	4244
735.393	2851
735.507	2985
735.621	3776
735.735	4519
735.849	4222
735.962	3405
736.076	3627
736.190	3521
736.303	4301
736.417	4650
736.531	3313
736.644	3632
736.758	2021
736.872	2493
736.985	3200
737.099	3519
737.212	3121
737.326	3283
737.439	3534
737.553	3126
737.666	3524
737.780	2274
737.893	3323
738.007	2526
738.120	3061
738.233	3451
738.347	2862
738.460	3270
738.573	3403
738.687	3512
738.800	3447
738.913	4140
739.026	3045
739.140	3142
739.253	3246
739.366	2915
739.479	2261
739.592	2789
739.705	2921
739.818	4120
739.932	2196
740.045	3198
740.158	2448
740.271	3787
740.384	2674
740.497	2895
740.610	3776
740.723	3495
740.836	3473
740.949	4020
741.062	4791
741.174	4013
741.287	3264
741.400	3274
741.513	3356
741.626	3350
741.739	3363
741.851	3517
741.964	2622
742.077	2484
742.189	3947
742.302	6808
742.415	5364
742.527	3236
742.640	2299
742.753	3364
742.865	2307
742.978	2736
743.090	2694
743.203	2770
743.316	2691
743.428	2351
743.541	1967
743.653	2767
743.766	2285
743.878	2534
743.990	3508
744.103	6461
744.215	8474
744.327	4308
744.440	3329
744.552	5944
744.664	3755
744.777	2383
744.889	2061
745.001	3490
745.113	1968
745.226	2657
745.338	2376
745.450	2878
745.562	2521
745.674	3308
745.786	2194
745.898	2036
746.010	2184
746.122	2559
746.234	2331
746.347	2158
746.459	2990
746.570	2297
746.682	6619
746.794	11465
746.906	6013
747.018	3009
747.130	2392
747.242	3277
747.354	1524
747.466	2282
747.577	2726
747.689	2785
747.801	2223
747.913	2013
748.024	2327
748.136	2075
748.248	2257
748.359	2258
748.471	1905
748.583	2418
748.694	3240
748.806	3273
748.918	2758
749.029	2197
749.141	2718
749.252	3440
749.364	3661
749.475	5123
749.587	3558
749.698	2561
749.809	2750
749.921	2217
750.032	2436
750.144	1554
750.255	2548
750.366	2104
750.478	1405
750.589	2279
750.700	2723
750.811	2994
750.923	3241
751.034	6962
751.145	6545
751.256	3011
751.367	1359
751.479	2786
751.590	2634
751.701	2099
751.812	2323
751.923	2714
752.034	2041
752.145	1989
752.256	2028
752.367	2116
752.478	1188
752.589	2581
752.700	1828
752.811	1221
752.922	2066
753.032	2066
753.143	2888
753.254	2318
753.365	2457
753.476	2662
753.586	1764
753.697	2639
753.808	2040
753.919	1702
754.029	2612
754.140	3043
754.251	2012
754.361	1919
754.472	1855
754.582	2137
754.693	2425
754.804	2914
754.914	2154
755.025	2420
755.135	2453
755.246	3110
755.356	2260
755.466	2469
755.577	2832
755.687	2405
755.798	2696
755.908	2929
756.018	2397
756.129	2647
756.239	2325
756.349	3121
756.460	2290
756.570	2754
756.680	3791
756.790	2698
756.900	3369
757.011	2268
757.121	3335
757.231	3162
757.341	2848
757.451	3172
757.561	3092
757.671	2579
757.781	2465
757.891	3189
758.001	2705
758.111	3192
758.221	2482
758.331	3276
758.441	3135
758.551	3660
758.661	3809
758.771	3433
758.880	2784
758.990	3102
759.100	3075
759.210	3751
759.320	3978
759.429	3602
759.539	3482
759.649	3132
759.758	4035
759.868	3510
759.978	4065
760.087	4010
760.197	3804
760.307	3784
760.416	3851
760.526	4102
760.635	3752
760.745	4456
760.854	4130
760.964	4749
761.073	4164
761.182	4713
761.292	4895
761.401	4980
761.511	4859
761.620	5734
761.729	5465
761.839	5538
761.948	5098
762.057	5495
762.166	5164
762.276	4979
762.385	6852
762.494	6282
762.603	6105
762.712	5922
762.822	5916
762.931	6979
763.040	6877
763.149	7340
763.258	8279
763.367	8460
763.476	8985
763.585	9686
763.694	9853
763.803	10825
763.912	11635
764.021	11394
764.130	11554
764.238	12046
764.347	13805
764.456	14873
764.565	16611
764.674	17106
764.783	19874
764.891	20511
765.000	23457
765.109	26547
765.217	30843
765.326	36205
765.435	44032
765.543	52977
765.652	67269
765.761	86278
765.869	118238
765.978	169102
766.086	257040
766.195	415087
766.303	676382
766.412	819492
766.520	725660
766.629	652586
766.737	397286
766.846	245010
766.954	165942
767.062	116576
767.171	87626
767.279	67011
767.387	53402
767.496	43100
767.604	37569
767.712	32701
767.820	29476
767.928	27805
768.037	24507
768.145	23889
768.253	22208
768.361	22156
768.469	22095
768.577	21874
768.685	23783
768.793	24211
768.901	27088
769.009	32447
769.117	37613
769.225	49021
769.333	68853
769.441	104409
769.549	174127
769.657	325632
769.765	614153
769.873	702753
769.981	588149
770.088	317262
770.196	169139
770.304	105799
770.412	74407
770.519	54852
770.627	42616
770.735	33822
770.842	29367
770.950	25553
771.058	21158
771.165	18787
771.273	16005
771.380	15955
771.488	13889
771.595	12900
771.703	12045
771.810	11513
771.918	10183
772.025	9154
772.133	8617
772.240	8061
772.348	8070
772.455	8492
772.562	6741
772.670	6803
772.777	7292
772.884	6134
772.991	6636
773.099	6268
773.206	5772
773.313	5278
773.420	5449
773.528	4787
773.635	5161
773.742	4654
773.849	4559
773.956	4640
774.063	4737
774.170	4275
774.277	4522
774.384	4176
774.491	3487
774.598	3505
774.705	4185
774.812	4142
774.919	4479
775.026	3088
775.133	3767
775.239	3610
775.346	3376
775.453	3625
775.560	2515
775.667	3443
775.773	2782
775.880	4004
775.987	2976
776.093	3784
776.200	2935
776.307	3144
776.413	3424
776.520	2885
776.627	3431
776.733	2888
776.840	3273
776.946	5878
777.053	9320
777.159	21000
777.266	11461
777.372	17642
777.478	13378
777.585	8264
777.691	2999
777.798	2847
777.904	3004
778.010	3850
778.117	3486
778.223	2282
778.329	2032
778.435	1677
778.542	1926
778.648	1725
778.754	1157
778.860	1777
778.966	2246
779.072	2011
779.178	1495
779.284	1826
779.391	2183
779.497	1968
779.603	4378
779.708	4453
779.815	12263
779.920	45282
780.026	111342
780.132	19352
780.238	2853
780.344	2252
780.450	2728
780.556	1769
780.661	1491
780.767	1344
780.873	1535
780.979	1612
781.085	1351
781.190	1736
781.296	1784
781.402	1163
781.507	983
781.613	1185
781.719	617
781.824	1140
781.930	2029
782.035	1491
782.141	2376
782.246	1161
782.352	1160
782.457	604
782.563	844
782.668	643
782.773	1285
782.879	1459
782.984	1782
783.090	2025
783.195	2223
783.300	1922
783.405	1040
783.511	1680
783.616	1321
783.721	1115
783.826	136
783.932	940
784.037	815
784.142	1236
784.247	401
784.352	783
784.457	1177
784.562	1975
784.667	1794
784.772	1777
784.877	814
784.982	490
785.087	612
785.192	1368
785.297	636
785.402	1725
785.507	917
785.611	1047
785.716	1726
785.821	826
785.926	46
786.031	866
786.135	645
786.240	938
786.345	49
786.450	1315
786.554	668
786.659	275
786.763	-48
786.868	1401
786.973	708
787.077	897
787.182	1238
787.286	675
787.391	500
787.495	257
787.600	671
787.704	138
787.809	1332
787.913	946
788.017	1150
788.122	1154
788.226	116
788.330	689
788.435	1250
788.539	359
788.643	352
788.747	117
788.852	527
788.956	139
789.060	1146
789.164	1122
789.268	382
789.372	586
789.476	542
789.580	-36
789.684	76
789.788	910
789.892	797
789.996	1937
790.100	-42
790.204	676
790.308	801
790.412	575
790.516	645
790.620	614
790.724	271
790.828	706
790.931	-66
791.035	2438
791.139	905
791.242	468
791.346	1214
791.450	1570
791.554	464
791.657	-839
791.761	1263
791.864	1317
791.968	633
792.072	953
792.175	870
792.279	-372
792.382	139
792.486	914
792.589	527
792.693	1222
792.796	688
792.899	1082
793.003	853
793.106	-142
793.209	3
793.313	1564
793.416	-1056
793.519	1327
793.623	1003
793.726	2354
793.829	265
793.932	1304
794.035	-14
794.138	1516
794.242	1467
794.345	1935
794.448	2854
794.551	6594
794.654	25063
794.757	61785
794.860	12292
794.963	2502
795.066	237
795.169	2128
795.272	258
795.375	993
795.477	448
795.580	704
795.683	63
795.786	885
795.889	-292
795.991	1661
796.094	897
796.197	-218
796.300	637
796.402	-350
796.505	-800
796.608	-112
796.710	1349
796.813	222
796.915	-357
797.018	298
797.120	-191
797.223	-1092
797.326	579
797.428	759
797.530	525
797.633	163
797.735	517
797.838	193
797.940	267
798.042	-656
798.145	5
798.247	935
798.349	-1059
798.452	491
798.554	-505
798.656	-644
798.758	521
798.860	-422
798.962	-362
799.065	-317
799.167	-666
799.269	956
799.371	332
799.473	378
799.575	-662
799.677	345
799.779	1580
799.881	61
799.983	1567
800.085	-11
800.187	-259
800.289	-578
800.390	207
800.492	-83
800.594	1148
800.696	-47
800.798	-205
800.899	-510
801.001	-129
801.103	472
801.205	-235
801.306	75
801.408	-345
801.509	-121
801.611	184
801.713	37
801.814	-685
801.916	316
802.017	-337
802.119	-152
802.220	347
802.322	-1750
802.423	1949
802.525	-626
802.626	-221
802.727	-221
802.829	523
802.930	-1435
803.031	1497
803.133	-943
803.234	45
803.335	580
803.436	-848
803.538	-447
803.639	-990
803.740	-13
803.841	-188
803.942	321
804.043	-21
804.144	-791
804.245	-63
804.346	-142
804.447	-318
804.548	384
804.649	1246
804.750	520
804.851	-186
804.952	-1173
805.053	-394
805.154	-837
805.255	177
805.355	-221
805.456	-771
805.557	-760
805.658	-1056
805.758	529
805.859	141
805.960	414
806.061	-954
806.161	-414
806.262	-433
806.362	-466
806.463	-1171
806.564	-302
806.664	-222
806.765	-624
806.865	-3
806.966	-327
807.066	-223
807.166	326
807.267	675
807.367	-128
807.468	-215
807.568	-1400
807.668	863
807.769	268
807.869	-682
807.969	-101
808.069	-180
808.170	-389
808.270	-226
808.370	224
808.470	554
808.570	-617
808.670	-240
808.770	74
808.870	-677
808.970	-102
809.070	-500
809.170	-34
809.271	32
809.370	-1402
809.470	-45
809.570	-544
809.670	-716
809.770	-188
809.870	42
809.970	-124
810.070	377
810.169	257
810.269	-1563
810.369	316
810.469	-816
810.568	-541
810.668	-532
810.768	-630
810.867	-283
810.967	-1073
811.066	-257
811.166	-569
811.265	-751
811.365	-322
811.464	-383
811.564	159
811.663	152
811.763	-1093
811.862	-293
811.962	194
812.061	-35
812.160	9
812.260	-746
812.359	-82
812.458	-62
812.557	2556
812.657	4496
812.756	1301
812.855	289
812.954	319
813.053	-223
813.153	-310
813.252	-1226
813.351	-647
813.450	-329
813.549	-266
813.648	-279
813.747	-165
813.846	141
813.945	-1035
814.044	-477
814.143	205
814.242	-117
814.341	-631
814.439	-99
814.538	-238
814.637	40
814.736	-415
814.835	-67
814.933	-866
815.032	-1024
815.131	-716
815.229	-791
815.328	44
815.427	-912
815.525	123
815.624	-294
815.722	-261
815.821	-833
815.919	-711
816.018	-512
816.116	-347
816.215	-737
816.313	-443
816.412	-183
816.510	-1009
816.609	731
816.707	-770
816.805	-290
816.904	-959
817.002	-482
817.100	123
817.198	506
817.296	-540
817.395	-878
817.493	1445
817.591	-771
817.689	1007
817.787	829
817.885	3312
817.983	5103
818.081	11978
818.179	31624
818.277	83093
818.375	85775
818.473	23210
818.571	8695
818.669	5815
818.767	4709
818.865	4268
818.963	4000
819.061	6151
819.158	11559
819.256	27994
819.354	65626
819.452	165435
819.549	123114
819.647	30952
819.745	10032
819.842	5484
819.940	2729
820.038	2616
820.135	1083
820.233	1946
820.330	679
820.428	-699
820.525	820
820.623	987
820.720	-443
820.818	595
820.915	172
821.012	856
821.110	-1154
821.207	905
821.304	-412
821.402	1291
821.499	2742
821.596	6145
821.693	3135
821.791	1111
821.888	362
821.985	2333
822.082	2054
822.179	1545
822.276	1556
822.373	736
822.470	-36
822.567	83
822.664	-1077
822.761	-83
822.858	-1505
822.955	866
823.052	-982
823.149	-1180
823.246	-444
823.343	-454
823.440	33
823.536	-418
823.633	-798
823.730	-438
823.827	-173
823.923	-420
824.020	662
824.117	-419
824.213	306
824.310	1128
824.407	-184
824.503	-305
824.600	-226
824.696	-1386
824.793	-1268
824.889	-1262
824.986	-69
825.082	-220
825.179	-746
825.275	-504
825.371	-1645
825.468	-857
825.564	-1172
825.660	-927
825.757	311
825.853	-260
825.949	-772
826.045	-1103
826.142	-571
826.238	-567
826.334	-211
826.430	-1271
826.526	126
826.622	-344
826.718	-975
826.814	-677
826.910	-468
827.006	-795
827.102	-1436
827.198	-151
827.294	-1041
827.390	-1068
827.486	-170
827.582	-1600
827.678	-1231
827.774	-299
827.869	-1739
827.965	-19
828.061	-1288
828.157	-39
828.252	-1488
828.348	-1526
828.444	89
828.539	-759
828.635	-1044
828.731	40
828.826	-1479
828.922	-1550
829.017	-665
829.113	-701
829.208	-1946
829.304	-1818
829.399	39
829.495	-1745
829.590	-568
829.685	-1852
829.781	-576
829.876	-744
829.971	-704
830.066	-443
830.162	-1450
830.257	-1431
830.352	-786
830.447	-243
830.543	-555
830.638	-1740
830.733	-133
830.828	-908
830.923	-353
831.018	-1061
831.113	-778
831.208	-1325
831.303	-1171
831.398	-818
831.493	-1063
831.588	-886
831.683	-1417
831.778	-898
831.873	-432
831.967	179
832.062	-1701
832.157	-1080
832.252	231
832.346	-848
832.441	-558
832.536	276
832.631	1455
832.725	1853
832.820	-999
832.914	-1202
833.009	-516
833.104	-633
833.198	-587
833.293	-1171
833.387	-621
833.482	-627
833.576	-699
833.670	-282
833.765	-782
833.859	-930
833.954	-671
834.048	-1071
834.142	-1176
834.237	-875
834.331	-839
834.425	-696
834.519	-1797
834.613	-576
834.708	-1642
834.802	-156
834.896	-1388
834.990	-1276
835.084	-144
835.178	-493
835.272	136
835.366	-460
835.460	-467
835.554	-1103
835.648	-857
835.742	-686
835.836	-528
835.930	-1726
836.024	-774
836.117	-634
836.211	-1659
836.305	-483
836.399	585
836.493	-1255
836.586	-465
836.680	-1330
836.774	-1043
836.867	218
836.961	-1191
837.055	-1139
837.148	-1509
837.242	-1402
837.335	-1219
837.429	-1055
837.522	-449
837.616	-848
837.709	382
837.803	-512
837.896	-946
837.989	-1388
838.083	81
838.176	37
838.269	-364
838.363	18
838.456	-1284
838.549	117
838.642	-283
838.735	2186
838.829	515
838.922	-1156
839.015	-896
839.108	-1645
839.201	-918
839.294	-384
839.387	-943
839.480	-1225
839.573	-1202
839.666	-968
839.759	-922
839.852	-1378
839.945	-631
840.038	-1701
840.131	-812
840.223	-1084
840.316	337
840.409	-1140
840.502	-1224
840.594	-368
840.687	-1480
840.780	-363
840.873	-1549
840.965	-1362
841.058	-695
841.150	375
841.243	-1431
841.336	-127
841.428	-1225
841.521	-1494
841.613	-1519
841.706	224
841.798	-818
841.890	-1343
841.983	-1512
842.075	-306
842.167	-263
842.260	-676
842.352	-153
842.444	-631
842.537	-283
842.629	482
842.721	-423
842.813	-588
842.905	-1708
842.997	-913
843.090	-1463
843.182	365
843.274	-794
843.366	1545
843.458	3099
843.550	3230
843.642	-543
843.734	-876
843.826	-1497
843.918	-963
844.009	-541
844.101	-1201
844.193	-811
844.285	-1295
844.377	504
844.469	1415
844.560	2568
844.652	3318
844.744	657
844.835	-598
844.927	-947
845.019	-565
845.110	-1408
845.202	60
845.293	-964
845.385	-1401
845.476	-1201
845.568	-75
845.659	-983
845.751	204
845.842	-1022
845.934	-1367
846.025	-754
846.116	-423
846.208	-1001
846.299	-675
846.390	-832
846.482	-643
846.573	-690
846.664	-383
846.755	-175
846.846	357
846.937	-1734
847.029	-1391
847.120	-2033
847.211	-1244
847.302	-88
847.393	-1928
847.484	-442
847.575	-1438
847.666	-1065
847.757	-188
847.847	-918
847.938	-153
848.029	-667
848.120	-1102
848.211	-1267
848.302	-840
848.392	-376
848.483	-675
848.574	-1354
848.664	-1540
848.755	-1251
848.846	-1352
848.936	-1480
849.027	-679
849.118	-1211
849.208	-1665
849.299	-1504
849.389	-990
849.480	-229
849.570	-187
849.661	-422
849.751	-79
849.841	-649
849.932	-1177
850.022	-1364
850.112	-959
850.203	-935
850.293	-788
850.383	-819
850.474	-1737
850.564	-1757
850.654	-1379
850.744	-917
850.834	-1127
850.924	-1533
851.014	-337
851.104	-1496
851.194	-528
851.284	-1744
851.374	-348
851.464	-1269
851.554	-960
851.644	-893
851.734	51
851.824	-217
851.914	-170
852.004	290
852.094	869
852.183	-543
852.273	-115
852.363	-1593
852.452	-1041
852.542	-1338
852.632	-1729
852.721	-1031
852.811	-1381
852.901	-1515
852.990	-1375
853.080	-1146
853.169	-574
853.259	-774
853.348	-1071
853.438	-1156
853.527	-573
853.617	-1490
853.706	-731
853.795	-324
853.885	1538
853.974	1792
854.063	4987
854.152	8088
854.242	2624
854.331	-175
854.420	-1895
854.509	-928
854.598	-963
854.687	-1301
854.777	-650
854.866	-1833
854.955	-855
855.044	-1692
855.133	-1042
855.222	-1590
855.311	-1272
855.400	-1001
855.488	-1232
855.577	-1412
855.666	-582
855.755	-936
855.844	-671
855.933	-1882
856.021	-1068
856.110	-829
856.199	-925
856.288	-529
856.376	-1140
856.465	-751
856.554	-977
856.642	-1089
856.731	-1485
856.819	-451
856.908	-915
856.996	-1353
857.085	-1120
857.173	-884
857.262	-1397
857.350	14
857.438	-539
857.527	-735
857.615	-1224
857.703	-671
857.792	-1026
857.880	-1019
857.968	-747
858.056	-1597
858.145	82
858.233	-1586
858.321	-1702
858.409	-581
858.497	-1393
858.585	-1748
858.673	-1041
858.761	-1609
858.849	-1093
858.937	-1139
859.025	-488
859.113	-1294
859.201	-1433
859.289	711
859.377	-480
859.465	-187
859.552	143
859.640	-1135
859.728	-552
859.816	-1050
859.903	-365
859.991	-1866
860.079	-1266
860.166	-748
860.254	-648
860.342	-1122
860.429	-942
860.517	-1947
860.604	-261
860.692	-1511
860.779	-1354
860.867	-1543
860.954	-1340
861.042	-1258
861.129	-1827
861.216	-366
861.304	-1593
861.391	-1717
861.478	-959
861.565	-1234
861.653	-288
861.740	-1352
861.827	-1207
861.914	-971
862.001	-1747
862.089	-1772
862.176	-987
862.263	-1161
862.350	-855
862.437	-1164
862.524	-894
862.611	-336
862.698	-234
862.785	469
862.871	710
862.958	-917
863.045	-1531
863.132	-559
863.219	-968
863.306	-2021
863.392	-1050
863.479	-1498
863.566	-1338
863.652	-374
863.739	-1198
863.826	-826
863.912	-830
863.999	-1382
864.086	-573
864.172	-1413
864.259	-1106
864.345	-792
864.432	-1228
864.518	-906
864.604	-1203
864.691	-1764
864.777	-483
864.863	-890
864.950	-731
865.036	-1306
865.122	-1458
865.209	-619
865.295	-658
865.381	-759
865.467	-650
865.553	-1199
865.639	-1491
865.726	-1051
865.812	129
865.898	709
865.984	756
866.070	2802
866.156	5173
866.242	218
866.328	-268
866.414	-1205
866.499	-1654
866.585	-1215
866.671	-1326
866.757	-832
866.843	-902
866.928	-982
867.014	-1353
867.100	-1123
867.186	-955
867.271	-446
867.357	250
867.442	-276
867.528	747
867.614	-172
867.699	537
867.785	1679
867.870	2604
867.956	3492
868.041	2569
868.127	633
868.212	1593
868.297	2007
868.383	569
868.468	1526
868.553	2000
868.639	1019
868.724	1480
868.809	2403
868.894	-364
868.979	-1676
869.065	-934
869.150	-2006
869.235	-398
869.320	-1308
869.405	-1636
869.490	-1563
869.575	-1426
869.660	-1129
869.745	-523
869.830	-1844
869.915	-727
870.000	-1578
870.085	-986
870.169	-1087
870.254	765
870.339	-618
870.424	-1592
870.509	-939
870.593	-679
870.678	-724
870.763	-704
870.847	-1295
870.932	-554
871.016	151
871.101	-557
871.186	-1297
871.270	-755
871.355	-904
871.439	-311
871.523	-1318
871.608	-1265
871.692	7
871.777	-193
871.861	-240
871.945	-1561
872.030	-1037
872.114	-1664
872.198	-575
872.282	-868
872.367	-1301
872.451	-1016
872.535	-2015
872.619	-1106
872.703	-1733
872.787	-849
872.871	-654
872.955	-773
873.039	-1476
873.123	-977
873.207	-1348
873.291	-1167
873.375	-1458
873.459	-1082
873.543	-1287
873.627	-666
873.711	-952
873.794	-661
873.878	-1831
873.962	-883
874.045	-1049
874.129	-1316
874.137	-1305
874.213	-1195
874.245	-1012
874.296	-716
874.352	-1325
874.380	-1628
874.460	-372
874.464	-322
874.547	-1575
874.568	-1369
874.631	-754
874.676	-695
874.714	-645
874.784	-959
874.798	-1021
874.881	252
874.892	139
874.965	-655
874.999	-539
875.048	-378
875.107	-468
875.131	-514
875.215	-1005
875.215	-1004
875.298	-520
875.323	-659
875.381	-1002
875.430	-1061
875.465	-1101
875.538	-834
875.548	-801
875.631	-1038
875.646	-1072
875.714	-1239
875.753	-1180
875.798	-1085
875.861	-1223
875.881	-1266
875.964	-591
875.968	-625
876.047	-1311
876.076	-1179
876.130	-902
876.183	-792
876.213	-701
876.291	-580
876.296	-583
876.379	-1080
876.398	-1167
876.462	-1261
876.506	-1360
876.545	-1526
876.613	-591
876.628	-396
876.711	-1268
876.721	-1233
876.794	-817
876.828	-709
876.877	-641
876.935	-782
876.960	-790
877.043	-207
877.043	-207
877.125	-58
877.150	-82
877.208	-154
877.258	-578
877.291	-863
877.365	-527
877.374	-490
877.456	-128
877.472	-215
877.539	-381
877.579	-406
877.622	-547
877.687	-486
877.704	-465
877.787	-175
877.794	-240
877.869	-944
877.901	-824
877.952	-602
878.008	-484
878.034	-451
878.115	-289
878.117	-279
878.199	-909
878.222	-698
878.282	-384
878.329	-269
878.364	-113
878.437	-556
878.447	-630
878.529	-1363
878.544	-1256
878.611	-844
878.651	-912
878.694	-763
878.758	-297
878.776	-216
878.858	-337
878.865	-356
878.941	-760
878.972	-900
879.023	-986
879.078	-937
879.105	-848
879.185	-579
879.187	-578
879.269	-936
879.292	-846
879.351	-542
879.399	-591
879.433	-602
879.506	-216
879.516	-169
879.598	-329
879.613	-385
879.680	-468
879.720	-173
879.762	25
879.827	-735
879.844	-916
879.926	-684
879.933	-638
880.007	-248
880.040	-379
880.089	-562
880.147	-448
880.171	-358
880.253	-89
880.254	-88
880.335	410
880.360	519
880.417	1104
880.467	1683
880.499	2140
880.574	3304
880.580	3282
880.662	1137
880.680	747
880.744	-159
880.787	-497
880.825	-613
880.893	-738
880.907	-829
880.989	-492
881.000	-590
881.070	-610
881.106	-502
881.152	-601
881.213	-532
881.233	-478
881.315	-539
881.319	-555
881.396	-616
881.426	-500
881.478	-449
881.532	-242
881.559	-107
881.639	-350
881.641	-357
881.722	-510
881.745	-613
881.803	-567
881.852	-382
881.885	-520
881.958	-786
881.966	-743
882.047	-395
882.064	-328
882.129	-332
882.171	-30
882.210	322
882.277	394
882.291	394
882.372	139
882.383	35
882.454	-934
882.489	-920
882.535	-568
882.596	-84
882.616	-43
882.697	-370
882.702	-416
882.778	-546
882.808	-318
882.859	-130
882.914	-317
882.940	-379
883.020	-96
883.021	-92
883.102	-512
883.127	-505
883.183	-439
883.233	-428
883.264	-281
883.339	55
883.345	77
883.426	26
883.445	68
883.507	12
883.551	-102
883.587	-250
883.657	-524
883.668	-488
883.749	-111
883.763	-48
883.830	-45
883.869	-79
883.910	-204
883.975	-356
883.991	-208
884.072	155
884.081	219
884.152	2
884.187	-191
884.233	-350
884.292	-190
884.314	-122
884.394	-459
884.398	-466
884.475	-176
884.504	-4
884.555	52
884.610	-3
884.636	54
884.716	278
884.716	284
884.797	395
884.821	384
884.877	109
884.927	-103
884.958	-119
885.033	154
885.038	158
885.118	-317
885.139	-349
885.199	-168
885.244	-291
885.279	-263
885.350	296
885.359	316
885.439	154
885.456	53
885.520	-143
885.561	-23
885.600	52
885.667	144
885.680	182
885.760	207
885.773	216
885.840	120
885.878	-5
885.920	-179
885.984	-467
886.000	-430
886.080	80
886.089	103
886.160	-191
886.195	-278
886.240	-172
886.300	-235
886.320	-142
886.400	407
886.406	435
886.480	461
886.511	475
886.560	563
886.616	647
886.640	575
886.720	136
886.722	124
886.800	22
886.827	-4
886.879	-248
886.932	-640
886.959	-442
887.038	275
887.039	277
887.119	-43
887.143	-158
887.198	-23
887.248	107
887.278	283
887.354	841
887.358	803
887.437	-258
887.459	-533
887.517	42
887.564	451
887.596	334
887.669	149
887.676	172
887.755	346
887.774	380
887.835	125
887.880	9
887.914	162
887.985	216
887.994	168
888.073	-122
888.090	-216
888.153	-47
888.195	143
888.232	261
888.300	457
888.311	424
888.391	62
888.405	10
888.470	702
888.510	1050
888.549	607
888.615	-85
888.628	-71
888.708	12
888.720	18
888.787	282
888.825	386
888.866	483
888.930	716
888.945	746
889.024	833
889.035	843
889.103	694
889.140	597
889.182	639
889.245	672
889.261	500
889.340	-285
889.349	-378
889.419	-98
889.454	43
889.498	262
889.559	570
889.577	396
889.656	-369
889.664	-442
889.735	57
889.768	297
889.814	486
889.873	736
889.978	379
890.083	411
890.187	959
890.292	-138
890.397	237
890.501	242
890.606	849
890.710	1007
890.815	350
890.919	1324
891.024	676
891.128	374
891.233	232
891.337	935
891.442	-75
891.546	18
891.650	509
891.755	510
891.859	1423
891.963	-126
892.068	1136
892.172	595
892.276	652
892.380	769
892.484	797
892.589	107
892.693	234
892.797	803
892.901	631
893.005	248
893.109	644
893.213	819
893.317	253
893.421	1192
893.525	350
893.629	243
893.733	-245
893.837	16
893.941	578
894.045	1093
894.148	551
894.252	1611
894.356	828
894.460	866
894.564	4
894.667	9
894.771	464
894.875	819
894.978	385
895.082	-106
895.186	664
895.289	998
895.393	1077
895.496	676
895.600	743
895.703	286
895.807	419
895.910	816
896.014	347
896.117	936
896.221	-311
896.324	478
896.427	427
896.531	381
896.634	465
896.737	885
896.840	991
896.944	1073
897.047	68
897.150	271
897.253	-476
897.356	1278
897.460	505
897.563	1097
897.666	691
897.769	332
897.872	-415
897.975	673
898.078	575
898.181	467
898.284	-599
898.387	47
898.490	591
898.593	481
898.695	723
898.798	604
898.901	479
899.004	266
899.107	646
899.209	1432
899.312	255
899.415	906
899.518	849
899.620	-464
899.723	340
899.826	853
899.928	1339
900.031	187
900.133	594
900.236	-78
900.338	633
900.441	574
900.543	388
900.646	220
900.748	-76
900.851	538
900.953	742
901.055	555
901.158	1156
901.260	805
901.362	342
901.465	335
901.567	193
901.669	1028
901.771	835
901.873	437
901.976	1212
902.078	600
902.180	-15
902.282	539
902.384	581
902.486	641
902.588	498
902.690	1182
902.792	1192
902.894	1249
902.996	708
903.098	660
903.200	352
903.302	1187
903.404	448
903.505	683
903.607	1163
903.709	1479
903.811	-222
903.913	1326
904.014	1272
904.116	536
904.218	990
904.319	1133
904.421	1050
904.523	923
904.624	1063
904.726	1050
904.827	1207
904.929	983
905.030	251
905.132	693
905.233	492
905.335	402
905.436	869
905.537	495
905.639	1120
905.740	1663
905.841	760
905.943	1347
906.044	1827
906.145	971
906.247	655
906.348	558
906.449	804
906.550	195
906.651	1138
906.752	507
906.854	-28
906.955	784
907.056	850
907.157	574
907.258	1471
907.359	62
907.460	751
907.561	1447
907.662	1156
907.762	357
907.863	714
907.964	632
908.065	1009
908.166	927
908.267	560
908.367	283
908.468	888
908.569	615
908.670	501
908.770	1598
908.871	1026
908.971	1005
909.072	601
909.173	544
909.273	253
909.374	174
909.474	459
909.575	1046
909.675	-55
909.776	1238
909.876	320
909.977	594
910.077	811
910.177	166
910.278	984
910.378	541
910.478	912
910.579	6
910.679	423
910.779	1003
910.879	1306
910.980	188
911.080	-219
911.180	1012
911.280	1099
911.380	770
911.480	350
911.580	377
911.680	713
911.780	1181
911.880	1131
911.980	731
912.080	66
912.180	1349
912.280	801
912.380	530
912.480	760
912.580	1176
912.679	684
912.779	-164
912.879	706
912.979	491
913.078	342
913.178	249
913.278	1360
913.377	934
913.477	653
913.577	677
913.676	852
913.776	518
913.875	615
913.975	1103
914.074	604
914.174	340
914.273	399
914.373	1204
914.472	756
914.572	824
914.671	861
914.770	537
914.870	596
914.969	348
915.068	-340
915.167	787
915.267	274
915.366	211
915.465	1461
915.564	846
915.663	854
915.763	309
915.862	908
915.961	93
916.060	390
916.159	-21
916.258	264
916.357	797
916.456	658
916.555	160
916.654	-2
916.752	367
916.851	-139
916.950	735
917.049	1010
917.148	1
917.247	-209
917.345	827
917.444	222
917.543	171
917.642	366
917.740	342
917.839	631
917.937	990
918.036	578
918.135	575
918.233	-361
918.332	315
918.430	303
918.529	53
918.627	845
918.726	210
918.824	861
918.923	875
919.021	537
919.119	771
919.218	263
919.316	460
919.414	1280
919.512	579
919.611	-59
919.709	-242
919.807	469
919.905	466
920.003	1152
920.102	708
920.200	-456
920.298	402
920.396	371
920.494	489
920.592	420
920.690	558
920.788	-72
920.886	549
920.984	262
921.082	-810
921.180	703
921.277	334
921.375	634
921.473	-411
921.571	-619
921.669	-252
921.766	631
921.864	478
921.962	-304
922.060	-745
922.157	170
922.255	-137
922.352	172
922.450	808
922.548	195
922.645	-43
922.743	404
922.840	-333
922.938	1113
923.035	419
923.133	696
923.230	-124
923.327	110
923.425	-288
923.522	120
923.619	-480
923.717	-153
923.814	888
923.911	340
924.008	821
924.106	-794
924.203	42
924.300	738
924.397	-5
924.494	337
924.591	78
924.688	234
924.786	-397
924.883	-284
924.979	-12
925.077	134
925.173	-1087
925.270	95
925.367	-285
925.464	447
925.561	1006
925.658	290
925.755	492
925.852	1133
925.948	818
926.045	1922
926.142	1520
926.239	2124
926.335	1420
926.432	1767
926.529	661
926.625	2067
926.722	1414
926.818	1133
926.915	-250
927.011	418
927.108	370
927.204	117
927.301	461
927.397	593
927.494	649
927.590	-92
927.687	-757
927.783	555
927.879	-749
927.976	-459
928.072	-84
928.168	-380
928.264	45
928.361	114
928.457	38
928.553	-111
928.649	-53
928.745	-247
928.841	15
928.937	-284
929.033	31
929.129	-516
929.225	-295
929.321	-401
929.417	-11
929.513	-1071
929.609	-354
929.705	223
929.801	-32
929.897	142
929.993	-677
930.089	40
930.184	-345
930.280	259
930.376	-802
930.471	26
930.567	-352
930.663	350
930.758	-1013
930.854	-1009
930.950	-502
931.045	5
931.141	320
931.236	-559
931.332	445
931.427	-576
931.523	125
931.618	-2
931.714	-317
931.809	-434
931.905	49
932.000	-840
932.095	-648
932.191	-734
932.286	-547
932.381	38
932.476	-790
932.572	-283
932.667	-397
932.762	-2
932.857	-305
932.952	-941
933.047	-316
933.142	-656
933.237	-1025
933.332	-541
933.427	-22
933.522	-348
933.617	-800
933.712	-801
933.807	-135
933.902	-573
933.997	141
934.092	263
934.187	-904
934.282	-779
934.376	-193
934.471	-52
934.566	-198
934.661	-438
934.755	-671
934.850	-954
934.945	-390
935.039	-160
935.134	-372
935.228	-409
935.323	-580
935.417	-489
935.512	-358
935.606	-665
935.701	17
935.795	-1285
935.890	-743
935.984	-405
936.079	-1056
936.173	-272
936.267	-107
936.362	-436
936.456	-944
936.550	42
936.644	-597
936.738	-831
936.833	257
936.927	-536
937.021	-874
937.115	-303
937.209	-762
937.303	-319
937.397	-540
937.491	-225
937.585	-31
937.679	-1015
937.773	-304
937.867	-229
937.961	282
938.055	-884
938.149	33
938.243	403
938.337	-228
938.430	-168
938.524	1122
938.618	1669
938.712	2153
938.805	-5
938.899	-297
938.993	-319
939.086	737
939.180	3320
939.274	4134
939.367	1501
939.461	1
939.554	-293
939.648	-34
939.741	-147
939.835	-495
939.928	-712
940.022	-327
940.115	-490
940.208	-164
940.302	-459
940.395	-408
940.488	-645
940.582	-337
940.675	419
940.768	61
940.861	-191
940.954	-92
941.048	-998
941.141	-180
941.234	-979
941.327	233
941.420	762
941.513	-47
941.606	-193
941.699	715
941.792	-694
941.885	-1152
941.978	-526
942.071	-222
942.164	171
942.257	-134
942.349	-346
942.442	-1098
942.535	-817
942.628	-632
942.721	-647
942.813	-1094
942.906	156
942.999	-643
943.091	-707
943.184	-519
943.277	-919
943.369	-595
943.462	-4
943.554	-772
943.647	-1228
943.739	39
943.832	-149
943.924	-1689
944.017	119
944.109	-1334
944.201	-999
944.294	148
944.386	308
944.478	-259
944.571	-269
944.663	-870
944.755	-279
944.847	-13
944.940	96
945.032	-776
945.124	181
945.216	547
945.308	-80
945.400	-126
945.492	205
945.584	-953
945.676	-315
945.768	297
945.860	105
945.952	-721
946.044	-30
946.136	-523
946.228	-586
946.320	-1285
946.412	-620
946.503	-878
946.595	463
946.687	-20
946.779	-754
946.870	-510
946.962	-1032
947.054	-205
947.145	230
947.237	-155
947.329	-686
947.420	-793
947.512	-46
947.603	-659
947.695	289
947.786	-1304
947.878	-1012
947.969	-182
948.061	-749
948.152	-878
948.243	-397
948.335	-299
948.426	-1187
948.517	-664
948.609	-374
948.700	-220
948.791	-612
948.882	-503
948.973	-1104
949.065	-93
949.156	-238
949.247	-1253
949.338	-231
949.429	-773
949.520	-329
949.611	-1625
949.702	-812
949.793	-756
949.884	-625
949.975	-357
950.066	-1053
950.157	-592
950.247	-375
950.338	-968
950.429	-745
950.520	-253
950.611	417
950.701	-891
950.792	-142
950.883	-391
950.973	-370
951.064	-1155
951.155	-995
951.245	-59
951.336	-932
951.427	-713
951.517	386
951.608	-1018
951.698	-735
951.788	-187
951.879	-26
951.969	-831
952.060	-935
952.150	-383
952.240	-722
952.331	-1181
952.421	789
952.511	-1110
952.602	-1219
952.692	-666
952.782	-597
952.872	-350
952.962	-983
953.052	-337
953.143	-1238
953.233	-621
953.323	-135
953.413	-840
953.503	-459
953.593	-638
953.683	-40
953.773	-797
953.863	-760
953.953	-730
954.042	-332
954.132	-811
954.222	-723
954.312	-656
954.402	-752
954.492	-816
954.581	-182
954.671	-891
954.761	-769
954.850	17
954.940	-743
955.030	-714
955.119	-592
955.209	-584
955.298	-1158
955.388	-314
955.477	214
955.567	-659
955.656	-524
955.746	504
955.835	-510
955.925	-1134
956.014	73
956.103	-1231
956.193	-365
956.282	-958
956.371	37
956.461	-521
956.550	-222
956.639	-73
956.728	-1043
956.817	-721
956.906	-158
956.995	-77
957.085	-1117
957.174	-607
957.263	-774
957.352	-970
957.441	-1132
957.530	-561
957.619	-336
957.708	-552
957.796	-627
957.885	-388
957.974	-659
958.063	-303
958.152	-669
958.241	-117
958.329	-388
958.418	-986
958.507	-1304
958.596	-118
958.684	-596
958.773	169
958.861	491
958.950	-234
959.039	-374
959.127	-173
959.216	-109
959.304	-1035
959.393	-811
959.481	377
959.570	340
959.658	-450
959.746	204
959.835	-522
959.923	757
960.011	-466
960.100	347
960.188	-846
960.276	-769
960.365	-579
960.453	-571
960.541	-886
960.629	-422
960.717	227
960.805	-441
960.893	-556
960.981	-1307
961.069	-320
961.158	-1691
961.245	-53
961.333	-450
961.421	-1034
961.509	-551
961.597	-1139
961.685	-735
961.773	-486
961.861	-607
961.949	62
962.036	-1607
962.124	-583
962.212	-937
962.299	-536
962.387	-785
962.475	-525
962.562	-1919
962.650	-132
962.738	-519
962.825	-816
962.913	-762
963.000	-1233
963.088	-1081
963.175	-980
963.263	-266
963.350	-1273
963.438	-1642
963.525	-1267
963.612	-159
963.700	-963
963.787	602
963.874	-429
963.962	-647
964.049	-1504
964.136	-365
964.223	-1275
964.310	-656
964.398	-1066
964.485	-751
964.572	-1149
964.659	-812
964.746	133
964.833	-1360
964.920	-782
965.007	-1321
965.094	-604
965.181	-1249
965.268	-690
965.355	-588
965.441	-803
965.528	-1452
965.615	-835
965.702	-997
965.789	-1328
965.875	-324
965.962	-568
966.049	-1108
966.136	-930
966.222	-1298
966.309	-877
966.395	-1412
966.482	-645
966.569	-1252
966.655	-904
966.742	-1141
966.828	-1186
966.915	-1198
967.001	-384
967.087	-1261
967.174	-1871
967.260	-158
967.347	-404
967.433	-710
967.519	-177
967.605	-1010
967.692	-948
967.778	-1005
967.864	-1093
967.950	-526
968.036	-1422
968.123	-1050
968.209	-595
968.295	-1570
968.381	-239
968.467	-973
968.553	-1714
968.639	-526
968.725	-1210
968.811	-1352
968.897	-617
968.983	-1459
969.069	-1729
969.154	-292
969.240	-497
969.326	-1631
969.412	-995
969.497	-878
969.583	-1026
969.669	-712
969.755	-1263
969.840	-1268
969.926	-721
970.012	-1737
970.097	-1037
970.183	-2786
970.268	-1591
970.354	-878
970.439	-1648
970.525	193
970.610	-2009
970.696	-122
970.781	-1303
970.866	-2209
970.952	-1267
971.037	-1977
971.122	-2122
971.208	-430
971.293	-763
971.378	-1845
971.463	-1095
971.549	-701
971.634	-1435
971.719	-678
971.804	-439
971.889	-878
971.974	-1601
972.059	-1425
972.144	-1474
972.229	-1201
972.314	-2050
972.399	-974
972.484	-1197
972.569	-578
972.654	-1208
972.739	-600
972.824	-1821
972.908	-782
972.993	-1807
973.078	-1011
973.163	-960
973.247	-1043
973.332	-2957
973.417	-694
973.501	-1938
973.586	-1115
973.671	-1052
973.755	-1279
973.840	-61
973.924	-1450
974.009	-1650
974.093	-850
974.178	-171
974.262	-1536
974.346	-1152
974.431	-1358
974.515	-1452
974.600	-1071
974.684	-711
974.768	-944
974.852	-629
974.937	-2090
975.021	-1286
975.105	-1306
975.189	-762
975.273	-866
975.358	-2339
975.442	-1464
975.526	-312
975.610	-2163
975.694	-1852
975.778	-348
975.862	-1251
975.946	-2937
976.030	-879
976.114	-1320
976.198	-1652
976.281	-1633
976.365	-1038
976.449	-1895
976.533	-1039
976.617	-1578
976.700	-1362
976.784	-429
976.868	-1594
976.951	-901
977.035	-1222
977.119	-1166
977.202	-1411
977.286	-404
977.369	-790
977.453	-414
977.536	-1558
977.620	-1254
977.703	-954
977.787	-1751
977.870	-673
977.953	-619
978.037	-1005
978.120	96
978.203	-2068
978.287	-1121
978.370	-1572
978.453	-1396
978.536	-1199
978.620	-534
978.703	-1112
978.786	-761
978.869	-1039
978.952	-2658
979.035	-256
979.118	-1632
979.201	-1352
979.284	-935
979.367	-1946
979.450	-1618
979.533	-1916
979.616	-1537
979.699	-1477
979.782	-1115
979.865	-916
979.948	-1619
980.030	-1969
980.113	-1060
980.196	-2578
980.279	-986
980.361	-1318
980.444	-1454
980.526	-510
980.609	-596
980.692	-2549
980.774	-636
980.857	-2319
980.939	-1245
981.022	-1418
981.104	-1125
981.187	-1728
981.269	-814
981.352	-1017
981.434	-2449
981.516	-1153
981.599	-769
981.681	-1531
981.763	-918
981.846	-1398
981.928	-950
982.010	-1153
982.092	-1879
982.174	-126
982.256	-1642
982.339	-1192
982.421	-1228
982.503	-529
982.585	-1502
982.667	-1887
982.749	-1068
982.831	-1044
982.913	-2114
982.995	-187
983.077	-1528
983.158	-496
983.240	-1875
983.322	-1087
983.404	-782
983.486	-2258
983.568	-1159
983.649	-579
983.731	-1193
983.813	-1767
983.894	-471
983.976	-1802
984.058	-1863
984.139	-1187
984.221	-2690
984.302	-1215
984.384	-1042
984.465	-2267
984.547	-695
984.628	-1282
984.710	-535
984.791	-1125
984.872	-1584
984.954	-784
985.035	-1336
985.116	-1639
985.198	-896
985.279	-385
985.360	-1640
985.441	-1621
985.522	-707
985.604	-1584
985.685	-2542
985.766	-363
985.847	-80
985.928	-2062
986.009	-1460
986.090	-1100
986.171	-1783
986.252	-1101
986.333	-744
986.414	-796
986.495	-250
986.576	-1472
986.656	-1344
986.737	-1495
986.818	-1539
986.899	-1887
986.980	-982
987.060	-55
987.141	-1163
987.222	-1207
987.302	-1330
987.383	-1156
987.464	-1545
987.544	-1760
987.625	-1828
987.705	-808
987.786	-1809
987.866	-2046
987.947	-831
988.027	-2253
988.108	-2102
988.188	-1653
988.268	-935
988.349	-810
988.429	-1336
988.509	-919
988.589	-1037
988.670	-2305
988.750	263
988.830	-2344
988.910	-1364
988.990	-1625
989.070	-1115
989.151	-1373
989.231	-1846
989.311	-1482
989.391	-1508
989.471	-1519
989.551	-1373
989.631	-1786
989.711	-1169
989.791	-1912
989.870	-2194
989.950	-790
990.030	-2100
990.110	-1068
990.190	-1209
990.269	-976
990.349	-1549
990.429	-1407
990.509	-1096
990.588	-2079
990.668	-1055
990.747	-1274
990.827	-843
990.907	-1899
990.986	-1703
991.066	-395
991.145	-675
991.225	-1797
991.304	-759
991.383	-1288
991.463	-1558
991.542	-957
991.622	-1408
991.701	-2639
991.780	-2650
991.859	-1482
991.939	-1671
992.018	-1752
992.097	-1391
992.176	-1306
992.256	-820
992.335	-1894
992.414	-1020
992.493	-2160
992.572	-2228
992.651	-784
992.730	-1637
992.809	-1286
992.888	-1148
992.967	-1582
993.046	-1446
993.125	-2091
993.203	-1853
993.282	-1098
993.361	-694
993.440	-1387
993.519	-1929
993.597	-926
993.676	-1538
993.755	-1000
993.834	-1385
993.912	-887
993.991	-540
994.069	-1491
994.148	-1336
994.226	-1894
994.305	-1424
994.384	-1934
994.462	-843
994.540	-1954
994.619	-1682
994.697	-1531
994.776	-1998
994.854	-477
994.932	-2239
995.011	-1008
995.089	-2173
995.167	-1596
995.245	-1425
995.324	-2342
995.402	-1421
995.480	-1453
995.558	-1329
995.636	-2639
995.714	-2736
995.792	-816
995.870	-1401
995.948	-1776
996.026	-229
996.104	-2636
996.182	-1527
996.260	-1760
996.338	-1546
996.416	-1608
996.494	-1408
996.572	-467
996.649	-2062
996.727	-2608
996.805	-1232
996.883	-1739
996.960	-2153
997.038	-1019
997.116	-785
997.193	-1832
997.271	-1531
997.348	-1652
997.426	-1381
997.504	-1953
997.581	-798
997.658	-938
997.736	-1753
997.813	-1695
997.891	-251
997.968	-1805
998.046	-1748
998.123	-1099
998.200	-594
998.277	-2523
998.355	-1116
998.432	-2458
998.509	-1923
998.586	-811
998.663	-1591
998.741	-2097
998.818	-1660
998.895	-1935
998.972	-392
999.049	-1601
999.126	-1975
999.203	-1214
999.280	-1610
999.357	-2225
999.434	-950
999.511	-947
999.587	-1497
999.664	-1810
999.741	-1319
999.818	-1208
999.895	-1531
999.971	-1513
1000.048	-1539
1000.125	-1220
1000.202	-2330
1000.278	-2177
1000.355	-1173
1000.431	-1174
1000.508	-2051
1000.584	-1690
1000.661	-1437
1000.738	-2235
1000.814	-1506
1000.890	-1456
1000.967	-2355
1001.043	-2216
1001.120	-2778
1001.196	-1237
1001.272	-2220
1001.349	-1824
1001.425	-1342
1001.501	-1373
1001.577	-1399
1001.654	-1720
1001.730	-1551
1001.806	-1817
1001.882	-2441
1001.958	-1652
1002.034	-1991
1002.110	-2048
1002.186	-1960
1002.262	-1459
1002.338	-2931
1002.414	-1470
1002.490	-792
1002.566	-2429
1002.642	-806
1002.718	-752
1002.794	-2052
1002.870	-1318
1002.945	-1980
1003.021	-2504
1003.097	-1387
1003.173	-1533
1003.248	-2833
1003.324	-1786
1003.400	-906
1003.475	-2560
1003.551	-1837
1003.626	-1631
1003.702	-1212
1003.777	-1089
1003.853	-1652
1003.928	-2380
1004.004	-1519
1004.079	-864
1004.155	-1741
1004.230	-2278
1004.305	-568
1004.381	-1812
1004.456	-2839
1004.531	-2474
1004.607	-1060
1004.682	-2272
1004.757	-1717
1004.832	-2217
1004.907	-1567
1004.982	-881
1005.057	-2053
1005.133	-1455
1005.208	-1761
1005.283	-2141
1005.358	-966
1005.433	-2932
1005.508	-1441
1005.583	-1922
1005.657	-2416
1005.732	-1920
1005.807	-2039
1005.882	-1633
1005.957	-1814
1006.032	-2509
1006.106	-1979
1006.181	-1732
1006.256	-2618
1006.331	-2001
1006.405	-1847
1006.480	-1667
1006.554	-2687
1006.629	-1804
1006.704	-2076
1006.778	-1318
1006.853	-1546
1006.927	-2032
1007.002	-2615
1007.076	-2275
1007.150	-2358
1007.225	-1192
1007.299	-1928
1007.373	-3101
1007.448	-2585
1007.522	-1131
1007.596	-2300
1007.671	-2616
1007.745	-2104
1007.819	-2194
1007.893	-2307
1007.967	-1620
1008.041	-2283
1008.115	-1249
1008.190	-2050
1008.264	-1619
1008.338	-2389
1008.412	-2207
1008.486	-2468
1008.560	-2104
1008.633	-3767
1008.707	-2757
1008.781	-2000
1008.855	-2849
1008.929	-2389
1009.003	-2551
1009.076	-2305
1009.150	-2121
1009.224	-2285
1009.298	-1787
1009.371	-2703
1009.445	-2232
1009.519	-1377
1009.592	-2838
1009.666	-2053
1009.739	-2086
1009.813	-2796
1009.886	-984
1009.960	-2382
1010.033	-1709
1010.107	-1797
1010.180	-2319
1010.253	-1928
1010.327	-2455
1010.400	-1820
1010.473	-2302
1010.547	-1700
1010.620	-2331
1010.693	-1520
1010.766	-1808
1010.840	-1184
1010.913	-1776
1010.986	-2348
1011.059	-1321
1011.132	-1502
1011.205	-1555
1011.278	-1637
1011.351	-2617
1011.424	-1878
1011.497	-1593
1011.570	-2372
1011.643	-2101
1011.716	-2505
1011.789	-1877
1011.862	-2003
1011.934	-2270
1012.007	-2361
1012.080	-2144
1012.153	-1831
1012.225	-1585
1012.298	-1644
1012.371	-2008
1012.443	-1721
1012.516	-3272
1012.588	-2034
1012.661	-1921
1012.733	-2226
1012.806	-1273
1012.879	-2182
1012.951	-2061
1013.023	-2147
1013.096	-1690
1013.168	-2173
1013.241	-1719
1013.313	-1636
1013.385	-2813
1013.458	-1762
1013.530	-1527
1013.602	-2944
1013.674	-961
1013.746	-2781
1013.819	-2638
1013.891	-1842
1013.963	-2081
1014.035	-2798
1014.107	-2762
1014.179	-1218
1014.251	-2318
1014.323	-1874
1014.395	-1281
1014.467	-1511
1014.539	-1899
1014.611	-2164
1014.683	-2526
1014.754	-2678
1014.826	-1954
1014.898	-2266
1014.970	-2502
1015.042	-1381
1015.113	-1845
1015.185	-917
1015.257	-2277
1015.328	-1752
1015.400	-2672
1015.471	-2133
1015.543	-2858
1015.615	-1902
1015.686	-2848
1015.757	-1743
1015.829	-1262
1015.901	-2796
1015.972	-1847
1016.043	-2599
1016.115	-2251
1016.186	-1949
1016.257	-2633
1016.328	-1455
1016.400	-2408
1016.471	-2148
1016.542	-2174
1016.613	-1907
1016.685	-2615
1016.756	-2007
1016.827	-2614
1016.898	-2479
1016.969	-947
1017.040	-2030
1017.111	-2278
1017.182	-2412
1017.253	-2043
1017.324	-1595
1017.395	-2348
1017.466	-1672
1017.537	-1932
1017.608	-2201
1017.678	-2145
1017.749	-2434
1017.820	-1914
1017.891	-2362
1017.961	-1801
1018.032	-2069
1018.103	-2031
1018.173	-1461
1018.244	-2155
1018.315	-1695
1018.385	-1859
1018.456	-1912
1018.526	-1986
1018.597	-1718
1018.667	-1551
1018.738	-1379
1018.808	-1581
1018.878	-2347
1018.949	-1730
1019.019	-2283
1019.089	-2015
1019.160	-2051
1019.230	-2773
1019.300	-1528
1019.371	-2733
1019.441	-2247
1019.511	-2055
1019.581	-2119
1019.651	-1065
1019.721	-1946
1019.791	-1760
1019.861	-2164
1019.931	-1400
1020.001	-2409
1020.071	-1499
1020.141	-1925
1020.211	-1967
1020.281	-2209
1020.351	-1503
1020.421	-1218
1020.491	-1797
1020.560	-2132
1020.630	-2022
1020.700	-1695
1020.770	-2630
1020.839	-2037
1020.909	-1642
1020.979	-2044
1021.048	-2079
1021.118	-2166
1021.187	-2092
1021.257	-1875
1021.326	-1559
1021.396	-2555
1021.465	-1608
1021.535	-2277
1021.604	-2507
1021.674	-1863
1021.743	-2512
1021.812	-1816
1021.882	-2042
1021.951	-2127
1022.020	-2032
1022.089	-549
1022.159	-2266
1022.228	-1868
1022.297	-1766
1022.366	-1591
1022.435	-1931
1022.504	-1786
1022.573	-1938
1022.642	-1522
1022.711	-1758
1022.781	-938
1022.849	-1553
1022.918	-2737
1022.987	-1353
1023.056	-2362
1023.125	-1600
1023.194	-1611
1023.263	-1477
1023.331	-1713
1023.400	-2375
1023.469	-2039
1023.538	-1492
1023.606	-2321
1023.675	-1805
1023.744	-2342
1023.812	-2481
1023.881	-1533
1023.949	-2085
1024.018	-2326
1024.086	-2741
1024.155	-2893
1024.223	-2216
1024.292	-1638
1024.360	-2409
1024.429	-2223
1024.497	-1939
1024.565	-2835
1024.634	-2589
1024.702	-1438
1024.770	-2159
1024.838	-2111
1024.907	-1864
1024.975	-1762
1025.043	-2179
1025.111	-1688
1025.179	-1294
1025.247	-1206
1025.315	-1592
1025.383	-1832
1025.451	-1929
1025.519	-2303
1025.587	-2178
1025.655	-1426
1025.723	-1548
1025.791	-1863
1025.859	-1724
1025.927	-1477
1025.995	-1369
1026.062	-1978
1026.130	-1638
1026.198	-2399
1026.266	-1808
1026.333	-2018
1026.401	-2202
1026.469	-1477
1026.536	-1642
1026.604	-1128
1026.671	-2364
1026.739	-2179
1026.806	-1594
1026.874	-1588
1026.941	-1877
1027.009	-2111
1027.076	-2130
1027.144	-1295
1027.211	-2287
1027.278	-1993
1027.345	-2372
1027.413	-1219
1027.480	-3030
1027.547	-1264
1027.614	-2629
1027.682	-1114
1027.749	-2218
1027.816	-2238
1027.883	-2353
1027.950	-1463
1028.017	-2318
1028.084	-1166
1028.151	-2549
1028.218	-1753
1028.285	-1282
1028.352	-2560
1028.419	-2724
1028.486	-1999
1028.553	-2148
1028.619	-1590
1028.686	-1622
1028.753	-2453
1028.820	-2167
1028.886	-1462
1028.953	-2527
1029.020	-1748
1029.086	-2460
1029.153	-1942
1029.220	-1846
1029.286	-1703
1029.353	-1995
1029.419	-2639
1029.486	-1848
1029.552	-1821
1029.619	-1704
1029.685	-1731
1029.751	-1926
1029.818	-1677
1029.884	-1543
1029.951	-1273
1030.017	-1362
1030.083	-2272
1030.149	-1625
1030.216	-2093
1030.282	-2205
1030.348	-1636
1030.414	-2264
1030.480	-1671
1030.546	-1272
1030.612	-1787
1030.678	-2136
1030.744	-1761
1030.810	-2305
1030.876	-2173
1030.942	-1541
1031.008	-2682
1031.074	-1431
1031.140	-2007
1031.206	-1455
1031.272	-2007
1031.337	-1466
1031.403	-1317
1031.469	-1881
1031.534	-1805
1031.600	-1044
1031.666	-3349
1031.731	-2529
1031.797	-1709
1031.863	-2961
1031.928	-2068
1031.994	-1574
1032.059	-1581
1032.125	-2137
1032.190	-1847
1032.256	-2276
1032.321	-1975
1032.386	-1610
1032.452	-2041
1032.517	-2320
1032.582	-2390
1032.647	-2183
1032.713	-1834
1032.778	-2147
1032.843	-1682
1032.908	-1772
1032.974	-2305
1033.039	-2385
1033.104	-1606
1033.169	-2430
1033.234	-1395
1033.299	-956
1033.364	-2659
1033.429	-1963
1033.494	-2014
1033.559	-1251
1033.624	-1633
1033.688	-1749
1033.753	-3364
1033.818	-2635
1033.883	-2095
1033.948	-2183
1034.013	-1992
1034.077	-1930
1034.142	-2012
1034.207	-2427
1034.271	-2137
1034.336	-1560
1034.400	-1950
1034.465	-1815
1034.530	-1194
1034.594	-1941
1034.658	-1454
1034.723	-2362
1034.787	-1851
1034.852	-1848
1034.916	-1834
1034.981	-1954
1035.045	-1866
1035.109	-2023
1035.173	-1379
1035.238	-2888
1035.302	-1462
1035.366	-2025
1035.430	-2463
1035.495	-2147
1035.559	-2205
1035.623	-2387
1035.687	-2093
1035.751	-1556
1035.815	-2573
1035.879	-2006
1035.943	-1756
1036.007	-1655
1036.071	-2279
1036.135	-2076
1036.198	-1716
1036.262	-2314
1036.326	-1742
1036.390	-2269
1036.454	-1112
1036.517	-1699
1036.581	-2205
1036.645	-1914
1036.709	-1429
1036.772	-2544
1036.836	-1567
1036.900	-2463
1036.963	-2028
1037.026	-1202
1037.090	-1964
1037.154	-2191
1037.217	-1816
1037.280	-2249
1037.344	-1872
1037.407	-2614
1037.471	-1699
1037.534	-1194
1037.597	-1123
1037.661	-2125
1037.724	-2270
1037.787	-2677
1037.850	-2614
1037.913	-1581
1037.977	-2298
1038.040	-2276
1038.103	-2580
1038.166	-2317
1038.229	-2645
1038.292	-2272
1038.355	-1908
1038.418	-2035
1038.481	-1943
1038.544	-2197
1038.607	-2600
1038.670	-1609
1038.732	-2255
1038.795	-2254
1038.858	-2090
1038.921	-2516
1038.984	-1711
1039.046	-2522
1039.109	-2008
1039.172	-2594
1039.234	-1933
1039.297	-1835
1039.360	-2097
1039.422	-1824
1039.485	-2533
1039.547	-2025
1039.610	-1563
1039.672	-1472
1039.734	-2761
1039.797	-1658
1039.859	-2541
1039.922	-1019
1039.984	-1595
1040.046	-2474
1040.109	-2932
1040.171	-1934
1040.233	-2053
1040.295	-2261
1040.358	-2519
1040.420	-1674
1040.482	-1998
1040.544	-1825
1040.606	-1669
1040.668	-2879
1040.730	-1791
1040.792	-1941
1040.854	-2676
1040.916	-1912
1040.978	-1737
1041.040	-2337
1041.102	-1810
1041.164	-2721
1041.225	-1283
1041.287	-2580
1041.349	-2089
1041.411	-2203
1041.472	-1561
1041.534	-2467
1041.596	-1885
1041.657	-1753
1041.719	-2017
1041.781	-2293
1041.842	-1755
1041.904	-1830
1041.965	-1841
1042.027	-1953
1042.088	-2320
1042.150	-1150
1042.211	-2453
1042.272	-1483
1042.334	-3122
1042.395	-2305
1042.456	-2168
1042.518	-2210
1042.579	-1502
1042.640	-2472
1042.701	-1528
1042.763	-2674
1042.824	-2097
1042.885	-2652
1042.946	-2192
1043.007	-1620
1043.068	-2252
1043.129	-2346
1043.190	-1846
1043.251	-1633
1043.312	-1920
1043.373	-1872
1043.434	-1852
1043.495	-2359
1043.556	-1210
1043.616	-1913
1043.677	-1828
1043.738	-1866
1043.799	-1995
1043.859	-1760
1043.920	-2277
1043.981	-1678
1044.041	-1818
1044.102	-2140
1044.162	-1707
1044.223	-2280
1044.284	-1584
1044.344	-1675
1044.405	-2236
1044.465	-2254
1044.525	-1800
1044.586	-2031
1044.646	-2320
1044.707	-2084
1044.767	-1627
1044.827	-1897
1044.887	-1026
1044.948	-1611
1045.008	-1343
1045.068	-1824
1045.128	-1250
1045.188	-1974
1045.249	-1611
1045.309	-1941
1045.369	-1576
1045.429	-1807
1045.489	-2229
1045.549	-1358
1045.609	-1822
1045.669	-2002
1045.729	-1772
1045.789	-1554
1045.848	-1301
1045.908	-2117
1045.968	-1540
1046.028	-2098
1046.088	-1852
1046.147	-1611
1046.207	-1240
1046.267	-1256
1046.326	-1166
1046.386	-1796
1046.446	-1035
1046.505	-1161
1046.565	-1335
1046.624	-495
1046.684	-210
1046.743	-666
1046.803	-478
1046.862	200
1046.922	0
