'Start Wavelength	183.907
'End Wavelength	1046.922
'Gate Delay	5.000
'Gate Width (ms)	1.050
'Laser Output Level	0.000
'X Position	0.000
'Y Position	0.000
'Z Position	0.000
'Grid Point Number	1.000
'Shot Number	100.000
183.907	1369.000
183.977	155.000
184.047	390
184.116	955
184.186	996
184.256	989
184.325	493
184.395	-1095
184.465	2014
184.534	45
184.604	1276
184.674	889
184.743	378
184.813	472
184.883	607
184.952	88
185.022	868
185.092	-388
185.161	1088
185.231	308
185.301	1260
185.370	1415
185.440	296
185.509	285
185.579	1715
185.649	256
185.718	1222
185.788	-489
185.857	-87
185.927	201
185.996	928
186.066	-126
186.136	522
186.205	459
186.275	530
186.344	656
186.414	533
186.483	646
186.553	2541
186.622	1911
186.692	2135
186.761	-256
186.831	1299
186.900	477
186.970	1041
187.039	733
187.109	2095
187.178	172
187.248	1440
187.317	1024
187.387	1192
187.456	765
187.526	1912
187.595	913
187.664	818
187.734	929
187.803	1845
187.873	1074
187.942	1653
188.012	1210
188.081	906
188.150	1082
188.220	2324
188.289	1595
188.358	1449
188.428	680
188.497	746
188.567	930
188.636	1511
188.705	321
188.775	1704
188.844	281
188.913	2515
188.983	691
189.052	1659
189.121	67
189.191	916
189.260	1523
189.329	2115
189.399	1618
189.468	1731
189.537	645
189.606	2323
189.676	959
189.745	2389
189.814	1397
189.883	1546
189.953	1248
190.022	2542
190.091	3031
190.161	5562
190.230	2441
190.299	1339
190.368	610
190.437	1939
190.507	721
190.576	2019
190.645	1642
190.714	896
190.783	250
190.853	2489
190.922	1358
190.991	2005
191.060	930
191.129	676
191.198	1594
191.268	1389
191.337	1078
191.406	1738
191.475	1023
191.544	1220
191.613	807
191.682	1353
191.752	513
191.821	1395
191.890	1302
191.959	2097
192.028	714
192.097	1042
192.166	1097
192.235	434
192.304	1255
192.373	932
192.442	672
192.511	1016
192.580	577
192.650	1909
192.719	1021
192.788	1144
192.857	1276
192.926	1615
192.995	1024
193.064	2167
193.133	2637
193.202	3307
193.271	2545
193.340	2633
193.409	2277
193.478	3119
193.547	3425
193.615	4179
193.684	4232
193.753	2879
193.822	2111
193.891	1570
193.960	1458
194.029	1928
194.098	1993
194.167	1142
194.236	1969
194.305	2066
194.374	755
194.443	1845
194.512	1064
194.580	2002
194.649	2564
194.718	2604
194.787	1216
194.856	1195
194.925	1612
194.994	1907
195.062	1756
195.131	2091
195.200	2071
195.269	3325
195.338	1624
195.407	1479
195.475	1719
195.544	2300
195.613	2289
195.682	2273
195.751	2221
195.819	2808
195.888	1973
195.957	4043
196.026	2656
196.094	3310
196.163	2369
196.232	4195
196.301	2390
196.369	2570
196.438	1372
196.507	2422
196.576	1393
196.644	1754
196.713	1438
196.782	1786
196.850	1815
196.919	1397
196.988	2110
197.056	2219
197.125	1216
197.194	2041
197.262	1865
197.331	1748
197.400	806
197.468	1609
197.537	1212
197.606	2312
197.674	2862
197.743	4942
197.812	2550
197.880	5472
197.949	3419
198.017	4227
198.086	3485
198.155	2779
198.223	2710
198.292	5418
198.360	3521
198.429	1784
198.497	1722
198.566	3319
198.635	5857
198.703	3162
198.772	1556
198.840	5091
198.909	6607
198.977	2363
199.046	1892
199.114	2509
199.183	2449
199.251	3035
199.320	1106
199.388	2235
199.457	1355
199.525	2336
199.594	1993
199.662	1519
199.731	2183
199.799	2842
199.867	2182
199.936	2485
200.004	2470
200.073	2787
200.141	1125
200.210	2355
200.278	1733
200.346	2355
200.415	2397
200.483	3570
200.552	1517
200.620	1879
200.688	1902
200.757	3100
200.825	1407
200.893	3053
200.962	2406
201.030	2103
201.098	1416
201.167	3013
201.235	1531
201.303	2358
201.372	1911
201.440	2923
201.508	2922
201.577	2958
201.645	2086
201.713	2526
201.781	1792
201.850	4297
201.918	2540
201.986	2662
202.055	2298
202.123	2135
202.191	1792
202.259	2398
202.327	2440
202.396	3214
202.464	2494
202.532	3759
202.600	8249
202.669	6760
202.737	2710
202.805	3213
202.873	2594
202.941	2781
203.009	2264
203.078	2284
203.146	2285
203.214	1995
203.282	1850
203.350	3406
203.418	2000
203.487	3505
203.555	1955
203.623	2336
203.691	1524
203.759	2291
203.827	1985
203.895	3131
203.963	2436
204.031	2050
204.099	3171
204.168	2463
204.236	2641
204.304	3351
204.372	2154
204.440	2020
204.508	1645
204.576	2435
204.644	2350
204.712	3002
204.780	2308
204.848	2510
204.916	1751
204.984	2546
205.052	1755
205.120	2613
205.188	2221
205.256	2617
205.324	2151
205.392	2236
205.460	2381
205.528	2204
205.596	2870
205.664	2804
205.732	2183
205.799	6303
205.867	10969
205.935	3758
206.003	3380
206.071	3028
206.139	2516
206.207	3640
206.275	2315
206.343	2213
206.411	1887
206.478	2563
206.546	2947
206.614	2695
206.682	2577
206.750	2687
206.818	3986
206.885	4404
206.953	1628
207.021	2976
207.089	2816
207.157	2346
207.225	2689
207.292	2184
207.360	2625
207.428	2906
207.496	1661
207.563	3352
207.631	2644
207.699	2783
207.767	3017
207.834	2664
207.902	1867
207.970	2649
208.038	2060
208.105	3001
208.173	2566
208.241	4757
208.309	4049
208.376	4136
208.444	5615
208.512	4621
208.579	2048
208.647	4707
208.715	4419
208.782	2279
208.850	3437
208.918	2680
208.985	2875
209.053	4594
209.120	3656
209.188	3061
209.256	3135
209.323	3033
209.391	4396
209.459	4881
209.526	3048
209.594	2841
209.661	2581
209.729	3992
209.796	2718
209.864	3249
209.932	2968
209.999	4431
210.067	3626
210.134	4401
210.202	3086
210.269	5922
210.337	4428
210.404	4450
210.472	3460
210.539	4314
210.607	3052
210.674	4123
210.742	3737
210.809	3424
210.877	3467
210.944	5241
211.012	3355
211.079	5724
211.146	3958
211.214	3803
211.281	4859
211.349	5379
211.416	4628
211.484	4674
211.551	3601
211.618	4176
211.686	3801
211.753	3481
211.821	3825
211.888	4083
211.955	3498
212.023	4311
212.090	3934
212.157	3988
212.225	4405
212.292	6831
212.359	11536
212.427	26393
212.494	14637
212.561	6770
212.629	5113
212.696	4883
212.763	4131
212.831	4726
212.898	4275
212.965	3976
213.032	4852
213.100	5025
213.167	4333
213.234	5213
213.301	4011
213.369	4481
213.436	3721
213.503	3443
213.570	4581
213.638	5293
213.705	3094
213.772	3124
213.839	4338
213.906	6661
213.973	4826
214.041	4159
214.108	3996
214.175	4387
214.242	3759
214.309	3650
214.376	4528
214.444	5000
214.511	5064
214.578	5031
214.645	5037
214.712	6096
214.779	4898
214.846	4451
214.913	5380
214.980	6517
215.048	6610
215.115	7695
215.182	6877
215.249	5792
215.316	4417
215.383	5414
215.450	4218
215.517	4878
215.584	4103
215.651	4406
215.718	3896
215.785	5981
215.852	4585
215.919	7574
215.986	6200
216.053	4550
216.120	3471
216.187	6225
216.254	4827
216.321	4749
216.388	4598
216.455	6152
216.522	5555
216.589	7354
216.656	9104
216.722	9813
216.789	5634
216.856	6958
216.923	6048
216.990	6026
217.057	4987
217.124	6727
217.191	6546
217.258	8509
217.324	9435
217.391	9377
217.458	8041
217.525	6790
217.592	5327
217.659	5158
217.725	5771
217.792	8223
217.859	7695
217.926	4066
217.993	3598
218.059	4653
218.126	4104
218.193	4433
218.260	3618
218.327	3265
218.393	4109
218.460	4203
218.527	2931
218.594	4358
218.660	7284
218.727	8903
218.794	4368
218.860	4046
218.927	2894
218.994	3636
219.061	3230
219.127	4810
219.194	6307
219.261	4711
219.327	2197
219.394	4504
219.461	2951
219.527	4025
219.594	5160
219.661	4614
219.727	2179
219.794	4562
219.860	2400
219.927	4146
219.994	6204
220.060	10816
220.127	8739
220.193	6215
220.260	4870
220.326	7739
220.393	10705
220.460	14689
220.526	9594
220.593	6915
220.659	6879
220.726	7008
220.792	14289
220.859	14460
220.925	17038
220.992	23895
221.058	21034
221.125	20912
221.191	15266
221.258	7879
221.324	6546
221.391	5760
221.457	4278
221.524	4849
221.590	6209
221.657	17714
221.723	14366
221.789	11947
221.856	11758
221.922	7252
221.989	5509
222.055	5109
222.121	3598
222.188	6945
222.254	4570
222.321	3618
222.387	3540
222.453	4125
222.520	3904
222.586	3485
222.652	2709
222.719	3704
222.785	4130
222.851	3143
222.918	2971
222.984	3660
223.050	3699
223.116	3549
223.183	4105
223.249	2743
223.315	1720
223.382	3085
223.448	2194
223.514	2576
223.580	2756
223.647	2885
223.713	2157
223.779	3401
223.845	3315
223.911	4402
223.978	2338
224.044	4298
224.110	2868
224.176	3811
224.242	3347
224.309	2075
224.375	2833
224.441	3091
224.507	2194
224.573	3159
224.639	3595
224.705	2415
224.772	2295
224.838	3309
224.904	4147
224.970	3969
225.036	3029
225.102	2976
225.168	3531
225.234	4042
225.300	3766
225.366	3192
225.432	3359
225.499	2880
225.565	3636
225.631	4426
225.697	3217
225.763	3822
225.829	5098
225.895	5591
225.961	8109
226.027	8299
226.093	6020
226.159	7452
226.225	9664
226.291	20023
226.357	36594
226.423	21379
226.489	12718
226.554	8576
226.620	7054
226.686	9102
226.752	15010
226.818	20462
226.884	43331
226.950	42477
227.016	16942
227.082	11062
227.148	8515
227.214	10549
227.279	7886
227.345	7009
227.411	6431
227.477	8078
227.543	14751
227.609	15460
227.674	9505
227.740	6530
227.806	5674
227.872	5840
227.938	4793
228.003	8883
228.069	4907
228.135	3837
228.201	3756
228.267	3845
228.332	5831
228.398	7398
228.464	5000
228.530	3628
228.595	3678
228.661	3880
228.727	6904
228.792	7903
228.858	4460
228.924	4041
228.990	7172
229.055	5440
229.121	7301
229.187	4294
229.252	4638
229.318	4322
229.384	4263
229.449	7486
229.515	2559
229.581	2173
229.646	4305
229.712	5441
229.777	9338
229.843	11677
229.909	8319
229.974	9242
230.040	8964
230.105	6425
230.171	6974
230.236	8738
230.302	12928
230.368	11500
230.433	6517
230.499	6399
230.564	6966
230.630	5561
230.695	4166
230.761	5068
230.826	3277
230.892	8319
230.957	4851
231.023	4547
231.088	5105
231.154	4663
231.219	4571
231.284	7339
231.350	8004
231.415	4741
231.481	5297
231.546	3481
231.612	3650
231.677	4065
231.742	2799
231.808	5797
231.873	3431
231.939	2802
232.004	8206
232.069	9323
232.135	3995
232.200	4665
232.265	3480
232.331	3456
232.396	2859
232.461	3037
232.527	3108
232.592	4425
232.657	4276
232.723	7169
232.788	6747
232.853	4703
232.918	4084
232.984	3494
233.049	2899
233.114	7193
233.179	7022
233.245	9656
233.310	12900
233.375	4556
233.440	5099
233.506	3565
233.571	3109
233.636	4794
233.701	3377
233.766	8576
233.832	11876
233.897	5970
233.962	5872
234.027	7829
234.092	5517
234.157	5966
234.222	5444
234.288	7866
234.353	21597
234.418	21532
234.483	13610
234.548	10394
234.613	7634
234.678	8050
234.743	7461
234.808	23933
234.873	17169
234.938	8850
235.004	6127
235.069	6822
235.134	5052
235.199	5942
235.264	4398
235.329	4398
235.394	5712
235.459	7328
235.524	6445
235.589	6069
235.654	4581
235.719	3964
235.784	4641
235.849	6227
235.913	13394
235.978	14534
236.043	18022
236.108	8667
236.173	6501
236.238	9144
236.303	5243
236.368	4352
236.433	8700
236.498	16408
236.563	10646
236.627	15624
236.692	53774
236.757	48673
236.822	20318
236.887	16383
236.952	12873
237.017	9184
237.081	11361
237.146	13958
237.211	23556
237.276	52163
237.341	93430
237.405	49404
237.470	20489
237.535	16576
237.600	10533
237.664	9509
237.729	7222
237.794	9494
237.859	16862
237.923	15178
237.988	9260
238.053	12143
238.118	13186
238.182	26098
238.247	28638
238.312	14690
238.376	10792
238.441	9611
238.506	9134
238.570	4288
238.635	6168
238.700	5137
238.764	5314
238.829	13313
238.893	19092
238.958	10043
239.023	9615
239.087	6087
239.152	6702
239.216	5538
239.281	5521
239.346	4987
239.410	5008
239.475	6946
239.539	24936
239.604	24543
239.668	9091
239.733	6633
239.797	10054
239.862	24558
239.926	29214
239.991	13127
240.055	7327
240.120	5740
240.184	7112
240.249	6096
240.313	4991
240.378	6866
240.442	16100
240.507	28346
240.571	10717
240.635	13812
240.700	18390
240.764	8042
240.829	6522
240.893	4828
240.957	5737
241.022	14878
241.086	29271
241.151	16254
241.215	6111
241.279	9422
241.344	16379
241.408	9780
241.472	6979
241.537	8231
241.601	6581
241.665	6908
241.730	6213
241.794	8197
241.858	5986
241.922	7136
241.987	6795
242.051	5995
242.115	5520
242.179	6288
242.244	4652
242.308	6827
242.372	7657
242.436	8677
242.501	6837
242.565	5660
242.629	5571
242.693	5838
242.757	4733
242.822	6142
242.886	7067
242.950	7179
243.014	5749
243.078	8390
243.142	8112
243.206	7003
243.271	7508
243.335	7318
243.399	10942
243.463	30168
243.527	88498
243.591	33734
243.655	14987
243.719	9456
243.783	10365
243.847	15100
243.911	19760
243.975	23468
244.040	18086
244.104	10670
244.168	6749
244.232	11178
244.296	17109
244.360	17797
244.424	11259
244.488	9610
244.552	8445
244.615	5593
244.679	6058
244.743	8615
244.807	9941
244.871	7359
244.935	5746
244.999	4763
245.063	6427
245.127	9031
245.191	12323
245.255	13376
245.319	10426
245.383	10530
245.446	7788
245.510	6877
245.574	7795
245.638	8671
245.702	6737
245.766	18567
245.829	12295
245.893	9236
245.957	7668
246.021	9337
246.085	7952
246.149	10659
246.212	21386
246.276	34154
246.340	17121
246.404	12779
246.467	11722
246.531	18732
246.595	11802
246.659	11396
246.722	10055
246.786	14520
246.850	12360
246.913	18948
246.977	8165
247.041	8386
247.104	10332
247.168	9257
247.232	21914
247.295	44626
247.359	24617
247.423	11859
247.486	20412
247.550	14340
247.614	10479
247.677	15641
247.741	9262
247.804	8696
247.868	10136
247.932	18812
247.995	41287
248.059	19131
248.122	8891
248.186	12865
248.249	19068
248.313	61334
248.376	73553
248.440	47299
248.503	20126
248.567	17419
248.630	22626
248.694	31329
248.757	35970
248.821	69326
248.884	47106
248.948	39074
249.011	55212
249.075	81104
249.138	74334
249.202	32390
249.265	20221
249.328	24501
249.392	18345
249.455	16512
249.519	12683
249.582	15817
249.645	23923
249.709	19300
249.772	12458
249.835	13158
249.899	14792
249.962	13021
250.025	10797
250.089	25406
250.152	39445
250.215	21925
250.279	15171
250.342	16383
250.405	14458
250.468	13279
250.532	17046
250.595	25589
250.658	75597
250.721	138586
250.785	54285
250.848	29430
250.911	18574
250.974	16529
251.038	20059
251.101	44792
251.164	24379
251.227	25258
251.290	23554
251.354	31418
251.417	105047
251.480	121087
251.543	75432
251.606	190781
251.669	163753
251.732	65843
251.795	62113
251.859	62105
251.922	127561
251.985	85700
252.048	33672
252.111	26967
252.174	23506
252.237	40210
252.300	84898
252.363	88387
252.426	167279
252.489	82519
252.552	43018
252.615	31132
252.678	28826
252.741	61660
252.804	79431
252.867	168990
252.930	111680
252.993	65269
253.056	38330
253.119	30596
253.182	22370
253.245	37027
253.308	29424
253.371	27932
253.434	27271
253.497	24979
253.559	40744
253.622	32805
253.685	39263
253.748	46392
253.811	22251
253.874	25662
253.937	23859
254.000	19882
254.062	27321
254.125	47057
254.188	40285
254.251	39535
254.314	19344
254.376	32887
254.439	40092
254.502	35029
254.565	29695
254.628	54430
254.690	37192
254.753	22661
254.816	18580
254.878	18494
254.941	29690
255.004	34281
255.067	17194
255.129	17903
255.192	11178
255.255	9868
255.317	12839
255.380	9934
255.443	7175
255.505	8285
255.568	7567
255.631	8185
255.693	8853
255.756	7913
255.819	8815
255.881	7562
255.944	6862
256.006	7941
256.069	7187
256.132	7441
256.194	9846
256.257	27339
256.319	21101
256.382	20124
256.444	12118
256.507	10470
256.569	8341
256.632	9643
256.694	13872
256.757	29145
256.819	86713
256.882	39289
256.944	16503
257.007	15335
257.069	17056
257.132	12129
257.194	9028
257.257	9506
257.319	9463
257.381	10545
257.444	21781
257.506	91306
257.569	119199
257.631	74835
257.693	39738
257.756	19789
257.818	17055
257.880	11990
257.943	10847
258.005	10216
258.067	8848
258.130	9881
258.192	11300
258.254	24656
258.317	15414
258.379	10415
258.441	24337
258.503	27331
258.566	28633
258.628	44213
258.690	13000
258.753	12544
258.815	22851
258.877	14886
258.939	7886
259.001	9385
259.064	8366
259.126	11515
259.188	15838
259.250	11173
259.312	12836
259.375	40012
259.437	28372
259.499	12361
259.561	9278
259.623	11037
259.685	10687
259.747	10012
259.809	26463
259.872	57706
259.934	72024
259.996	78845
260.058	23945
260.120	12102
260.182	9900
260.244	8493
260.306	7592
260.368	8627
260.430	7970
260.492	17516
260.554	36925
260.616	33332
260.678	39699
260.740	65615
260.802	19015
260.864	14306
260.926	11570
260.988	12384
261.050	10896
261.112	23091
261.174	57260
261.236	50950
261.298	16776
261.359	25007
261.421	41369
261.483	13509
261.545	11167
261.607	8503
261.669	8224
261.731	16700
261.793	43853
261.854	22227
261.916	13538
261.978	11507
262.040	13301
262.102	10315
262.164	17225
262.225	16138
262.287	9299
262.349	23190
262.411	21096
262.472	10888
262.534	15786
262.596	41853
262.658	14799
262.719	9000
262.781	11383
262.843	36772
262.904	19698
262.966	12239
263.028	15893
263.090	55296
263.151	159586
263.213	58892
263.275	31822
263.336	15741
263.398	11006
263.459	8078
263.521	9380
263.583	21506
263.644	18136
263.706	8268
263.767	5978
263.829	7016
263.891	5146
263.952	5468
264.014	5091
264.075	9737
264.137	27342
264.198	15026
264.260	5890
264.321	7027
264.383	15681
264.444	42949
264.506	14191
264.567	9060
264.629	14194
264.690	34626
264.752	14420
264.813	9657
264.875	6709
264.936	7729
264.998	6960
265.059	6319
265.120	6956
265.182	9975
265.243	40166
265.305	46949
265.366	12969
265.427	9594
265.489	7362
265.550	5588
265.611	8001
265.673	9160
265.734	6707
265.795	6296
265.857	4770
265.918	6174
265.979	12567
266.040	66886
266.102	65504
266.163	19176
266.224	17803
266.286	11166
266.347	6735
266.408	8107
266.469	8605
266.530	7318
266.592	5775
266.653	14100
266.714	26916
266.775	11121
266.836	6373
266.898	6252
266.959	12313
267.020	10303
267.081	7829
267.142	6394
267.203	5912
267.264	5132
267.326	8173
267.387	7695
267.448	5506
267.509	6180
267.570	5711
267.631	6745
267.692	4783
267.753	7483
267.814	5767
267.875	12624
267.936	31318
267.997	16382
268.058	12812
268.119	8923
268.180	8533
268.241	7015
268.302	6278
268.363	5429
268.424	7283
268.485	7342
268.546	4781
268.607	4008
268.668	3393
268.729	5500
268.790	6010
268.851	8154
268.912	17730
268.972	24482
269.033	12757
269.094	7281
269.155	5742
269.216	4894
269.277	6719
269.338	5988
269.398	5526
269.459	7650
269.520	10523
269.581	14668
269.642	18851
269.702	12131
269.763	8886
269.824	7517
269.885	9966
269.945	17214
270.006	7421
270.067	5150
270.128	5784
270.188	5142
270.249	5098
270.310	5215
270.370	4895
270.431	6672
270.492	4770
270.553	6734
270.613	14258
270.674	31203
270.734	14152
270.795	8688
270.856	11653
270.916	11455
270.977	5795
271.038	9415
271.098	9756
271.159	14627
271.219	16803
271.280	7613
271.340	6278
271.401	7491
271.462	22114
271.522	14060
271.583	8484
271.643	9152
271.704	7725
271.764	10285
271.825	20501
271.885	62480
271.946	91270
272.006	32818
272.066	36350
272.127	68525
272.187	25044
272.248	14834
272.308	14303
272.369	42695
272.429	29463
272.489	21091
272.550	25118
272.610	24466
272.671	19881
272.731	16905
272.791	29895
272.852	18257
272.912	14215
272.972	10319
273.033	9187
273.093	15434
273.153	16431
273.214	11786
273.274	12707
273.334	33818
273.394	73136
273.455	35506
273.515	28798
273.575	66641
273.635	32192
273.696	36108
273.756	67547
273.816	33045
273.876	19195
273.936	34574
273.997	67498
274.057	21698
274.117	15071
274.177	21383
274.237	77848
274.297	79085
274.358	56098
274.418	55610
274.478	46202
274.538	19898
274.598	16273
274.658	49876
274.718	71296
274.778	31286
274.838	15880
274.898	30630
274.958	96410
275.018	73019
275.078	48036
275.138	22960
275.198	12681
275.258	10540
275.318	12099
275.378	23658
275.438	25625
275.498	17108
275.558	37192
275.618	84739
275.678	55119
275.738	32309
275.798	27561
275.858	16195
275.918	9169
275.978	12793
276.038	11078
276.098	9280
276.157	17190
276.217	53041
276.277	27634
276.337	19472
276.397	11592
276.457	14657
276.517	10458
276.576	8667
276.636	7899
276.696	14674
276.756	29995
276.815	27662
276.875	12780
276.935	14629
276.995	14079
277.055	9726
277.114	9146
277.174	11965
277.234	41424
277.293	21787
277.353	12115
277.413	9800
277.472	9755
277.532	11208
277.592	12394
277.651	36687
277.711	83007
277.771	29876
277.830	84176
277.890	82138
277.950	45972
278.009	131177
278.069	59008
278.128	52018
278.188	85940
278.248	36953
278.307	81769
278.367	60799
278.426	19435
278.486	14509
278.545	10928
278.605	9940
278.664	8930
278.724	11645
278.783	24084
278.843	67430
278.902	24314
278.962	15739
279.021	17579
279.081	23041
279.140	23681
279.199	18452
279.259	15474
279.318	19114
279.378	22728
279.437	42845
279.496	131255
279.556	346096
279.615	331133
279.675	102936
279.734	57102
279.793	71777
279.853	107477
279.912	45922
279.971	25635
280.031	23658
280.090	37100
280.149	72461
280.208	62569
280.268	229832
280.327	285895
280.386	81922
280.445	51550
280.505	50058
280.564	25329
280.623	21580
280.682	25020
280.742	42124
280.801	15769
280.860	13061
280.919	10964
280.978	11570
281.037	10250
281.097	9833
281.156	9689
281.215	9459
281.274	12462
281.333	41512
281.392	40246
281.451	11459
281.510	9235
281.569	9763
281.628	7342
281.688	7444
281.747	8862
281.806	10908
281.865	6545
281.924	7427
281.983	7874
282.042	6304
282.101	5999
282.160	6442
282.219	7062
282.278	8470
282.337	25809
282.396	22258
282.454	9795
282.513	11202
282.572	39375
282.631	29262
282.690	10251
282.749	7918
282.808	10803
282.867	10314
282.926	10237
282.985	7160
283.043	6249
283.102	6937
283.161	10115
283.220	19112
283.279	47762
283.338	17174
283.396	10066
283.455	10539
283.514	10142
283.573	18344
283.631	15585
283.690	10675
283.749	9335
283.808	18982
283.866	24873
283.925	11216
283.984	9533
284.043	13862
284.101	14167
284.160	11334
284.219	14775
284.277	14832
284.336	20531
284.395	54851
284.453	54283
284.512	21336
284.570	25773
284.629	25826
284.688	22536
284.746	26718
284.805	29510
284.863	37695
284.922	48126
284.981	56012
285.039	75537
285.098	126268
285.156	261118
285.215	388514
285.273	383473
285.332	311314
285.390	170351
285.449	106930
285.507	72479
285.566	54636
285.624	41215
285.683	32103
285.741	25201
285.799	22430
285.858	20150
285.916	18304
285.975	14364
286.033	13410
286.091	11642
286.150	11212
286.208	11464
286.267	14003
286.325	13470
286.383	19381
286.442	17378
286.500	11140
286.558	9593
286.616	9187
286.675	12821
286.733	12372
286.791	10085
286.850	13128
286.908	13515
286.966	24853
287.024	12261
287.083	8706
287.141	7641
287.199	8030
287.257	12810
287.315	11207
287.374	10280
287.432	24415
287.490	18960
287.548	11920
287.606	8958
287.664	9442
287.723	11459
287.781	18251
287.839	10088
287.897	11834
287.955	13255
288.013	21254
288.071	46690
288.129	147174
288.187	420331
288.245	220121
288.303	68989
288.361	40026
288.419	32246
288.477	22970
288.535	16124
288.593	12553
288.651	9738
288.709	8880
288.767	7507
288.825	9071
288.883	6747
288.941	7685
288.999	7777
289.057	7194
289.115	5842
289.173	7406
289.231	8020
289.289	9205
289.346	8460
289.404	8890
289.462	14197
289.520	16048
289.578	8391
289.636	5546
289.694	4503
289.751	5984
289.809	5282
289.867	6320
289.925	6608
289.983	10581
290.040	5794
290.098	5258
290.156	7213
290.214	8807
290.271	6218
290.329	5862
290.387	4035
290.444	4992
290.502	3820
290.560	5204
290.617	5948
290.675	5841
290.733	5358
290.790	8031
290.848	5731
290.906	8030
290.963	6835
291.021	7376
291.078	6400
291.136	8426
291.194	19726
291.251	50782
291.309	17588
291.366	7745
291.424	7156
291.481	8272
291.539	7808
291.596	8692
291.654	4896
291.711	5345
291.769	6414
291.826	15496
291.884	10528
291.941	6426
291.999	6004
292.056	7484
292.114	9340
292.171	6219
292.228	6798
292.286	9892
292.343	16058
292.401	22088
292.458	14794
292.515	10941
292.573	11236
292.630	10996
292.687	11092
292.745	8693
292.802	11067
292.859	27865
292.917	51080
292.974	35178
293.031	12474
293.089	9123
293.146	7651
293.203	7359
293.260	6842
293.318	10977
293.375	14972
293.432	10304
293.489	6016
293.546	7399
293.604	11577
293.661	28739
293.718	72814
293.775	44168
293.832	21960
293.889	18913
293.947	20687
294.004	16062
294.061	13421
294.118	23470
294.175	48251
294.232	62782
294.289	27955
294.346	12652
294.403	11271
294.460	12342
294.517	10735
294.574	8433
294.631	8339
294.688	10411
294.745	22319
294.802	76376
294.859	95115
294.916	43482
294.973	27451
295.030	20446
295.087	17245
295.144	12042
295.201	8781
295.258	9855
295.315	11270
295.372	29450
295.429	62043
295.486	31394
295.542	17151
295.599	33990
295.656	66583
295.713	45078
295.770	59417
295.827	27075
295.883	14471
295.940	11871
295.997	20676
296.054	22602
296.111	12216
296.167	8434
296.224	5953
296.281	6708
296.338	7091
296.394	7614
296.451	10465
296.508	24787
296.564	53812
296.621	37636
296.678	57130
296.734	94351
296.791	39295
296.848	21838
296.904	21135
296.961	44132
297.018	67341
297.074	54983
297.131	23157
297.187	17203
297.244	20995
297.301	54118
297.357	113547
297.414	45711
297.470	18027
297.527	13751
297.583	12191
297.640	12126
297.696	10135
297.753	8147
297.809	6644
297.866	5978
297.922	6571
297.979	7188
298.035	9009
298.092	15137
298.148	36466
298.204	42954
298.261	21071
298.317	28711
298.374	73603
298.430	50871
298.486	24838
298.543	20818
298.599	17712
298.656	21565
298.712	29989
298.768	67377
298.824	55488
298.881	21102
298.937	11592
298.993	10797
299.050	13286
299.106	13706
299.162	10350
299.218	12249
299.275	9555
299.331	11093
299.387	18870
299.443	60392
299.500	80336
299.556	37250
299.612	17511
299.668	17621
299.724	20917
299.780	26280
299.837	15117
299.893	20574
299.949	58753
300.005	84040
300.061	59725
300.117	101152
300.173	55315
300.229	26628
300.285	29246
300.341	35775
300.397	19431
300.453	13900
300.510	12029
300.566	13840
300.622	16495
300.678	39586
300.734	77109
300.790	64911
300.845	73349
300.901	52114
300.957	69641
301.013	59818
301.069	24484
301.125	17156
301.181	18253
301.237	14462
301.293	10337
301.349	10468
301.405	8321
301.461	10400
301.516	14704
301.572	14613
301.628	21533
301.684	22631
301.740	27638
301.796	50578
301.851	34681
301.907	49332
301.963	54419
302.019	69125
302.074	173503
302.130	191672
302.186	94054
302.242	40298
302.297	25714
302.353	24666
302.409	43987
302.464	46063
302.520	33345
302.576	69612
302.631	87817
302.687	55204
302.743	23604
302.798	14855
302.854	11185
302.910	12386
302.965	15889
303.021	28288
303.076	28178
303.132	32111
303.187	40413
303.243	23073
303.299	11485
303.354	10178
303.410	8885
303.465	9124
303.521	8630
303.576	9487
303.632	11611
303.687	20002
303.743	54621
303.798	55844
303.853	24196
303.909	13894
303.964	12554
304.020	18511
304.075	31477
304.130	27143
304.186	44316
304.241	48986
304.297	38708
304.352	22669
304.358	21643
304.407	13327
304.449	14416
304.463	14790
304.518	14002
304.539	13677
304.573	13151
304.629	12571
304.630	12705
304.684	19497
304.720	33796
304.739	40811
304.794	71502
304.811	61811
304.850	38385
304.902	19913
304.905	18756
304.960	13065
304.992	12889
305.015	12802
305.071	11893
305.083	11704
305.126	10822
305.173	8385
305.181	8033
305.236	7711
305.264	8390
305.292	9146
305.347	12569
305.354	12727
305.402	13473
305.445	14459
305.457	14784
305.512	15879
305.535	17037
305.567	18608
305.622	18002
305.626	18465
305.678	30817
305.716	56104
305.733	64457
305.788	83433
305.807	72215
305.843	53812
305.897	60201
305.898	60196
305.953	65149
305.988	45038
306.008	34476
306.063	21514
306.078	20047
306.118	16645
306.168	11090
306.173	10650
306.228	9337
306.259	8727
306.283	8325
306.338	8875
306.349	9001
306.393	9555
306.440	10751
306.448	11024
306.503	11766
306.530	13842
306.558	19322
306.613	39344
306.620	42874
306.668	64138
306.711	76509
306.723	76461
306.778	62727
306.801	47684
306.833	31084
306.888	17114
306.892	16521
306.943	12581
306.982	11560
306.997	11260
307.052	10630
307.072	10690
307.107	12015
307.162	16127
307.163	16216
307.217	26679
307.253	32737
307.272	33957
307.327	38649
307.343	35712
307.381	29216
307.434	24543
307.436	25107
307.491	46004
307.524	69170
307.546	74789
307.600	73245
307.614	65292
307.655	40791
307.704	21008
307.710	20248
307.765	24426
307.795	29771
307.819	35368
307.874	58898
307.885	59524
307.929	47540
307.975	29920
307.984	29136
308.038	33238
308.065	39854
308.093	68717
308.148	139569
308.156	156114
308.202	236558
308.246	299520
308.257	295115
308.312	164276
308.336	116444
308.366	89083
308.421	62911
308.426	60027
308.475	37692
308.517	25803
308.530	24145
308.585	21292
308.607	20851
308.639	21913
308.694	25123
308.697	25480
308.748	47387
308.787	72062
308.803	71968
308.857	57302
308.877	47248
308.912	38225
308.967	33371
308.967	33360
309.021	46021
309.058	58264
309.076	72084
309.130	123134
309.148	142041
309.185	238224
309.238	394185
309.239	395244
309.293	437034
309.328	410605
309.348	359214
309.402	178193
309.418	133097
309.457	93942
309.508	60865
309.511	60438
309.566	64378
309.598	70284
309.620	90009
309.674	147516
309.688	163284
309.729	151442
309.778	116575
309.783	113578
309.837	75017
309.868	56300
309.892	64138
309.946	89560
309.959	98061
310.001	123358
310.049	147064
310.055	142162
310.109	83960
310.139	50336
310.163	40554
310.218	26341
310.229	24195
310.272	19541
310.319	14810
310.326	14509
310.381	13626
310.409	13027
310.435	12488
310.489	11836
310.499	11772
310.543	12785
310.589	13895
310.598	13815
310.652	13681
310.679	13241
310.706	11992
310.760	9364
310.769	9022
310.814	8357
310.859	7703
310.868	7800
310.923	8483
310.948	8812
310.977	10340
311.031	13609
311.038	14049
311.085	13228
311.128	12068
311.139	11852
311.193	10614
311.218	10149
311.247	9749
311.301	8799
311.308	8705
311.356	9073
311.398	9313
311.410	9146
311.464	8557
311.488	8129
311.518	8381
311.572	9047
311.578	9126
311.626	13462
311.668	17347
311.680	17208
311.734	16164
311.758	15756
311.788	16129
311.842	16682
311.847	16732
311.896	20433
311.937	23625
311.950	23292
312.004	21726
312.027	20936
312.058	17488
312.112	11375
312.117	10762
312.165	10228
312.207	9779
312.297	16130
312.386	13608
312.476	13709
312.566	29789
312.656	13613
312.745	8678
312.835	10602
312.925	12229
313.015	11126
313.104	13322
313.194	9536
313.284	10278
313.374	15515
313.463	13302
313.553	9629
313.643	9726
313.732	7827
313.822	8818
313.912	9849
314.001	13440
314.091	14592
314.180	18308
314.270	16577
314.360	19731
314.449	15332
314.539	10797
314.628	9609
314.718	13065
314.808	16899
314.897	10678
314.987	11182
315.076	15822
315.166	19677
315.255	18054
315.345	17325
315.434	17822
315.524	15353
315.613	18451
315.703	24971
315.792	40127
315.881	124793
315.971	40157
316.060	34862
316.150	49241
316.239	49083
316.328	18279
316.418	11534
316.507	12828
316.597	16936
316.686	15639
316.775	23606
316.865	52263
316.954	12881
317.043	9893
317.133	10925
317.222	9870
317.311	9879
317.400	9941
317.490	15885
317.579	19254
317.668	15487
317.757	26344
317.847	61820
317.936	208714
318.025	73119
318.114	50182
318.203	29236
318.293	36295
318.382	74041
318.471	53523
318.560	68033
318.649	114169
318.738	26064
318.828	20683
318.917	20880
319.006	26525
319.095	58712
319.184	144607
319.273	80026
319.362	44916
319.451	16653
319.540	15471
319.629	35484
319.718	58985
319.807	28444
319.896	48895
319.985	173063
320.074	60302
320.163	19610
320.252	33570
320.341	25839
320.430	22977
320.519	31182
320.608	18516
320.697	15733
320.786	16800
320.875	21793
320.964	28381
321.053	42661
321.142	60661
321.230	61861
321.319	47500
321.408	111432
321.497	47007
321.586	45834
321.675	53060
321.764	48495
321.852	32079
321.941	62076
322.030	41102
322.119	43635
322.207	112135
322.296	75951
322.385	42601
322.474	49074
322.562	136799
322.651	66346
322.740	52890
322.829	71921
322.917	71944
323.006	40983
323.095	36140
323.183	26172
323.272	39495
323.361	66011
323.449	191292
323.538	62460
323.626	142638
323.715	81900
323.804	37419
323.892	128124
323.981	68005
324.069	24922
324.158	71425
324.246	61009
324.335	26184
324.424	39575
324.512	16300
324.601	22195
324.689	44136
324.778	76804
324.866	52684
324.954	15609
325.043	16069
325.131	34070
325.220	56116
325.308	62529
325.397	45954
325.485	27413
325.574	12237
325.662	11600
325.750	12763
325.839	11572
325.927	9479
326.015	14737
326.104	23013
326.192	30536
326.280	10862
326.369	10348
326.457	17495
326.545	32831
326.634	13283
326.722	8994
326.810	10391
326.898	9913
326.987	13963
327.075	31764
327.163	31377
327.251	16412
327.340	29610
327.428	39585
327.516	11662
327.604	11482
327.692	12016
327.781	13875
327.869	24817
327.957	15174
328.045	15529
328.133	8305
328.221	12793
328.309	10707
328.397	9725
328.485	13907
328.574	22051
328.662	71167
328.750	36152
328.838	14830
328.926	9777
329.014	8919
329.102	15882
329.190	38769
329.278	24560
329.366	7448
329.454	7342
329.542	8666
329.630	7777
329.718	8287
329.806	11171
329.893	10838
329.981	9816
330.069	11110
330.157	29833
330.245	81360
330.333	40982
330.421	12208
330.509	21604
330.597	81884
330.684	50547
330.772	18573
330.860	25964
330.948	31483
331.036	14240
331.123	6986
331.211	8199
331.299	11658
331.387	28501
331.475	48394
331.562	15599
331.650	8617
331.738	12265
331.825	16861
331.913	8663
332.001	7511
332.089	13535
332.176	27552
332.264	69172
332.352	49383
332.439	17244
332.527	12110
332.614	11461
332.702	15881
332.790	13166
332.877	33748
332.965	67567
333.052	20750
333.140	23830
333.228	56496
333.315	14853
333.403	14207
333.490	42613
333.578	40330
333.665	71053
333.753	29372
333.840	12706
333.928	15842
334.015	44982
334.103	60411
334.190	176661
334.278	44228
334.365	26436
334.452	22040
334.540	14436
334.627	17605
334.715	26416
334.802	51253
334.889	234682
334.977	217990
335.064	42524
335.151	19221
335.239	17403
335.326	24635
335.413	89857
335.501	111803
335.588	19920
335.675	14251
335.762	19238
335.850	31815
335.937	28004
336.024	68481
336.111	257001
336.199	116920
336.286	29351
336.373	15821
336.460	11080
336.547	10945
336.635	14080
336.722	13825
336.809	12479
336.896	20896
336.983	61049
337.070	134783
337.157	182293
337.245	149075
337.332	96820
337.419	15808
337.506	10587
337.593	14944
337.680	45537
337.767	128511
337.854	38105
337.941	44351
338.028	57058
338.115	20220
338.202	23934
338.289	45026
338.376	151074
338.463	45518
338.550	78601
338.637	77431
338.724	33474
338.811	47900
338.898	11274
338.984	9384
339.071	13217
339.158	15640
339.245	41805
339.332	25263
339.419	35024
339.506	31480
339.593	8319
339.679	9462
339.766	9235
339.853	13346
339.940	29391
340.027	10397
340.113	11001
340.200	16736
340.287	12346
340.374	15298
340.460	26283
340.547	11789
340.634	23362
340.720	78723
340.807	41703
340.894	10154
340.980	10245
341.067	9692
341.154	11413
341.240	18928
341.327	40402
341.414	14749
341.500	17004
341.587	10998
341.674	9439
341.760	26701
341.847	31437
341.933	10828
342.020	5337
342.106	6449
342.193	11565
342.279	20905
342.366	16637
342.452	27447
342.539	15396
342.625	36406
342.712	86724
342.798	33742
342.885	14322
342.971	6453
343.058	5901
343.144	7345
343.230	7900
343.317	9096
343.403	8480
343.490	6502
343.576	6422
343.662	8743
343.749	11051
343.835	14037
343.921	26522
344.008	131706
344.094	274323
344.180	61040
344.267	28124
344.353	92252
344.439	95029
344.525	41033
344.612	16867
344.698	14344
344.784	9704
344.870	7379
344.957	9443
345.043	15069
345.129	12553
345.215	26079
345.301	14681
345.387	9154
345.474	6396
345.560	7119
345.646	9799
345.732	8493
345.818	12371
345.904	9997
345.990	13256
346.076	13122
346.162	25484
346.249	10697
346.335	8273
346.421	10517
346.507	39121
346.593	122009
346.679	28249
346.765	10640
346.851	11009
346.937	10547
347.023	7916
347.108	11536
347.194	9238
347.280	8539
347.366	13815
347.452	41800
347.538	149851
347.624	108313
347.710	91290
347.796	15938
347.882	9643
347.967	8499
348.053	12793
348.139	8903
348.225	7411
348.311	8455
348.397	7418
348.482	11630
348.568	13376
348.654	8175
348.740	16216
348.825	15726
348.911	18998
348.997	69859
349.083	128049
349.168	21871
349.254	10891
349.340	10998
349.425	7248
349.511	12818
349.597	15354
349.682	30509
349.768	95510
349.854	40951
349.939	9589
350.025	7784
350.110	7264
350.196	6682
350.282	6279
350.367	7477
350.453	15065
350.538	15285
350.624	13516
350.709	11912
350.795	7389
350.880	7509
350.966	10597
351.051	16341
351.137	11934
351.222	10419
351.308	32041
351.393	82577
351.479	22954
351.564	9581
351.649	8906
351.735	7313
351.820	5824
351.906	7988
351.991	13497
352.076	56291
352.162	78075
352.247	16851
352.332	12733
352.418	25582
352.503	32139
352.588	123899
352.673	93478
352.759	22133
352.844	10627
352.929	13478
353.014	17459
353.100	13202
353.185	25738
353.270	34319
353.355	31343
353.441	9390
353.526	12627
353.611	28963
353.696	32003
353.781	18698
353.866	9464
353.952	11095
354.037	28753
354.122	62566
354.207	55524
354.292	19229
354.377	10056
354.462	9116
354.547	13328
354.632	12174
354.717	20218
354.802	29804
354.887	11290
354.972	7823
355.057	6802
355.142	5768
355.227	10715
355.312	18344
355.397	41706
355.482	100148
355.567	45491
355.652	34581
355.737	38175
355.822	108656
355.907	80405
355.991	14364
356.076	8295
356.161	8680
356.246	7898
356.331	10476
356.416	25741
356.501	160622
356.585	151804
356.670	25582
356.755	17774
356.840	27099
356.924	122836
357.009	382828
357.094	134942
357.179	35142
357.263	24924
357.348	23683
357.433	22833
357.517	21661
357.602	16791
357.687	15367
357.771	30908
357.856	100555
357.941	54381
358.025	87309
358.110	343248
358.195	147963
358.279	28315
358.364	23686
358.448	80608
358.533	206447
358.617	146448
358.702	143473
358.787	50712
358.871	31972
358.956	26319
359.040	10516
359.125	9120
359.209	11643
359.294	47913
359.378	79071
359.462	30128
359.547	15988
359.631	12039
359.716	9188
359.800	10548
359.885	15787
359.969	11395
360.053	9566
360.138	10018
360.222	17614
360.306	32073
360.391	24456
360.475	55796
360.559	109629
360.644	82845
360.728	57350
360.812	91966
360.896	227542
360.981	100880
361.065	54428
361.149	16579
361.233	16767
361.318	14887
361.402	17707
361.486	14594
361.570	10748
361.654	15576
361.739	40628
361.823	159093
361.907	221854
361.991	41493
362.075	29007
362.159	62137
362.243	42490
362.327	49512
362.411	68730
362.495	33521
362.580	16094
362.664	12757
362.748	11481
362.832	16788
362.916	29794
363.000	104199
363.084	268897
363.168	283963
363.252	66082
363.336	28071
363.420	38899
363.503	129979
363.587	136686
363.671	28521
363.755	22274
363.839	29491
363.923	16240
364.007	34923
364.091	36995
364.175	54293
364.258	204357
364.342	166267
364.426	242196
364.510	129111
364.594	48044
364.677	53170
364.761	204733
364.845	132948
364.929	53691
365.013	43991
365.096	36687
365.180	43486
365.264	55626
365.347	191601
365.431	77561
365.515	23516
365.598	13655
365.682	12877
365.766	24315
365.849	27405
365.933	16096
366.017	20195
366.100	16356
366.184	8240
366.267	10195
366.351	10308
366.435	8261
366.518	7330
366.602	6456
366.685	9542
366.769	12507
366.852	21330
366.936	36971
367.019	21245
367.103	18493
367.186	31102
367.270	11293
367.353	7750
367.436	9848
367.520	9998
367.603	13769
367.687	21140
367.770	36751
367.853	21570
367.937	67219
368.020	104636
368.104	27668
368.187	28706
368.270	39577
368.353	35511
368.437	48636
368.520	104945
368.603	61003
368.687	83686
368.770	143791
368.853	35134
368.936	35855
369.020	34841
369.103	13994
369.186	10273
369.269	11870
369.352	25689
369.436	34307
369.519	22188
369.602	12021
369.685	13619
369.768	13757
369.851	12447
369.934	8664
370.018	13293
370.101	31895
370.184	22869
370.267	17578
370.350	34000
370.433	48442
370.516	122424
370.599	153658
370.682	52971
370.765	83567
370.848	98316
370.931	175310
371.014	62362
371.097	15067
371.180	11621
371.263	9140
371.346	7136
371.429	9228
371.511	11086
371.594	21817
371.677	32100
371.760	34247
371.843	29596
371.926	130376
372.009	273115
372.091	85813
372.174	70469
372.257	153907
372.340	58182
372.423	49194
372.505	54251
372.588	24863
372.671	58106
372.754	177049
372.836	81465
372.919	63601
373.002	117763
373.085	37054
373.167	31871
373.250	77047
373.332	156640
373.415	197285
373.498	377148
373.580	138491
373.663	221801
373.746	258212
373.828	59498
373.911	28447
373.993	32977
374.076	117140
374.159	103023
374.241	51485
374.324	152342
374.406	93077
374.489	119826
374.571	315806
374.654	125672
374.736	67763
374.819	201258
374.901	279235
374.983	267700
375.066	48652
375.148	25090
375.231	96136
375.313	172937
375.395	63767
375.478	18076
375.560	14042
375.643	20099
375.725	64796
375.807	256301
375.890	197442
375.972	94460
376.054	53550
376.136	85764
376.219	37368
376.301	78057
376.383	219378
376.465	79541
376.548	58631
376.630	68604
376.712	193529
376.794	82047
376.877	13502
376.959	9069
377.041	12174
377.123	26847
377.205	29445
377.287	7890
377.369	8351
377.452	9480
377.534	10256
377.616	9729
377.698	8591
377.780	8094
377.862	9829
377.944	10540
378.026	6286
378.108	8125
378.190	8068
378.272	7751
378.354	6330
378.436	6948
378.518	17010
378.600	55678
378.682	47508
378.764	107432
378.846	76313
378.928	25839
379.010	36680
379.091	18260
379.173	9828
379.255	9537
379.337	14972
379.419	55082
379.501	148007
379.583	54910
379.664	16920
379.746	40247
379.828	105098
379.910	141932
379.991	116114
380.073	21795
380.155	15637
380.237	10890
380.318	9461
380.400	11346
380.482	26510
380.564	37816
380.645	39653
380.727	36497
380.809	20528
380.890	15385
380.972	12141
381.053	11939
381.135	14548
381.217	39760
381.298	113044
381.380	53288
381.461	45238
381.543	194636
381.624	218698
381.706	41552
381.787	24863
381.869	27509
381.951	84377
382.032	295050
382.113	174616
382.195	44695
382.276	32614
382.358	71603
382.439	173991
382.521	184775
382.602	274506
382.684	131266
382.765	262168
382.846	320325
382.928	533679
383.009	273807
383.090	183925
383.172	693896
383.253	973596
383.334	316666
383.416	282570
383.497	141384
383.578	79761
383.659	155807
383.741	568107
383.822	1333527
383.903	653921
383.984	233274
384.066	346998
384.147	203321
384.228	47650
384.309	38847
384.390	29981
384.471	22399
384.553	24335
384.634	32639
384.715	32785
384.796	18685
384.877	25476
384.958	99789
385.039	116239
385.120	41937
385.201	21060
385.282	26352
385.363	27443
385.444	24083
385.525	44817
385.606	140930
385.687	108388
385.768	30219
385.849	38095
385.930	143154
386.011	223280
386.092	58569
386.173	17862
386.254	15439
386.335	16516
386.416	20354
386.496	69068
386.577	106020
386.658	37863
386.739	24964
386.820	22274
386.901	19929
386.981	17823
387.062	14627
387.143	28614
387.224	108163
387.304	94987
387.385	37117
387.466	26401
387.547	32972
387.627	24919
387.708	45058
387.789	182173
387.869	204880
387.950	52114
388.031	13699
388.111	12725
388.192	33624
388.273	48757
388.353	29982
388.434	17681
388.514	36220
388.595	150604
388.676	194762
388.756	98919
388.837	100091
388.917	56789
388.998	15528
389.078	14980
389.159	12911
389.239	11856
389.320	22079
389.400	18562
389.480	42537
389.561	108571
389.641	50349
389.722	21502
389.802	33388
389.883	46939
389.963	124342
390.043	76622
390.124	28015
390.204	42667
390.284	121001
390.365	73498
390.445	88579
390.525	203165
390.605	161283
390.686	59493
390.766	24347
390.846	14535
390.927	11128
391.007	11612
391.087	15617
391.167	17885
391.247	15377
391.328	22824
391.408	32317
391.488	21585
391.568	10469
391.648	17466
391.728	25526
391.808	23290
391.888	27596
391.969	63163
392.049	96891
392.129	42731
392.209	51842
392.289	123502
392.369	65689
392.449	59214
392.529	39794
392.609	32784
392.689	44631
392.769	127057
392.849	106010
392.929	82739
393.009	185033
393.089	152433
393.169	166616
393.248	497454
393.328	1421895
393.408	1409633
393.488	469283
393.568	151267
393.648	76630
393.728	49119
393.807	35619
393.887	30343
393.967	25885
394.047	27547
394.127	30446
394.206	40484
394.286	125064
394.366	531439
394.446	519129
394.525	109629
394.605	33282
394.685	33824
394.764	74940
394.844	132683
394.924	91141
395.003	29127
395.083	20474
395.163	18425
395.242	17987
395.322	18130
395.402	13247
395.481	20196
395.561	57116
395.640	150919
395.720	122666
395.799	156092
395.879	107459
395.958	53543
396.038	174577
396.117	692219
396.197	698295
396.276	192919
396.356	75421
396.435	65309
396.515	52977
396.594	70179
396.673	141801
396.753	496337
396.832	1281639
396.912	934450
396.991	254406
397.070	78294
397.150	45086
397.229	33047
397.308	49334
397.388	78340
397.467	36226
397.546	16954
397.625	15180
397.705	20377
397.784	21441
397.863	13586
397.942	11442
398.022	12584
398.101	48834
398.180	129868
398.259	64070
398.338	19350
398.417	15012
398.497	10640
398.576	12382
398.655	8715
398.734	8019
398.813	9963
398.892	43880
398.971	140233
399.050	65068
399.129	10346
399.208	7181
399.287	7362
399.366	6324
399.445	7093
399.524	7687
399.603	7506
399.682	18995
399.761	48273
399.840	149380
399.919	104912
399.998	15828
400.077	6832
400.156	6120
400.235	9912
400.313	7180
400.392	11741
400.471	58795
400.550	87473
400.629	23395
400.708	11806
400.786	12303
400.865	32322
400.944	34368
401.023	16398
401.102	5208
401.180	4806
401.259	6813
401.338	8962
401.416	12564
401.495	10946
401.574	9042
401.652	7609
401.731	12553
401.810	12300
401.888	6834
401.967	4458
402.046	9654
402.124	11667
402.203	15245
402.281	9653
402.360	15842
402.438	41045
402.517	27606
402.596	10297
402.674	10590
402.753	6685
402.831	6376
402.910	10080
402.988	45123
403.066	150342
403.145	77472
403.223	46523
403.302	124288
403.380	88105
403.459	91303
403.537	35034
403.615	13267
403.694	4521
403.772	5408
403.850	4327
403.929	4093
404.007	5455
404.085	18823
404.164	20998
404.242	8107
404.320	7769
404.398	14677
404.477	49763
404.555	235109
404.633	185278
404.711	25544
404.789	9318
404.868	10100
404.946	6258
405.024	4768
405.102	4603
405.180	3862
405.258	3626
405.336	5084
405.415	5794
405.493	17596
405.571	15730
405.649	5820
405.727	5589
405.805	10956
405.883	11591
405.961	12070
406.039	12650
406.117	7477
406.195	13670
406.273	60858
406.351	211397
406.429	113193
406.507	20035
406.585	8470
406.663	8496
406.740	12700
406.818	9941
406.896	6300
406.974	6712
407.052	20137
407.130	129516
407.208	168320
407.285	30046
407.363	6998
407.441	6509
407.519	5880
407.596	8291
407.674	22159
407.752	60342
407.830	57784
407.907	25548
407.985	10318
408.063	5646
408.141	4445
408.218	12305
408.296	12829
408.373	10027
408.451	10633
408.529	8277
408.606	3786
408.684	3258
408.762	2644
408.839	3156
408.917	2900
408.994	4071
409.072	4754
409.149	5671
409.227	12524
409.304	16537
409.382	12312
409.459	16070
409.537	22851
409.614	17441
409.692	11492
409.769	12904
409.846	24533
409.924	29461
410.001	20259
410.079	12432
410.156	9066
410.233	7778
410.311	6693
410.388	5341
410.465	9387
410.543	9444
410.620	6580
410.697	7853
410.775	10266
410.852	5193
410.929	11501
411.006	14731
411.083	8585
411.161	22016
411.238	22740
411.315	10947
411.392	6388
411.469	11417
411.547	13040
411.624	6433
411.701	6013
411.778	7463
411.855	19319
411.932	10285
412.009	4919
412.086	4731
412.163	6523
412.240	7491
412.317	11981
412.394	9304
412.471	4084
412.548	3463
412.625	5468
412.702	7545
412.779	15978
412.856	10157
412.933	4315
413.010	3658
413.087	10038
413.164	55767
413.241	72419
413.318	16903
413.395	11472
413.471	17219
413.548	7808
413.625	5646
413.702	8076
413.779	5542
413.855	3206
413.932	2368
414.009	2234
414.086	2647
414.162	4161
414.239	10384
414.316	53654
414.393	111319
414.469	35513
414.546	4811
414.623	3530
414.699	3548
414.776	6855
414.853	3498
414.929	5425
415.006	4773
415.082	7635
415.159	4976
415.236	4455
415.312	5288
415.389	13601
415.465	16412
415.542	8180
415.618	6182
415.695	11688
415.771	7611
415.848	6717
415.924	5824
416.000	5253
416.077	3426
416.153	1637
416.230	1027
416.306	2057
416.383	3149
416.459	3318
416.535	1854
416.612	3169
416.688	2796
416.764	4565
416.841	4093
416.917	4320
416.993	4739
417.069	7205
417.146	8149
417.222	9486
417.298	6529
417.374	4050
417.451	5099
417.527	9057
417.603	8648
417.679	6576
417.755	4671
417.831	3365
417.908	2688
417.984	2935
418.060	3224
418.136	15679
418.212	19139
418.288	6582
418.364	4084
418.440	5021
418.516	9268
418.592	13292
418.668	25064
418.744	37620
418.820	24541
418.896	6471
418.972	2874
419.048	5047
419.124	16825
419.200	12386
419.276	3084
419.352	1909
419.428	3418
419.504	6223
419.579	7012
419.655	6390
419.731	6653
419.807	24453
419.883	44412
419.959	27864
420.034	8815
420.110	19796
420.186	73086
420.262	51226
420.337	9585
420.413	8516
420.489	5047
420.565	4305
420.640	4704
420.716	6108
420.792	3294
420.867	5946
420.943	5137
421.019	12330
421.094	9486
421.170	6239
421.245	4189
421.321	5724
421.397	6830
421.472	14083
421.548	33046
421.623	23967
421.699	11820
421.774	12236
421.850	10790
421.925	18729
422.001	17259
422.076	15144
422.152	18985
422.227	29502
422.302	34594
422.378	51137
422.453	95129
422.529	224838
422.604	532923
422.679	685482
422.755	528128
422.830	232508
422.905	96329
422.981	54176
423.056	35637
423.131	26676
423.207	20656
423.282	20749
423.357	30825
423.432	21272
423.508	22223
423.583	43333
423.658	28831
423.733	12098
423.808	14164
423.883	16187
423.959	14050
424.034	13120
424.109	10515
424.184	6484
424.259	5488
424.334	5457
424.409	3846
424.484	5379
424.559	6681
424.634	6474
424.709	9475
424.784	11287
424.859	6676
424.934	13668
425.009	52559
425.084	83786
425.159	28346
425.234	6132
425.309	5221
425.384	26363
425.459	42119
425.534	12670
425.609	5360
425.683	5008
425.758	4454
425.833	5104
425.908	8616
425.983	34646
426.058	87318
426.132	35717
426.207	7490
426.282	12606
426.357	10974
426.431	4702
426.506	4082
426.581	5289
426.655	4942
426.730	4344
426.805	4672
426.879	5705
426.954	6197
427.029	15791
427.103	82347
427.178	186729
427.253	72951
427.327	11225
427.402	17826
427.476	48514
427.551	22556
427.625	8964
427.700	7208
427.774	4677
427.849	6906
427.923	4622
427.998	4177
428.072	6648
428.147	17422
428.221	72745
428.296	197352
428.370	92530
428.444	15931
428.519	17167
428.593	31563
428.667	28229
428.742	33302
428.816	37318
428.890	133650
428.965	202138
429.039	66383
429.113	38819
429.188	15065
429.262	6644
429.336	13790
429.410	42539
429.485	26976
429.559	27444
429.633	20628
429.707	9266
429.781	27310
429.855	147328
429.930	206296
430.004	104218
430.078	145276
430.152	131887
430.226	239165
430.300	215074
430.374	36891
430.448	15693
430.522	48581
430.596	135194
430.670	85659
430.744	221855
430.818	286091
430.892	56023
430.966	11397
431.040	5618
431.114	3428
431.188	3522
431.262	4511
431.336	4668
431.410	15868
431.484	43282
431.557	27120
431.631	6086
431.705	8984
431.779	40951
431.853	171643
431.927	109202
432.000	13828
432.074	6128
432.148	7201
432.222	6757
432.295	3722
432.369	4774
432.443	11613
432.516	76138
432.590	182740
432.664	62967
432.737	9211
432.811	2247
432.885	1325
432.958	2258
433.032	2078
433.106	1935
433.179	1584
433.253	2644
433.326	1764
433.400	1081
433.473	2139
433.547	1568
433.620	3087
433.694	10567
433.767	10835
433.841	4039
433.914	2042
433.988	2109
434.061	3478
434.134	2332
434.208	1964
434.281	1330
434.355	1819
434.428	3577
434.501	3056
434.575	1845
434.648	3799
434.721	1624
434.795	976
434.868	1474
434.941	897
435.014	1529
435.088	3235
435.161	7572
435.234	14134
435.307	14704
435.381	7949
435.454	7776
435.527	12913
435.600	12472
435.673	8227
435.746	5574
435.819	4339
435.892	3246
435.966	2661
436.039	2719
436.112	3382
436.185	2490
436.258	1390
436.331	792
436.404	687
436.477	1115
436.550	1203
436.623	1289
436.696	1757
436.769	3047
436.842	3147
436.915	4519
436.987	7001
437.060	3090
437.133	2055
437.206	1923
437.279	2211
437.352	2855
437.425	1685
437.498	3381
437.570	10603
437.643	11314
437.716	3222
437.789	2801
437.861	10493
437.934	32178
438.007	13371
438.080	2915
438.152	4563
438.225	13722
438.298	96844
438.370	248170
438.443	100672
438.516	29594
438.588	6770
438.661	2089
438.734	3728
438.806	4638
438.879	5243
438.951	8738
439.024	15546
439.096	4754
439.169	2064
439.241	1799
439.314	3545
439.386	5950
439.459	12007
439.531	20484
439.604	7242
439.676	2214
439.749	1663
439.821	891
439.893	2079
439.966	2349
440.038	5462
440.110	6610
440.183	3040
440.255	2501
440.327	7012
440.400	43296
440.472	173722
440.544	106708
440.617	15278
440.689	12075
440.761	16974
440.833	26591
440.905	16347
440.978	3096
441.050	1596
441.122	2373
441.194	2276
441.266	2563
441.338	2133
441.411	9761
441.483	58211
441.555	83898
441.627	19987
441.699	12457
441.771	11225
441.843	5155
441.915	2902
441.987	2366
442.059	3095
442.131	5884
442.203	10792
442.275	12759
442.347	11888
442.419	19009
442.491	97890
442.563	232246
442.635	97267
442.706	50764
442.778	38620
442.850	9297
442.922	5276
442.994	7805
443.066	11884
443.137	9495
443.209	7282
443.281	13536
443.353	30113
443.425	120646
443.496	401991
443.568	383869
443.640	141814
443.711	30660
443.783	12252
443.855	8370
443.926	4760
443.998	5739
444.070	8583
444.141	8038
444.213	12238
444.285	14590
444.356	13064
444.428	12772
444.499	5734
444.571	3023
444.642	3525
444.714	5807
444.785	12055
444.857	14956
444.928	32722
445.000	23300
445.071	23739
445.143	30024
445.214	20646
445.285	30369
445.357	86741
445.428	268978
445.500	554994
445.571	370609
445.642	205317
445.714	79484
445.785	61851
445.856	25369
445.928	18248
445.999	15662
446.070	12328
446.141	12493
446.213	15173
446.284	8317
446.355	7484
446.426	6705
446.497	6153
446.569	12003
446.640	19321
446.711	13602
446.782	5214
446.853	9836
446.924	10877
446.995	6950
447.066	6893
447.138	13090
447.209	8821
447.280	2022
447.351	1658
447.422	2216
447.493	5440
447.564	9331
447.635	12549
447.706	5327
447.777	2103
447.847	2183
447.918	2343
447.989	6966
448.060	9482
448.131	23005
448.202	22816
448.273	15149
448.344	7445
448.414	3999
448.485	3757
448.556	2770
448.627	1069
448.698	2293
448.768	1893
448.839	3227
448.910	11826
448.981	12597
449.051	4946
449.122	2339
449.193	1237
449.263	2575
449.334	1528
449.405	5064
449.475	14422
449.546	12519
449.616	12853
449.687	13452
449.758	4224
449.828	2375
449.899	1432
449.969	1819
450.040	2268
450.110	6021
450.181	7570
450.251	4030
450.322	2411
450.392	3474
450.463	2709
450.533	1612
450.604	1957
450.674	3363
450.744	3484
450.815	3325
450.885	3355
450.955	3159
451.026	2307
451.096	2301
451.166	4957
451.237	15612
451.307	38533
451.377	18900
451.447	3780
451.518	2539
451.588	3803
451.658	3705
451.728	8343
451.799	38250
451.869	47052
451.939	12098
452.009	3521
452.079	2493
452.149	3591
452.219	11602
452.289	43862
452.360	38978
452.430	8626
452.500	6935
452.570	9344
452.640	15280
452.710	43870
452.780	60585
452.850	41272
452.920	34961
452.990	12854
453.060	7264
453.129	10567
453.199	14929
453.269	49168
453.339	108152
453.409	167189
453.479	159131
453.549	236747
453.619	254237
453.688	116305
453.758	19095
453.828	6971
453.898	5579
453.968	4572
454.037	4089
454.087	3894
454.107	3800
454.168	3178
454.177	3073
454.247	1770
454.249	1823
454.316	2788
454.330	3262
454.386	4880
454.411	11552
454.456	22277
454.492	29200
454.525	35456
454.574	20612
454.595	14235
454.655	5878
454.665	4582
454.734	6051
454.736	6303
454.804	13693
454.817	19295
454.873	40906
454.898	45612
454.943	53681
454.979	38224
455.013	24589
455.060	14359
455.082	10271
455.141	9611
455.152	9181
455.221	28409
455.222	28838
455.291	53407
455.303	48727
455.360	28500
455.384	26389
455.430	22673
455.465	22871
455.499	22416
455.546	33321
455.569	37659
455.627	30374
455.638	29356
455.707	6842
455.708	6845
455.777	4051
455.789	4151
455.846	4672
455.869	4409
455.916	3843
455.950	4087
455.985	4176
456.031	4698
456.054	4962
456.112	3693
456.124	3492
456.193	3315
456.193	3292
456.262	4994
456.274	5404
456.332	6840
456.355	8300
456.401	10190
456.436	8475
456.470	6994
456.516	4143
456.540	2855
456.597	2695
456.609	2654
456.678	2770
456.678	2754
456.747	2691
456.759	2637
456.817	2756
456.840	2746
456.886	2572
456.920	3090
456.955	3771
457.001	3928
457.024	4398
457.082	6574
457.093	6911
457.162	11009
457.163	11066
457.232	14194
457.243	13363
457.301	8770
457.324	6523
457.370	3556
457.405	3701
457.439	4048
457.485	4733
457.508	4895
457.566	4912
457.577	5053
457.646	6862
457.647	6901
457.715	12468
457.727	14140
457.784	23840
457.808	31483
457.853	41451
457.889	47251
457.922	47190
457.969	32033
457.991	31653
458.050	38708
458.060	39906
458.129	69923
458.130	70679
458.198	70750
458.211	63296
458.267	35152
458.292	24940
458.336	15806
458.372	14423
458.405	18891
458.453	28884
458.474	36238
458.533	66302
458.543	68729
458.611	114939
458.614	115287
458.680	72540
458.694	57785
458.749	27557
458.775	20302
458.818	11499
458.855	9023
458.887	7631
458.936	6866
458.955	6489
459.016	6223
459.024	6248
459.093	6486
459.097	6517
459.162	6964
459.177	7092
459.230	7459
459.257	8151
459.299	8831
459.338	8634
459.368	8725
459.418	9715
459.437	9490
459.499	7296
459.505	7188
459.574	5755
459.579	5733
459.643	5153
459.659	5014
459.711	5659
459.740	6081
459.780	6197
459.820	6684
459.849	7012
459.900	7499
459.917	7367
459.981	7098
459.986	7135
460.054	5930
460.061	5953
460.123	6242
460.141	6207
460.191	7453
460.222	8753
460.260	9596
460.302	11172
460.328	10922
460.382	8105
460.397	7857
460.462	6082
460.465	6133
460.534	9829
460.543	10281
460.602	24348
460.623	29977
460.671	44369
460.703	59805
460.739	58113
460.783	48088
460.808	41856
460.864	13538
460.876	10780
460.944	6609
460.945	6560
461.013	6446
461.024	6482
461.081	7010
461.104	7413
461.150	7505
461.184	7210
461.218	7070
461.264	6466
461.286	6443
461.345	6776
461.355	6722
461.423	7087
461.425	7080
461.491	7679
461.505	7931
461.559	15746
461.585	19470
461.628	30902
461.665	43130
461.696	47405
461.745	61331
461.764	56671
461.825	23988
461.832	23285
461.901	9683
461.905	9574
461.969	8664
461.985	8574
462.037	8031
462.065	7475
462.105	8469
462.145	10074
462.173	14614
462.225	22997
462.241	25213
462.305	38649
462.310	37803
462.378	24155
462.385	21365
462.446	12574
462.465	10651
462.514	8034
462.545	8114
462.582	8356
462.625	8334
462.650	7760
462.705	6433
462.718	6849
462.785	9301
462.786	9370
462.854	13126
462.865	13969
462.922	18097
462.945	20109
462.990	16198
463.025	10927
463.058	9529
463.104	7603
463.126	6934
463.184	6348
463.194	6497
463.262	7891
463.264	7948
463.330	8413
463.344	8452
463.398	9391
463.424	9774
463.466	9391
463.504	9280
463.533	9678
463.583	9902
463.601	10282
463.663	11562
463.669	11845
463.737	15654
463.743	16013
463.805	25887
463.823	28803
463.873	42614
463.903	51609
463.940	54166
463.982	59867
464.008	50430
464.062	23136
464.076	21597
464.142	9834
464.144	9654
464.211	8391
464.221	8395
464.279	8565
464.301	8738
464.347	10026
464.381	11096
464.414	12547
464.461	14261
464.482	14838
464.540	17173
464.550	16861
464.617	13871
464.620	13719
464.685	12936
464.699	12918
464.753	13447
464.779	13915
464.820	14510
464.859	14706
464.888	14891
464.938	15222
464.956	15586
465.018	17345
465.023	17106
465.091	13409
465.098	12945
465.158	12964
465.177	13117
465.226	12423
465.257	11976
465.293	12660
465.336	13425
465.361	14458
465.416	16722
465.428	18285
465.495	27172
465.496	27331
465.563	46201
465.575	49653
465.631	59249
465.654	63895
465.698	40159
465.734	17737
465.765	15383
465.813	11574
465.833	10738
465.893	10330
465.900	10342
465.968	10448
465.972	10438
466.035	9979
466.052	9861
466.102	10983
466.131	11565
466.170	10990
466.210	10375
466.237	10850
466.290	11787
466.304	11763
466.369	11465
466.372	11551
466.439	13723
466.449	13995
466.506	15510
466.528	16108
466.573	24798
466.607	31260
466.641	46841
466.687	68504
466.708	75634
466.766	95930
466.775	88319
466.842	29687
466.845	26846
466.909	18269
466.925	16461
466.977	14982
467.004	14411
467.044	14767
467.083	15089
467.111	16028
467.163	17761
467.178	18228
467.242	20044
467.245	20019
467.312	18855
467.321	18673
467.379	19399
467.400	19610
467.446	21037
467.480	22008
467.559	19531
467.638	16015
467.717	16708
467.796	19101
467.875	23080
467.955	21479
468.034	35546
468.113	81541
468.192	118212
468.271	29399
468.350	21526
468.429	27443
468.508	30591
468.588	22645
468.667	18997
468.746	19942
468.825	19491
468.904	14889
468.983	19297
469.062	32048
469.141	38258
469.220	15735
469.299	15097
469.378	16006
469.456	18450
469.535	16445
469.614	16011
469.693	18994
469.772	26847
469.851	35766
469.930	22899
470.009	16358
470.088	18807
470.166	23546
470.245	39202
470.324	48186
470.403	30116
470.482	18932
470.560	16826
470.639	17637
470.718	21667
470.797	17746
470.875	21621
470.954	29959
471.033	32609
471.111	13313
471.190	12845
471.269	11401
471.347	12499
471.426	13325
471.505	16660
471.583	15604
471.662	14483
471.740	12870
471.819	13963
471.898	12104
471.976	14112
472.055	12850
472.133	15872
472.212	22189
472.290	22600
472.369	14362
472.447	12127
472.526	11443
472.604	13398
472.683	15187
472.761	17047
472.839	14211
472.918	14022
472.996	14643
473.075	18412
473.153	16079
473.231	14339
473.310	17152
473.388	17400
473.466	14665
473.545	16843
473.623	22900
473.701	23916
473.780	14362
473.858	14112
473.936	17674
474.014	14130
474.093	16141
474.171	26410
474.249	37644
474.327	24428
474.405	12987
474.484	11964
474.562	12094
474.640	14269
474.718	13979
474.796	13759
474.874	11596
474.952	11282
475.030	10813
475.108	12759
475.187	13555
475.265	17297
475.343	26777
475.421	31189
475.499	13934
475.577	15262
475.655	20801
475.733	46294
475.811	81308
475.889	72074
475.966	45053
476.044	15737
476.122	21486
476.200	29056
476.278	21471
476.356	14152
476.434	14804
476.512	21091
476.590	27370
476.667	23721
476.745	13097
476.823	14445
476.901	13412
476.979	15694
477.056	13067
477.134	15122
477.212	15052
477.290	14443
477.367	12395
477.445	12222
477.523	11899
477.601	13153
477.678	13146
477.756	17135
477.834	18493
477.911	13227
477.989	12709
478.066	13084
478.144	15845
478.222	21174
478.299	34659
478.377	30863
478.454	12781
478.532	12355
478.609	12530
478.687	15439
478.764	12129
478.842	12986
478.919	15089
478.997	14474
479.074	11942
479.152	16378
479.229	20341
479.307	12806
479.384	9255
479.461	10992
479.539	11959
479.616	16703
479.694	12991
479.771	15569
479.848	15865
479.926	22557
480.003	24368
480.080	12134
480.157	10660
480.235	11592
480.312	11364
480.389	15496
480.467	27811
480.544	33502
480.621	15287
480.698	15471
480.775	17435
480.853	18069
480.930	13662
481.007	14974
481.084	16878
481.161	19233
481.238	17096
481.315	12840
481.392	12330
481.470	13648
481.547	13361
481.624	12492
481.701	13042
481.778	13481
481.855	15370
481.932	25384
482.009	44089
482.086	30330
482.163	16858
482.240	27212
482.317	46846
482.393	34772
482.470	14972
482.547	15776
482.624	13732
482.701	15107
482.778	13926
482.855	12181
482.932	12009
483.009	12006
483.085	14306
483.162	19074
483.239	18172
483.316	14890
483.393	15097
483.469	14242
483.546	16061
483.623	17960
483.699	13127
483.776	14336
483.853	15153
483.930	25719
484.006	65835
484.083	111624
484.160	42807
484.236	48096
484.313	38479
484.389	30933
484.466	27515
484.543	26825
484.619	29063
484.696	34660
484.772	33826
484.849	34793
484.925	26655
485.002	26778
485.078	28914
485.155	29088
485.231	24608
485.308	23875
485.384	25540
485.461	34511
485.537	64182
485.614	77142
485.690	27136
485.766	23945
485.843	26021
485.919	41133
485.995	41854
486.072	23006
486.148	20902
486.224	21732
486.301	23149
486.377	29803
486.453	29916
486.530	27932
486.606	32588
486.682	36926
486.758	52098
486.835	63055
486.911	47905
486.987	84331
487.063	90015
487.139	108503
487.215	71334
487.292	33872
487.368	27854
487.444	34183
487.520	43908
487.596	45753
487.672	76292
487.748	231285
487.824	344682
487.900	100678
487.976	36600
488.052	35979
488.128	42011
488.204	34421
488.280	27262
488.356	33630
488.432	77665
488.508	121267
488.584	38144
488.660	25377
488.736	24395
488.812	27540
488.888	32972
488.964	45191
489.039	106322
489.115	165253
489.191	90047
489.267	26383
489.343	23776
489.418	20115
489.494	19540
489.570	17186
489.646	20616
489.722	21097
489.797	21764
489.873	39035
489.949	89988
490.024	72601
490.100	21179
490.176	20351
490.251	26753
490.327	36498
490.403	20947
490.478	17930
490.554	15742
490.629	16306
490.705	16635
490.781	19727
490.856	18097
490.932	22419
491.007	22742
491.083	20772
491.158	20434
491.234	28182
491.309	67340
491.385	67907
491.460	21631
491.536	23431
491.611	18468
491.686	22437
491.762	32173
491.837	71505
491.913	116117
491.988	169301
492.063	203153
492.139	56263
492.214	32643
492.289	17383
492.365	15838
492.440	20125
492.515	21186
492.590	19476
492.666	16380
492.741	25279
492.816	38792
492.891	20586
492.967	15077
493.042	13535
493.117	13716
493.192	14777
493.267	18880
493.342	37774
493.418	44909
493.493	15955
493.568	12961
493.643	15104
493.718	19253
493.793	34414
493.868	36591
493.943	22688
494.018	15816
494.093	14312
494.168	15478
494.243	13492
494.318	11802
494.393	12761
494.468	11885
494.543	13434
494.618	15975
494.693	14225
494.768	13245
494.842	15554
494.917	12716
494.992	13796
495.067	11807
495.142	12423
495.217	13646
495.292	15377
495.366	18373
495.441	24353
495.516	30058
495.591	41807
495.665	152099
495.740	356501
495.815	136985
495.890	24684
495.964	17827
496.039	20915
496.114	17774
496.188	19920
496.263	19471
496.338	17768
496.412	20696
496.487	24247
496.561	25454
496.636	26479
496.710	19346
496.785	22951
496.860	26099
496.934	19348
497.009	19701
497.083	18599
497.158	18048
497.232	23222
497.307	30271
497.381	23613
497.455	29071
497.530	39093
497.604	24927
497.679	26568
497.753	45783
497.827	58855
497.902	50663
497.976	56376
498.050	145525
498.125	603026
498.199	595483
498.273	83727
498.348	51724
498.422	40085
498.496	39093
498.570	37462
498.645	27977
498.719	28410
498.793	38671
498.867	62361
498.941	78065
499.016	243659
499.090	654232
499.164	223482
499.238	25955
499.312	23499
499.386	29327
499.460	28804
499.534	25890
499.609	33615
499.683	50173
499.757	48273
499.831	105914
499.905	436536
499.979	400683
500.053	64660
500.127	60561
500.201	41974
500.275	27613
500.349	27865
500.422	31066
500.496	47982
500.570	96604
500.644	247178
500.718	449132
500.792	100439
500.866	26403
500.940	34851
501.013	29078
501.087	29179
501.161	48112
501.235	66094
501.309	139712
501.382	399877
501.456	338374
501.530	77117
501.603	127655
501.677	49928
501.751	20400
501.825	26971
501.898	51622
501.972	158754
502.046	95519
502.119	29215
502.193	68034
502.266	169684
502.340	79711
502.413	73551
502.487	145634
502.561	83461
502.634	26568
502.708	21944
502.781	18722
502.855	16212
502.928	13280
503.002	14959
503.075	14217
503.149	16537
503.222	16807
503.295	19564
503.369	24152
503.442	33310
503.516	115749
503.589	299364
503.662	186989
503.736	59239
503.809	135585
503.882	110851
503.956	160315
504.029	154399
504.102	139931
504.175	191410
504.249	63060
504.322	31104
504.395	23030
504.468	17210
504.542	16891
504.615	12527
504.688	11952
504.761	12341
504.834	17735
504.907	21513
504.980	34100
505.053	17297
505.127	20298
505.200	25762
505.273	24596
505.346	15678
505.419	11510
505.492	12112
505.565	9293
505.638	9776
505.711	10729
505.784	10401
505.857	9386
505.930	12573
506.003	10215
506.076	14040
506.149	19022
506.221	24079
506.294	21287
506.367	60754
506.440	207235
506.513	108837
506.586	24980
506.659	14918
506.731	12854
506.804	16160
506.877	23852
506.950	16154
507.022	11951
507.095	16702
507.168	21544
507.241	13784
507.313	8902
507.386	12926
507.459	20707
507.531	12754
507.604	9575
507.677	11084
507.749	8032
507.822	14812
507.894	25534
507.967	28430
508.040	15841
508.112	14104
508.185	14269
508.257	12415
508.330	22372
508.402	13728
508.475	13233
508.547	15336
508.620	14778
508.692	26486
508.765	15433
508.837	9497
508.909	10449
508.982	11564
509.054	13640
509.127	11176
509.199	9890
509.271	9365
509.344	9677
509.416	10625
509.488	9809
509.560	11570
509.633	11246
509.705	15352
509.777	13956
509.849	21240
509.922	13957
509.994	10347
510.066	10753
510.138	9752
510.210	20003
510.283	18383
510.355	15278
510.427	14939
510.499	14308
510.571	13443
510.643	13190
510.715	24741
510.787	20161
510.859	16243
510.931	18372
511.003	23881
511.076	21875
511.148	11817
511.219	12984
511.291	24389
511.363	28715
511.435	13472
511.507	10788
511.579	11481
511.651	12626
511.723	12193
511.795	10533
511.867	11878
511.939	15653
512.010	39298
512.082	28920
512.154	12823
512.226	12480
512.298	17943
512.369	25807
512.441	21873
512.513	22804
512.585	16170
512.656	16901
512.728	18979
512.800	14190
512.871	15352
512.943	14275
513.015	12364
513.086	13474
513.158	15636
513.230	16351
513.301	26531
513.373	31451
513.444	17026
513.516	12837
513.588	13951
513.659	16233
513.731	21436
513.802	16637
513.874	39541
513.945	71001
514.016	23193
514.088	13440
514.159	15173
514.231	22247
514.302	25749
514.374	17937
514.445	18295
514.516	42805
514.588	29546
514.659	18867
514.730	37729
514.802	27646
514.873	17005
514.944	17268
515.016	16241
515.087	19985
515.158	26896
515.229	36464
515.301	15711
515.372	19283
515.443	13486
515.514	12746
515.585	11290
515.656	13466
515.728	13722
515.799	12233
515.870	14503
515.941	16111
516.012	14160
516.083	20349
516.154	24697
516.225	34923
516.296	33092
516.367	29783
516.438	36702
516.509	46332
516.580	65733
516.651	217753
516.722	795770
516.793	328132
516.864	67862
516.935	65614
517.006	73704
517.077	97292
517.148	215999
517.219	889105
517.289	1333028
517.360	335976
517.431	100991
517.502	33234
517.573	29525
517.643	27313
517.714	30342
517.785	32250
517.856	37457
517.926	47395
517.997	57871
518.068	73771
518.138	97576
518.209	142784
518.280	558532
518.350	2017410
518.421	741601
518.492	89537
518.562	52244
518.633	49547
518.703	48341
518.774	83492
518.845	228790
518.915	226084
518.986	67356
519.056	44897
519.127	68331
519.197	101827
519.268	230228
519.338	143014
519.408	35946
519.479	41018
519.549	32165
519.620	20833
519.690	16805
519.760	16768
519.831	18813
519.901	18633
519.971	15247
520.042	17770
520.112	20592
520.182	23199
520.253	26892
520.323	18943
520.393	30081
520.463	48862
520.534	34608
520.604	73666
520.674	33545
520.744	30356
520.814	81213
520.885	70316
520.955	72037
521.025	266061
521.095	100545
521.165	21410
521.235	17781
521.305	15070
521.375	14480
521.445	16397
521.515	22571
521.585	26602
521.655	25033
521.725	20845
521.795	18726
521.865	11914
521.935	25350
522.005	19997
522.075	14515
522.145	15778
522.215	18945
522.285	27319
522.355	38117
522.424	74262
522.494	59681
522.564	28969
522.634	56957
522.704	163170
522.774	62974
522.843	18812
522.913	17838
522.983	22959
523.053	18085
523.122	16363
523.192	25252
523.262	91953
523.331	83622
523.401	18562
523.471	12063
523.540	14578
523.610	11617
523.680	11111
523.749	12182
523.819	16421
523.888	17405
523.958	12060
524.027	13184
524.097	14265
524.166	13499
524.236	15016
524.305	16759
524.375	12112
524.444	11656
524.514	14746
524.583	14415
524.653	16648
524.722	20943
524.791	13355
524.861	15001
524.930	12023
524.999	13672
525.069	19867
525.138	16819
525.207	19205
525.277	13436
525.346	15611
525.415	14402
525.484	14931
525.554	20579
525.623	19979
525.692	19235
525.761	21919
525.830	25858
525.900	30802
525.969	46938
526.038	73204
526.107	147315
526.176	445019
526.245	360327
526.314	111999
526.383	226251
526.452	302543
526.522	500409
526.591	501167
526.660	132904
526.729	69254
526.797	71651
526.867	130389
526.935	538383
527.004	1080468
527.073	591476
527.142	60202
527.211	28612
527.280	25993
527.349	24153
527.418	14464
527.487	15253
527.555	12939
527.624	12839
527.693	9672
527.762	13315
527.831	9965
527.899	12546
527.968	12007
528.037	12084
528.106	15051
528.174	29379
528.243	23590
528.312	35126
528.380	44128
528.449	15297
528.518	12754
528.586	8659
528.655	9444
528.723	9592
528.792	9500
528.861	10683
528.929	9559
528.998	10462
529.066	8771
529.135	9531
529.203	8964
529.272	9202
529.340	10319
529.409	12676
529.477	10349
529.545	14467
529.614	17448
529.682	18514
529.751	21007
529.819	23681
529.887	15562
529.956	11773
530.024	13155
530.092	10435
530.161	12446
530.229	22796
530.297	11938
530.365	11543
530.434	9180
530.502	9376
530.570	9765
530.638	8628
530.707	11093
530.775	13847
530.843	8371
530.911	9868
530.979	10234
531.047	10584
531.115	11263
531.183	10115
531.252	10181
531.320	11195
531.388	10075
531.456	12194
531.524	9499
531.592	11691
531.660	14152
531.728	10239
531.796	9986
531.864	10137
531.932	11681
532.000	10948
532.067	13049
532.135	14118
532.203	16104
532.271	16394
532.339	27944
532.407	76243
532.475	41328
532.542	22657
532.610	22530
532.678	28857
532.746	120356
532.814	310680
532.881	79207
532.949	19959
533.017	15313
533.084	13274
533.152	11809
533.220	12628
533.287	13114
533.355	11635
533.423	11759
533.490	11044
533.558	11181
533.625	12811
533.693	13143
533.761	14157
533.828	13625
533.896	12733
533.963	25777
534.031	31083
534.098	45168
534.166	22955
534.233	13226
534.300	15492
534.368	15399
534.435	15131
534.503	16680
534.570	21143
534.637	19757
534.705	22859
534.772	24715
534.840	44354
534.907	197906
534.974	256990
535.041	35047
535.109	22918
535.176	14098
535.243	14008
535.310	13699
535.378	13600
535.445	12037
535.512	12554
535.579	13176
535.646	12912
535.714	12804
535.781	15654
535.848	14185
535.915	15327
535.982	13777
536.049	14158
536.116	15293
536.183	14203
536.250	14161
536.317	15163
536.384	17046
536.451	27283
536.518	28426
536.585	19084
536.652	24205
536.719	35781
536.786	28286
536.853	21626
536.920	31396
536.987	49867
537.053	43001
537.120	153801
537.187	134067
537.254	21866
537.321	16244
537.388	17071
537.454	13726
537.521	13559
537.588	13335
537.654	16706
537.721	17550
537.788	18938
537.855	14682
537.921	15660
537.988	15408
538.055	16594
538.121	14317
538.188	17929
538.254	23559
538.321	50331
538.388	30938
538.454	18025
538.521	15628
538.587	15671
538.654	15273
538.720	14763
538.787	14196
538.853	16352
538.920	20395
538.986	21335
539.053	16247
539.119	16958
539.185	16732
539.252	21231
539.318	29765
539.385	23368
539.451	19585
539.517	20378
539.583	22476
539.650	46771
539.716	118916
539.782	36660
539.849	17740
539.915	18366
539.981	18096
540.047	22923
540.114	19277
540.180	20837
540.246	19340
540.312	26877
540.378	49251
540.444	48537
540.510	48444
540.576	132487
540.643	45990
540.709	18154
540.775	16888
540.841	17160
540.907	22987
540.973	35223
541.039	30037
541.105	31250
541.171	18727
541.237	16944
541.303	18100
541.369	21870
541.435	25171
541.500	45255
541.566	28674
541.632	16899
541.698	15328
541.764	15958
541.830	14463
541.896	15475
541.961	16138
542.027	16618
542.093	16952
542.159	18880
542.224	18626
542.290	25300
542.356	41992
542.421	52781
542.487	23764
542.553	18721
542.618	20331
542.684	18733
542.750	19021
542.815	21937
542.881	33300
542.947	115993
543.012	85875
543.078	18884
543.143	16430
543.209	19530
543.274	17543
543.340	20359
543.405	45597
543.471	71753
543.536	21968
543.602	18140
543.667	15035
543.732	17114
543.798	14483
543.863	17383
543.928	14961
543.994	14843
544.059	17209
544.124	15979
544.190	15375
544.255	17366
544.320	17978
544.386	18982
544.451	24743
544.516	29966
544.581	26218
544.646	73267
544.712	112984
544.777	28309
544.842	23024
544.907	23828
544.972	19498
545.037	19825
545.102	22137
545.168	23950
545.233	23342
545.298	25438
545.363	26482
545.428	31474
545.493	47517
545.558	99070
545.623	44911
545.688	24475
545.753	23220
545.818	23063
545.883	23874
545.947	24210
546.012	25859
546.077	27412
546.142	26037
546.207	26337
546.272	33722
546.337	34806
546.401	28126
546.466	28369
546.531	27272
546.596	30410
546.661	31550
546.725	31079
546.790	30343
546.855	32478
546.919	33398
546.984	38422
547.049	40962
547.113	48740
547.178	48611
547.243	54158
547.307	61654
547.372	70772
547.436	73057
547.501	67838
547.565	75334
547.630	73688
547.695	72125
547.759	75347
547.823	70264
547.888	66229
547.952	67863
548.017	71508
548.081	76610
548.146	84273
548.210	80312
548.274	77570
548.339	76454
548.403	70063
548.468	65233
548.532	66080
548.596	66712
548.660	67960
548.725	74153
548.789	84405
548.853	83044
548.917	75800
548.982	82211
549.046	75599
549.110	60010
549.174	62745
549.238	68647
549.303	75332
549.367	76803
549.431	75052
549.495	68856
549.559	70350
549.623	80205
549.687	91066
549.751	98386
549.815	104049
549.879	103580
549.943	98072
550.007	103318
550.071	103423
550.135	100400
550.199	91563
550.263	86709
550.327	86647
550.391	94739
550.455	94221
550.519	96857
550.582	102632
550.646	124489
550.710	128100
550.774	115327
550.838	116885
550.901	120029
550.965	128867
551.029	131764
551.093	142502
551.156	159029
551.220	213358
551.284	251421
551.347	168764
551.411	185348
551.475	183349
551.538	127213
551.602	117867
551.666	111097
551.729	102919
551.793	100301
551.856	99098
551.920	95429
551.983	96219
552.047	95305
552.110	96237
552.174	96224
552.237	100044
552.301	92534
552.364	89282
552.428	87308
552.491	91113
552.554	93277
552.618	92744
552.681	96066
552.745	97693
552.808	126735
552.871	151522
552.934	108452
552.998	95069
553.061	93453
553.124	87274
553.187	85463
553.251	88085
553.314	88953
553.377	88370
553.440	95210
553.503	106268
553.567	111924
553.630	95549
553.693	93140
553.756	92714
553.819	90025
553.882	89033
553.945	87166
554.008	88150
554.071	89326
554.134	89024
554.197	81456
554.260	81024
554.323	85636
554.386	87320
554.449	88664
554.512	87294
554.575	83659
554.638	85812
554.701	82152
554.764	81989
554.827	79376
554.889	76125
554.952	71005
555.015	70667
555.078	71413
555.141	73972
555.203	71981
555.266	72023
555.329	70751
555.391	70195
555.454	69236
555.517	69214
555.580	64641
555.642	61416
555.705	60833
555.768	61360
555.830	60737
555.893	56096
555.955	56164
556.018	56608
556.080	56533
556.143	57734
556.206	56077
556.268	56377
556.330	56383
556.393	54955
556.455	54211
556.518	63299
556.580	61927
556.643	48940
556.705	47930
556.767	47218
556.830	47988
556.892	51179
556.955	61565
557.017	51428
557.079	45868
557.142	44835
557.204	47760
557.266	70299
557.328	59669
557.391	40381
557.453	38914
557.515	39748
557.577	46088
557.639	46446
557.701	39456
557.764	40252
557.826	42549
557.888	45326
557.950	46281
558.012	49787
558.074	61246
558.136	138939
558.198	338213
558.260	120195
558.322	53176
558.384	55280
558.446	61976
558.508	70570
558.570	84455
558.632	116823
558.694	154519
558.756	182447
558.818	563056
558.880	1354217
558.942	424550
559.003	361190
559.065	173467
559.127	73510
559.189	71270
559.251	80398
559.312	108166
559.374	272094
559.436	929403
559.498	431424
559.559	83703
559.621	72603
559.683	80000
559.744	132897
559.806	448918
559.868	652872
559.929	124416
559.991	76487
560.052	113918
560.114	324788
560.176	200936
560.237	186046
560.299	299264
560.360	67890
560.422	34195
560.483	31786
560.545	27877
560.606	28569
560.667	25475
560.729	26270
560.790	24632
560.852	25240
560.913	24406
560.974	24376
561.036	24565
561.097	25332
561.158	24680
561.220	25436
561.281	24834
561.342	26063
561.403	28539
561.465	35124
561.526	74116
561.587	88948
561.648	30493
561.709	24568
561.771	23802
561.832	23854
561.893	23026
561.954	21678
562.015	21884
562.076	22549
562.137	22090
562.198	22233
562.259	22265
562.320	23478
562.381	25242
562.442	34386
562.503	27495
562.564	21765
562.625	21215
562.686	22357
562.747	23818
562.808	23650
562.869	22256
562.930	26909
562.991	26028
563.051	24278
563.112	21715
563.173	22723
563.234	20899
563.294	22416
563.355	20973
563.416	22891
563.477	21299
563.537	22067
563.598	23193
563.659	21908
563.720	22056
563.780	23615
563.841	23598
563.901	21301
563.962	20924
564.023	22174
564.083	22252
564.144	23271
564.204	22274
564.265	22259
564.325	25911
564.386	46078
564.446	40421
564.507	21883
564.567	20700
564.628	21151
564.688	19477
564.749	20862
564.809	24344
564.869	27908
564.930	20659
564.990	21031
565.050	19020
565.111	21204
565.171	19207
565.231	20537
565.292	19468
565.352	19208
565.412	21526
565.472	21003
565.532	21885
565.593	21149
565.653	19159
565.713	21182
565.773	21937
565.833	26684
565.893	31581
565.953	22040
566.013	19615
566.074	22316
566.134	27490
566.194	43931
566.254	42306
566.314	28385
566.374	19395
566.434	20367
566.494	20201
566.554	21433
566.614	20339
566.673	21339
566.733	22928
566.793	22389
566.853	22928
566.913	23143
566.973	22849
567.033	24339
567.092	25423
567.152	23013
567.212	23370
567.272	23241
567.331	25044
567.391	24649
567.451	26659
567.511	34804
567.570	33685
567.630	23313
567.690	21059
567.749	22785
567.809	21809
567.868	24774
567.928	25667
567.988	28594
568.047	27456
568.107	31790
568.166	35486
568.226	54413
568.285	70141
568.345	55385
568.404	43329
568.464	38928
568.523	35436
568.582	37324
568.642	41744
568.701	49343
568.761	69467
568.820	111356
568.879	99211
568.939	72434
568.998	50552
569.057	38274
569.116	33391
569.176	29837
569.235	26387
569.294	25939
569.353	23543
569.413	23971
569.472	23467
569.531	21853
569.590	21196
569.649	21519
569.708	19369
569.767	22227
569.827	26872
569.886	23915
569.945	19095
570.004	20743
570.063	19994
570.122	21750
570.181	23337
570.240	26027
570.299	25779
570.358	26405
570.417	20534
570.475	20683
570.534	21122
570.593	22448
570.652	22225
570.711	23272
570.770	21513
570.829	23856
570.887	22626
570.946	25756
571.005	19753
571.064	21085
571.122	23836
571.181	25950
571.240	20193
571.299	19091
571.357	21048
571.416	21505
571.475	24081
571.533	25277
571.592	20616
571.650	21600
571.709	19464
571.768	20634
571.826	20184
571.885	19356
571.943	18229
572.002	19344
572.060	19914
572.119	17779
572.177	17869
572.236	17909
572.294	16128
572.352	18641
572.411	17761
572.469	17643
572.528	17197
572.586	18101
572.644	20197
572.703	26402
572.761	19401
572.819	17881
572.877	16856
572.936	15291
572.994	16296
573.052	15794
573.110	17731
573.169	18164
573.227	16598
573.285	16796
573.343	15401
573.401	17514
573.459	16060
573.517	17047
573.576	17586
573.634	17160
573.692	17905
573.750	17669
573.808	17259
573.866	18644
573.924	22345
573.982	21147
574.040	16699
574.098	16856
574.155	15419
574.213	15926
574.271	15158
574.329	17660
574.387	14505
574.445	15848
574.503	14289
574.560	13749
574.618	13510
574.676	14518
574.734	14723
574.792	15048
574.849	13743
574.907	13616
574.965	12947
575.022	13643
575.080	13464
575.138	14127
575.195	14497
575.253	15588
575.311	16994
575.368	14277
575.426	13327
575.483	14631
575.541	13981
575.598	14579
575.656	15276
575.713	14716
575.771	14466
575.828	14466
575.886	14157
575.943	14445
576.001	15725
576.058	15408
576.115	16854
576.173	20007
576.230	22790
576.287	24114
576.345	19211
576.402	16774
576.459	15767
576.517	17544
576.574	18732
576.631	18872
576.688	16506
576.746	15769
576.803	15117
576.860	15222
576.917	15132
576.974	15351
577.031	15278
577.089	15650
577.146	14990
577.203	16493
577.260	16366
577.317	18071
577.374	19680
577.431	18442
577.488	15421
577.545	14018
577.602	14677
577.659	14926
577.716	13650
577.773	13915
577.830	13237
577.886	14705
577.943	12879
578.000	14065
578.057	15606
578.114	14530
578.171	13900
578.227	15562
578.284	13271
578.341	15500
578.398	15250
578.454	16431
578.511	17783
578.568	21003
578.625	16910
578.681	14684
578.738	12893
578.794	14178
578.851	14052
578.908	14551
578.964	15187
579.021	15906
579.077	15132
579.134	15561
579.190	13941
579.247	14594
579.303	14166
579.360	13479
579.416	13674
579.473	13990
579.529	12214
579.586	13778
579.642	13809
579.698	14936
579.755	15036
579.811	15293
579.867	13950
579.924	13681
579.980	13535
580.036	14518
580.093	14197
580.149	14378
580.205	14416
580.261	14620
580.317	16190
580.374	18386
580.430	19278
580.486	19040
580.542	16236
580.598	15226
580.619	15371
580.654	15637
580.692	16038
580.710	16260
580.765	14968
580.767	14937
580.823	15881
580.838	15657
580.879	15104
580.911	15253
580.935	15382
580.984	14594
580.991	14499
581.047	15509
581.057	15270
581.103	14283
581.130	14946
581.159	15619
581.203	15818
581.215	15896
581.270	15604
581.276	15543
581.326	14983
581.349	15413
581.382	16108
581.422	16499
581.438	16650
581.494	17615
581.494	17596
581.550	16577
581.567	16850
581.606	17354
581.640	16871
581.661	16576
581.713	16448
581.717	16449
581.773	14929
581.786	15114
581.829	15713
581.859	15399
581.885	15141
581.932	15946
581.940	16103
581.996	16971
582.004	16988
582.052	17043
582.077	16857
582.107	16644
582.150	16079
582.163	15930
582.219	16310
582.223	16349
582.274	16952
582.296	17044
582.330	17056
582.368	16813
582.386	16784
582.441	16324
582.441	16323
582.497	16676
582.514	16382
582.552	15959
582.587	16958
582.608	17545
582.659	15374
582.663	15206
582.719	16274
582.732	16368
582.774	16675
582.805	17085
582.830	17370
582.877	16564
582.885	16441
582.941	16867
582.950	16776
582.996	16381
583.023	17394
583.052	18502
583.095	17780
583.107	17586
583.162	17641
583.168	17707
583.218	18088
583.240	17706
583.273	17184
583.313	16700
583.328	16600
583.384	17827
583.385	17811
583.439	16985
583.458	17203
583.494	17642
583.531	16567
583.549	16194
583.603	17913
583.605	17947
583.660	17096
583.676	17136
583.715	17704
583.748	17996
583.770	18057
583.820	18647
583.825	18686
583.881	17635
583.893	17644
583.936	17977
583.965	17949
583.991	17794
584.038	18414
584.046	18537
584.101	17799
584.110	17901
584.156	18648
584.183	18377
584.211	17832
584.255	18250
584.266	18436
584.321	17837
584.328	17976
584.376	19342
584.400	19373
584.431	19171
584.472	19120
584.486	19088
584.541	18759
584.545	18783
584.596	19399
584.617	19602
584.651	20488
584.689	21558
584.706	21734
584.761	21549
584.762	21546
584.816	22383
584.834	22452
584.871	22380
584.906	22584
584.926	22803
584.978	23224
584.980	23263
585.035	25563
585.051	25959
585.090	27230
585.123	28873
585.145	29896
585.195	31291
585.200	31508
585.254	35373
585.267	36375
585.309	39716
585.340	42468
585.364	44862
585.412	49186
585.419	49988
585.473	58017
585.484	59857
585.528	72303
585.556	86822
585.583	120155
585.628	195305
585.637	224060
585.692	472637
585.700	512673
585.747	626543
585.772	530081
585.801	320917
585.845	105807
585.856	84567
585.910	51538
585.917	47996
585.965	40868
585.989	38221
586.019	35889
586.061	33851
586.074	33733
586.128	33847
586.133	33950
586.183	36008
586.205	36354
586.237	35941
586.277	34591
586.292	34248
586.346	35033
586.349	34965
586.401	33973
586.421	34200
586.455	35868
586.493	38032
586.509	40834
586.564	51743
586.565	52179
586.618	77030
586.637	78339
586.672	64791
586.709	49651
586.727	45809
586.781	43753
586.781	43781
586.835	37581
586.853	36283
586.889	35306
586.925	34571
586.944	34532
586.996	35745
586.998	35829
587.052	36474
587.068	36646
587.106	37035
587.140	36965
587.161	37023
587.212	38188
587.215	38330
587.269	39928
587.284	40349
587.323	41107
587.356	41173
587.377	41242
587.427	42490
587.431	42669
587.485	43369
587.499	43741
587.539	45238
587.571	45958
587.593	46832
587.643	49579
587.648	49885
587.702	51497
587.715	52185
587.755	54328
587.786	55087
587.810	55906
587.858	57114
587.864	57536
587.917	62662
587.930	63717
587.971	68107
588.001	71151
588.025	72763
588.073	75102
588.079	75841
588.133	82059
588.145	83782
588.187	91616
588.217	96557
588.241	102011
588.288	113698
588.295	115725
588.348	132832
588.360	136452
588.402	152073
588.431	163240
588.456	174897
588.503	198802
588.510	203396
588.564	240836
588.575	249246
588.617	292407
588.646	324233
588.671	368170
588.718	459033
588.725	485224
588.778	705796
588.789	756817
588.832	1122408
588.861	1395742
588.886	1659134
588.932	2147717
588.939	2158466
588.993	2046195
589.004	2021817
589.047	1739796
589.075	1478413
589.100	1196522
589.147	718427
589.154	689797
589.207	509397
589.218	475611
589.261	442810
589.290	426545
589.314	447409
589.361	498537
589.368	524174
589.421	751840
589.433	806221
589.475	1220806
589.504	1534383
589.528	1710499
589.576	1962765
589.582	1925494
589.635	1469738
589.647	1354846
589.689	857167
589.718	537673
589.742	442211
589.790	278733
589.795	271778
589.849	212939
589.861	200548
589.902	182281
589.932	166985
589.955	152224
590.004	120191
590.009	118816
590.062	105174
590.075	101744
590.115	95112
590.146	89937
590.168	88157
590.218	83958
590.222	83836
590.275	80386
590.289	79270
590.328	77062
590.360	75035
590.381	74081
590.431	71480
590.435	71512
590.488	69548
590.503	68972
590.541	68425
590.574	67490
590.594	66817
590.645	64749
590.647	64826
590.700	63352
590.716	62709
590.753	62387
590.787	61945
590.806	62028
590.859	61900
590.859	62028
590.912	61392
590.930	61189
590.965	61624
591.001	61704
591.018	61508
591.071	60484
591.072	60336
591.124	60389
591.143	60194
591.177	60439
591.214	60613
591.230	61187
591.283	62523
591.285	62426
591.336	63777
591.356	64216
591.389	63650
591.427	62332
591.442	61699
591.495	58929
591.498	58575
591.547	56960
591.569	56202
591.600	56855
591.640	57256
591.653	57588
591.706	58560
591.711	58513
591.759	60768
591.782	61831
591.811	64307
591.853	67436
591.864	66547
591.917	60965
591.924	60017
591.969	59559
591.995	59224
592.022	60319
592.066	61519
592.075	62379
592.127	66973
592.137	67675
592.180	72140
592.208	74600
592.233	71157
592.279	63991
592.285	63972
592.338	62671
592.350	62208
592.390	61441
592.421	60627
592.443	61198
592.491	61938
592.495	62153
592.548	62972
592.562	63043
592.600	63258
592.633	63140
592.653	62783
592.704	61099
592.705	61480
592.775	62995
592.846	65714
592.916	67013
592.987	69564
593.058	66668
593.128	63481
593.199	63515
593.270	61624
593.341	63181
593.411	65801
593.482	66865
593.553	67041
593.623	64808
593.694	68585
593.764	71547
593.835	67332
593.906	67657
593.976	68657
594.047	72714
594.117	80679
594.188	80911
594.258	70275
594.329	70764
594.399	73585
594.470	73052
594.540	75393
594.611	77140
594.681	74256
594.751	76419
594.822	80582
594.892	83838
594.963	85264
595.033	84879
595.103	87034
595.174	91411
595.244	110474
595.314	122414
595.384	92958
595.455	92956
595.525	94876
595.595	98962
595.665	97644
595.736	95958
595.806	96553
595.876	96437
595.946	96930
596.016	99321
596.087	103329
596.157	101915
596.227	103042
596.297	108990
596.367	114942
596.437	122486
596.507	136009
596.577	147449
596.647	124068
596.717	125531
596.787	126041
596.857	126296
596.927	126083
596.997	127196
597.067	127530
597.137	131872
597.207	131626
597.277	132734
597.347	127785
597.417	123887
597.487	126046
597.557	128534
597.626	131842
597.696	136255
597.766	141935
597.836	149935
597.906	122727
597.975	117012
598.045	119235
598.115	123215
598.185	130850
598.254	145876
598.324	155780
598.394	158472
598.464	154972
598.533	150393
598.603	138626
598.672	138731
598.742	139796
598.812	138930
598.881	142889
598.951	140051
599.020	142122
599.090	147565
599.159	148297
599.229	142257
599.299	139845
599.368	145857
599.437	141250
599.507	131989
599.576	129554
599.646	127776
599.715	125688
599.785	126243
599.854	125447
599.924	126950
599.993	123240
600.062	123259
600.132	126306
600.201	134905
600.270	156225
600.340	159450
600.409	152964
600.478	151635
600.547	155226
600.617	143084
600.686	117376
600.755	111173
600.824	109336
600.894	102854
600.963	101103
601.032	101494
601.101	98301
601.170	94304
601.239	94687
601.308	98459
601.378	95397
601.447	93884
601.516	94627
601.585	98312
601.654	103132
601.723	99889
601.792	99326
601.861	103174
601.930	109223
601.999	112638
602.068	109534
602.137	116456
602.206	116745
602.275	113233
602.343	120824
602.412	120378
602.481	112752
602.550	111496
602.619	115061
602.688	116825
602.756	116631
602.825	115044
602.894	119881
602.963	120181
603.032	120992
603.100	120189
603.169	122546
603.238	123186
603.307	122400
603.375	124070
603.444	127424
603.513	128854
603.581	130540
603.650	131045
603.719	128299
603.787	129487
603.856	134826
603.924	139001
603.993	142089
604.061	144234
604.130	153057
604.198	155559
604.267	156089
604.335	157463
604.404	159768
604.472	162974
604.541	163786
604.609	165428
604.678	165653
604.746	166636
604.815	172969
604.883	175220
604.951	174736
605.020	176988
605.088	179136
605.156	183009
605.225	184621
605.293	184789
605.361	186151
605.429	187156
605.498	193332
605.566	198160
605.634	206816
605.702	212644
605.771	217999
605.839	217890
605.907	211517
605.975	204051
606.043	200123
606.111	200546
606.180	201531
606.248	199480
606.316	197227
606.384	202457
606.452	208584
606.520	218347
606.588	209158
606.656	207929
606.724	201795
606.792	189757
606.860	171236
606.928	157001
606.996	152383
607.064	148309
607.132	154570
607.200	163248
607.267	167495
607.335	169256
607.403	175613
607.471	167854
607.539	162731
607.607	164399
607.674	145522
607.742	149245
607.810	148651
607.878	147708
607.946	148750
608.013	156494
608.081	159689
608.149	161313
608.216	164340
608.284	168745
608.352	169855
608.419	170596
608.487	177954
608.555	165777
608.622	164719
608.690	176413
608.757	195830
608.825	199134
608.893	196185
608.960	192443
609.028	188675
609.095	192898
609.163	175356
609.230	156078
609.298	144026
609.365	153218
609.432	164107
609.500	176973
609.567	203553
609.635	231461
609.702	241986
609.769	230786
609.837	183008
609.904	158450
609.971	163919
610.039	188140
610.106	260805
610.173	529187
610.241	1191101
610.308	570371
610.375	209024
610.442	173083
610.509	161515
610.577	161229
610.644	163979
610.711	169959
610.778	174548
610.845	179206
610.912	190409
610.980	197967
611.047	197635
611.114	195622
611.181	188583
611.248	186301
611.315	197101
611.382	201712
611.449	207905
611.516	211648
611.583	208959
611.650	212940
611.717	215149
611.784	222366
611.851	236559
611.918	257528
611.984	309128
612.051	463733
612.118	985736
612.185	2343892
612.252	1258923
612.319	345275
612.386	284748
612.452	258301
612.519	247015
612.586	254799
612.653	248134
612.719	250246
612.786	236823
612.853	218881
612.919	215574
612.986	218709
613.053	203275
613.120	192281
613.186	185409
613.253	187869
613.319	188385
613.386	189819
613.453	195718
613.519	201540
613.586	207026
613.652	230292
613.719	213828
613.785	209075
613.852	195170
613.918	191916
613.985	197210
614.051	203935
614.118	208147
614.184	200069
614.250	194056
614.317	195391
614.383	193482
614.449	198788
614.516	195370
614.582	199461
614.648	192064
614.715	191606
614.781	188552
614.847	189106
614.914	190847
614.980	184695
615.046	183685
615.112	186524
615.179	189060
615.245	193479
615.311	196220
615.377	207512
615.443	208115
615.509	201445
615.575	205979
615.642	203689
615.708	210327
615.774	224672
615.840	241299
615.906	268012
615.972	346121
616.038	565199
616.104	1205412
616.170	2752468
616.236	2009879
616.302	497992
616.368	374355
616.434	270665
616.500	253737
616.565	289495
616.631	360445
616.697	281944
616.763	304278
616.829	488168
616.895	867194
616.961	750179
617.026	302603
617.092	216248
617.158	203438
617.224	196999
617.289	183424
617.355	174405
617.421	173631
617.487	174028
617.552	165030
617.618	162875
617.684	161492
617.749	165598
617.815	153797
617.880	151674
617.946	153371
618.012	157288
618.077	158710
618.143	151111
618.208	156477
618.274	167023
618.339	166568
618.405	138341
618.470	138799
618.536	140844
618.601	141403
618.667	131754
618.732	123192
618.798	121145
618.863	121986
618.928	122242
618.994	125227
619.059	131626
619.124	149658
619.190	128482
619.255	120876
619.320	120340
619.386	120635
619.451	117469
619.516	114934
619.581	116742
619.647	119801
619.712	119215
619.777	115433
619.842	116248
619.907	119550
619.972	120748
620.038	120532
620.103	115233
620.168	113908
620.233	116938
620.298	117906
620.363	118216
620.428	119880
620.493	122922
620.558	123168
620.623	124703
620.688	126058
620.753	124296
620.818	126525
620.883	127405
620.948	127740
621.013	125803
621.078	125492
621.143	127453
621.207	129747
621.272	129119
621.337	127497
621.402	128757
621.467	137360
621.532	138183
621.596	130304
621.661	121126
621.726	119777
621.791	122954
621.855	124356
621.920	126096
621.985	127708
622.049	134581
622.114	132324
622.179	127700
622.243	131590
622.308	135173
622.373	140928
622.437	135922
622.502	128709
622.566	127371
622.631	126892
622.695	130389
622.760	130506
622.824	129056
622.889	132699
622.953	137244
623.018	169463
623.082	161814
623.147	138280
623.211	131924
623.276	136228
623.340	127169
623.404	121012
623.469	122923
623.533	123646
623.597	121422
623.662	120979
623.726	112839
623.790	106398
623.854	105150
623.919	108520
623.983	108785
624.047	110172
624.111	109422
624.176	114087
624.240	121818
624.304	125394
624.368	112298
624.432	112445
624.496	116259
624.560	126812
624.625	131509
624.689	120638
624.753	124395
624.817	117892
624.881	115863
624.945	105313
625.009	103356
625.073	107082
625.137	115367
625.201	129220
625.265	125335
625.329	110683
625.393	114599
625.456	112848
625.520	116568
625.584	121414
625.648	134582
625.712	163192
625.776	255347
625.839	257849
625.903	133583
625.967	103790
626.031	138060
626.095	180805
626.158	112669
626.222	84707
626.286	81039
626.349	77888
626.413	74736
626.477	78199
626.540	76192
626.604	74770
626.668	73863
626.731	71906
626.795	75111
626.858	74779
626.922	72147
626.986	70931
627.049	70394
627.113	73512
627.176	71299
627.240	70459
627.303	69193
627.366	69727
627.430	72741
627.493	70778
627.557	70249
627.620	71815
627.684	72474
627.747	72971
627.810	67335
627.874	62976
627.937	60972
628.000	64012
628.064	62356
628.127	54684
628.190	55735
628.253	56620
628.317	54061
628.380	51546
628.443	51931
628.506	51847
628.569	48566
628.632	45891
628.696	46647
628.759	46644
628.822	43966
628.885	43411
628.948	44568
629.011	45510
629.074	44842
629.137	42058
629.200	42668
629.263	45140
629.326	40831
629.389	41323
629.452	41540
629.515	42224
629.578	42027
629.641	43714
629.704	43431
629.767	42119
629.830	38995
629.892	39352
629.955	38114
630.018	43436
630.081	46164
630.144	51886
630.207	42555
630.269	44526
630.332	43112
630.395	39726
630.458	37523
630.520	37772
630.583	36992
630.646	36894
630.708	35737
630.771	36569
630.834	39032
630.896	36841
630.959	37052
631.021	36506
631.084	38137
631.146	40632
631.209	43371
631.272	38401
631.334	37915
631.397	38487
631.459	37750
631.522	42322
631.584	42761
631.646	46162
631.709	49126
631.771	56011
631.834	47805
631.896	42578
631.958	38240
632.021	38191
632.083	37425
632.145	38687
632.208	37416
632.270	36934
632.332	35113
632.395	35600
632.457	35928
632.519	34238
632.581	35865
632.643	33748
632.706	34951
632.768	33722
632.830	34959
632.892	34461
632.954	34940
633.016	36612
633.078	34166
633.141	33898
633.203	33833
633.265	34872
633.327	34501
633.389	35120
633.451	40191
633.513	43023
633.575	43281
633.637	43551
633.698	39158
633.760	36846
633.822	38500
633.884	39749
633.946	39779
634.008	41038
634.070	41241
634.132	44865
634.193	49813
634.255	53172
634.317	53424
634.379	53443
634.441	47193
634.502	42962
634.564	39877
634.626	36482
634.687	35677
634.749	34047
634.811	33863
634.873	32554
634.934	33723
634.996	34516
635.057	33127
635.119	33461
635.181	34621
635.242	35783
635.304	32259
635.365	36772
635.427	34038
635.488	35258
635.550	32815
635.611	35331
635.673	32665
635.734	39158
635.796	39937
635.857	45270
635.918	44782
635.980	49953
636.041	53955
636.102	59368
636.164	57985
636.225	55739
636.286	47180
636.348	43015
636.409	37413
636.470	35200
636.531	34607
636.593	35026
636.654	33550
636.715	30713
636.776	30051
636.838	28949
636.899	29377
636.960	29007
637.021	27467
637.082	27517
637.143	28826
637.204	26883
637.265	26242
637.326	27300
637.387	27509
637.448	26982
637.509	28060
637.570	28004
637.631	27816
637.692	25216
637.753	23730
637.814	25030
637.875	26314
637.936	25795
637.997	24942
638.058	26282
638.119	27055
638.179	25479
638.240	24800
638.301	24918
638.362	24944
638.423	24410
638.483	25121
638.544	22032
638.605	24061
638.666	22342
638.726	24296
638.787	25184
638.848	22886
638.908	22253
638.969	23074
639.030	22676
639.090	22618
639.151	23542
639.211	26740
639.272	31779
639.332	45770
639.393	30342
639.453	26612
639.514	26379
639.574	23192
639.635	21159
639.695	23527
639.756	21284
639.816	24505
639.877	28924
639.937	44601
639.997	50331
640.058	24458
640.118	21959
640.178	21712
640.239	20357
640.299	21056
640.359	21368
640.420	22551
640.480	26708
640.540	30392
640.600	29747
640.661	27048
640.721	26368
640.781	30415
640.841	23847
640.901	22992
640.961	22907
641.021	25618
641.082	30600
641.142	35890
641.202	25565
641.262	19833
641.322	21732
641.382	20930
641.442	20902
641.502	20193
641.562	21841
641.622	21209
641.682	23404
641.742	25568
641.802	24064
641.861	22984
641.921	23966
641.981	25896
642.041	24066
642.101	29044
642.161	20493
642.221	19362
642.280	19354
642.340	19449
642.400	18720
642.460	20851
642.519	19267
642.579	20835
642.639	20742
642.698	18691
642.758	22287
642.818	20611
642.877	20037
642.937	21687
642.997	24417
643.056	32813
643.116	22071
643.175	22040
643.235	20600
643.294	22142
643.354	24204
643.414	27232
643.473	30889
643.532	39668
643.592	56138
643.651	90716
643.711	163106
643.770	336055
643.830	844778
643.889	1564863
643.948	307345
644.008	62348
644.067	40512
644.126	30597
644.186	27686
644.245	24434
644.304	21162
644.363	23584
644.423	19424
644.482	21573
644.541	22297
644.600	22705
644.659	30514
644.719	39028
644.778	59303
644.837	104896
644.896	223630
644.955	477781
645.014	125820
645.073	33391
645.132	26394
645.191	24781
645.250	22524
645.309	24432
645.368	25605
645.427	36048
645.486	58586
645.545	93060
645.604	29463
645.663	22174
645.722	21400
645.781	24357
645.840	27275
645.898	36103
645.957	52915
646.016	83737
646.075	155994
646.134	318884
646.192	904774
646.251	1112490
646.310	142208
646.369	46929
646.427	39229
646.486	27871
646.545	24249
646.603	21738
646.662	19934
646.721	20374
646.779	19510
646.838	22087
646.896	26889
646.955	36656
647.014	59546
647.072	119880
647.131	315857
647.189	119793
647.248	23924
647.306	19080
647.365	18027
647.423	14747
647.481	17155
647.540	14698
647.598	15190
647.657	14309
647.715	15899
647.773	13473
647.832	15622
647.890	13767
647.948	13325
648.007	14847
648.065	12628
648.123	14063
648.181	15339
648.240	14040
648.298	12193
648.356	12935
648.414	14125
648.472	12851
648.531	14164
648.589	12261
648.647	13042
648.705	13719
648.763	14469
648.821	14337
648.879	14163
648.937	16742
648.995	22303
649.053	28615
649.111	43229
649.169	71836
649.227	134400
649.285	296043
649.343	801201
649.401	303070
649.459	75892
649.516	40916
649.574	22906
649.632	26264
649.690	27871
649.748	31390
649.806	42575
649.863	82310
649.921	223313
649.979	119693
650.037	20280
650.094	14275
650.152	14968
650.210	12825
650.268	13112
650.325	12380
650.383	12637
650.440	11369
650.498	11975
650.556	10864
650.613	10333
650.671	11638
650.728	12275
650.786	12379
650.843	15472
650.901	11060
650.958	10709
651.016	9988
651.073	9599
651.131	10273
651.188	9529
651.246	10580
651.303	8616
651.360	9588
651.418	9461
651.475	10165
651.532	8763
651.590	9252
651.647	9548
651.704	9495
651.762	10015
651.819	9547
651.876	8422
651.933	9015
651.990	9607
652.048	8228
652.105	9150
652.162	9155
652.219	8002
652.276	8914
652.333	8925
652.390	7758
652.448	8713
652.505	9171
652.562	8991
652.619	8927
652.676	9251
652.733	9665
652.790	8855
652.847	7023
652.904	8555
652.961	7200
653.017	8211
653.074	9181
653.131	9613
653.188	7258
653.245	7648
653.302	7782
653.359	8659
653.415	8688
653.472	7470
653.529	8700
653.586	7152
653.642	7436
653.699	8045
653.756	7860
653.813	7897
653.869	9098
653.926	8110
653.983	6832
654.039	8092
654.096	7170
654.152	8966
654.209	7097
654.266	8686
654.322	7958
654.379	9613
654.435	10335
654.492	11013
654.548	14873
654.605	20681
654.661	11734
654.717	7876
654.774	9327
654.830	8758
654.887	8246
654.943	8437
655.000	8674
655.056	8595
655.112	8425
655.168	8436
655.225	9465
655.281	11478
655.337	12206
655.394	18424
655.450	13417
655.506	12856
655.562	19862
655.618	14974
655.675	6997
655.731	8955
655.787	7346
655.843	8958
655.899	7589
655.955	8279
656.011	8404
656.067	7714
656.123	8066
656.179	7890
656.235	9582
656.291	7115
656.347	9740
656.403	8350
656.459	9292
656.515	10161
656.571	9802
656.627	8121
656.683	8711
656.739	8116
656.795	8714
656.850	9575
656.906	10481
656.962	9089
657.018	8118
657.074	9291
657.129	11500
657.185	15049
657.241	28784
657.297	15837
657.352	8357
657.408	7384
657.464	10146
657.519	8131
657.575	6836
657.630	7286
657.686	6291
657.742	7391
657.797	7856
657.853	7699
657.908	7854
657.964	6728
658.019	7559
658.075	7620
658.130	7973
658.186	6927
658.241	7429
658.297	6240
658.352	7123
658.407	7445
658.463	6681
658.518	7747
658.573	7748
658.629	6228
658.684	6473
658.739	7392
658.795	6092
658.850	6280
658.905	7220
658.960	6889
659.016	6756
659.071	7524
659.126	9149
659.181	9162
659.236	14626
659.291	14382
659.346	8867
659.401	7944
659.457	7491
659.512	6713
659.567	8040
659.622	6632
659.677	7119
659.732	6394
659.787	7367
659.842	9367
659.897	11234
659.952	7980
660.007	7576
660.061	7049
660.116	6640
660.171	6647
660.226	6744
660.281	7140
660.336	6118
660.391	6230
660.445	5650
660.500	7343
660.555	6897
660.610	5712
660.664	6625
660.719	6772
660.774	6524
660.828	6913
660.883	6878
660.938	7366
660.992	5917
661.047	7412
661.101	6544
661.156	6741
661.211	5029
661.265	6293
661.320	6750
661.374	7117
661.429	6521
661.483	6902
661.538	6017
661.592	6436
661.647	6222
661.701	7015
661.755	7305
661.810	6784
661.864	5642
661.919	5773
661.973	6870
662.027	6090
662.081	5950
662.136	5850
662.190	7236
662.244	7768
662.299	6182
662.353	6256
662.407	7505
662.461	7657
662.515	6981
662.569	6792
662.624	7898
662.678	7390
662.732	6848
662.786	6397
662.840	7156
662.894	6990
662.948	6365
663.002	5604
663.056	6899
663.110	6156
663.164	6760
663.218	6438
663.272	7877
663.326	7750
663.380	8270
663.434	7062
663.488	7016
663.542	8166
663.595	7163
663.649	6719
663.703	7539
663.757	6453
663.811	6205
663.864	6605
663.918	6770
663.972	7135
664.026	6506
664.079	6038
664.133	7102
664.187	6796
664.240	6945
664.294	7079
664.348	6944
664.401	6765
664.455	7431
664.508	6066
664.562	6132
664.615	6575
664.669	6060
664.722	6780
664.776	5921
664.829	5737
664.883	6621
664.936	7112
664.990	6516
665.043	7860
665.097	7727
665.150	8342
665.203	7251
665.257	6570
665.310	7737
665.363	7358
665.417	7887
665.470	8207
665.523	7804
665.576	7238
665.630	6654
665.683	7704
665.736	6807
665.789	7664
665.842	7038
665.895	7446
665.949	7306
666.002	7323
666.055	7675
666.108	8555
666.161	8241
666.214	8747
666.267	9113
666.320	9912
666.373	8811
666.426	8059
666.479	7439
666.532	8363
666.585	9795
666.638	9732
666.691	9244
666.744	9973
666.796	9553
666.849	8748
666.902	8295
666.955	7904
667.008	7578
667.060	7635
667.113	6506
667.166	7207
667.219	7183
667.271	7573
667.324	6466
667.377	7562
667.430	6462
667.482	7971
667.535	6960
667.587	8774
667.640	9021
667.693	10546
667.745	17352
667.798	15765
667.850	8123
667.903	7982
667.955	7779
668.008	8550
668.060	8242
668.113	9185
668.165	9116
668.218	8476
668.270	7272
668.322	8617
668.375	7142
668.427	8351
668.479	7741
668.532	8785
668.584	8125
668.636	7757
668.689	8440
668.741	8098
668.793	7824
668.845	7742
668.898	8248
668.950	7412
669.002	8353
669.054	7270
669.106	7196
669.158	8491
669.211	8036
669.263	7710
669.315	8590
669.367	8314
669.419	8147
669.471	9163
669.523	9678
669.575	11779
669.627	9620
669.679	8133
669.731	7704
669.783	8892
669.835	9041
669.886	8547
669.938	7757
669.990	7540
670.042	7228
670.094	7128
670.146	7809
670.197	8352
670.249	8336
670.301	9350
670.353	10790
670.404	14056
670.456	16909
670.508	25340
670.560	36225
670.611	58721
670.663	97614
670.715	241128
670.766	335609
670.818	80833
670.869	18055
670.921	13128
670.972	11708
671.024	9857
671.075	9583
671.127	8261
671.178	8321
671.230	8653
671.281	7921
671.333	9720
671.384	11094
671.436	12249
671.487	14882
671.538	20294
671.590	29129
671.641	45366
671.692	82675
671.744	147086
671.795	78890
671.846	26961
671.897	16574
671.949	13173
672.000	11025
672.051	9439
672.102	9493
672.153	7264
672.204	8907
672.256	8421
672.307	8414
672.358	9206
672.409	7662
672.460	7407
672.511	7645
672.562	7838
672.613	7428
672.664	7892
672.715	7482
672.766	6322
672.817	7137
672.868	6699
672.919	7604
672.970	6920
673.021	7248
673.071	6811
673.122	7514
673.173	6773
673.224	6920
673.275	6971
673.326	7250
673.376	6408
673.427	6572
673.478	7031
673.528	6511
673.579	6569
673.630	6373
673.680	7978
673.731	6315
673.782	5969
673.832	6172
673.883	7466
673.934	6663
673.984	7171
674.035	7058
674.085	6453
674.136	7751
674.186	7957
674.237	9554
674.287	12753
674.338	8175
674.388	6917
674.438	6705
674.489	7060
674.539	7609
674.589	7211
674.640	7637
674.690	6999
674.740	7950
674.791	7737
674.841	6818
674.891	6778
674.942	6626
674.992	6043
675.042	5952
675.092	6551
675.142	6100
675.193	6672
675.243	5792
675.293	6513
675.343	7109
675.393	5602
675.443	6414
675.493	6527
675.543	6038
675.593	6641
675.643	6328
675.693	6854
675.743	5623
675.793	5664
675.843	5675
675.893	6148
675.943	5731
675.993	5292
676.043	6059
676.093	6533
676.142	6048
676.192	6225
676.242	5767
676.292	4782
676.341	6251
676.391	5489
676.441	4903
676.491	5660
676.540	4515
676.590	5306
676.640	6404
676.689	5589
676.739	5035
676.789	4816
676.838	5950
676.888	6180
676.937	4439
676.987	4705
677.037	5009
677.086	4539
677.136	5421
677.185	5110
677.235	4470
677.284	5498
677.333	4518
677.383	3852
677.432	5576
677.482	5648
677.531	5395
677.580	6247
677.630	3758
677.679	4845
677.728	5854
677.778	5722
677.827	4559
677.876	4386
677.925	4991
677.975	5033
678.024	5707
678.073	4683
678.122	6175
678.171	5574
678.220	6056
678.269	6257
678.319	6847
678.368	6289
678.417	5908
678.466	6622
678.515	6640
678.564	5656
678.613	6177
678.662	5351
678.711	5502
678.760	5632
678.809	5081
678.857	5262
678.906	4990
678.955	5422
679.004	5283
679.053	4820
679.102	5279
679.151	5718
679.199	5358
679.248	4633
679.297	6075
679.346	6226
679.394	4469
679.443	5259
679.492	5417
679.540	5085
679.589	5509
679.638	4580
679.686	5509
679.735	5101
679.784	5686
679.832	5707
679.881	4858
679.929	3742
679.978	4164
680.026	4979
680.075	4623
680.123	4652
680.172	4731
680.220	4559
680.268	4416
680.317	4194
680.365	4035
680.414	4548
680.462	5066
680.510	4744
680.559	4341
680.607	4436
680.655	4502
680.703	5161
680.752	5404
680.800	3364
680.848	4150
680.896	4106
680.945	4061
680.993	5004
681.041	3865
681.089	4641
681.137	4713
681.185	4462
681.233	4422
681.258	4553
681.281	4631
681.329	3962
681.377	3396
681.380	3537
681.425	5230
681.473	5480
681.502	5396
681.521	5244
681.569	6121
681.617	5232
681.624	5192
681.665	4581
681.713	5056
681.745	5193
681.761	5184
681.809	5726
681.857	6621
681.867	6397
681.904	5454
681.952	6900
681.989	5256
682.000	4693
682.048	6751
682.096	5875
682.111	6044
682.143	6259
682.191	5858
682.233	6392
682.239	6423
682.286	5700
682.334	5480
682.354	5854
682.382	6279
682.430	6717
682.476	6891
682.477	6850
682.525	6838
682.572	6429
682.598	6317
682.620	6194
682.667	6362
682.715	7331
682.720	7298
682.763	6512
682.810	7398
682.841	6971
682.857	6668
682.905	6906
682.952	7957
682.963	7965
683.000	7801
683.047	7605
683.085	7960
683.095	8015
683.142	7451
683.190	7486
683.206	7367
683.237	7103
683.284	9170
683.328	8619
683.332	8528
683.379	8188
683.426	7488
683.449	7705
683.473	7885
683.521	7977
683.568	8465
683.571	8495
683.615	8441
683.662	8870
683.693	8634
683.709	8477
683.757	8215
683.804	8997
683.814	8874
683.851	8302
683.898	8770
683.936	9644
683.945	9837
683.992	9819
684.039	9947
684.057	10349
684.086	10919
684.133	10947
684.179	10773
684.180	10724
684.227	11030
684.274	11260
684.300	11310
684.321	11257
684.368	10110
684.415	11519
684.422	11410
684.462	10572
684.509	9332
684.543	10159
684.556	10491
684.603	10364
684.649	10545
684.665	10413
684.696	10141
684.743	11222
684.786	10784
684.790	10740
684.837	11479
684.883	12452
684.908	12517
684.930	12256
684.977	13079
685.023	12331
685.029	12326
685.070	12117
685.117	11805
685.150	11957
685.164	12129
685.210	12921
685.257	12964
685.272	13180
685.303	13462
685.350	14017
685.393	13692
685.396	13669
685.443	14564
685.490	15315
685.514	15705
685.536	15477
685.583	14796
685.629	13716
685.636	13698
685.675	13976
685.722	14230
685.757	14250
685.768	14259
685.815	14396
685.861	13997
685.878	14192
685.908	14597
685.954	14878
686.000	15361
686.000	15370
686.047	16153
686.093	19430
686.121	19568
686.139	18692
686.185	17127
686.232	15416
686.242	15205
686.278	15036
686.324	14795
686.363	13840
686.370	13722
686.416	13651
686.463	14081
686.484	14021
686.509	13914
686.555	14087
686.601	13482
686.606	13569
686.647	14495
686.693	14035
686.727	14112
686.739	14096
686.785	14065
686.831	14333
686.848	14390
686.877	14374
686.923	13943
686.969	13860
686.969	13861
687.015	14074
687.061	15114
687.090	14952
687.107	14664
687.153	15514
687.199	14929
687.211	14775
687.245	14710
687.291	15526
687.332	16438
687.336	16493
687.382	16627
687.428	16194
687.453	16223
687.474	16020
687.520	15858
687.565	15216
687.574	15027
687.611	14970
687.657	15560
687.695	15578
687.702	15588
687.748	16944
687.794	17392
687.816	17244
687.839	16544
687.885	15716
687.931	14978
687.937	14854
687.976	15200
688.022	16373
688.058	16528
688.067	16455
688.113	16113
688.158	15510
688.179	15501
688.204	15757
688.249	17178
688.295	16881
688.300	16970
688.340	17526
688.386	17964
688.421	17268
688.431	17087
688.477	16932
688.522	17665
688.542	17656
688.567	17615
688.613	17691
688.658	17273
688.663	17268
688.703	17227
688.749	17581
688.784	17529
688.794	17524
688.839	17217
688.884	17051
688.905	16686
688.930	16293
688.975	16782
689.020	16294
689.026	16368
689.065	17233
689.110	16718
689.146	17242
689.155	17309
689.201	16453
689.246	16499
689.267	16376
689.291	16493
689.336	16704
689.381	17010
689.388	17080
689.426	17621
689.471	17402
689.509	17418
689.516	17366
689.561	17078
689.606	17610
689.630	17118
689.651	16910
689.696	17270
689.741	17645
689.750	17675
689.785	17661
689.830	17627
689.871	16906
689.875	16840
689.920	17296
689.965	17193
689.992	16452
690.010	16193
690.054	17174
690.099	17700
690.112	17667
690.144	17623
690.189	17304
690.233	17570
690.233	17592
690.278	17789
690.323	17566
690.354	17463
690.367	17513
690.412	17541
690.457	17551
690.474	17524
690.501	17316
690.546	17187
690.590	16676
690.595	16596
690.635	16475
690.680	16968
690.716	16895
690.724	16929
690.769	17158
690.813	17855
690.836	17644
690.857	17484
690.902	17715
690.946	18216
690.957	18165
690.991	18472
691.035	19141
691.077	19496
691.080	19531
691.124	19914
691.168	20379
691.198	20600
691.213	20727
691.257	21234
691.301	20986
691.318	21021
691.346	20587
691.390	20082
691.434	19358
691.439	19264
691.478	19547
691.522	20211
691.559	19855
691.567	19957
691.611	21108
691.655	21758
691.680	22389
691.699	22155
691.743	21225
691.787	20512
691.800	20190
691.831	20531
691.875	20891
691.919	21605
691.921	21590
691.964	21619
692.008	21237
692.041	21003
692.052	21106
692.096	21482
692.139	22148
692.162	22322
692.183	22193
692.227	21772
692.271	21219
692.282	21136
692.315	21518
692.359	21523
692.402	21646
692.403	21686
692.447	22004
692.490	21867
692.523	22031
692.534	22170
692.578	22830
692.622	22708
692.643	22773
692.666	22443
692.709	21483
692.753	20823
692.763	20575
692.797	20403
692.840	20355
692.884	20218
692.884	20260
692.928	20774
692.971	20932
693.004	21071
693.015	21121
693.059	21361
693.102	21497
693.124	21403
693.146	21676
693.189	22272
693.233	23252
693.245	23472
693.276	23624
693.320	23408
693.363	22615
693.365	22583
693.407	23249
693.450	23079
693.485	23116
693.493	23198
693.537	23248
693.580	23476
693.605	23544
693.624	23273
693.667	22385
693.710	21319
693.725	21069
693.753	21843
693.797	22643
693.840	23502
693.845	23584
693.883	23286
693.926	22391
693.966	22068
693.970	22103
694.013	21420
694.056	21529
694.086	20897
694.099	21086
694.142	22190
694.185	23065
694.206	23454
694.229	23875
694.272	24464
694.315	25489
694.326	25578
694.358	25843
694.401	26122
694.444	26661
694.446	26637
694.487	26598
694.530	26115
694.566	25650
694.573	25434
694.616	23769
694.659	22218
694.686	21019
694.702	20921
694.745	21038
694.787	20637
694.806	20537
694.830	20790
694.873	21056
694.916	21266
694.926	21313
694.959	21747
695.002	21901
695.044	22497
695.046	22462
695.087	22759
695.130	23007
695.166	23186
695.172	23252
695.215	23186
695.258	23449
695.286	23443
695.301	23416
695.343	23132
695.386	22957
695.406	22701
695.428	22701
695.471	22948
695.514	22871
695.526	22873
695.556	23309
695.599	23954
695.641	24308
695.646	24302
695.684	23765
695.726	22906
695.766	22282
695.769	22348
695.811	22457
695.854	22465
695.886	22568
695.896	22643
695.938	22799
695.981	22658
696.005	22651
696.023	22906
696.065	23218
696.108	23771
696.125	23848
696.150	24089
696.192	24505
696.235	24952
696.245	24985
696.277	24400
696.319	23586
696.361	22756
696.365	22624
696.404	22770
696.446	23095
696.485	23222
696.488	23316
696.530	23682
696.572	24202
696.604	24454
696.614	24435
696.656	24271
696.698	23964
696.724	23761
696.740	23840
696.783	23816
696.825	23838
696.844	23792
696.867	23924
696.909	24068
696.951	24102
696.964	24121
696.992	24049
697.034	23667
697.076	23254
697.083	23134
697.118	23633
697.160	24330
697.202	24892
697.203	24848
697.244	24782
697.286	24550
697.323	24159
697.327	24232
697.369	24587
697.411	24822
697.442	24926
697.453	25103
697.494	25633
697.536	26125
697.562	26354
697.578	26511
697.620	26836
697.661	27042
697.682	27084
697.703	27782
697.744	29108
697.786	30502
697.801	30844
697.828	30626
697.869	30256
697.911	29945
697.921	29786
697.952	28813
697.994	27432
698.035	25988
698.040	25757
698.077	25659
698.118	25401
698.160	25147
698.160	25081
698.201	25145
698.243	25129
698.279	25065
698.284	25190
698.325	25749
698.367	26313
698.399	26673
698.408	26621
698.449	26053
698.491	25513
698.518	25079
698.532	25304
698.573	25798
698.614	26312
698.638	26512
698.656	26512
698.697	26369
698.738	26248
698.757	26108
698.779	26422
698.820	26911
698.862	27399
698.877	27506
698.903	27972
698.944	28606
698.985	29251
698.996	29354
699.026	28866
699.067	28089
699.116	27091
699.235	26344
699.354	25784
699.474	27234
699.593	31568
699.713	29082
699.832	27396
699.951	29288
700.070	26791
700.190	25978
700.309	27109
700.428	29819
700.547	26317
700.667	26029
700.786	29124
700.905	25423
701.024	28233
701.143	25379
701.262	24088
701.381	24565
701.500	27083
701.619	29556
701.738	23975
701.857	22611
701.976	23557
702.095	22374
702.214	27951
702.333	27951
702.452	26345
702.571	23227
702.690	23164
702.809	22613
702.928	23028
703.047	23221
703.165	22900
703.284	21955
703.403	22420
703.522	25765
703.640	24801
703.759	32460
703.878	41200
703.997	24227
704.115	23049
704.234	22441
704.353	22613
704.471	20225
704.590	19452
704.708	19378
704.827	19201
704.946	21295
705.064	23552
705.183	21097
705.301	26682
705.420	35457
705.538	30236
705.656	25950
705.775	25252
705.893	28580
706.012	30474
706.130	27792
706.249	27123
706.367	28605
706.485	29646
706.604	28491
706.722	31004
706.840	37064
706.958	34021
707.077	28211
707.195	25690
707.313	24678
707.431	24645
707.549	24750
707.668	24471
707.786	26835
707.904	24234
708.022	24130
708.140	23966
708.258	23269
708.376	24812
708.494	25069
708.612	29281
708.730	40347
708.848	36644
708.966	33490
709.084	31577
709.202	30561
709.320	31878
709.438	30737
709.556	30977
709.674	29966
709.791	29967
709.909	28734
710.027	28651
710.145	28253
710.263	30276
710.380	29665
710.498	28503
710.616	29168
710.733	29908
710.851	31160
710.969	29875
711.086	29180
711.204	28633
711.322	28570
711.439	28768
711.557	29632
711.674	27329
711.792	29158
711.909	26613
712.027	25521
712.144	25267
712.262	26695
712.379	32083
712.497	43694
712.614	41620
712.732	34689
712.849	34365
712.966	38327
713.084	47763
713.201	36429
713.318	36124
713.436	33492
713.553	35358
713.670	36779
713.787	40598
713.905	39584
714.022	34307
714.139	35268
714.256	41384
714.373	53193
714.490	86322
714.608	228325
714.725	922944
714.842	679919
714.959	64777
715.076	40716
715.193	35258
715.310	32675
715.427	30804
715.544	28998
715.661	30193
715.778	30033
715.895	32344
716.011	32984
716.128	30140
716.245	30848
716.362	37085
716.479	36853
716.596	29543
716.713	28023
716.829	27885
716.946	28133
717.063	25535
717.180	26010
717.296	26174
717.413	25858
717.530	25753
717.646	25955
717.763	26626
717.880	24071
717.996	24515
718.113	26065
718.229	24751
718.346	23212
718.462	26779
718.579	35620
718.695	62344
718.812	41653
718.928	39344
719.045	26284
719.161	24164
719.277	23013
719.394	23719
719.510	23835
719.626	26505
719.743	33042
719.859	40504
719.975	71970
720.092	278532
720.208	490414
720.324	56255
720.440	28889
720.557	33447
720.673	50552
720.789	64715
720.905	122526
721.021	37509
721.137	22954
721.253	24999
721.369	23883
721.486	28819
721.602	36977
721.718	22258
721.834	19724
721.950	22136
722.066	19448
722.181	20521
722.297	22794
722.413	20236
722.529	19430
722.645	19109
722.761	19383
722.877	19382
722.993	19080
723.108	23146
723.224	19576
723.340	20011
723.456	18270
723.571	19902
723.687	17378
723.803	18796
723.918	17831
724.034	18430
724.150	18653
724.265	24286
724.381	49776
724.497	51432
724.612	17823
724.728	16572
724.843	17917
724.959	22947
725.074	47312
725.190	45862
725.305	20502
725.421	17669
725.536	15114
725.651	16138
725.767	15719
725.882	15400
725.997	15375
726.113	17403
726.228	15062
726.343	15017
726.459	13524
726.574	16855
726.689	14320
726.804	16296
726.920	15779
727.035	15480
727.150	15300
727.265	15591
727.380	15232
727.495	15541
727.610	13765
727.725	14030
727.841	13602
727.956	16254
728.071	17481
728.186	14555
728.301	13339
728.416	16055
728.531	13810
728.645	13725
728.760	16875
728.875	17503
728.990	15444
729.105	15626
729.220	15862
729.335	16313
729.449	12943
729.564	12519
729.679	11219
729.794	12655
729.908	14481
730.023	14270
730.138	10283
730.253	13711
730.367	11422
730.482	12410
730.596	12904
730.711	13848
730.826	14606
730.940	13979
731.055	13994
731.169	12973
731.284	11991
731.398	12858
731.513	15964
731.627	15408
731.742	19012
731.856	19790
731.970	16052
732.085	20344
732.199	25705
732.313	42789
732.428	110015
732.542	308768
732.656	137051
732.771	29215
732.885	18487
732.999	17578
733.113	18496
733.227	17801
733.342	15211
733.456	14988
733.570	12831
733.684	14714
733.798	14211
733.912	13457
734.026	13126
734.140	14142
734.254	15813
734.368	28995
734.482	30225
734.596	13325
734.710	13144
734.824	12834
734.938	12600
735.052	14238
735.166	15621
735.280	14281
735.393	12780
735.507	14060
735.621	18794
735.735	34267
735.849	14642
735.962	11981
736.076	13701
736.190	14092
736.303	20154
736.417	23219
736.531	12063
736.644	12922
736.758	11249
736.872	11052
736.985	11668
737.099	10683
737.212	10226
737.326	11604
737.439	11442
737.553	11865
737.666	12140
737.780	10496
737.893	10553
738.007	10672
738.120	11530
738.233	11218
738.347	10473
738.460	10842
738.573	12591
738.687	12963
738.800	13046
738.913	17111
739.026	11802
739.140	10713
739.253	9225
739.366	9742
739.479	9139
739.592	9137
739.705	9987
739.818	10559
739.932	9826
740.045	10734
740.158	10579
740.271	11003
740.384	9791
740.497	11135
740.610	11603
740.723	10888
740.836	10404
740.949	13919
741.062	17394
741.174	13517
741.287	10589
741.400	10377
741.513	11112
741.626	13722
741.739	12081
741.851	11243
741.964	9055
742.077	10649
742.189	10784
742.302	13377
742.415	11830
742.527	11322
742.640	10073
742.753	9712
742.865	8920
742.978	8401
743.090	9705
743.203	9210
743.316	7650
743.428	8477
743.541	7911
743.653	8904
743.766	8743
743.878	9868
743.990	13002
744.103	11706
744.215	9985
744.327	9462
744.440	13592
744.552	21345
744.664	10096
744.777	9473
744.889	7224
745.001	8429
745.113	7961
745.226	7625
745.338	8001
745.450	7937
745.562	7478
745.674	7551
745.786	7614
745.898	6619
746.010	6726
746.122	7455
746.234	8037
746.347	7272
746.459	6889
746.570	6984
746.682	7522
746.794	7869
746.906	6669
747.018	7707
747.130	6725
747.242	6978
747.354	7030
747.466	8154
747.577	6617
747.689	7402
747.801	6857
747.913	6671
748.024	6792
748.136	7209
748.248	6306
748.359	6666
748.471	7030
748.583	5954
748.694	6351
748.806	8155
748.918	10127
749.029	8680
749.141	9167
749.252	9489
749.364	11424
749.475	25850
749.587	14665
749.698	7186
749.809	5816
749.921	6696
750.032	6006
750.144	5951
750.255	5320
750.366	6193
750.478	6821
750.589	7567
750.700	7912
750.811	8341
750.923	10522
751.034	29153
751.145	23130
751.256	7988
751.367	6060
751.479	6068
751.590	5645
751.701	5903
751.812	4977
751.923	6842
752.034	5601
752.145	5791
752.256	6079
752.367	5610
752.478	5019
752.589	6188
752.700	5181
752.811	5882
752.922	6223
753.032	7646
753.143	8388
753.254	5595
753.365	6784
753.476	6326
753.586	5462
753.697	5349
753.808	5100
753.919	5257
754.029	4998
754.140	5374
754.251	5118
754.361	6092
754.472	6395
754.582	5507
754.693	5968
754.804	5734
754.914	5055
755.025	4832
755.135	5100
755.246	5468
755.356	4614
755.466	5878
755.577	5629
755.687	6113
755.798	4755
755.908	5559
756.018	5040
756.129	5316
756.239	4503
756.349	5678
756.460	5780
756.570	6735
756.680	5812
756.790	6183
756.900	6866
757.011	4856
757.121	5231
757.231	4456
757.341	5205
757.451	5095
757.561	4333
757.671	5104
757.781	4319
757.891	6645
758.001	4820
758.111	5066
758.221	6366
758.331	8189
758.441	7532
758.551	12282
758.661	9735
758.771	6579
758.880	6145
758.990	7217
759.100	5609
759.210	6110
759.320	6288
759.429	6861
759.539	6239
759.649	7333
759.758	6646
759.868	8583
759.978	7708
760.087	8564
760.197	8061
760.307	8087
760.416	7457
760.526	6642
760.635	7984
760.745	8156
760.854	8393
760.964	9555
761.073	9257
761.182	8338
761.292	6696
761.401	8325
761.511	5753
761.620	6288
761.729	6244
761.839	6021
761.948	5988
762.057	6830
762.166	5686
762.276	4251
762.385	6062
762.494	5757
762.603	5807
762.712	6970
762.822	5364
762.931	6236
763.040	4848
763.149	6048
763.258	4744
763.367	5630
763.476	5538
763.585	6176
763.694	5142
763.803	6249
763.912	6008
764.021	5707
764.130	5102
764.238	6119
764.347	5649
764.456	5421
764.565	5768
764.674	5550
764.783	5245
764.891	5084
765.000	6427
765.109	6675
765.217	5308
765.326	8740
765.435	9219
765.543	7507
765.652	6641
765.761	8159
765.869	9103
765.978	13379
766.086	23307
766.195	41814
766.303	129503
766.412	437558
766.520	248580
766.629	34964
766.737	15685
766.846	12376
766.954	9162
767.062	9654
767.171	7335
767.279	8979
767.387	6430
767.496	6933
767.604	6023
767.712	6588
767.820	5671
767.928	6860
768.037	5606
768.145	8031
768.253	5683
768.361	5671
768.469	6161
768.577	6854
768.685	5859
768.793	6912
768.901	6135
769.009	6308
769.117	6870
769.225	7207
769.333	8351
769.441	12076
769.549	19866
769.657	45964
769.765	176305
769.873	321951
769.981	55915
770.088	12813
770.196	8979
770.304	8948
770.412	9121
770.519	7937
770.627	6096
770.735	8004
770.842	6927
770.950	7698
771.058	6497
771.165	6868
771.273	7794
771.380	6758
771.488	8613
771.595	8521
771.703	6938
771.810	8121
771.918	6656
772.025	9168
772.133	8318
772.240	8844
772.348	9962
772.455	9463
772.562	8495
772.670	7742
772.777	8533
772.884	8685
772.991	8305
773.099	9146
773.206	7123
773.313	7905
773.420	7984
773.528	7750
773.635	7497
773.742	9080
773.849	8192
773.956	8068
774.063	7007
774.170	8121
774.277	8428
774.384	7765
774.491	7340
774.598	9075
774.705	8947
774.812	11716
774.919	9516
775.026	8949
775.133	7975
775.239	8583
775.346	7544
775.453	7666
775.560	6649
775.667	7993
775.773	7163
775.880	8360
775.987	7587
776.093	8887
776.200	8117
776.307	6356
776.413	7226
776.520	8298
776.627	7519
776.733	8181
776.840	5572
776.946	9872
777.053	7681
777.159	11045
777.266	6886
777.372	9813
777.478	9262
777.585	7238
777.691	6258
777.798	7948
777.904	8699
778.010	12194
778.117	10812
778.223	7316
778.329	7345
778.435	6601
778.542	6552
778.648	6990
778.754	5758
778.860	7018
778.966	7780
779.072	6440
779.178	7153
779.284	6478
779.391	5445
779.497	5914
779.603	6807
779.708	4769
779.815	6424
779.920	7951
780.026	8334
780.132	6929
780.238	5438
780.344	6399
780.450	6383
780.556	4694
780.661	5826
780.767	6598
780.873	4685
780.979	7464
781.085	5604
781.190	6519
781.296	5279
781.402	5073
781.507	5182
781.613	4803
781.719	5192
781.824	5938
781.930	5722
782.035	6727
782.141	5019
782.246	5733
782.352	4880
782.457	6130
782.563	5826
782.668	5202
782.773	5987
782.879	5749
782.984	7146
783.090	8140
783.195	13546
783.300	8771
783.405	6741
783.511	5489
783.616	5630
783.721	6666
783.826	4796
783.932	6297
784.037	6062
784.142	5673
784.247	4914
784.352	5846
784.457	4832
784.562	6246
784.667	5982
784.772	5686
784.877	3804
784.982	5765
785.087	4062
785.192	5896
785.297	4073
785.402	5170
785.507	4232
785.611	5218
785.716	5238
785.821	4932
785.926	4560
786.031	4480
786.135	4302
786.240	6028
786.345	3781
786.450	4648
786.554	4316
786.659	4057
786.763	3634
786.868	5105
786.973	5031
787.077	4461
787.182	3753
787.286	4352
787.391	4591
787.495	3751
787.600	4119
787.704	3281
787.809	4457
787.913	4100
788.017	5011
788.122	5315
788.226	3347
788.330	3237
788.435	3815
788.539	4387
788.643	3624
788.747	4013
788.852	3565
788.956	4339
789.060	3953
789.164	4268
789.268	2543
789.372	4642
789.476	3851
789.580	3318
789.684	4127
789.788	4513
789.892	3856
789.996	4751
790.100	3585
790.204	4202
790.308	3563
790.412	3503
790.516	3942
790.620	4197
790.724	4827
790.828	4105
790.931	3096
791.035	4245
791.139	3645
791.242	3362
791.346	4121
791.450	3888
791.554	3485
791.657	2788
791.761	4786
791.864	4650
791.968	4240
792.072	4885
792.175	3273
792.279	3717
792.382	3263
792.486	4609
792.589	3435
792.693	4819
792.796	3039
792.899	4651
793.003	4373
793.106	3326
793.209	3886
793.313	4791
793.416	2991
793.519	6233
793.623	9107
793.726	12908
793.829	4572
793.932	4388
794.035	3323
794.138	5392
794.242	5393
794.345	5282
794.448	5642
794.551	11018
794.654	8865
794.757	5717
794.860	6199
794.963	5123
795.066	2359
795.169	3699
795.272	2655
795.375	3918
795.477	3168
795.580	2347
795.683	2398
795.786	3968
795.889	1577
795.991	4112
796.094	4698
796.197	2328
796.300	4440
796.402	2293
796.505	2078
796.608	3132
796.710	3817
796.813	2906
796.915	2882
797.018	3412
797.120	3412
797.223	1797
797.326	4889
797.428	1735
797.530	2421
797.633	3246
797.735	5772
797.838	9313
797.940	6503
798.042	2435
798.145	2595
798.247	3109
798.349	1127
798.452	4716
798.554	2763
798.656	3020
798.758	3395
798.860	2995
798.962	2253
799.065	2783
799.167	2197
799.269	4074
799.371	4243
799.473	5712
799.575	5484
799.677	6086
799.779	7185
799.881	8822
799.983	4800
800.085	3657
800.187	3096
800.289	2516
800.390	2751
800.492	3271
800.594	3137
800.696	2880
800.798	2849
800.899	2614
801.001	2582
801.103	2719
801.205	2246
801.306	2597
801.408	1071
801.509	2200
801.611	3245
801.713	2684
801.814	1857
801.916	2230
802.017	1424
802.119	1693
802.220	2005
802.322	1009
802.423	6573
802.525	2639
802.626	2695
802.727	3574
802.829	3258
802.930	1186
803.031	3567
803.133	1776
803.234	2105
803.335	2083
803.436	1889
803.538	1400
803.639	621
803.740	3095
803.841	1423
803.942	2684
804.043	2348
804.144	1646
804.245	2355
804.346	2341
804.447	2340
804.548	7024
804.649	6847
804.750	2587
804.851	1993
804.952	2008
805.053	1736
805.154	1200
805.255	2220
805.355	2665
805.456	1496
805.557	1351
805.658	1414
805.758	2534
805.859	1585
805.960	1845
806.061	756
806.161	2240
806.262	2142
806.362	2594
806.463	1858
806.564	2968
806.664	3129
806.765	3366
806.865	2933
806.966	2262
807.066	1194
807.166	3072
807.267	1450
807.367	1416
807.468	1777
807.568	1290
807.668	1777
807.769	2860
807.869	816
807.969	1739
808.069	1095
808.170	1820
808.270	1649
808.370	2958
808.470	4620
808.570	3147
808.670	1081
808.770	2235
808.870	460
808.970	2477
809.070	1118
809.170	914
809.271	2447
809.370	1354
809.470	2251
809.570	1001
809.670	800
809.770	1377
809.870	1710
809.970	1808
810.070	1451
810.169	2437
810.269	-102
810.369	1987
810.469	1153
810.568	1248
810.668	817
810.768	1863
810.867	2016
810.967	872
811.066	1504
811.166	1791
811.265	1890
811.365	1389
811.464	695
811.564	1867
811.663	2576
811.763	1077
811.862	1241
811.962	3171
812.061	1026
812.160	1657
812.260	1085
812.359	1610
812.458	1423
812.557	3487
812.657	3059
812.756	2429
812.855	1021
812.954	1079
813.053	1835
813.153	1254
813.252	544
813.351	1638
813.450	1207
813.549	720
813.648	1477
813.747	1050
813.846	1778
813.945	1083
814.044	1455
814.143	1462
814.242	2356
814.341	1357
814.439	1829
814.538	2771
814.637	1683
814.736	1871
814.835	1658
814.933	1557
815.032	2175
815.131	3091
815.229	4151
815.328	4428
815.427	3166
815.525	4312
815.624	4230
815.722	2891
815.821	3620
815.919	3910
816.018	3997
816.116	4719
816.215	3242
816.313	5023
816.412	4210
816.510	5049
816.609	5080
816.707	5824
816.805	4857
816.904	5363
817.002	5348
817.100	6401
817.198	7271
817.296	5796
817.395	7019
817.493	7160
817.591	7274
817.689	9670
817.787	11815
817.885	19640
817.983	34055
818.081	72793
818.179	175877
818.277	422884
818.375	304563
818.473	80481
818.571	33372
818.669	24436
818.767	20298
818.865	20427
818.963	24147
819.061	37504
819.158	65131
819.256	141899
819.354	342775
819.452	675803
819.549	378733
819.647	107362
819.745	45613
819.842	30120
819.940	21258
820.038	15343
820.135	12284
820.233	12291
820.330	8134
820.428	7314
820.525	7997
820.623	6693
820.720	5985
820.818	6528
820.915	6022
821.012	6414
821.110	3066
821.207	5893
821.304	4187
821.402	4545
821.499	4734
821.596	5029
821.693	4955
821.791	6034
821.888	7745
821.985	16180
822.082	10111
822.179	5589
822.276	3231
822.373	2762
822.470	2820
822.567	2993
822.664	2445
822.761	4790
822.858	2526
822.955	4012
823.052	2902
823.149	3354
823.246	2733
823.343	3428
823.440	2956
823.536	2356
823.633	1734
823.730	2691
823.827	2423
823.923	2935
824.020	3301
824.117	3034
824.213	2428
824.310	2531
824.407	2014
824.503	2976
824.600	2032
824.696	2061
824.793	3594
824.889	3185
824.986	2358
825.082	2106
825.179	2743
825.275	3169
825.371	2496
825.468	2045
825.564	145
825.660	3016
825.757	3097
825.853	1852
825.949	1632
826.045	2912
826.142	1733
826.238	1954
826.334	2152
826.430	259
826.526	1429
826.622	2757
826.718	2232
826.814	2636
826.910	1641
827.006	956
827.102	536
827.198	2539
827.294	1653
827.390	2404
827.486	1425
827.582	1271
827.678	1539
827.774	3139
827.869	587
827.965	3288
828.061	629
828.157	2230
828.252	1866
828.348	731
828.444	1713
828.539	1099
828.635	1786
828.731	3490
828.826	1222
828.922	2526
829.017	2037
829.113	2929
829.208	1235
829.304	2545
829.399	3340
829.495	1521
829.590	1919
829.685	1929
829.781	2020
829.876	1319
829.971	817
830.066	1132
830.162	1755
830.257	1862
830.352	1555
830.447	2211
830.543	2186
830.638	1970
830.733	2446
830.828	924
830.923	2400
831.018	1747
831.113	1508
831.208	1938
831.303	818
831.398	1569
831.493	1596
831.588	2559
831.683	-279
831.778	1230
831.873	942
831.967	2283
832.062	1299
832.157	1643
832.252	1979
832.346	1828
832.441	2764
832.536	5125
832.631	12151
832.725	8354
832.820	1634
832.914	1577
833.009	1351
833.104	3310
833.198	3617
833.293	1755
833.387	2190
833.482	2226
833.576	1103
833.670	2872
833.765	1217
833.859	2887
833.954	2100
834.048	1279
834.142	1058
834.237	1656
834.331	551
834.425	1956
834.519	224
834.613	2117
834.708	548
834.802	1465
834.896	262
834.990	1523
835.084	244
835.178	1419
835.272	1527
835.366	1701
835.460	1861
835.554	986
835.648	1581
835.742	821
835.836	750
835.930	1617
836.024	1659
836.117	2813
836.211	1348
836.305	4173
836.399	4411
836.493	1077
836.586	1487
836.680	-159
836.774	1147
836.867	2114
836.961	550
837.055	280
837.148	640
837.242	1260
837.335	369
837.429	1340
837.522	1643
837.616	2684
837.709	5889
837.803	3983
837.896	1955
837.989	2487
838.083	3715
838.176	8320
838.269	5546
838.363	2477
838.456	1461
838.549	4302
838.642	6533
838.735	14035
838.829	5007
838.922	1596
839.015	740
839.108	508
839.201	1257
839.294	1763
839.387	1224
839.480	983
839.573	3558
839.666	4156
839.759	886
839.852	1951
839.945	872
840.038	1555
840.131	599
840.223	922
840.316	1978
840.409	1291
840.502	528
840.594	2293
840.687	447
840.780	689
840.873	824
840.965	1708
841.058	3118
841.150	7324
841.243	3160
841.336	1280
841.428	1101
841.521	909
841.613	934
841.706	1075
841.798	534
841.890	1278
841.983	-477
842.075	1788
842.167	453
842.260	1595
842.352	3518
842.444	4385
842.537	9145
842.629	11702
842.721	1597
842.813	1930
842.905	342
842.997	2212
843.090	2662
843.182	5253
843.274	8743
843.366	20637
843.458	37622
843.550	20730
843.642	2707
843.734	2983
843.826	3050
843.918	3259
844.009	1749
844.101	1313
844.193	616
844.285	1099
844.377	1105
844.469	1529
844.560	1717
844.652	901
844.744	685
844.835	1044
844.927	1355
845.019	2388
845.110	923
845.202	1532
845.293	-330
845.385	1070
845.476	142
845.568	2298
845.659	425
845.751	1594
845.842	249
845.934	-51
846.025	19
846.116	1080
846.208	368
846.299	811
846.390	447
846.482	1824
846.573	1955
846.664	3847
846.755	5657
846.846	5238
846.937	-183
847.029	480
847.120	740
847.211	1266
847.302	1699
847.393	-106
847.484	443
847.575	715
847.666	-648
847.757	1101
847.847	1058
847.938	1237
848.029	94
848.120	1372
848.211	1136
848.302	453
848.392	534
848.483	1871
848.574	13
848.664	307
848.755	766
848.846	1188
848.936	115
849.027	1590
849.118	1083
849.208	1796
849.299	3172
849.389	7801
849.480	18142
849.570	35253
849.661	69643
849.751	103149
849.841	31642
849.932	5990
850.022	2236
850.112	2101
850.203	1650
850.293	1400
850.383	1231
850.474	1144
850.564	749
850.654	710
850.744	1012
850.834	780
850.924	247
851.014	1019
851.104	284
851.194	1498
851.284	2087
851.374	3125
851.464	1489
851.554	2028
851.644	1981
851.734	3754
851.824	1980
851.914	826
852.004	928
852.094	240
852.183	665
852.273	2163
852.363	1289
852.452	193
852.542	1110
852.632	714
852.721	1081
852.811	1454
852.901	1100
852.990	2212
853.080	1913
853.169	2830
853.259	2287
853.348	3576
853.438	4880
853.527	7508
853.617	11729
853.706	21406
853.795	41163
853.885	93654
853.974	172623
854.063	321313
854.152	434274
854.242	150128
854.331	30584
854.420	13705
854.509	9696
854.598	8374
854.687	5907
854.777	6187
854.866	3475
854.955	2660
855.044	1874
855.133	2299
855.222	1626
855.311	1594
855.400	1435
855.488	2060
855.577	1250
855.666	1677
855.755	1508
855.844	2290
855.933	1124
856.021	1693
856.110	343
856.199	1180
856.288	174
856.376	758
856.465	19
856.554	1399
856.642	999
856.731	1318
856.819	1348
856.908	350
856.996	474
857.085	899
857.173	573
857.262	593
857.350	403
857.438	837
857.527	27
857.615	499
857.703	1031
857.792	309
857.880	1032
857.968	1358
858.056	-124
858.145	873
858.233	614
858.321	236
858.409	32
858.497	324
858.585	-44
858.673	68
858.761	706
858.849	622
858.937	-723
859.025	716
859.113	418
859.201	1340
859.289	1057
859.377	931
859.465	-329
859.552	993
859.640	653
859.728	1209
859.816	406
859.903	916
859.991	-398
860.079	540
860.166	493
860.254	1193
860.342	324
860.429	443
860.517	231
860.604	1101
860.692	773
860.779	489
860.867	72
860.954	725
861.042	493
861.129	1744
861.216	644
861.304	468
861.391	608
861.478	437
861.565	617
861.653	1129
861.740	52
861.827	792
861.914	74
862.001	1025
862.089	-56
862.176	928
862.263	-537
862.350	759
862.437	323
862.524	-196
862.611	377
862.698	289
862.785	472
862.871	865
862.958	971
863.045	225
863.132	474
863.219	-80
863.306	-859
863.392	920
863.479	1072
863.566	546
863.652	1014
863.739	316
863.826	948
863.912	1132
863.999	-109
864.086	1465
864.172	293
864.259	246
864.345	542
864.432	692
864.518	9
864.604	1497
864.691	89
864.777	1291
864.863	1575
864.950	2456
865.036	2900
865.122	4582
865.209	4233
865.295	4497
865.381	5515
865.467	6266
865.553	8437
865.639	13341
865.726	22777
865.812	47453
865.898	90858
865.984	138536
866.070	255946
866.156	237328
866.242	59790
866.328	16074
866.414	8810
866.499	7168
866.585	4920
866.671	5257
866.757	4049
866.843	4546
866.928	3326
867.014	2880
867.100	3956
867.186	4386
867.271	4074
867.357	6744
867.442	5271
867.528	4145
867.614	2952
867.699	2681
867.785	3370
867.870	2024
867.956	2806
868.041	3325
868.127	4087
868.212	3985
868.297	2523
868.383	3579
868.468	4521
868.553	7592
868.639	8066
868.724	18481
868.809	13010
868.894	3540
868.979	1027
869.065	2949
869.150	1153
869.235	1805
869.320	1998
869.405	1288
869.490	1039
869.575	1495
869.660	1238
869.745	2451
869.830	1958
869.915	1804
870.000	920
870.085	1720
870.169	1677
870.254	1977
870.339	1101
870.424	1428
870.509	2222
870.593	1633
870.678	1383
870.763	2123
870.847	2211
870.932	2412
871.016	1084
871.101	1493
871.186	1650
871.270	2592
871.355	441
871.439	2812
871.523	817
871.608	1953
871.692	830
871.777	2143
871.861	964
871.945	1591
872.030	1608
872.114	848
872.198	828
872.282	2340
872.367	440
872.451	1181
872.535	628
872.619	1444
872.703	165
872.787	1650
872.871	1142
872.955	1247
873.039	819
873.123	1003
873.207	1861
873.291	815
873.375	1170
873.459	1531
873.543	139
873.627	1357
873.711	1108
873.794	1644
873.878	602
873.962	671
874.045	1686
874.129	1199
874.137	1183
874.213	1023
874.245	1499
874.296	2274
874.352	1032
874.380	423
874.460	865
874.464	882
874.547	693
874.568	907
874.631	1541
874.676	935
874.714	417
874.784	1509
874.798	1722
874.881	1973
874.892	1791
874.965	620
874.999	901
875.048	1225
875.107	1564
875.131	1739
875.215	971
875.215	971
875.298	816
875.323	863
875.381	1042
875.430	1329
875.465	1502
875.538	1058
875.548	998
875.631	1314
875.646	1138
875.714	233
875.753	769
875.798	1472
875.861	832
875.881	612
875.964	1607
875.968	1603
876.047	1588
876.076	1555
876.130	1401
876.183	1580
876.213	1731
876.291	2369
876.296	2403
876.379	828
876.398	808
876.462	814
876.506	738
876.545	655
876.613	686
876.628	707
876.711	1351
876.721	1471
876.794	2247
876.828	1540
876.877	581
876.935	1167
876.960	1415
877.043	1533
877.043	1536
877.125	2356
877.150	2141
877.208	1325
877.258	1485
877.291	1740
877.365	1274
877.374	1194
877.456	1815
877.472	1713
877.539	1632
877.579	1946
877.622	1986
877.687	1660
877.704	1662
877.787	1583
877.794	1608
877.869	1571
877.901	1539
877.952	1568
878.008	1113
878.034	918
878.115	1343
878.117	1354
878.199	959
878.222	1089
878.282	1340
878.329	1456
878.364	1570
878.437	1097
878.447	1006
878.529	683
878.544	669
878.611	815
878.651	778
878.694	752
878.758	1585
878.776	1806
878.858	1046
878.865	1076
878.941	1100
878.972	708
879.023	346
879.078	870
879.105	1110
879.185	1457
879.187	1468
879.269	1922
879.292	1629
879.351	457
879.399	616
879.433	930
879.506	806
879.516	763
879.598	1366
879.613	1235
879.680	870
879.720	965
879.762	961
879.827	580
879.844	467
879.926	1278
879.933	1288
880.007	1674
880.040	1902
880.089	2101
880.147	3252
880.171	3917
880.253	7596
880.254	7620
880.335	10285
880.360	11177
880.417	14443
880.467	22186
880.499	27068
880.574	28807
880.580	28415
880.662	8382
880.680	6609
880.744	2775
880.787	1523
880.825	785
880.893	881
880.907	984
880.989	1568
881.000	1534
881.070	1234
881.106	1077
881.152	912
881.213	1284
881.233	1286
881.315	1102
881.319	1033
881.396	385
881.426	612
881.478	820
881.532	906
881.559	1151
881.639	1050
881.641	1025
881.722	854
881.745	579
881.803	820
881.852	1374
881.885	1433
881.958	1128
881.966	1105
882.047	1959
882.064	1886
882.129	1705
882.171	2265
882.210	3012
882.277	3799
882.291	3840
882.372	2595
882.383	2431
882.454	1380
882.489	1335
882.535	1242
882.596	829
882.616	828
882.697	1334
882.702	1332
882.778	743
882.808	671
882.859	852
882.914	793
882.940	774
883.020	902
883.021	908
883.102	1507
883.127	1564
883.183	1352
883.233	1049
883.264	879
883.339	753
883.345	749
883.426	455
883.445	433
883.507	919
883.551	1034
883.587	824
883.657	1316
883.668	1458
883.749	1595
883.763	1615
883.830	1251
883.869	1076
883.910	956
883.975	866
883.991	813
884.072	268
884.081	256
884.152	907
884.187	1040
884.233	1103
884.292	1270
884.314	1196
884.394	674
884.398	656
884.475	-33
884.504	-273
884.555	425
884.610	1211
884.636	1157
884.716	795
884.716	801
884.797	1376
884.821	1359
884.877	816
884.927	515
884.958	585
885.033	824
885.038	843
885.118	1149
885.139	1184
885.199	992
885.244	819
885.279	769
885.350	853
885.359	952
885.439	1821
885.456	1873
885.520	756
885.561	308
885.600	485
885.667	864
885.680	987
885.760	1374
885.773	1461
885.840	1343
885.878	1198
885.920	908
885.984	501
886.000	609
886.080	1312
886.089	1359
886.160	1143
886.195	1058
886.240	1017
886.300	1006
886.320	1099
886.400	1374
886.406	1406
886.480	1493
886.511	1468
886.560	1745
886.616	1878
886.640	1779
886.720	1506
886.722	1495
886.800	641
886.827	416
886.879	898
886.932	1228
886.959	1435
887.038	2177
887.039	2171
887.119	1055
887.143	659
887.198	671
887.248	883
887.278	936
887.354	873
887.358	887
887.437	1124
887.459	1188
887.517	1510
887.564	1731
887.596	1367
887.669	490
887.676	516
887.755	896
887.774	983
887.835	965
887.880	912
887.914	1098
887.985	1582
887.994	1599
888.073	1500
888.090	1502
888.153	1507
888.195	1441
888.232	1285
888.300	1169
888.311	1116
888.391	482
888.405	399
888.470	619
888.510	699
888.549	1066
888.615	1744
888.628	1753
888.708	1736
888.720	1738
888.787	1744
888.825	1656
888.866	890
888.930	-132
888.945	184
889.024	1693
889.035	1909
889.103	992
889.140	437
889.182	699
889.245	1185
889.261	1133
889.340	772
889.349	735
889.419	750
889.454	742
889.498	782
889.559	855
889.577	896
889.656	1061
889.664	1078
889.735	1370
889.768	1506
889.814	1708
889.873	1967
889.978	1449
890.083	1008
890.187	1316
890.292	1728
890.397	1580
890.501	1441
890.606	118
890.710	1748
890.815	485
890.919	1720
891.024	764
891.128	1776
891.233	1573
891.337	1916
891.442	374
891.546	603
891.650	1649
891.755	854
891.859	1922
891.963	1781
892.068	1305
892.172	1525
892.276	1041
892.380	788
892.484	1229
892.589	1407
892.693	1714
892.797	877
892.901	388
893.005	1826
893.109	966
893.213	1888
893.317	1094
893.421	435
893.525	127
893.629	1458
893.733	1280
893.837	1192
893.941	1055
894.045	2298
894.148	781
894.252	126
894.356	889
894.460	2025
894.564	784
894.667	1005
894.771	318
894.875	1188
894.978	638
895.082	1120
895.186	869
895.289	2030
895.393	515
895.496	1580
895.600	408
895.703	1367
895.807	807
895.910	1668
896.014	909
896.117	1045
896.221	811
896.324	1216
896.427	795
896.531	1087
896.634	973
896.737	1752
896.840	884
896.944	1512
897.047	1289
897.150	574
897.253	513
897.356	1596
897.460	489
897.563	1194
897.666	745
897.769	1331
897.872	204
897.975	298
898.078	437
898.181	1414
898.284	502
898.387	1698
898.490	1209
898.593	965
898.695	666
898.798	862
898.901	1019
899.004	1283
899.107	591
899.209	1143
899.312	1413
899.415	806
899.518	499
899.620	1171
899.723	715
899.826	1679
899.928	2019
900.031	1048
900.133	1160
900.236	909
900.338	260
900.441	534
900.543	-188
900.646	1109
900.748	305
900.851	1403
900.953	380
901.055	1195
901.158	640
901.260	97
901.362	999
901.465	-282
901.567	292
901.669	1429
901.771	-188
901.873	804
901.976	961
902.078	944
902.180	356
902.282	483
902.384	581
902.486	1324
902.588	616
902.690	1232
902.792	173
902.894	591
902.996	331
903.098	439
903.200	621
903.302	688
903.404	823
903.505	217
903.607	864
903.709	1110
903.811	221
903.913	754
904.014	30
904.116	1090
904.218	374
904.319	584
904.421	1004
904.523	1488
904.624	107
904.726	692
904.827	-19
904.929	995
905.030	783
905.132	1725
905.233	253
905.335	992
905.436	616
905.537	-55
905.639	128
905.740	610
905.841	150
905.943	873
906.044	626
906.145	1264
906.247	116
906.348	-71
906.449	986
906.550	216
906.651	-96
906.752	476
906.854	-319
906.955	500
907.056	-403
907.157	1130
907.258	227
907.359	-266
907.460	316
907.561	595
907.662	203
907.762	1166
907.863	54
907.964	718
908.065	673
908.166	1191
908.267	478
908.367	28
908.468	275
908.569	909
908.670	1078
908.770	988
908.871	135
908.971	1572
909.072	1105
909.173	326
909.273	49
909.374	1653
909.474	-287
909.575	269
909.675	-350
909.776	694
909.876	927
909.977	1202
910.077	597
910.177	907
910.278	161
910.378	283
910.478	346
910.579	835
910.679	164
910.779	1121
910.879	964
910.980	397
911.080	206
911.180	764
911.280	-185
911.380	705
911.480	533
911.580	826
911.680	103
911.780	1280
911.880	635
911.980	-23
912.080	410
912.180	386
912.280	687
912.380	308
912.480	-167
912.580	278
912.679	773
912.779	656
912.879	-123
912.979	987
913.078	-553
913.178	259
913.278	317
913.377	-30
913.477	-310
913.577	1043
913.676	773
913.776	721
913.875	-34
913.975	521
914.074	313
914.174	474
914.273	-986
914.373	505
914.472	408
914.572	1082
914.671	-377
914.770	953
914.870	-53
914.969	11
915.068	-325
915.167	870
915.267	445
915.366	484
915.465	-190
915.564	401
915.663	211
915.763	1270
915.862	1341
915.961	317
916.060	-111
916.159	-142
916.258	-414
916.357	540
916.456	-87
916.555	794
916.654	-396
916.752	540
916.851	400
916.950	695
917.049	-281
917.148	-338
917.247	462
917.345	679
917.444	222
917.543	695
917.642	246
917.740	728
917.839	191
917.937	1374
918.036	342
918.135	364
918.233	7
918.332	-253
918.430	315
918.529	727
918.627	437
918.726	238
918.824	780
918.923	431
919.021	154
919.119	277
919.218	101
919.316	228
919.414	223
919.512	500
919.611	602
919.709	931
919.807	-533
919.905	-292
920.003	4
920.102	520
920.200	440
920.298	1017
920.396	643
920.494	179
920.592	-325
920.690	230
920.788	348
920.886	757
920.984	713
921.082	666
921.180	1188
921.277	1125
921.375	690
921.473	1886
921.571	816
921.669	1407
921.766	1044
921.864	1264
921.962	1485
922.060	844
922.157	793
922.255	2035
922.352	896
922.450	1985
922.548	1321
922.645	2179
922.743	1448
922.840	3045
922.938	3781
923.035	3710
923.133	3157
923.230	4374
923.327	4541
923.425	4530
923.522	4522
923.619	3284
923.717	3361
923.814	3615
923.911	2768
924.008	3964
924.106	2710
924.203	2580
924.300	3173
924.397	3460
924.494	3860
924.591	3490
924.688	2488
924.786	3029
924.883	3301
924.979	2998
925.077	2904
925.173	3878
925.270	2392
925.367	2983
925.464	3131
925.561	3659
925.658	3138
925.755	3871
925.852	4533
925.948	4207
926.045	2144
926.142	3249
926.239	3431
926.335	2760
926.432	3045
926.529	3086
926.625	3396
926.722	2139
926.818	2594
926.915	2953
927.011	2175
927.108	2936
927.204	2895
927.301	2043
927.397	3632
927.494	2621
927.590	2569
927.687	3361
927.783	2917
927.879	2884
927.976	2518
928.072	2823
928.168	3045
928.264	2716
928.361	2190
928.457	3776
928.553	1668
928.649	2585
928.745	2546
928.841	1996
928.937	2648
929.033	2037
929.129	2158
929.225	2766
929.321	1794
929.417	2148
929.513	2526
929.609	1844
929.705	1194
929.801	2061
929.897	1180
929.993	2725
930.089	2247
930.184	2396
930.280	1777
930.376	3006
930.471	1279
930.567	2191
930.663	1914
930.758	1039
930.854	2082
930.950	1326
931.045	1421
931.141	2477
931.236	2396
931.332	2648
931.427	1471
931.523	2206
931.618	1254
931.714	1388
931.809	1818
931.905	2551
932.000	1046
932.095	1757
932.191	1796
932.286	2754
932.381	1250
932.476	1523
932.572	1455
932.667	954
932.762	1590
932.857	1962
932.952	1469
933.047	2588
933.142	1392
933.237	1231
933.332	1114
933.427	2409
933.522	1118
933.617	1094
933.712	1698
933.807	1429
933.902	1736
933.997	1539
934.092	934
934.187	1633
934.282	1371
934.376	1840
934.471	1397
934.566	1997
934.661	899
934.755	1862
934.850	1039
934.945	1821
935.039	973
935.134	788
935.228	1512
935.323	2422
935.417	1362
935.512	1069
935.606	891
935.701	1722
935.795	1351
935.890	2475
935.984	1170
936.079	1389
936.173	1371
936.267	691
936.362	442
936.456	1452
936.550	1522
936.644	1490
936.738	627
936.833	1465
936.927	706
937.021	1352
937.115	1147
937.209	343
937.303	607
937.397	145
937.491	750
937.585	1127
937.679	861
937.773	1000
937.867	754
937.961	1198
938.055	1202
938.149	1210
938.243	406
938.337	1325
938.430	263
938.524	1223
938.618	171
938.712	1750
938.805	551
938.899	1377
938.993	1358
939.086	525
939.180	-84
939.274	859
939.367	1437
939.461	1290
939.554	423
939.648	1080
939.741	624
939.835	1262
939.928	2281
940.022	1187
940.115	678
940.208	1272
940.302	1458
940.395	2545
940.488	147
940.582	1301
940.675	-684
940.768	695
940.861	1114
940.954	1786
941.048	210
941.141	718
941.234	495
941.327	2455
941.420	1860
941.513	1234
941.606	236
941.699	1659
941.792	1486
941.885	531
941.978	1243
942.071	689
942.164	-384
942.257	1035
942.349	479
942.442	927
942.535	111
942.628	931
942.721	599
942.813	-196
942.906	681
942.999	624
943.091	-67
943.184	-178
943.277	763
943.369	789
943.462	-398
943.554	889
943.647	865
943.739	1599
943.832	498
943.924	-147
944.017	-346
944.109	809
944.201	-629
944.294	1716
944.386	-18
944.478	309
944.571	-90
944.663	186
944.755	936
944.847	1365
944.940	254
945.032	-427
945.124	-25
945.216	1709
945.308	733
945.400	430
945.492	-570
945.584	1090
945.676	718
945.768	395
945.860	1125
945.952	766
946.044	193
946.136	-155
946.228	-292
946.320	124
946.412	-19
946.503	1164
946.595	678
946.687	-68
946.779	259
946.870	-405
946.962	-166
947.054	621
947.145	752
947.237	461
947.329	232
947.420	281
947.512	127
947.603	-291
947.695	486
947.786	-271
947.878	293
947.969	806
948.061	90
948.152	-702
948.243	-434
948.335	573
948.426	-760
948.517	-266
948.609	108
948.700	-189
948.791	577
948.882	-341
948.973	-384
949.065	266
949.156	-311
949.247	-307
949.338	-337
949.429	-651
949.520	-654
949.611	-387
949.702	559
949.793	790
949.884	-396
949.975	-424
950.066	157
950.157	-1063
950.247	592
950.338	-183
950.429	-290
950.520	1214
950.611	-431
950.701	391
950.792	355
950.883	1295
950.973	159
951.064	187
951.155	184
951.245	673
951.336	277
951.427	144
951.517	699
951.608	470
951.698	-556
951.788	-224
951.879	-473
951.969	-741
952.060	-591
952.150	-57
952.240	-162
952.331	-922
952.421	1341
952.511	-816
952.602	-830
952.692	-403
952.782	115
952.872	336
952.962	222
953.052	722
953.143	-455
953.233	486
953.323	-86
953.413	-452
953.503	486
953.593	601
953.683	256
953.773	301
953.863	215
953.953	35
954.042	7
954.132	-202
954.222	517
954.312	-39
954.402	-542
954.492	1054
954.581	1216
954.671	236
954.761	-631
954.850	-400
954.940	-595
955.030	281
955.119	-321
955.209	-116
955.298	-784
955.388	-617
955.477	154
955.567	-269
955.656	346
955.746	321
955.835	-258
955.925	-259
956.014	-628
956.103	-173
956.193	-156
956.282	604
956.371	-1058
956.461	-779
956.550	-581
956.639	-572
956.728	-147
956.817	-100
956.906	141
956.995	558
957.085	-885
957.174	-143
957.263	-1083
957.352	-488
957.441	-1156
957.530	-279
957.619	-241
957.708	-347
957.796	-703
957.885	-121
957.974	-1211
958.063	201
958.152	-1401
958.241	-606
958.329	-639
958.418	-571
958.507	-1057
958.596	714
958.684	-1352
958.773	431
958.861	-643
958.950	-153
959.039	3
959.127	184
959.216	31
959.304	-909
959.393	-885
959.481	-280
959.570	-795
959.658	-1081
959.746	-842
959.835	434
959.923	1286
960.011	-62
960.100	-822
960.188	227
960.276	-1082
960.365	-696
960.453	-1161
960.541	-1289
960.629	-993
960.717	-782
960.805	-1271
960.893	529
960.981	-864
961.069	613
961.158	-330
961.245	232
961.333	-587
961.421	-695
961.509	-762
961.597	-654
961.685	-1216
961.773	-145
961.861	-1121
961.949	-214
962.036	-1460
962.124	-333
962.212	-1114
962.299	-378
962.387	-1190
962.475	-923
962.562	-1645
962.650	283
962.738	-804
962.825	-718
962.913	-794
963.000	18
963.088	-785
963.175	-364
963.263	-1092
963.350	-353
963.438	-986
963.525	-737
963.612	603
963.700	3733
963.787	9979
963.874	2886
963.962	-663
964.049	-616
964.136	-1106
964.223	-772
964.310	-627
964.398	-341
964.485	-1147
964.572	-745
964.659	1381
964.746	267
964.833	-1221
964.920	-326
965.007	-1283
965.094	244
965.181	-876
965.268	-578
965.355	-1290
965.441	-1011
965.528	-1410
965.615	7
965.702	-506
965.789	-1211
965.875	-708
965.962	-131
966.049	-1578
966.136	625
966.222	-1171
966.309	-317
966.395	-1521
966.482	-636
966.569	-1140
966.655	-868
966.742	-1784
966.828	123
966.915	-1690
967.001	-149
967.087	-978
967.174	-405
967.260	-390
967.347	601
967.433	2460
967.519	6027
967.605	493
967.692	-165
967.778	-919
967.864	-747
967.950	-939
968.036	-1555
968.123	-658
968.209	-967
968.295	-1422
968.381	117
968.467	-1289
968.553	-1353
968.639	-336
968.725	-941
968.811	-170
968.897	595
968.983	-913
969.069	-1913
969.154	-565
969.240	-693
969.326	-1239
969.412	-1107
969.497	-2068
969.583	-1367
969.669	-344
969.755	-660
969.840	-1094
969.926	-814
970.012	-501
970.097	598
970.183	-487
970.268	-143
970.354	566
970.439	111
970.525	3401
970.610	-264
970.696	-433
970.781	-505
970.866	-1940
970.952	-95
971.037	-1360
971.122	-846
971.208	-964
971.293	-510
971.378	-2187
971.463	-410
971.549	-1139
971.634	-1286
971.719	-623
971.804	-664
971.889	269
971.974	-1550
972.059	-1265
972.144	-894
972.229	-1018
972.314	-936
972.399	-728
972.484	-868
972.569	-404
972.654	-468
972.739	1460
972.824	1096
972.908	-1255
972.993	-956
973.078	-2053
973.163	-538
973.247	-1411
973.332	-2796
973.417	97
973.501	-1821
973.586	-1793
973.671	133
973.755	-1855
973.840	73
973.924	-975
974.009	-483
974.093	-1308
974.178	187
974.262	-750
974.346	280
974.431	-912
974.515	-948
974.600	-1696
974.684	-1140
974.768	-1623
974.852	156
974.937	-1701
975.021	-437
975.105	-2087
975.189	-869
975.273	-839
975.358	-1198
975.442	-2113
975.526	-1064
975.610	-2460
975.694	-1120
975.778	296
975.862	-1422
975.946	-2495
976.030	488
976.114	-1451
976.198	-204
976.281	-719
976.365	-366
976.449	-1874
976.533	-170
976.617	-1613
976.700	-1178
976.784	-1111
976.868	-1086
976.951	-929
977.035	-150
977.119	-1142
977.202	-815
977.286	-1618
977.369	-1105
977.453	-134
977.536	-1589
977.620	-1662
977.703	-468
977.787	-2241
977.870	72
977.953	-479
978.037	-1093
978.120	267
978.203	195
978.287	1512
978.370	-159
978.453	-955
978.536	-644
978.620	-229
978.703	-383
978.786	-1345
978.869	-1323
978.952	-2210
979.035	140
979.118	-798
979.201	-1543
979.284	-1363
979.367	-1341
979.450	-1365
979.533	-1468
979.616	-1324
979.699	-1386
979.782	-749
979.865	-1728
979.948	-1455
980.030	-1928
980.113	-1239
980.196	-2644
980.279	-954
980.361	-756
980.444	-1602
980.526	-566
980.609	-939
980.692	-606
980.774	-1233
980.857	-1793
980.939	-849
981.022	-1163
981.104	-1373
981.187	-517
981.269	-1372
981.352	-1317
981.434	-1909
981.516	-1635
981.599	-1255
981.681	-376
981.763	-1419
981.846	-1127
981.928	-1721
982.010	-1259
982.092	-1936
982.174	-957
982.256	-1746
982.339	-1120
982.421	-1797
982.503	-428
982.585	-1659
982.667	-1012
982.749	-1261
982.831	-974
982.913	-1868
982.995	-308
983.077	-1581
983.158	502
983.240	-2228
983.322	-1761
983.404	-210
983.486	-1361
983.568	-700
983.649	-564
983.731	-1171
983.813	-744
983.894	-651
983.976	-1602
984.058	-1411
984.139	952
984.221	-1760
984.302	-94
984.384	-1575
984.465	-1609
984.547	-1323
984.628	-1865
984.710	-574
984.791	-869
984.872	-1703
984.954	-1308
985.035	-782
985.116	-1588
985.198	-2606
985.279	129
985.360	-2363
985.441	-1520
985.522	-464
985.604	-1414
985.685	-2581
985.766	-169
985.847	-431
985.928	-1193
986.009	-2250
986.090	-997
986.171	-383
986.252	-1631
986.333	-1875
986.414	-662
986.495	-1079
986.576	-1264
986.656	-1946
986.737	-920
986.818	-677
986.899	-1383
986.980	-708
987.060	-83
987.141	-3063
987.222	-960
987.302	-1153
987.383	-231
987.464	-1731
987.544	-561
987.625	-1137
987.705	-886
987.786	-667
987.866	-874
987.947	-1554
988.027	-843
988.108	-1630
988.188	-203
988.268	-1328
988.349	-201
988.429	-1484
988.509	-175
988.589	-1717
988.670	-2183
988.750	-598
988.830	-604
988.910	-1124
988.990	-1112
989.070	-2004
989.151	-784
989.231	-2199
989.311	-12
989.391	-748
989.471	-553
989.551	-988
989.631	-1555
989.711	-352
989.791	-2154
989.870	-1506
989.950	63
990.030	-1255
990.110	-987
990.190	-2413
990.269	-695
990.349	-1602
990.429	-1439
990.509	-841
990.588	-2413
990.668	-1687
990.747	-1110
990.827	-2706
990.907	-1408
990.986	-1987
991.066	-546
991.145	-1474
991.225	-718
991.304	-1428
991.383	-1415
991.463	-1119
991.542	-1338
991.622	-2069
991.701	-1683
991.780	-1165
991.859	-1215
991.939	-1842
992.018	-948
992.097	-1299
992.176	-1470
992.256	-2236
992.335	-2427
992.414	-1000
992.493	-1765
992.572	-1909
992.651	-337
992.730	-1615
992.809	-726
992.888	-2116
992.967	-2169
993.046	-1714
993.125	-2377
993.203	-1591
993.282	-1520
993.361	-2352
993.440	-900
993.519	-2585
993.597	-1046
993.676	-2507
993.755	-1139
993.834	-1328
993.912	-2562
993.991	-454
994.069	-1444
994.148	-2354
994.226	-1865
994.305	-2242
994.384	-2081
994.462	-976
994.540	-2135
994.619	-2163
994.697	-1646
994.776	-1998
994.854	-873
994.932	-2896
995.011	-1438
995.089	-2169
995.167	-1847
995.245	-2079
995.324	-1978
995.402	-1635
995.480	-2508
995.558	-1958
995.636	-2783
995.714	-2273
995.792	-1288
995.870	-2836
995.948	-2299
996.026	-2018
996.104	-3161
996.182	-1527
996.260	-1991
996.338	-920
996.416	-2564
996.494	-2213
996.572	-940
996.649	-2420
996.727	-2722
996.805	-1050
996.883	-1979
996.960	-2115
997.038	-1449
997.116	-2022
997.193	-2049
997.271	-2038
997.348	-2050
997.426	-2369
997.504	-2062
997.581	-1563
997.658	-1736
997.736	-3038
997.813	-2491
997.891	-1104
997.968	-2377
998.046	-2621
998.123	-2243
998.200	-1586
998.277	-1552
998.355	-1518
998.432	-2751
998.509	-2190
998.586	-1525
998.663	-2093
998.741	-1715
998.818	-2517
998.895	-2546
998.972	-2719
999.049	-1946
999.126	-2866
999.203	-1012
999.280	-1993
999.357	-1715
999.434	-2486
999.511	-1978
999.587	-1682
999.664	-1867
999.741	-1998
999.818	-1763
999.895	-2559
999.971	-2959
1000.048	-1975
1000.125	-1329
1000.202	-2664
1000.278	-1873
1000.355	-1834
1000.431	-2749
1000.508	-3372
1000.584	-1513
1000.661	-2000
1000.738	-2537
1000.814	-1992
1000.890	-2013
1000.967	-2985
1001.043	-2369
1001.120	-2968
1001.196	-2231
1001.272	-2629
1001.349	-2867
1001.425	-1872
1001.501	-2151
1001.577	-3186
1001.654	-2029
1001.730	-2934
1001.806	-1796
1001.882	-3287
1001.958	-2200
1002.034	-1539
1002.110	-1957
1002.186	-2325
1002.262	-1701
1002.338	-2391
1002.414	-1583
1002.490	-2755
1002.566	-2337
1002.642	-3006
1002.718	-1461
1002.794	-2647
1002.870	-1554
1002.945	-2748
1003.021	-1863
1003.097	-2299
1003.173	-1398
1003.248	-2381
1003.324	-1913
1003.400	-2049
1003.475	-2054
1003.551	-2222
1003.626	-1714
1003.702	-2525
1003.777	-2356
1003.853	-2777
1003.928	-2746
1004.004	-2492
1004.079	-2194
1004.155	-2230
1004.230	-2786
1004.305	-1375
1004.381	-2390
1004.456	-2454
1004.531	-2688
1004.607	-2707
1004.682	-2688
1004.757	-2265
1004.832	-2044
1004.907	-2786
1004.982	-1612
1005.057	-1605
1005.133	-2341
1005.208	-2503
1005.283	-2311
1005.358	-1885
1005.433	-2774
1005.508	-2117
1005.583	-3219
1005.657	-2570
1005.732	-1585
1005.807	-3144
1005.882	-1818
1005.957	-2753
1006.032	-1998
1006.106	-2438
1006.181	-1793
1006.256	-1275
1006.331	-1824
1006.405	-3555
1006.480	-1853
1006.554	-3040
1006.629	-2533
1006.704	-2261
1006.778	-2089
1006.853	-2225
1006.927	-2764
1007.002	-2874
1007.076	-2261
1007.150	-3300
1007.225	-2672
1007.299	-2704
1007.373	-2824
1007.448	-2037
1007.522	-1764
1007.596	-2264
1007.671	-2546
1007.745	-2550
1007.819	-3108
1007.893	-2413
1007.967	-1720
1008.041	-3008
1008.115	-2046
1008.190	-3586
1008.264	-1642
1008.338	-4286
1008.412	-3471
1008.486	-3132
1008.560	-2515
1008.633	-1953
1008.707	-3000
1008.781	-1790
1008.855	-2418
1008.929	-3135
1009.003	-2758
1009.076	-3039
1009.150	-2752
1009.224	-2216
1009.298	-1849
1009.371	-3106
1009.445	-1788
1009.519	-2255
1009.592	-3552
1009.666	-3080
1009.739	-1627
1009.813	-3184
1009.886	-1756
1009.960	-3114
1010.033	-2119
1010.107	-2296
1010.180	-3639
1010.253	-2838
1010.327	-2632
1010.400	-3587
1010.473	-2679
1010.547	-1519
1010.620	-2468
1010.693	-2327
1010.766	-2863
1010.840	-2976
1010.913	-2268
1010.986	-2742
1011.059	-2614
1011.132	-3416
1011.205	-2234
1011.278	-2652
1011.351	-2524
1011.424	-3542
1011.497	-2936
1011.570	-3017
1011.643	-2557
1011.716	-2714
1011.789	-2243
1011.862	-2331
1011.934	-1890
1012.007	-3132
1012.080	-2365
1012.153	-2417
1012.225	-2013
1012.298	-3284
1012.371	-2276
1012.443	-2850
1012.516	-2559
1012.588	-2771
1012.661	-2888
1012.733	-2932
1012.806	-1020
1012.879	-3224
1012.951	-2500
1013.023	-3216
1013.096	-2492
1013.168	-2947
1013.241	-2337
1013.313	-2462
1013.385	-2762
1013.458	-3320
1013.530	-1932
1013.602	-2487
1013.674	-2478
1013.746	-2639
1013.819	-1627
1013.891	-2007
1013.963	-2537
1014.035	-2331
1014.107	-1841
1014.179	-2189
1014.251	-2082
1014.323	-2511
1014.395	-2223
1014.467	-2300
1014.539	-2370
1014.611	-2640
1014.683	-2314
1014.754	-2297
1014.826	-2527
1014.898	-2334
1014.970	-2927
1015.042	-2011
1015.113	-2236
1015.185	-2381
1015.257	-3274
1015.328	-2681
1015.400	-3058
1015.471	-2685
1015.543	-3538
1015.615	-2828
1015.686	-2306
1015.757	-3316
1015.829	-2751
1015.901	-2850
1015.972	-2644
1016.043	-2770
1016.115	-2821
1016.186	-2993
1016.257	-2784
1016.328	-2685
1016.400	-1699
1016.471	-3342
1016.542	-2778
1016.613	-2572
1016.685	-2468
1016.756	-2092
1016.827	-2171
1016.898	-3467
1016.969	-1995
1017.040	-3393
1017.111	-2285
1017.182	-2894
1017.253	-2987
1017.324	-2546
1017.395	-2727
1017.466	-2898
1017.537	-2532
1017.608	-2379
1017.678	-2333
1017.749	-2847
1017.820	-2146
1017.891	-3236
1017.961	-2710
1018.032	-2594
1018.103	-2623
1018.173	-2883
1018.244	-2710
1018.315	-2556
1018.385	-1667
1018.456	-2321
1018.526	-2495
1018.597	-3220
1018.667	-2594
1018.738	-3401
1018.808	-2324
1018.878	-2435
1018.949	-2551
1019.019	-2843
1019.089	-2496
1019.160	-2830
1019.230	-3227
1019.300	-2723
1019.371	-3129
1019.441	-2585
1019.511	-2991
1019.581	-2984
1019.651	-1893
1019.721	-3585
1019.791	-3032
1019.861	-2517
1019.931	-2652
1020.001	-2709
1020.071	-3699
1020.141	-3305
1020.211	-2697
1020.281	-3674
1020.351	-2598
1020.421	-2609
1020.491	-1990
1020.560	-3071
1020.630	-2193
1020.700	-2837
1020.770	-2618
1020.839	-3075
1020.909	-2067
1020.979	-2630
1021.048	-2910
1021.118	-2759
1021.187	-1656
1021.257	-2896
1021.326	-1526
1021.396	-2098
1021.465	-2921
1021.535	-2301
1021.604	-3250
1021.674	-3069
1021.743	-1614
1021.812	-2471
1021.882	-2783
1021.951	-2504
1022.020	-2352
1022.089	-2051
1022.159	-3046
1022.228	-2557
1022.297	-2963
1022.366	-2510
1022.435	-2234
1022.504	-3220
1022.573	-2733
1022.642	-2420
1022.711	-2548
1022.781	-3190
1022.849	-2471
1022.918	-3904
1022.987	-1881
1023.056	-3599
1023.125	-2280
1023.194	-2760
1023.263	-2583
1023.331	-2207
1023.400	-2934
1023.469	-3758
1023.538	-2231
1023.606	-2668
1023.675	-2756
1023.744	-3265
1023.812	-2638
1023.881	-3012
1023.949	-2209
1024.018	-2851
1024.086	-2437
1024.155	-2974
1024.223	-2706
1024.292	-2957
1024.360	-2241
1024.429	-3578
1024.497	-2667
1024.565	-2590
1024.634	-2258
1024.702	-3063
1024.770	-2520
1024.838	-3095
1024.907	-2352
1024.975	-3281
1025.043	-2484
1025.111	-3604
1025.179	-2866
1025.247	-3202
1025.315	-2708
1025.383	-2490
1025.451	-2420
1025.519	-3045
1025.587	-2001
1025.655	-3495
1025.723	-2811
1025.791	-3424
1025.859	-2317
1025.927	-2592
1025.995	-2528
1026.062	-2639
1026.130	-2076
1026.198	-2930
1026.266	-2932
1026.333	-2263
1026.401	-1921
1026.469	-3061
1026.536	-2465
1026.604	-3072
1026.671	-2699
1026.739	-3154
1026.806	-2644
1026.874	-2602
1026.941	-2674
1027.009	-2317
1027.076	-1859
1027.144	-3087
1027.211	-3066
1027.278	-3353
1027.345	-2700
1027.413	-3365
1027.480	-2434
1027.547	-3304
1027.614	-3074
1027.682	-3098
1027.749	-3013
1027.816	-2967
1027.883	-2203
1027.950	-2783
1028.017	-2678
1028.084	-3039
1028.151	-3152
1028.218	-2817
1028.285	-2412
1028.352	-3109
1028.419	-3048
1028.486	-2687
1028.553	-2151
1028.619	-2549
1028.686	-2955
1028.753	-3602
1028.820	-3417
1028.886	-3181
1028.953	-3157
1029.020	-3050
1029.086	-3081
1029.153	-2488
1029.220	-2583
1029.286	-2677
1029.353	-2835
1029.419	-3218
1029.486	-3377
1029.552	-3600
1029.619	-3053
1029.685	-2409
1029.751	-2385
1029.818	-2271
1029.884	-3163
1029.951	-2727
1030.017	-2488
1030.083	-2653
1030.149	-2220
1030.216	-2321
1030.282	-2974
1030.348	-3450
1030.414	-2803
1030.480	-3357
1030.546	-2492
1030.612	-3141
1030.678	-2225
1030.744	-2760
1030.810	-1477
1030.876	-3285
1030.942	-2524
1031.008	-2937
1031.074	-3113
1031.140	-3374
1031.206	-2071
1031.272	-2608
1031.337	-2954
1031.403	-3162
1031.469	-2955
1031.534	-3118
1031.600	-2333
1031.666	-3949
1031.731	-3539
1031.797	-2414
1031.863	-2846
1031.928	-3039
1031.994	-3020
1032.059	-3496
1032.125	-2626
1032.190	-2528
1032.256	-3332
1032.321	-3194
1032.386	-3016
1032.452	-2658
1032.517	-2840
1032.582	-3242
1032.647	-2256
1032.713	-3065
1032.778	-3020
1032.843	-3555
1032.908	-3001
1032.974	-3366
1033.039	-2819
1033.104	-2186
1033.169	-2611
1033.234	-2967
1033.299	-1975
1033.364	-2726
1033.429	-2594
1033.494	-3082
1033.559	-3113
1033.624	-2804
1033.688	-2686
1033.753	-3410
1033.818	-2672
1033.883	-3496
1033.948	-2304
1034.013	-2560
1034.077	-2130
1034.142	-901
1034.207	-2018
1034.271	-1075
1034.336	-312
1034.400	-1442
1034.465	-1884
1034.530	-1975
1034.594	-1613
1034.658	-3768
1034.723	-3343
1034.787	-2917
1034.852	-2165
1034.916	-3331
1034.981	-2591
1035.045	-3320
1035.109	-2396
1035.173	-2673
1035.238	-2748
1035.302	-3246
1035.366	-2966
1035.430	-3464
1035.495	-2622
1035.559	-2525
1035.623	-2064
1035.687	-3413
1035.751	-2409
1035.815	-2772
1035.879	-2567
1035.943	-3059
1036.007	-3237
1036.071	-2518
1036.135	-3054
1036.198	-3118
1036.262	-2205
1036.326	-2650
1036.390	-2326
1036.454	-2517
1036.517	-2627
1036.581	-3022
1036.645	-1278
1036.709	-1392
1036.772	-2541
1036.836	-3228
1036.900	-2860
1036.963	-2819
1037.026	-2178
1037.090	-2403
1037.154	-1986
1037.217	-2838
1037.280	-3096
1037.344	-3086
1037.407	-2537
1037.471	-3375
1037.534	-3107
1037.597	-3475
1037.661	-2093
1037.724	-3000
1037.787	-2774
1037.850	-3034
1037.913	-2905
1037.977	-1882
1038.040	-3095
1038.103	-3585
1038.166	-2897
1038.229	-3670
1038.292	-2902
1038.355	-3126
1038.418	-2496
1038.481	-3265
1038.544	-2905
1038.607	-2630
1038.670	-3367
1038.732	-3714
1038.795	-3007
1038.858	-2659
1038.921	-1489
1038.984	-2926
1039.046	-2660
1039.109	-2787
1039.172	-3001
1039.234	-2983
1039.297	-2665
1039.360	-2788
1039.422	-1867
1039.485	-3496
1039.547	-3961
1039.610	-2569
1039.672	-2065
1039.734	-3611
1039.797	-2714
1039.859	-2545
1039.922	-2163
1039.984	-3052
1040.046	-2766
1040.109	-2637
1040.171	-2445
1040.233	-2810
1040.295	-2311
1040.358	-2421
1040.420	-3337
1040.482	-2912
1040.544	-3073
1040.606	-2723
1040.668	-1832
1040.730	-3659
1040.792	-3192
1040.854	-3593
1040.916	-2427
1040.978	-3390
1041.040	-2337
1041.102	-3534
1041.164	-3147
1041.225	-3104
1041.287	-3072
1041.349	-3126
1041.411	-2763
1041.472	-3648
1041.534	-3475
1041.596	-3128
1041.657	-2414
1041.719	-2826
1041.781	-2995
1041.842	-3087
1041.904	-2946
1041.965	-3558
1042.027	-3150
1042.088	-3076
1042.150	-2757
1042.211	-3687
1042.272	-2506
1042.334	-3284
1042.395	-3134
1042.456	-2255
1042.518	-2677
1042.579	-2541
1042.640	-2922
1042.701	-2807
1042.763	-2583
1042.824	-2736
1042.885	-3447
1042.946	-3385
1043.007	-2618
1043.068	-3445
1043.129	-3183
1043.190	-3419
1043.251	-2542
1043.312	-3425
1043.373	-3037
1043.434	-3480
1043.495	-2953
1043.556	-1797
1043.616	-2572
1043.677	-2479
1043.738	-2229
1043.799	-3085
1043.859	-2539
1043.920	-2521
1043.981	-2759
1044.041	-2662
1044.102	-3030
1044.162	-2454
1044.223	-3222
1044.284	-3440
1044.344	-2040
1044.405	-3250
1044.465	-3304
1044.525	-2393
1044.586	-2065
1044.646	-2846
1044.707	-1802
1044.767	-2950
1044.827	-3028
1044.887	-3032
1044.948	-2072
1045.008	-3114
1045.068	-3260
1045.128	-1901
1045.188	-2130
1045.249	-2776
1045.309	-2718
1045.369	-3067
1045.429	-1861
1045.489	-2857
1045.549	-2740
1045.609	-2486
1045.669	-2666
1045.729	-3240
1045.789	-2830
1045.848	-2427
1045.908	-2875
1045.968	-2792
1046.028	-1967
1046.088	-2493
1046.147	-2030
1046.207	-2778
1046.267	-2614
1046.326	-2462
1046.386	-2528
1046.446	-2051
1046.505	-1644
1046.565	-1692
1046.624	-1883
1046.684	-1757
1046.743	-603
1046.803	-1615
1046.862	-1255
1046.922	0
