'Start Wavelength	183.907
'End Wavelength	1046.922
'Gate Delay	5.000
'Gate Width (ms)	1.050
'Laser Output Level	0.000
'X Position	0.000
'Y Position	0.000
'Z Position	0.000
'Grid Point Number	1.000
'Shot Number	100.000
183.907	682.000
183.977	516.000
184.047	526
184.116	-467
184.186	-95
184.256	-138
184.325	-913
184.395	-962
184.465	-393
184.534	-111
184.604	161
184.674	-148
184.743	-201
184.813	-1
184.883	-298
184.952	461
185.022	-451
185.092	362
185.161	-317
185.231	158
185.301	5
185.370	153
185.440	-339
185.509	202
185.579	-217
185.649	402
185.718	310
185.788	299
185.857	-451
185.927	182
185.996	-360
186.066	-337
186.136	278
186.205	-394
186.275	215
186.344	-113
186.414	111
186.483	-919
186.553	451
186.622	309
186.692	125
186.761	8
186.831	-2
186.900	277
186.970	636
187.039	380
187.109	1195
187.178	-214
187.248	331
187.317	-213
187.387	-494
187.456	861
187.526	94
187.595	121
187.664	491
187.734	-19
187.803	93
187.873	150
187.942	-340
188.012	-407
188.081	153
188.150	91
188.220	503
188.289	776
188.358	-134
188.428	617
188.497	-597
188.567	-373
188.636	29
188.705	5
188.775	-416
188.844	769
188.913	-73
188.983	273
189.052	-278
189.121	-142
189.191	37
189.260	-246
189.329	1087
189.399	-490
189.468	74
189.537	-311
189.606	554
189.676	482
189.745	707
189.814	362
189.883	2
189.953	515
190.022	618
190.091	2312
190.161	3021
190.230	429
190.299	526
190.368	-69
190.437	625
190.507	-368
190.576	-86
190.645	174
190.714	691
190.783	-163
190.853	556
190.922	512
190.991	759
191.060	371
191.129	117
191.198	-61
191.268	123
191.337	-13
191.406	673
191.475	359
191.544	459
191.613	717
191.682	463
191.752	150
191.821	141
191.890	91
191.959	429
192.028	-115
192.097	492
192.166	-28
192.235	150
192.304	100
192.373	-107
192.442	188
192.511	331
192.580	372
192.650	-22
192.719	169
192.788	-33
192.857	753
192.926	741
192.995	565
193.064	1337
193.133	937
193.202	1055
193.271	960
193.340	913
193.409	849
193.478	1208
193.547	1377
193.615	2332
193.684	1866
193.753	150
193.822	639
193.891	912
193.960	691
194.029	340
194.098	746
194.167	271
194.236	577
194.305	-188
194.374	-52
194.443	-287
194.512	177
194.580	443
194.649	629
194.718	157
194.787	364
194.856	641
194.925	521
194.994	253
195.062	383
195.131	338
195.200	995
195.269	632
195.338	1136
195.407	229
195.475	392
195.544	366
195.613	533
195.682	283
195.751	1078
195.819	1057
195.888	546
195.957	1449
196.026	516
196.094	670
196.163	915
196.232	901
196.301	330
196.369	639
196.438	721
196.507	674
196.576	771
196.644	-322
196.713	329
196.782	758
196.850	553
196.919	233
196.988	271
197.056	611
197.125	347
197.194	666
197.262	261
197.331	571
197.400	234
197.468	-80
197.537	544
197.606	229
197.674	979
197.743	2196
197.812	855
197.880	2137
197.949	1415
198.017	2429
198.086	1829
198.155	1266
198.223	1378
198.292	2862
198.360	924
198.429	821
198.497	510
198.566	1893
198.635	2911
198.703	1466
198.772	1037
198.840	3305
198.909	1845
198.977	800
199.046	514
199.114	1158
199.183	756
199.251	977
199.320	283
199.388	-117
199.457	830
199.525	1027
199.594	55
199.662	252
199.731	198
199.799	452
199.867	17
199.936	1124
200.004	893
200.073	736
200.141	839
200.210	319
200.278	-33
200.346	641
200.415	360
200.483	526
200.552	592
200.620	398
200.688	875
200.757	774
200.825	590
200.893	1030
200.962	436
201.030	399
201.098	761
201.167	625
201.235	718
201.303	1150
201.372	812
201.440	459
201.508	520
201.577	612
201.645	934
201.713	465
201.781	788
201.850	1097
201.918	854
201.986	280
202.055	310
202.123	693
202.191	1346
202.259	277
202.327	643
202.396	1884
202.464	867
202.532	1190
202.600	2620
202.669	1186
202.737	338
202.805	726
202.873	244
202.941	792
203.009	307
203.078	1057
203.146	402
203.214	676
203.282	595
203.350	802
203.418	548
203.487	719
203.555	780
203.623	986
203.691	383
203.759	274
203.827	1077
203.895	1305
203.963	771
204.031	-156
204.099	369
204.168	1382
204.236	961
204.304	1717
204.372	1187
204.440	1247
204.508	636
204.576	310
204.644	233
204.712	446
204.780	639
204.848	571
204.916	225
204.984	487
205.052	429
205.120	553
205.188	865
205.256	579
205.324	322
205.392	1469
205.460	1268
205.528	1662
205.596	1373
205.664	500
205.732	1104
205.799	4969
205.867	4718
205.935	1503
206.003	1156
206.071	1010
206.139	831
206.207	913
206.275	592
206.343	1021
206.411	506
206.478	387
206.546	1885
206.614	695
206.682	1159
206.750	1165
206.818	1140
206.885	1081
206.953	652
207.021	815
207.089	779
207.157	759
207.225	367
207.292	827
207.360	1183
207.428	1720
207.496	552
207.563	911
207.631	273
207.699	1096
207.767	887
207.834	519
207.902	1138
207.970	814
208.038	1149
208.105	316
208.173	863
208.241	1955
208.309	872
208.376	1005
208.444	2314
208.512	994
208.579	727
208.647	584
208.715	2009
208.782	1169
208.850	775
208.918	1504
208.985	1866
209.053	1147
209.120	1078
209.188	1011
209.256	1149
209.323	585
209.391	1719
209.459	1422
209.526	883
209.594	1191
209.661	1374
209.729	1407
209.796	985
209.864	949
209.932	586
209.999	875
210.067	1265
210.134	1423
210.202	1412
210.269	1369
210.337	1506
210.404	1296
210.472	1148
210.539	1303
210.607	1329
210.674	1612
210.742	1353
210.809	1500
210.877	1639
210.944	1556
211.012	1567
211.079	1443
211.146	959
211.214	725
211.281	1517
211.349	1792
211.416	1558
211.484	1793
211.551	-195
211.618	1700
211.686	1130
211.753	983
211.821	1546
211.888	1649
211.955	1246
212.023	1728
212.090	1100
212.157	1353
212.225	1829
212.292	3416
212.359	6978
212.427	16352
212.494	5574
212.561	3157
212.629	2172
212.696	1889
212.763	1679
212.831	970
212.898	1838
212.965	1309
213.032	2086
213.100	931
213.167	1182
213.234	1865
213.301	1731
213.369	1654
213.436	1584
213.503	1293
213.570	1758
213.638	2496
213.705	52
213.772	1557
213.839	2348
213.906	1826
213.973	1917
214.041	1498
214.108	1335
214.175	2208
214.242	875
214.309	1859
214.376	1048
214.444	1305
214.511	2053
214.578	1674
214.645	1874
214.712	1026
214.779	1927
214.846	1827
214.913	2434
214.980	2355
215.048	2107
215.115	2273
215.182	2324
215.249	1942
215.316	1123
215.383	1707
215.450	1651
215.517	1789
215.584	1470
215.651	1584
215.718	796
215.785	1779
215.852	1513
215.919	2375
215.986	2021
216.053	1511
216.120	1634
216.187	1664
216.254	1768
216.321	1558
216.388	1019
216.455	1889
216.522	1115
216.589	2122
216.656	3602
216.722	3464
216.789	3019
216.856	3840
216.923	2844
216.990	2321
217.057	1850
217.124	2608
217.191	3292
217.258	3040
217.324	4390
217.391	4496
217.458	3127
217.525	2665
217.592	1558
217.659	2014
217.725	2060
217.792	2517
217.859	2730
217.926	1208
217.993	1604
218.059	960
218.126	1354
218.193	636
218.260	1666
218.327	1157
218.393	1465
218.460	1055
218.527	1153
218.594	1935
218.660	2774
218.727	3743
218.794	431
218.860	1667
218.927	1136
218.994	1658
219.061	855
219.127	1576
219.194	2186
219.261	1442
219.327	1189
219.394	835
219.461	666
219.527	1321
219.594	2335
219.661	877
219.727	299
219.794	1376
219.860	632
219.927	1508
219.994	2117
220.060	3581
220.127	1970
220.193	2703
220.260	2553
220.326	3376
220.393	5636
220.460	7690
220.526	3955
220.593	3063
220.659	3263
220.726	3442
220.792	8578
220.859	7020
220.925	10277
220.992	12573
221.058	13401
221.125	11046
221.191	8499
221.258	3462
221.324	1788
221.391	1764
221.457	2006
221.524	2252
221.590	3113
221.657	10717
221.723	5503
221.789	6747
221.856	5508
221.922	2586
221.989	1638
222.055	1882
222.121	1024
222.188	1686
222.254	1430
222.321	1008
222.387	774
222.453	300
222.520	804
222.586	468
222.652	1143
222.719	1002
222.785	905
222.851	1006
222.918	1113
222.984	763
223.050	1014
223.116	1636
223.183	1902
223.249	1171
223.315	842
223.382	1048
223.448	948
223.514	477
223.580	493
223.647	1535
223.713	739
223.779	1185
223.845	983
223.911	1007
223.978	185
224.044	577
224.110	788
224.176	1747
224.242	400
224.309	548
224.375	420
224.441	1259
224.507	223
224.573	266
224.639	460
224.705	334
224.772	837
224.838	865
224.904	1480
224.970	850
225.036	950
225.102	1238
225.168	1267
225.234	1191
225.300	1643
225.366	1219
225.432	955
225.499	539
225.565	1630
225.631	845
225.697	1982
225.763	1167
225.829	1698
225.895	1976
225.961	3226
226.027	3385
226.093	2884
226.159	3034
226.225	5270
226.291	13462
226.357	17647
226.423	8906
226.489	4574
226.554	3427
226.620	4194
226.686	4078
226.752	6492
226.818	11805
226.884	25029
226.950	17411
227.016	7678
227.082	4283
227.148	2918
227.214	3254
227.279	2206
227.345	1825
227.411	2356
227.477	1468
227.543	2697
227.609	4141
227.674	2182
227.740	1255
227.806	1808
227.872	1949
227.938	1137
228.003	3211
228.069	1405
228.135	1517
228.201	818
228.267	1006
228.332	1430
228.398	1794
228.464	398
228.530	743
228.595	1112
228.661	1055
228.727	1854
228.792	1420
228.858	1401
228.924	1049
228.990	1867
229.055	1828
229.121	1751
229.187	1283
229.252	1044
229.318	800
229.384	715
229.449	1514
229.515	741
229.581	-467
229.646	2404
229.712	1344
229.777	2906
229.843	3037
229.909	2283
229.974	2586
230.040	3171
230.105	1642
230.171	1936
230.236	2481
230.302	5077
230.368	3142
230.433	2010
230.499	3040
230.564	2371
230.630	531
230.695	1387
230.761	1466
230.826	157
230.892	2897
230.957	950
231.023	821
231.088	827
231.154	1614
231.219	1708
231.284	2598
231.350	1910
231.415	949
231.481	1665
231.546	958
231.612	839
231.677	581
231.742	142
231.808	2261
231.873	892
231.939	836
232.004	2902
232.069	2412
232.135	1808
232.200	1352
232.265	491
232.331	769
232.396	575
232.461	755
232.527	537
232.592	1287
232.657	1060
232.723	4722
232.788	2943
232.853	1362
232.918	1810
232.984	1041
233.049	1093
233.114	4411
233.179	3327
233.245	7831
233.310	6582
233.375	1643
233.440	1540
233.506	1659
233.571	2093
233.636	1383
233.701	1276
233.766	5550
233.832	6122
233.897	1621
233.962	1441
234.027	2615
234.092	1196
234.157	1266
234.222	2193
234.288	5347
234.353	17023
234.418	13185
234.483	5566
234.548	4132
234.613	3047
234.678	2719
234.743	3970
234.808	17431
234.873	8782
234.938	3708
235.004	1853
235.069	3008
235.134	2130
235.199	1736
235.264	1312
235.329	1078
235.394	2002
235.459	3584
235.524	2186
235.589	1186
235.654	1933
235.719	998
235.784	2044
235.849	3007
235.913	8370
235.978	10776
236.043	9057
236.108	3048
236.173	3385
236.238	3593
236.303	1986
236.368	2521
236.433	5721
236.498	9705
236.563	4885
236.627	10650
236.692	30861
236.757	19993
236.822	9813
236.887	8595
236.952	6179
237.017	4565
237.081	5558
237.146	6357
237.211	14447
237.276	32795
237.341	44601
237.405	20611
237.470	9401
237.535	7363
237.600	3930
237.664	4571
237.729	2523
237.794	4819
237.859	8627
237.923	6274
237.988	3235
238.053	7004
238.118	7123
238.182	24529
238.247	16618
238.312	9079
238.376	4579
238.441	4487
238.506	3678
238.570	1623
238.635	1765
238.700	1400
238.764	1785
238.829	11271
238.893	9833
238.958	3969
239.023	2396
239.087	2027
239.152	2977
239.216	1602
239.281	2291
239.346	1898
239.410	2169
239.475	3744
239.539	24566
239.604	13733
239.668	4269
239.733	2903
239.797	2869
239.862	6822
239.926	16156
239.991	4331
240.055	2087
240.120	2413
240.184	1311
240.249	2495
240.313	1450
240.378	2391
240.442	14588
240.507	18699
240.571	4433
240.635	11555
240.700	10163
240.764	2142
240.829	2430
240.893	1374
240.957	2859
241.022	14053
241.086	20182
241.151	6856
241.215	2173
241.279	5654
241.344	10198
241.408	4271
241.472	2138
241.537	2148
241.601	2131
241.665	1967
241.730	1518
241.794	2387
241.858	2442
241.922	1994
241.987	1891
242.051	1182
242.115	655
242.179	1756
242.244	1206
242.308	2700
242.372	3106
242.436	4146
242.501	2383
242.565	1894
242.629	2155
242.693	1653
242.757	2175
242.822	2219
242.886	3087
242.950	2657
243.014	2895
243.078	2812
243.142	1843
243.206	2643
243.271	3214
243.335	3019
243.399	4825
243.463	23097
243.527	46326
243.591	11382
243.655	5421
243.719	2544
243.783	4303
243.847	6375
243.911	7728
243.975	8081
244.040	4726
244.104	3135
244.168	1864
244.232	4151
244.296	5629
244.360	5673
244.424	4323
244.488	3274
244.552	3141
244.615	1835
244.679	2037
244.743	2931
244.807	1845
244.871	1556
244.935	1346
244.999	698
245.063	1497
245.127	2813
245.191	4836
245.255	3007
245.319	4283
245.383	1107
245.446	2822
245.510	1752
245.574	2618
245.638	2110
245.702	3017
245.766	6224
245.829	3785
245.893	3720
245.957	1547
246.021	2851
246.085	2400
246.149	4769
246.212	9761
246.276	10798
246.340	5234
246.404	4202
246.467	4674
246.531	5644
246.595	3291
246.659	4557
246.722	2941
246.786	4248
246.850	4220
246.913	5046
246.977	1852
247.041	3511
247.104	2782
247.168	3537
247.232	8560
247.295	16106
247.359	6878
247.423	3843
247.486	7241
247.550	3995
247.614	3363
247.677	4057
247.741	2866
247.804	2830
247.868	4143
247.932	7607
247.995	14222
248.059	4552
248.122	3058
248.186	4766
248.249	7904
248.313	26658
248.376	21915
248.440	14078
248.503	4713
248.567	5558
248.630	8192
248.694	9207
248.757	12568
248.821	24758
248.884	12980
248.948	14702
249.011	20257
249.075	32535
249.138	22368
249.202	9014
249.265	8051
249.328	14082
249.392	6011
249.455	5108
249.519	4148
249.582	5607
249.645	9017
249.709	6303
249.772	6968
249.835	5959
249.899	5914
249.962	5174
250.025	4375
250.089	11533
250.152	12533
250.215	6149
250.279	5206
250.342	6757
250.405	5508
250.468	3912
250.532	6729
250.595	11946
250.658	52957
250.721	62539
250.785	18332
250.848	11278
250.911	6417
250.974	6525
251.038	9802
251.101	15724
251.164	9918
251.227	9215
251.290	8858
251.354	15909
251.417	69219
251.480	49094
251.543	42442
251.606	119635
251.669	64388
251.732	25941
251.795	25710
251.859	30887
251.922	73337
251.985	30127
252.048	13190
252.111	9899
252.174	9389
252.237	17636
252.300	31293
252.363	45894
252.426	83669
252.489	29440
252.552	18924
252.615	13398
252.678	13205
252.741	27202
252.804	44443
252.867	86999
252.930	42804
252.993	23451
253.056	13295
253.119	10624
253.182	9784
253.245	16514
253.308	11533
253.371	11654
253.434	10086
253.497	10441
253.559	16589
253.622	10495
253.685	16177
253.748	11886
253.811	7044
253.874	12916
253.937	9589
254.000	6204
254.062	12716
254.125	14659
254.188	16018
254.251	11523
254.314	6865
254.376	13073
254.439	11407
254.502	9957
254.565	11724
254.628	17276
254.690	9732
254.753	5373
254.816	4877
254.878	7427
254.941	14604
255.004	11274
255.067	7073
255.129	4702
255.192	3012
255.255	2242
255.317	3686
255.380	2301
255.443	1751
255.505	2781
255.568	2349
255.631	3170
255.693	3337
255.756	1772
255.819	2845
255.881	1375
255.944	1942
256.006	2480
256.069	2444
256.132	1840
256.194	4530
256.257	17788
256.319	11746
256.382	9318
256.444	3829
256.507	2773
256.569	2623
256.632	3660
256.694	8091
256.757	20496
256.819	43158
256.882	14380
256.944	6431
257.007	5712
257.069	6431
257.132	4650
257.194	3358
257.257	3327
257.319	3389
257.381	4548
257.444	15108
257.506	57285
257.569	48269
257.631	24165
257.693	12215
257.756	7491
257.818	7884
257.880	3740
257.943	3934
258.005	2028
258.067	2549
258.130	2140
258.192	4777
258.254	10954
258.317	4978
258.379	3905
258.441	10186
258.503	9164
258.566	25843
258.628	23225
258.690	4798
258.753	4705
258.815	7066
258.877	3819
258.939	3306
259.001	3666
259.064	3147
259.126	5845
259.188	6810
259.250	4710
259.312	5478
259.375	13849
259.437	6162
259.499	2967
259.561	2306
259.623	3346
259.685	2719
259.747	4267
259.809	24029
259.872	36077
259.934	59701
259.996	34078
260.058	8617
260.120	5291
260.182	3654
260.244	3188
260.306	2704
260.368	2783
260.430	2157
260.492	6150
260.554	12205
260.616	8654
260.678	27432
260.740	32226
260.802	6699
260.864	4414
260.926	3764
260.988	4207
261.050	4393
261.112	11504
261.174	41214
261.236	24221
261.298	6903
261.359	20616
261.421	20793
261.483	5383
261.545	3995
261.607	2606
261.669	2876
261.731	12852
261.793	21684
261.854	5711
261.916	4651
261.978	4180
262.040	4483
262.102	4164
262.164	10122
262.225	5077
262.287	3025
262.349	7859
262.411	4804
262.472	3423
262.534	13728
262.596	22153
262.658	5942
262.719	2557
262.781	8435
262.843	23921
262.904	7114
262.966	5592
263.028	7964
263.090	54202
263.151	90983
263.213	21928
263.275	10434
263.336	5279
263.398	4135
263.459	2612
263.521	3275
263.583	7215
263.644	3988
263.706	1644
263.767	1394
263.829	1995
263.891	1304
263.952	1146
264.014	988
264.075	4192
264.137	8439
264.198	3554
264.260	372
264.321	2210
264.383	6342
264.444	12935
264.506	2668
264.567	2545
264.629	6797
264.690	10711
264.752	4008
264.813	2469
264.875	2061
264.936	2475
264.998	1177
265.059	1254
265.120	2410
265.182	5202
265.243	28093
265.305	17611
265.366	4160
265.427	2761
265.489	2396
265.550	1033
265.611	2005
265.673	2532
265.734	807
265.795	1788
265.857	1299
265.918	1668
265.979	7881
266.040	44156
266.102	22944
266.163	7423
266.224	5367
266.286	3370
266.347	1803
266.408	2768
266.469	3208
266.530	1206
266.592	1050
266.653	6172
266.714	6405
266.775	1455
266.836	1956
266.898	1116
266.959	2655
267.020	1391
267.081	1953
267.142	1506
267.203	932
267.264	482
267.326	1238
267.387	912
267.448	963
267.509	1411
267.570	876
267.631	575
267.692	639
267.753	2350
267.814	1051
267.875	5848
267.936	8003
267.997	4071
268.058	3506
268.119	1718
268.180	1333
268.241	1520
268.302	1097
268.363	980
268.424	1712
268.485	2662
268.546	714
268.607	1166
268.668	867
268.729	27
268.790	1806
268.851	2172
268.912	6407
268.972	6093
269.033	2563
269.094	675
269.155	1877
269.216	1458
269.277	2428
269.338	1517
269.398	1301
269.459	160
269.520	2799
269.581	4069
269.642	3898
269.702	1982
269.763	2131
269.824	1392
269.885	3029
269.945	3343
270.006	760
270.067	590
270.128	513
270.188	1030
270.249	1595
270.310	746
270.370	1952
270.431	2009
270.492	1187
270.553	1278
270.613	4646
270.674	8613
270.734	2282
270.795	2021
270.856	3121
270.916	2163
270.977	1543
271.038	2046
271.098	1979
271.159	4383
271.219	3358
271.280	2109
271.340	1973
271.401	4764
271.462	12153
271.522	4767
271.583	2372
271.643	2442
271.704	1875
271.764	2647
271.825	7552
271.885	25071
271.946	24960
272.006	7279
272.066	15759
272.127	20550
272.187	5817
272.248	3488
272.308	5185
272.369	17080
272.429	6273
272.489	7775
272.550	6109
272.610	7173
272.671	4275
272.731	9095
272.791	12625
272.852	4367
272.912	3559
272.972	1420
273.033	2841
273.093	5606
273.153	4301
273.214	3179
273.274	3580
273.334	16282
273.394	22075
273.455	7757
273.515	11395
273.575	20780
273.635	7922
273.696	17354
273.756	22726
273.816	7563
273.876	7010
273.936	27509
273.997	36103
274.057	7117
274.117	5155
274.177	8515
274.237	33385
274.297	28486
274.358	25129
274.418	20758
274.478	11394
274.538	5567
274.598	8015
274.658	40796
274.718	39595
274.778	11682
274.838	7142
274.898	26572
274.958	60090
275.018	31628
275.078	15399
275.138	7448
275.198	4351
275.258	3656
275.318	6013
275.378	7982
275.438	7001
275.498	7343
275.558	33321
275.618	45928
275.678	15973
275.738	11586
275.798	7035
275.858	4771
275.918	3044
275.978	3637
276.038	2193
276.098	2868
276.157	7537
276.217	15808
276.277	5867
276.337	4703
276.397	3264
276.457	3851
276.517	2644
276.576	1990
276.636	1470
276.696	3588
276.756	13376
276.815	6507
276.875	2872
276.935	4382
276.995	2947
277.055	2502
277.114	2198
277.174	5317
277.234	12227
277.293	4247
277.353	2933
277.413	2047
277.472	2093
277.532	1746
277.592	3204
277.651	11567
277.711	13969
277.771	5411
277.830	24318
277.890	15111
277.950	17908
278.009	41293
278.069	11495
278.128	14836
278.188	14397
278.248	7701
278.307	19957
278.367	10277
278.426	5195
278.486	2915
278.545	2598
278.605	2002
278.664	2449
278.724	2857
278.783	13327
278.843	23630
278.902	4700
278.962	4259
279.021	4824
279.081	10612
279.140	6770
279.199	4851
279.259	4756
279.318	5100
279.378	7017
279.437	15721
279.496	55235
279.556	191971
279.615	108874
279.675	27809
279.734	17783
279.793	30385
279.853	33460
279.912	11862
279.971	7803
280.031	7134
280.090	13734
280.149	19864
280.208	26550
280.268	141605
280.327	101531
280.386	22117
280.445	17054
280.505	13008
280.564	7263
280.623	6443
280.682	9677
280.742	11236
280.801	3902
280.860	2773
280.919	2656
280.978	2587
281.037	2159
281.097	2134
281.156	2362
281.215	2858
281.274	3383
281.333	19323
281.392	9753
281.451	3236
281.510	2203
281.569	1462
281.628	2262
281.688	1816
281.747	2900
281.806	2282
281.865	1719
281.924	1594
281.983	1398
282.042	158
282.101	82
282.160	1199
282.219	1417
282.278	2162
282.337	8199
282.396	4793
282.454	2194
282.513	3676
282.572	13022
282.631	5042
282.690	1778
282.749	1622
282.808	2707
282.867	2100
282.926	1841
282.985	976
283.043	277
283.102	1619
283.161	2188
283.220	9043
283.279	13391
283.338	3158
283.396	1991
283.455	2218
283.514	2228
283.573	4825
283.631	3153
283.690	1343
283.749	2183
283.808	5552
283.866	4128
283.925	1471
283.984	2515
284.043	2681
284.101	2778
284.160	2249
284.219	4664
284.277	2872
284.336	5826
284.395	18955
284.453	11745
284.512	4607
284.570	5621
284.629	4111
284.688	2421
284.746	3352
284.805	4349
284.863	5919
284.922	5990
284.981	7274
285.039	10319
285.098	20998
285.156	59466
285.215	140499
285.273	111290
285.332	47542
285.390	23920
285.449	14981
285.507	10584
285.566	7743
285.624	6358
285.683	5338
285.741	3274
285.799	3202
285.858	3201
285.916	2699
285.975	2247
286.033	1478
286.091	2347
286.150	1567
286.208	1671
286.267	2838
286.325	2695
286.383	3589
286.442	2739
286.500	1799
286.558	1317
286.616	1203
286.675	2956
286.733	2134
286.791	2051
286.850	2464
286.908	4526
286.966	6197
287.024	2640
287.083	1873
287.141	1344
287.199	2312
287.257	2752
287.315	1728
287.374	2913
287.432	6431
287.490	3234
287.548	2356
287.606	2081
287.664	2149
287.723	4332
287.781	4545
287.839	3557
287.897	4345
287.955	5074
288.013	9184
288.071	26373
288.129	113491
288.187	232549
288.245	83859
288.303	29217
288.361	17180
288.419	13854
288.477	9313
288.535	6278
288.593	5331
288.651	4058
288.709	2182
288.767	1487
288.825	2174
288.883	1891
288.941	2076
288.999	1013
289.057	1981
289.115	1127
289.173	1640
289.231	1642
289.289	1456
289.346	2345
289.404	2110
289.462	3716
289.520	3791
289.578	1653
289.636	1444
289.694	680
289.751	1167
289.809	605
289.867	1216
289.925	2140
289.983	2215
290.040	1215
290.098	1385
290.156	1352
290.214	1448
290.271	1526
290.329	975
290.387	1190
290.444	458
290.502	636
290.560	688
290.617	1608
290.675	1341
290.733	463
290.790	1483
290.848	1726
290.906	1305
290.963	1456
291.021	1393
291.078	1244
291.136	1937
291.194	8498
291.251	13859
291.309	2740
291.366	1584
291.424	502
291.481	1320
291.539	298
291.596	1464
291.654	329
291.711	665
291.769	1816
291.826	4021
291.884	1325
291.941	234
291.999	1642
292.056	868
292.114	924
292.171	549
292.228	794
292.286	1428
292.343	4172
292.401	4996
292.458	2608
292.515	1530
292.573	1840
292.630	2841
292.687	3606
292.745	2361
292.802	3105
292.859	9537
292.917	14894
292.974	7582
293.031	2535
293.089	1933
293.146	1289
293.203	789
293.260	1422
293.318	1944
293.375	3275
293.432	762
293.489	781
293.546	1143
293.604	3182
293.661	12947
293.718	25141
293.775	11037
293.832	5193
293.889	2970
293.947	4579
294.004	2768
294.061	2709
294.118	7766
294.175	14832
294.232	17526
294.289	5619
294.346	3072
294.403	2972
294.460	3465
294.517	2252
294.574	1562
294.631	1745
294.688	3247
294.745	10254
294.802	32831
294.859	28843
294.916	11033
294.973	7179
295.030	5548
295.087	3697
295.144	3076
295.201	2351
295.258	1840
295.315	4122
295.372	14592
295.429	20413
295.486	7294
295.542	5678
295.599	15851
295.656	22157
295.713	16307
295.770	18455
295.827	6697
295.883	4079
295.940	3380
295.997	6963
296.054	5725
296.111	2757
296.167	1786
296.224	885
296.281	1540
296.338	773
296.394	1652
296.451	3408
296.508	10606
296.564	15097
296.621	10268
296.678	24976
296.734	29123
296.791	9689
296.848	5725
296.904	7218
296.961	14018
297.018	24337
297.074	15363
297.131	5939
297.187	5048
297.244	7471
297.301	27685
297.357	38492
297.414	11582
297.470	5547
297.527	3250
297.583	2742
297.640	3154
297.696	2189
297.753	1396
297.809	930
297.866	817
297.922	1727
297.979	1029
298.035	1978
298.092	4762
298.148	13818
298.204	10338
298.261	5863
298.317	12130
298.374	27864
298.430	14358
298.486	9619
298.543	6755
298.599	6163
298.656	6766
298.712	11697
298.768	29235
298.824	18559
298.881	5410
298.937	3648
298.993	3045
299.050	3503
299.106	2845
299.162	2062
299.218	2464
299.275	1840
299.331	3222
299.387	6592
299.443	25615
299.500	20602
299.556	7711
299.612	3149
299.668	3498
299.724	2396
299.780	3742
299.837	3100
299.893	6600
299.949	22485
300.005	22043
300.061	20846
300.117	32776
300.173	13566
300.229	6953
300.285	8170
300.341	8410
300.397	4816
300.453	2850
300.510	2386
300.566	2957
300.622	2967
300.678	8314
300.734	15877
300.790	19560
300.845	22789
300.901	13461
300.957	19466
301.013	13958
301.069	5341
301.125	4609
301.181	3900
301.237	2804
301.293	2261
301.349	2232
301.405	1718
301.461	2558
301.516	3351
301.572	3677
301.628	4874
301.684	5597
301.740	10287
301.796	13420
301.851	9094
301.907	16611
301.963	16201
302.019	30640
302.074	72598
302.130	61977
302.186	26277
302.242	11084
302.297	7359
302.353	8462
302.409	14813
302.464	12716
302.520	12065
302.576	27205
302.631	27091
302.687	14714
302.743	6192
302.798	4388
302.854	2853
302.910	4149
302.965	6161
303.021	9713
303.076	8198
303.132	9369
303.187	10436
303.243	5071
303.299	3124
303.354	2651
303.410	2806
303.465	1933
303.521	1867
303.576	2042
303.632	4270
303.687	8244
303.743	23530
303.798	16945
303.853	6812
303.909	3664
303.964	3266
304.020	6076
304.075	8444
304.130	7804
304.186	13942
304.241	12633
304.297	10902
304.352	5057
304.358	4869
304.407	3341
304.449	3722
304.463	3854
304.518	2830
304.539	2850
304.573	2874
304.629	4258
304.630	4297
304.684	6346
304.720	14693
304.739	18943
304.794	24603
304.811	20570
304.850	10618
304.902	5770
304.905	5479
304.960	4363
304.992	4576
305.015	4724
305.071	3933
305.083	3677
305.126	2822
305.173	2182
305.181	2056
305.236	1198
305.264	1659
305.292	2239
305.347	2793
305.354	2813
305.402	2911
305.445	4058
305.457	4374
305.512	5538
305.535	5226
305.567	4733
305.622	5534
305.626	5867
305.678	12873
305.716	25037
305.733	29658
305.788	30336
305.807	26701
305.843	19697
305.897	24898
305.898	24960
305.953	22556
305.988	15500
306.008	11428
306.063	6867
306.078	5886
306.118	3766
306.168	3019
306.173	2975
306.228	2744
306.259	2642
306.283	2579
306.338	2725
306.349	2843
306.393	3681
306.440	4580
306.448	4637
306.503	4068
306.530	4911
306.558	7201
306.613	16678
306.620	17635
306.668	22692
306.711	26961
306.723	27286
306.778	19363
306.801	15207
306.833	10052
306.888	5042
306.892	4818
306.943	3434
306.982	3131
306.997	3110
307.052	3108
307.072	3407
307.107	4424
307.162	6343
307.163	6390
307.217	11608
307.253	14155
307.272	14780
307.327	15002
307.343	13938
307.381	10627
307.434	9216
307.436	9449
307.491	18700
307.524	26820
307.546	29508
307.600	25832
307.614	23430
307.655	14317
307.704	8004
307.710	7882
307.765	9104
307.795	12230
307.819	16523
307.874	29271
307.885	29378
307.929	20963
307.975	13564
307.984	13409
308.038	16702
308.065	21393
308.093	34921
308.148	72794
308.156	81556
308.202	138542
308.246	168051
308.257	161935
308.312	89202
308.336	62631
308.366	47245
308.421	28955
308.426	27373
308.475	17629
308.517	12227
308.530	11319
308.585	8866
308.607	8425
308.639	8813
308.694	10884
308.697	11097
308.748	22126
308.787	34587
308.803	35584
308.857	27455
308.877	23813
308.912	18101
308.967	13153
308.967	13112
309.021	16225
309.058	19445
309.076	24248
309.130	44059
309.148	52821
309.185	99023
309.238	180580
309.239	181484
309.293	212071
309.328	203121
309.348	172465
309.402	83573
309.418	61182
309.457	42244
309.508	24675
309.511	24148
309.566	18921
309.598	16591
309.620	17364
309.674	21793
309.688	22810
309.729	21868
309.778	18690
309.783	18226
309.837	13477
309.868	11278
309.892	13115
309.946	19642
309.959	21813
310.001	31732
310.049	40443
310.055	39233
310.109	24041
310.139	15710
310.163	12361
310.218	7334
310.229	6520
310.272	5685
310.319	4531
310.326	4494
310.381	5119
310.409	5232
310.435	4715
310.489	3558
310.499	3452
310.543	4340
310.589	5255
310.598	5249
310.652	5165
310.679	4846
310.706	4078
310.760	2821
310.769	2619
310.814	2273
310.859	2021
310.868	2011
310.923	1915
310.948	2042
310.977	2576
311.031	3456
311.038	3585
311.085	3472
311.128	3147
311.139	3062
311.193	2829
311.218	2615
311.247	2538
311.301	2622
311.308	2620
311.356	2244
311.398	1945
311.410	2006
311.464	2301
311.488	2378
311.518	2297
311.572	2300
311.578	2300
311.626	2958
311.668	3538
311.680	3674
311.734	4204
311.758	4454
311.788	4618
311.842	4910
311.847	4935
311.896	5534
311.937	6114
311.950	6173
312.004	6392
312.027	6460
312.058	5425
312.112	3610
312.117	3428
312.165	3030
312.207	2694
312.297	4181
312.386	4096
312.476	2745
312.566	6621
312.656	4539
312.745	2633
312.835	3647
312.925	3431
313.015	3032
313.104	6226
313.194	3222
313.284	2550
313.374	2496
313.463	2247
313.553	2108
313.643	2433
313.732	1705
313.822	1196
313.912	2513
314.001	2619
314.091	2393
314.180	4739
314.270	4243
314.360	5435
314.449	3712
314.539	2171
314.628	1400
314.718	2657
314.808	4403
314.897	2647
314.987	2008
315.076	2520
315.166	3888
315.255	4883
315.345	4477
315.434	4972
315.524	4427
315.613	4768
315.703	4581
315.792	5427
315.881	11541
315.971	6897
316.060	8600
316.150	17875
316.239	20187
316.328	8347
316.418	2832
316.507	2427
316.597	3884
316.686	3550
316.775	6459
316.865	22140
316.954	4630
317.043	1826
317.133	2112
317.222	2018
317.311	1160
317.400	2323
317.490	3455
317.579	4212
317.668	3192
317.757	4367
317.847	7220
317.936	20611
318.025	13102
318.114	7009
318.203	4241
318.293	6414
318.382	12200
318.471	11511
318.560	14044
318.649	37649
318.738	11225
318.828	4467
318.917	6149
319.006	7234
319.095	21723
319.184	44699
319.273	29089
319.362	12864
319.451	3770
319.540	4209
319.629	6666
319.718	14971
319.807	7641
319.896	12544
319.985	54860
320.074	26760
320.163	7217
320.252	12499
320.341	8066
320.430	6543
320.519	6185
320.608	4208
320.697	3615
320.786	3276
320.875	3681
320.964	5536
321.053	8759
321.142	11949
321.230	14686
321.319	9848
321.408	23496
321.497	13195
321.586	10051
321.675	15882
321.764	17537
321.852	9327
321.941	13034
322.030	10548
322.119	9298
322.207	26256
322.296	28885
322.385	12175
322.474	11149
322.562	25477
322.651	18767
322.740	11472
322.829	18438
322.917	25682
323.006	14276
323.095	8835
323.183	8261
323.272	13708
323.361	23296
323.449	89070
323.538	36998
323.626	54009
323.715	47485
323.804	13237
323.892	49055
323.981	34136
324.069	9154
324.158	24827
324.246	34454
324.335	7260
324.424	8344
324.512	4045
324.601	3795
324.689	5176
324.778	7480
324.866	18614
324.954	6543
325.043	4948
325.131	8854
325.220	22011
325.308	26508
325.397	16362
325.485	11765
325.574	2244
325.662	1956
325.750	2888
325.839	2237
325.927	1778
326.015	3748
326.104	8151
326.192	15539
326.280	3345
326.369	2774
326.457	2988
326.545	6368
326.634	3249
326.722	1568
326.810	2216
326.898	1658
326.987	2923
327.075	6549
327.163	9933
327.251	5127
327.340	2893
327.428	3055
327.516	2353
327.604	2687
327.692	3946
327.781	3366
327.869	9227
327.957	5927
328.045	4255
328.133	1898
328.221	4782
328.309	3532
328.397	2136
328.485	3246
328.574	4938
328.662	12893
328.750	13507
328.838	5054
328.926	2536
329.014	1402
329.102	4092
329.190	8995
329.278	7983
329.366	1665
329.454	1469
329.542	2165
329.630	1366
329.718	1652
329.806	3063
329.893	3038
329.981	3968
330.069	6518
330.157	21254
330.245	67730
330.333	45743
330.421	8803
330.509	5603
330.597	16664
330.684	14562
330.772	6123
330.860	7582
330.948	9528
331.036	4791
331.123	1560
331.211	1602
331.299	2682
331.387	7149
331.475	15025
331.562	5452
331.650	2128
331.738	2451
331.825	5009
331.913	2787
332.001	1786
332.089	4189
332.176	10353
332.264	25462
332.352	24390
332.439	4880
332.527	3254
332.614	2124
332.702	5251
332.790	3867
332.877	8643
332.965	25953
333.052	5589
333.140	4109
333.228	10948
333.315	3814
333.403	3686
333.490	13875
333.578	13232
333.665	8017
333.753	5500
333.840	2866
333.928	3710
334.015	14709
334.103	22193
334.190	72147
334.278	23924
334.365	6424
334.452	3983
334.540	3159
334.627	3686
334.715	8910
334.802	16280
334.889	92679
334.977	123353
335.064	13291
335.151	4102
335.239	3882
335.326	5946
335.413	24284
335.501	48829
335.588	6294
335.675	3000
335.762	3741
335.850	8202
335.937	6466
336.024	17296
336.111	95762
336.199	48844
336.286	6990
336.373	2645
336.460	2478
336.547	2137
336.635	2980
336.722	3060
336.809	2228
336.896	3878
336.983	14900
337.070	41504
337.157	70178
337.245	64298
337.332	61381
337.419	6452
337.506	3849
337.593	2993
337.680	9925
337.767	42885
337.854	13521
337.941	12694
338.028	20479
338.115	8665
338.202	6811
338.289	14424
338.376	65257
338.463	25784
338.550	20902
338.637	31497
338.724	9854
338.811	21957
338.898	4937
338.984	1801
339.071	3297
339.158	4221
339.245	9096
339.332	6891
339.419	9884
339.506	14003
339.593	2020
339.679	817
339.766	1463
339.853	2322
339.940	6011
340.027	2113
340.113	2126
340.200	3336
340.287	2511
340.374	2834
340.460	5817
340.547	2879
340.634	3815
340.720	15962
340.807	13575
340.894	1540
340.980	2061
341.067	1425
341.154	1756
341.240	2753
341.327	8740
341.414	2718
341.500	2676
341.587	1662
341.674	1869
341.760	4987
341.847	6703
341.933	1917
342.020	415
342.106	1202
342.193	945
342.279	3579
342.366	2670
342.452	5119
342.539	3650
342.625	5794
342.712	19035
342.798	9106
342.885	3584
342.971	659
343.058	1631
343.144	793
343.230	1322
343.317	909
343.403	1478
343.490	337
343.576	1264
343.662	764
343.749	1386
343.835	3065
343.921	6333
344.008	33518
344.094	98553
344.180	27143
344.267	6593
344.353	21339
344.439	32242
344.525	11207
344.612	4891
344.698	4215
344.784	3447
344.870	1563
344.957	940
345.043	3066
345.129	1714
345.215	4465
345.301	3572
345.387	1402
345.474	500
345.560	747
345.646	2690
345.732	1712
345.818	2176
345.904	1427
345.990	2503
346.076	2399
346.162	7820
346.249	2725
346.335	1838
346.421	1709
346.507	7625
346.593	35010
346.679	10853
346.765	2319
346.851	1782
346.937	1496
347.023	1592
347.108	1592
347.194	1573
347.280	1433
347.366	2560
347.452	6962
347.538	39927
347.624	30513
347.710	28336
347.796	5262
347.882	2154
347.967	1832
348.053	3412
348.139	1945
348.225	1340
348.311	1484
348.397	1031
348.482	1365
348.568	2577
348.654	901
348.740	621
348.825	1094
348.911	3692
348.997	15059
349.083	43102
349.168	8818
349.254	1865
349.340	1382
349.425	955
349.511	1748
349.597	3499
349.682	4972
349.768	20196
349.854	13997
349.939	2249
350.025	796
350.110	2063
350.196	781
350.282	537
350.367	1060
350.453	4652
350.538	6471
350.624	2153
350.709	2064
350.795	1226
350.880	1451
350.966	1207
351.051	4625
351.137	3895
351.222	971
351.308	4372
351.393	17708
351.479	5630
351.564	1436
351.649	1949
351.735	1075
351.820	444
351.906	501
351.991	2839
352.076	9677
352.162	19620
352.247	3636
352.332	1778
352.418	3017
352.503	5456
352.588	22141
352.673	24478
352.759	4349
352.844	1942
352.929	362
353.014	2895
353.100	1751
353.185	2364
353.270	5010
353.355	6730
353.441	1831
353.526	2638
353.611	5294
353.696	7101
353.781	3603
353.866	1861
353.952	1016
354.037	4786
354.122	11428
354.207	12570
354.292	5102
354.377	1327
354.462	588
354.547	2330
354.632	1966
354.717	2586
354.802	2627
354.887	2181
354.972	1458
355.057	1129
355.142	428
355.227	1054
355.312	2880
355.397	7581
355.482	19883
355.567	12949
355.652	6438
355.737	7946
355.822	23132
355.907	26832
355.991	3604
356.076	1567
356.161	1255
356.246	1314
356.331	1865
356.416	6095
356.501	41650
356.585	60551
356.670	8008
356.755	3562
356.840	5169
356.924	24171
357.009	114110
357.094	56227
357.179	8328
357.263	6358
357.348	4198
357.433	4952
357.517	4172
357.602	3954
357.687	2714
357.771	4313
357.856	16969
357.941	14458
358.025	20106
358.110	110585
358.195	64363
358.279	8501
358.364	4191
358.448	14041
358.533	46726
358.617	37841
358.702	35759
358.787	14800
358.871	6637
358.956	6263
359.040	1444
359.125	1105
359.209	1676
359.294	6579
359.378	15489
359.462	5981
359.547	3199
359.631	2626
359.716	1422
359.800	1445
359.885	3186
359.969	1829
360.053	1862
360.138	1980
360.222	2851
360.306	6199
360.391	5728
360.475	7953
360.559	22993
360.644	18417
360.728	15719
360.812	19581
360.896	77919
360.981	32419
361.065	15568
361.149	4644
361.233	3197
361.318	2846
361.402	2961
361.486	2488
361.570	1040
361.654	2563
361.739	7345
361.823	39292
361.907	82586
361.991	16343
362.075	5117
362.159	12528
362.243	9343
362.327	5551
362.411	6255
362.495	5074
362.580	2427
362.664	1451
362.748	1447
362.832	1959
362.916	2100
363.000	8224
363.084	36381
363.168	90615
363.252	24608
363.336	5660
363.420	7501
363.503	33683
363.587	57340
363.671	9625
363.755	4060
363.839	6131
363.923	2024
364.007	5463
364.091	8335
364.175	11745
364.258	61406
364.342	40498
364.426	14505
364.510	9343
364.594	7174
364.677	10721
364.761	57648
364.845	55612
364.929	13035
365.013	10094
365.096	7013
365.180	9806
365.264	12409
365.347	67450
365.431	36323
365.515	7591
365.598	2172
365.682	2240
365.766	4538
365.849	7738
365.933	3511
366.017	4200
366.100	3658
366.184	966
366.267	1521
366.351	1134
366.435	1785
366.518	1101
366.602	138
366.685	1371
366.769	1381
366.852	3745
366.936	8142
367.019	4632
367.103	2314
367.186	8122
367.270	2392
367.353	-149
367.436	943
367.520	1586
367.603	1792
367.687	2827
367.770	6300
367.853	3927
367.937	11647
368.020	29754
368.104	7288
368.187	4241
368.270	6322
368.353	7219
368.437	11697
368.520	42635
368.603	25235
368.687	16266
368.770	39798
368.853	10594
368.936	6122
369.020	8877
369.103	2505
369.186	286
369.269	1384
369.352	2717
369.436	7012
369.519	4747
369.602	1065
369.685	1282
369.768	2193
369.851	2175
369.934	416
370.018	1943
370.101	4895
370.184	5874
370.267	3503
370.350	4528
370.433	8891
370.516	25730
370.599	40368
370.682	10158
370.765	15477
370.848	20708
370.931	47210
371.014	22723
371.097	3890
371.180	1687
371.263	671
371.346	172
371.429	1049
371.511	413
371.594	3129
371.677	6373
371.760	8337
371.843	6303
371.926	30325
372.009	93097
372.091	31705
372.174	15108
372.257	44240
372.340	21540
372.423	10279
372.505	15346
372.588	5768
372.671	10147
372.754	43543
372.836	28699
372.919	13487
373.002	39396
373.085	12623
373.167	5649
373.250	14563
373.332	41369
373.415	52158
373.498	132503
373.580	53421
373.663	45899
373.746	83339
373.828	20853
373.911	6565
373.993	6708
374.076	32008
374.159	41692
374.241	12866
374.324	34243
374.406	28827
374.489	27713
374.571	100954
374.654	50528
374.736	15719
374.819	58766
374.901	85567
374.983	107459
375.066	20510
375.148	4819
375.231	22040
375.313	62283
375.395	23077
375.478	4804
375.560	2685
375.643	3399
375.725	13551
375.807	77774
375.890	82498
375.972	44270
376.054	17145
376.136	35078
376.219	16350
376.301	15852
376.383	69752
376.465	31612
376.548	12483
376.630	15241
376.712	54070
376.794	33511
376.877	2347
376.959	1697
377.041	1832
377.123	5552
377.205	8641
377.287	1227
377.369	1057
377.452	1541
377.534	1030
377.616	1060
377.698	958
377.780	460
377.862	966
377.944	1645
378.026	485
378.108	526
378.190	297
378.272	1145
378.354	616
378.436	182
378.518	1773
378.600	12277
378.682	10309
378.764	21680
378.846	22924
378.928	5022
379.010	6631
379.091	3986
379.173	1352
379.255	1469
379.337	1798
379.419	8028
379.501	36032
379.583	18583
379.664	3271
379.746	7354
379.828	20636
379.910	31615
379.991	33767
380.073	6119
380.155	2143
380.237	1658
380.318	639
380.400	1576
380.482	3784
380.564	8076
380.645	5520
380.727	6222
380.809	3586
380.890	2437
380.972	1805
381.053	1047
381.135	2141
381.217	5409
381.298	23612
381.380	14610
381.461	8514
381.543	47013
381.624	81036
381.706	15705
381.787	5330
381.869	5334
381.951	17207
382.032	93936
382.113	70313
382.195	12326
382.276	5663
382.358	11358
382.439	44527
382.521	51505
382.602	97251
382.684	42430
382.765	60432
382.846	63798
382.928	57995
383.009	36413
383.090	17992
383.172	68742
383.253	148856
383.334	57856
383.416	73197
383.497	45544
383.578	11438
383.659	15901
383.741	57777
383.822	209881
383.903	132940
383.984	41484
384.066	86032
384.147	63950
384.228	11902
384.309	5691
384.390	4132
384.471	3568
384.553	3382
384.634	4770
384.715	5820
384.796	3100
384.877	2581
384.958	17020
385.039	29588
385.120	9359
385.201	3406
385.282	5135
385.363	4581
385.444	4391
385.525	6138
385.606	32524
385.687	37982
385.768	7686
385.849	7224
385.930	33915
386.011	79389
386.092	24348
386.173	4253
386.254	3089
386.335	2674
386.416	2127
386.496	9565
386.577	24867
386.658	10938
386.739	5071
386.820	4521
386.901	4519
386.981	2933
387.062	1908
387.143	3243
387.224	19802
387.304	25218
387.385	7850
387.466	3362
387.547	6325
387.627	2751
387.708	5750
387.789	36258
387.869	60327
387.950	18463
388.031	2327
388.111	699
388.192	7367
388.273	12735
388.353	7580
388.434	2660
388.514	6517
388.595	37079
388.676	60218
388.756	26879
388.837	20028
388.917	15473
388.998	2248
389.078	2237
389.159	2452
389.239	1527
389.320	2974
389.400	2952
389.480	6487
389.561	25518
389.641	16357
389.722	3010
389.802	5536
389.883	8149
389.963	30089
390.043	25071
390.124	8104
390.204	6402
390.284	24967
390.365	20656
390.445	20183
390.525	69079
390.605	73188
390.686	18922
390.766	5348
390.846	2364
390.927	1088
391.007	900
391.087	2846
391.167	2205
391.247	827
391.328	5323
391.408	7758
391.488	5260
391.568	413
391.648	1569
391.728	3960
391.808	3510
391.888	4088
391.969	8594
392.049	23211
392.129	11053
392.209	8366
392.289	28641
392.369	17973
392.449	13302
392.529	9128
392.609	4971
392.689	6367
392.769	24791
392.849	28527
392.929	12284
393.009	37680
393.089	32340
393.169	14092
393.248	38558
393.328	241995
393.408	345704
393.488	77059
393.568	13764
393.648	7528
393.728	3683
393.807	3066
393.887	4314
393.967	3519
394.047	4511
394.127	6121
394.206	12271
394.286	43320
394.366	228545
394.446	312178
394.525	81810
394.605	16847
394.685	9454
394.764	17454
394.844	35032
394.924	30129
395.003	8515
395.083	4106
395.163	3949
395.242	3410
395.322	4048
395.402	2489
395.481	3945
395.561	10247
395.640	39323
395.720	29211
395.799	42976
395.879	46244
395.958	21635
396.038	65594
396.117	302197
396.197	407796
396.276	128401
396.356	36053
396.435	21177
396.515	12229
396.594	9484
396.673	14622
396.753	51272
396.832	250233
396.912	226681
396.991	49800
397.070	10703
397.150	4243
397.229	3514
397.308	2920
397.388	4497
397.467	3269
397.546	1878
397.625	348
397.705	3599
397.784	2487
397.863	632
397.942	1872
398.022	1394
398.101	8127
398.180	39220
398.259	25579
398.338	4488
398.417	2688
398.497	1416
398.576	2102
398.655	220
398.734	767
398.813	897
398.892	7297
398.971	42997
399.050	28174
399.129	2043
399.208	500
399.287	1033
399.366	-28
399.445	753
399.524	1142
399.603	-429
399.682	2490
399.761	7744
399.840	42088
399.919	46213
399.998	5836
400.077	548
400.156	67
400.235	2040
400.313	1201
400.392	1037
400.471	8806
400.550	20542
400.629	5728
400.708	2031
400.786	2142
400.865	5989
400.944	8748
401.023	3740
401.102	206
401.180	-388
401.259	688
401.338	666
401.416	1314
401.495	1005
401.574	1882
401.652	194
401.731	1805
401.810	839
401.888	617
401.967	-813
402.046	374
402.124	1159
402.203	2585
402.281	680
402.360	1150
402.438	8580
402.517	7919
402.596	1592
402.674	1204
402.753	737
402.831	844
402.910	771
402.988	3175
403.066	14643
403.145	11239
403.223	4084
403.302	12127
403.380	8961
403.459	8493
403.537	3722
403.615	1046
403.694	-1153
403.772	260
403.850	-631
403.929	-281
404.007	-323
404.085	1916
404.164	808
404.242	232
404.320	3935
404.398	18271
404.477	23923
404.555	66823
404.633	77932
404.711	22289
404.789	11310
404.868	1609
404.946	-66
405.024	-235
405.102	-117
405.180	58
405.258	-1162
405.336	26
405.415	-219
405.493	2291
405.571	1530
405.649	-359
405.727	-182
405.805	1204
405.883	410
405.961	1010
406.039	1948
406.117	152
406.195	1752
406.273	8643
406.351	53650
406.429	44311
406.507	6294
406.585	914
406.663	416
406.740	2102
406.818	821
406.896	473
406.974	44
407.052	1758
407.130	23508
407.208	53560
407.285	12681
407.363	649
407.441	264
407.519	1063
407.596	596
407.674	3593
407.752	19425
407.830	23491
407.907	8045
407.985	668
408.063	979
408.141	-96
408.218	1156
408.296	1533
408.373	702
408.451	985
408.529	634
408.606	108
408.684	-569
408.762	-710
408.839	-550
408.917	-1003
408.994	-196
409.072	-1182
409.149	-207
409.227	849
409.304	530
409.382	-366
409.459	-619
409.537	1056
409.614	289
409.692	84
409.769	-439
409.846	192
409.924	1043
410.001	397
410.079	871
410.156	466
410.233	26
410.311	587
410.388	-777
410.465	289
410.543	271
410.620	253
410.697	9
410.775	-523
410.852	-945
410.929	360
411.006	873
411.083	-602
411.161	1443
411.238	3139
411.315	1620
411.392	74
411.469	316
411.547	910
411.624	-810
411.701	-777
411.778	-298
411.855	2404
411.932	832
412.009	5
412.086	284
412.163	-194
412.240	809
412.317	1283
412.394	1463
412.471	141
412.548	-567
412.625	-490
412.702	-281
412.779	2470
412.856	2214
412.933	-359
413.010	255
413.087	1812
413.164	6502
413.241	16741
413.318	3145
413.395	1674
413.471	2153
413.548	905
413.625	-570
413.702	-214
413.779	399
413.855	-365
413.932	-987
414.009	-1536
414.086	-378
414.162	-291
414.239	685
414.316	6460
414.393	24301
414.469	10976
414.546	371
414.623	-387
414.699	-712
414.776	513
414.853	-944
414.929	359
415.006	368
415.082	863
415.159	-173
415.236	63
415.312	-737
415.389	842
415.465	1723
415.542	1128
415.618	-398
415.695	506
415.771	472
415.848	369
415.924	-116
416.000	-189
416.077	-715
416.153	-1058
416.230	-1590
416.306	-309
416.383	-627
416.459	353
416.535	-1734
416.612	-682
416.688	-900
416.764	-898
416.841	-1647
416.917	-458
416.993	-1225
417.069	546
417.146	461
417.222	2614
417.298	603
417.374	-812
417.451	635
417.527	-66
417.603	-779
417.679	278
417.755	195
417.831	-721
417.908	-830
417.984	-1127
418.060	-1272
418.136	470
418.212	2798
418.288	714
418.364	526
418.440	-817
418.516	506
418.592	1605
418.668	3644
418.744	6418
418.820	5572
418.896	468
418.972	-1066
419.048	-1162
419.124	2290
419.200	1290
419.276	-984
419.352	-966
419.428	-748
419.504	-185
419.579	131
419.655	-339
419.731	-742
419.807	2631
419.883	6476
419.959	6675
420.034	585
420.110	1796
420.186	12217
420.262	14248
420.337	2824
420.413	431
420.489	-276
420.565	173
420.640	-709
420.716	313
420.792	-1313
420.867	-1111
420.943	-881
421.019	269
421.094	279
421.170	-120
421.245	-1594
421.321	-132
421.397	-376
421.472	2611
421.548	9062
421.623	8312
421.699	1771
421.774	807
421.850	-871
421.925	1066
422.001	1861
422.076	659
422.152	-439
422.227	2088
422.302	1717
422.378	2572
422.453	5163
422.529	13875
422.604	56513
422.679	170151
422.755	111113
422.830	27758
422.905	6294
422.981	2980
423.056	1379
423.131	822
423.207	607
423.282	157
423.357	3507
423.432	2508
423.508	2122
423.583	5672
423.658	5105
423.733	653
423.808	692
423.883	2596
423.959	1305
424.034	320
424.109	310
424.184	-321
424.259	-544
424.334	141
424.409	-805
424.484	-1006
424.559	-632
424.634	-328
424.709	-152
424.784	981
424.859	762
424.934	765
425.009	6714
425.084	17364
425.159	8018
425.234	390
425.309	-542
425.384	1926
425.459	7597
425.534	3000
425.609	-853
425.683	-575
425.758	-1439
425.833	795
425.908	505
425.983	2366
426.058	16803
426.132	11371
426.207	994
426.282	2174
426.357	2293
426.431	492
426.506	249
426.581	466
426.655	-280
426.730	875
426.805	-570
426.879	81
426.954	-335
427.029	1077
427.103	11806
427.178	47131
427.253	30602
427.327	3537
427.402	1644
427.476	8443
427.551	5293
427.625	900
427.700	603
427.774	81
427.849	699
427.923	46
427.998	-497
428.072	-617
428.147	1404
428.221	4958
428.296	19753
428.370	13077
428.444	1083
428.519	2342
428.593	5847
428.667	6884
428.742	6086
428.816	6495
428.890	12100
428.965	27088
429.039	13584
429.113	9414
429.188	3841
429.262	-27
429.336	1023
429.410	6863
429.485	6208
429.559	5664
429.633	5141
429.707	991
429.781	1179
429.855	14948
429.930	32611
430.004	21644
430.078	36876
430.152	37232
430.226	29037
430.300	39406
430.374	8169
430.448	2421
430.522	7279
430.596	37631
430.670	29404
430.744	25617
430.818	63466
430.892	21366
430.966	1978
431.040	1381
431.114	34
431.188	-468
431.262	-593
431.336	270
431.410	2260
431.484	8180
431.557	8481
431.631	896
431.705	-549
431.779	1202
431.853	12642
431.927	15309
432.000	1826
432.074	609
432.148	484
432.222	737
432.295	84
432.369	-265
432.443	828
432.516	11145
432.590	50730
432.664	28804
432.737	3053
432.811	-405
432.885	-611
432.958	-631
433.032	-583
433.106	-672
433.179	-1172
433.253	-949
433.326	-648
433.400	-52
433.473	-363
433.547	-587
433.620	-67
433.694	384
433.767	2236
433.841	202
433.914	412
433.988	646
434.061	-404
434.134	-364
434.208	-730
434.281	-801
434.355	-1041
434.428	-364
434.501	392
434.575	-637
434.648	-119
434.721	46
434.795	-800
434.868	-923
434.941	-1371
435.014	149
435.088	-693
435.161	432
435.234	226
435.307	1416
435.381	454
435.454	-170
435.527	-655
435.600	-95
435.673	-39
435.746	-25
435.819	-307
435.892	-70
435.966	-762
436.039	-363
436.112	-328
436.185	-441
436.258	-1350
436.331	-1081
436.404	-508
436.477	-1099
436.550	-636
436.623	-468
436.696	-1165
436.769	-394
436.842	-160
436.915	708
436.987	47
437.060	-159
437.133	-98
437.206	-380
437.279	-620
437.352	99
437.425	-351
437.498	-16
437.570	924
437.643	2175
437.716	-623
437.789	-276
437.861	376
437.934	5060
438.007	4226
438.080	948
438.152	146
438.225	2405
438.298	15243
438.370	76099
438.443	47373
438.516	9720
438.588	1640
438.661	46
438.734	-533
438.806	-176
438.879	836
438.951	-220
439.024	2536
439.096	1281
439.169	-598
439.241	-65
439.314	-1428
439.386	-211
439.459	1888
439.531	4132
439.604	1983
439.676	155
439.749	-453
439.821	-828
439.893	-648
439.966	-198
440.038	555
440.110	542
440.183	248
440.255	-220
440.327	1098
440.400	5447
440.472	36491
440.544	42882
440.617	7257
440.689	1376
440.761	2277
440.833	4712
440.905	3820
440.978	856
441.050	-120
441.122	261
441.194	-777
441.266	-430
441.338	-552
441.411	722
441.483	7638
441.555	22864
441.627	7680
441.699	1923
441.771	2023
441.843	910
441.915	167
441.987	-316
442.059	-756
442.131	-25
442.203	783
442.275	1484
442.347	1252
442.419	568
442.491	2847
442.563	14606
442.635	12745
442.706	8978
442.778	10684
442.850	2683
442.922	-732
442.994	936
443.066	1283
443.137	1399
443.209	745
443.281	806
443.353	1726
443.425	6107
443.496	26115
443.568	36852
443.640	16839
443.711	4911
443.783	556
443.855	731
443.926	386
443.998	570
444.070	1326
444.141	879
444.213	1554
444.285	3078
444.356	2175
444.428	2485
444.499	525
444.571	-807
444.642	-515
444.714	32
444.785	1086
444.857	2472
444.928	5916
445.000	5999
445.071	3420
445.143	6049
445.214	1749
445.285	2697
445.357	10953
445.428	21695
445.500	58778
445.571	54203
445.642	24124
445.714	10684
445.785	14853
445.856	6163
445.928	2379
445.999	1848
446.070	1898
446.141	2333
446.213	2195
446.284	1538
446.355	1758
446.426	1052
446.497	225
446.569	1228
446.640	3433
446.711	2982
446.782	591
446.853	1274
446.924	1805
446.995	277
447.066	676
447.138	2235
447.209	2124
447.280	-1221
447.351	-13
447.422	-330
447.493	160
447.564	1822
447.635	2386
447.706	1641
447.777	-856
447.847	495
447.918	-652
447.989	900
448.060	1040
448.131	3879
448.202	5788
448.273	3344
448.344	1930
448.414	-330
448.485	476
448.556	195
448.627	-221
448.698	521
448.768	-84
448.839	-634
448.910	1695
448.981	3527
449.051	442
449.122	170
449.193	357
449.263	302
449.334	87
449.405	78
449.475	2734
449.546	3195
449.616	3442
449.687	4174
449.758	1453
449.828	1025
449.899	50
449.969	603
450.040	-345
450.110	1668
450.181	1984
450.251	462
450.322	334
450.392	860
450.463	359
450.533	470
450.604	213
450.674	796
450.744	581
450.815	57
450.885	754
450.955	-722
451.026	89
451.096	337
451.166	653
451.237	2223
451.307	8967
451.377	6396
451.447	135
451.518	187
451.588	-121
451.658	1347
451.728	1466
451.799	6436
451.869	13653
451.939	5575
452.009	342
452.079	91
452.149	1206
452.219	1828
452.289	9574
452.360	12431
452.430	3785
452.500	958
452.570	1459
452.640	1576
452.710	4436
452.780	11653
452.850	9429
452.920	8116
452.990	3927
453.060	1677
453.129	1912
453.199	2725
453.269	8134
453.339	35592
453.409	63109
453.479	45566
453.549	67763
453.619	79563
453.688	48072
453.758	9225
453.828	2330
453.898	1822
453.968	1810
454.037	1709
454.087	1104
454.107	853
454.168	1250
454.177	1299
454.247	890
454.249	906
454.316	1140
454.330	1015
454.386	507
454.411	1828
454.456	3920
454.492	7395
454.525	10430
454.574	7189
454.595	5824
454.655	1797
454.665	1155
454.734	1707
454.736	1749
454.804	3094
454.817	4187
454.873	8367
454.898	11314
454.943	16349
454.979	12262
455.013	8602
455.060	4439
455.082	2714
455.141	2481
455.152	2455
455.221	6460
455.222	6642
455.291	19506
455.303	20250
455.360	22780
455.384	31237
455.430	42956
455.465	37858
455.499	33308
455.546	19690
455.569	13642
455.627	10833
455.638	10398
455.707	3272
455.708	3262
455.777	848
455.789	1008
455.846	1702
455.869	1548
455.916	1197
455.950	908
455.985	627
456.031	597
456.054	550
456.112	1325
456.124	1488
456.193	738
456.193	729
456.262	1064
456.274	1090
456.332	1196
456.355	1802
456.401	2693
456.436	2311
456.470	1844
456.516	957
456.540	668
456.597	572
456.609	540
456.678	1052
456.678	1047
456.747	157
456.759	147
456.817	433
456.840	434
456.886	381
456.920	584
456.955	683
457.001	452
457.024	567
457.082	1566
457.093	1711
457.162	2329
457.163	2345
457.232	3807
457.243	3716
457.301	2363
457.324	1577
457.370	659
457.405	1039
457.439	1391
457.485	1304
457.508	1333
457.566	1258
457.577	1180
457.646	1823
457.647	1825
457.715	1612
457.727	1623
457.784	1824
457.808	1944
457.853	2191
457.889	2978
457.922	3334
457.969	2659
457.991	2672
458.050	3662
458.060	3803
458.129	3865
458.130	3901
458.198	4606
458.211	4478
458.267	3173
458.292	2639
458.336	2447
458.372	2022
458.405	1911
458.453	1908
458.474	1975
458.533	3130
458.543	3262
458.611	5950
458.614	6022
458.680	5691
458.694	5131
458.749	3609
458.775	2590
458.818	1537
458.855	1786
458.887	1777
458.936	897
458.955	696
459.016	1783
459.024	1851
459.093	1507
459.097	1495
459.162	1656
459.177	1639
459.230	1303
459.257	1558
459.299	2184
459.338	2149
459.368	2101
459.418	2556
459.437	2445
459.499	2050
459.505	2117
459.574	1790
459.579	1811
459.643	1626
459.659	1648
459.711	1781
459.740	1707
459.780	1705
459.820	1924
459.849	1999
459.900	1875
459.917	1923
459.981	2266
459.986	2207
460.054	1429
460.061	1360
460.123	2443
460.141	2670
460.191	2855
460.222	3092
460.260	3269
460.302	3878
460.328	3785
460.382	3491
460.397	3539
460.462	1933
460.465	1893
460.534	3147
460.543	3217
460.602	8821
460.623	11119
460.671	18972
460.703	26699
460.739	28156
460.783	31708
460.808	29998
460.864	11503
460.876	9813
460.944	2648
460.945	2568
461.013	1795
461.024	1811
461.081	2186
461.104	2268
461.150	1944
461.184	1898
461.218	2245
461.264	2202
461.286	1938
461.345	1389
461.355	1374
461.423	1542
461.425	1548
461.491	1971
461.505	2040
461.559	3038
461.585	3480
461.628	6142
461.665	9118
461.696	11281
461.745	16788
461.764	15595
461.825	7845
461.832	7687
461.901	3423
461.905	3298
461.969	2376
461.985	2395
462.037	2495
462.065	2310
462.105	2097
462.145	2290
462.173	3328
462.225	4940
462.241	5631
462.305	9369
462.310	9186
462.378	7206
462.385	6640
462.446	3892
462.465	2965
462.514	2467
462.545	2663
462.582	2282
462.625	2254
462.650	2313
462.705	2142
462.718	2158
462.785	2052
462.786	2071
462.854	3336
462.865	3615
462.922	4469
462.945	4913
462.990	4296
463.025	3113
463.058	2421
463.104	1708
463.126	1801
463.184	2159
463.194	2166
463.262	2399
463.264	2406
463.330	3296
463.344	3461
463.398	3375
463.424	3346
463.466	2889
463.504	2620
463.533	2700
463.583	2398
463.601	2402
463.663	2714
463.669	2756
463.737	3387
463.743	3457
463.805	5755
463.823	6325
463.873	9227
463.903	11335
463.940	13518
463.982	16426
464.008	13810
464.062	7233
464.076	6883
464.142	3127
464.144	3066
464.211	2212
464.221	2181
464.279	2260
464.301	2262
464.347	2808
464.381	3199
464.414	3471
464.461	3976
464.482	4199
464.540	4932
464.550	4813
464.617	3633
464.620	3589
464.685	4059
464.699	4197
464.753	4601
464.779	4702
464.820	4757
464.859	4958
464.888	5154
464.938	5392
464.956	5550
465.018	6229
465.023	6127
465.091	4487
465.098	4326
465.158	4699
465.177	4821
465.226	4373
465.257	4145
465.293	4307
465.336	4326
465.361	4659
465.416	5569
465.428	5842
465.495	7262
465.496	7298
465.563	11940
465.575	12791
465.631	16794
465.654	18692
465.698	13311
465.734	8294
465.765	7182
465.813	4851
465.833	4471
465.893	4222
465.900	4205
465.968	4096
465.972	4082
466.035	4252
466.052	4325
466.102	4101
466.131	3951
466.170	4198
466.210	4511
466.237	4452
466.290	4184
466.304	4333
466.369	5108
466.372	5139
466.439	6026
466.449	6140
466.506	6233
466.528	6275
466.573	8068
466.607	9393
466.641	13219
466.687	18532
466.708	21184
466.766	28673
466.775	26815
466.842	12753
466.845	12063
466.909	7853
466.925	6890
466.977	6604
467.004	6558
467.044	6305
467.083	6067
467.111	6962
467.163	8653
467.178	8768
467.242	9216
467.245	9166
467.312	8044
467.321	7895
467.379	7842
467.400	7808
467.446	8363
467.480	8757
467.559	7465
467.638	6696
467.717	5519
467.796	6364
467.875	6962
467.955	6199
468.034	8268
468.113	19547
468.192	32604
468.271	13906
468.350	6255
468.429	5715
468.508	5636
468.588	5933
468.667	8122
468.746	14095
468.825	14285
468.904	6168
468.983	5518
469.062	7947
469.141	10017
469.220	5998
469.299	4213
469.378	5819
469.456	7228
469.535	6587
469.614	5860
469.693	5162
469.772	7490
469.851	10073
469.930	8313
470.009	5588
470.088	3762
470.166	5449
470.245	7222
470.324	8792
470.403	6451
470.482	5281
470.560	4066
470.639	5188
470.718	5933
470.797	6026
470.875	6463
470.954	12786
471.033	16084
471.111	4834
471.190	4874
471.269	4148
471.347	3797
471.426	4630
471.505	4107
471.583	6093
471.662	5617
471.740	5054
471.819	5133
471.898	4124
471.976	5254
472.055	4314
472.133	4696
472.212	6849
472.290	6752
472.369	5015
472.447	4302
472.526	4104
472.604	3659
472.683	5069
472.761	5014
472.839	4229
472.918	4248
472.996	3518
473.075	5893
473.153	5118
473.231	4753
473.310	4298
473.388	5117
473.466	5237
473.545	4402
473.623	6811
473.701	7098
473.780	5441
473.858	5970
473.936	10481
474.014	6202
474.093	4965
474.171	6821
474.249	10278
474.327	7424
474.405	3667
474.484	2858
474.562	3764
474.640	3561
474.718	4458
474.796	4710
474.874	4370
474.952	3215
475.030	3719
475.108	3761
475.187	4476
475.265	4928
475.343	5744
475.421	5507
475.499	3977
475.577	4615
475.655	5397
475.733	9975
475.811	20183
475.889	18658
475.966	14956
476.044	3949
476.122	3930
476.200	4672
476.278	5390
476.356	4228
476.434	3480
476.512	4208
476.590	5213
476.667	4871
476.745	2877
476.823	4115
476.901	3317
476.979	3213
477.056	3591
477.134	5095
477.212	8411
477.290	5619
477.367	2992
477.445	3766
477.523	3024
477.601	3045
477.678	2785
477.756	4272
477.834	5806
477.911	3942
477.989	2879
478.066	2862
478.144	4198
478.222	3326
478.299	4263
478.377	4513
478.454	3539
478.532	3912
478.609	3612
478.687	3324
478.764	2214
478.842	3776
478.919	4168
478.997	2666
479.074	2913
479.152	3353
479.229	5639
479.307	4203
479.384	2349
479.461	2698
479.539	3129
479.616	4287
479.694	3781
479.771	3594
479.848	3432
479.926	4357
480.003	6693
480.080	3103
480.157	2573
480.235	2701
480.312	2737
480.389	3121
480.467	6486
480.544	9460
480.621	5028
480.698	3162
480.775	3489
480.853	4649
480.930	4699
481.007	3554
481.084	3668
481.161	4611
481.238	4706
481.315	2982
481.392	2965
481.470	4863
481.547	8075
481.624	3578
481.701	3113
481.778	2729
481.855	3454
481.932	3948
482.009	9810
482.086	8448
482.163	2887
482.240	3353
482.317	5281
482.393	5230
482.470	4207
482.547	3099
482.624	2965
482.701	2609
482.778	3711
482.855	2238
482.932	2200
483.009	2240
483.085	2818
483.162	3689
483.239	3313
483.316	1781
483.393	2548
483.469	2092
483.546	2782
483.623	3755
483.699	2689
483.776	2688
483.853	4093
483.930	5519
484.006	14061
484.083	28951
484.160	17582
484.236	20648
484.313	18215
484.389	13396
484.466	10884
484.543	9349
484.619	10499
484.696	10679
484.772	9890
484.849	11345
484.925	10177
485.002	9211
485.078	10817
485.155	10781
485.231	9411
485.308	8603
485.384	9651
485.461	10196
485.537	16824
485.614	23522
485.690	11711
485.766	8696
485.843	8605
485.919	11897
485.995	14506
486.072	8176
486.148	7832
486.224	7056
486.301	8349
486.377	8727
486.453	10363
486.530	9606
486.606	12456
486.682	14823
486.758	15784
486.835	19884
486.911	15196
486.987	22296
487.063	25276
487.139	28545
487.215	22291
487.292	12151
487.368	9169
487.444	9238
487.520	10241
487.596	10156
487.672	11314
487.748	15353
487.824	26641
487.900	14756
487.976	9147
488.052	8821
488.128	11673
488.204	9393
488.280	9115
488.356	10124
488.432	17700
488.508	34074
488.584	14663
488.660	7886
488.736	8000
488.812	7553
488.888	10973
488.964	12271
489.039	23656
489.115	41917
489.191	31256
489.267	8879
489.343	8448
489.418	7372
489.494	6983
489.570	5176
489.646	8004
489.722	7118
489.797	7271
489.873	8846
489.949	21594
490.024	25679
490.100	7859
490.176	6239
490.251	7697
490.327	10312
490.403	7396
490.478	5352
490.554	5113
490.629	4561
490.705	5523
490.781	5582
490.856	6051
490.932	6485
491.007	6865
491.083	6484
491.158	7018
491.234	7616
491.309	15478
491.385	21159
491.460	7573
491.536	6240
491.611	5664
491.686	5970
491.762	7781
491.837	14335
491.913	28094
491.988	35425
492.063	55773
492.139	18551
492.214	11527
492.289	4673
492.365	4315
492.440	5525
492.515	5300
492.590	5282
492.666	4505
492.741	5857
492.816	9867
492.891	6953
492.967	5968
493.042	4399
493.117	7261
493.192	8610
493.267	13875
493.342	62291
493.418	129963
493.493	26535
493.568	4988
493.643	5132
493.718	5556
493.793	6917
493.868	8782
493.943	6238
494.018	4360
494.093	3940
494.168	3893
494.243	2759
494.318	3484
494.393	2607
494.468	3537
494.543	2820
494.618	3773
494.693	3358
494.768	2758
494.842	3902
494.917	3116
494.992	3312
495.067	3091
495.142	3092
495.217	3581
495.292	4135
495.366	3433
495.441	6099
495.516	7368
495.591	9332
495.665	26081
495.740	83912
495.815	50331
495.890	6787
495.964	3514
496.039	5984
496.114	5036
496.188	4956
496.263	6912
496.338	4605
496.412	5010
496.487	6671
496.561	6470
496.636	6970
496.710	5837
496.785	5676
496.860	6859
496.934	6500
497.009	5777
497.083	5454
497.158	5971
497.232	6473
497.307	9172
497.381	8122
497.455	8625
497.530	12950
497.604	9908
497.679	9123
497.753	14819
497.827	22218
497.902	21804
497.976	22397
498.050	37844
498.125	155271
498.199	247939
498.273	46306
498.348	25940
498.422	20538
498.496	16953
498.570	15313
498.645	11749
498.719	11007
498.793	13137
498.867	18468
498.941	23264
499.016	48845
499.090	194534
499.164	113544
499.238	10364
499.312	6214
499.386	7637
499.460	7898
499.534	7329
499.609	7272
499.683	12344
499.757	13483
499.831	19950
499.905	98398
499.979	152985
500.053	22589
500.127	15565
500.201	11623
500.275	7217
500.349	5652
500.422	8254
500.496	9351
500.570	20203
500.644	49350
500.718	131390
500.792	48320
500.866	7069
500.940	8166
501.013	7217
501.087	6106
501.161	9601
501.235	15133
501.309	26712
501.382	85940
501.456	119014
501.530	21666
501.603	30746
501.677	17129
501.751	4827
501.825	6904
501.898	10312
501.972	34225
502.046	34195
502.119	6202
502.193	12203
502.266	39784
502.340	28995
502.413	12511
502.487	36445
502.561	24538
502.634	7399
502.708	4705
502.781	3961
502.855	3396
502.928	1942
503.002	2881
503.075	3009
503.149	2924
503.222	3828
503.295	3735
503.369	5333
503.442	6566
503.516	19209
503.589	68340
503.662	60709
503.736	15340
503.809	28194
503.882	30559
503.956	32249
504.029	42642
504.102	13931
504.175	14401
504.249	6106
504.322	3618
504.395	4515
504.468	2131
504.542	3161
504.615	2862
504.688	2141
504.761	1346
504.834	3273
504.907	3390
504.980	7855
505.053	4074
505.127	2702
505.200	6279
505.273	4717
505.346	3901
505.419	2654
505.492	2472
505.565	2351
505.638	1176
505.711	936
505.784	1514
505.857	1094
505.930	1241
506.003	958
506.076	2371
506.149	3007
506.221	4731
506.294	4292
506.367	8933
506.440	46485
506.513	43211
506.586	7115
506.659	3611
506.731	2064
506.804	2068
506.877	5021
506.950	4181
507.022	2511
507.095	2219
507.168	5174
507.241	2782
507.313	1436
507.386	1965
507.459	4862
507.531	2789
507.604	1318
507.677	2473
507.749	728
507.822	3427
507.894	6499
507.967	9276
508.040	5644
508.112	4165
508.185	3490
508.257	2950
508.330	5481
508.402	2643
508.475	3100
508.547	3907
508.620	3729
508.692	6172
508.765	5075
508.837	1875
508.909	2869
508.982	2305
509.054	4010
509.127	2541
509.199	2715
509.271	2673
509.344	1663
509.416	1915
509.488	2428
509.560	2420
509.633	2721
509.705	3144
509.777	2594
509.849	4486
509.922	3732
509.994	2561
510.066	3110
510.138	2492
510.210	7372
510.283	6922
510.355	6338
510.427	4168
510.499	4335
510.571	4076
510.643	3621
510.715	4898
510.787	6372
510.859	3439
510.931	5034
511.003	5016
511.076	5743
511.148	2755
511.219	3924
511.291	6440
511.363	9598
511.435	3857
511.507	3366
511.579	3461
511.651	4026
511.723	2920
511.795	2469
511.867	2988
511.939	3388
512.010	8380
512.082	8953
512.154	3148
512.226	3439
512.298	4943
512.369	9172
512.441	7654
512.513	6512
512.585	4756
512.656	4500
512.728	4637
512.800	4060
512.871	3699
512.943	3803
513.015	2827
513.086	4324
513.158	4719
513.230	3919
513.301	5302
513.373	9804
513.444	5004
513.516	4606
513.588	2951
513.659	4337
513.731	5720
513.802	4275
513.874	6392
513.945	16616
514.016	7551
514.088	3629
514.159	3334
514.231	5490
514.302	7483
514.374	6048
514.445	4521
514.516	10100
514.588	9879
514.659	5227
514.730	8878
514.802	9246
514.873	6044
514.944	8173
515.016	4863
515.087	5302
515.158	5857
515.229	11943
515.301	6800
515.372	10970
515.443	6101
515.514	5106
515.585	3986
515.656	3921
515.728	2998
515.799	3919
515.870	3748
515.941	4508
516.012	3731
516.083	6173
516.154	5881
516.225	8492
516.296	7968
516.367	5753
516.438	6007
516.509	8529
516.580	10911
516.651	21870
516.722	96146
516.793	76222
516.864	12960
516.935	13425
517.006	12300
517.077	15056
517.148	29388
517.219	85200
517.289	218102
517.360	78119
517.431	35509
517.502	6196
517.573	4988
517.643	4803
517.714	6023
517.785	7303
517.856	5091
517.926	8774
517.997	9349
518.068	12081
518.138	15936
518.209	20297
518.280	53717
518.350	282507
518.421	186010
518.492	18577
518.562	8064
518.633	7324
518.703	6267
518.774	7240
518.845	12108
518.915	16329
518.986	7591
519.056	7272
519.127	12865
519.197	21494
519.268	49035
519.338	53103
519.408	10484
519.479	8129
519.549	6486
519.620	5404
519.690	3836
519.760	3038
519.831	2940
519.901	3583
519.971	3057
520.042	3512
520.112	4873
520.182	4956
520.253	6250
520.323	3632
520.393	4394
520.463	10554
520.534	4645
520.604	14688
520.674	9104
520.744	6405
520.814	12905
520.885	17890
520.955	12788
521.025	60398
521.095	45663
521.165	6188
521.235	3513
521.305	3272
521.375	2786
521.445	3927
521.515	3525
521.585	5212
521.655	4276
521.725	4047
521.795	3832
521.865	1577
521.935	4716
522.005	5584
522.075	2527
522.145	3338
522.215	3152
522.285	5946
522.355	6519
522.424	14996
522.494	17415
522.564	6973
522.634	8941
522.704	34912
522.774	21165
522.843	4551
522.913	2558
522.983	4666
523.053	3627
523.122	4552
523.192	3997
523.262	15102
523.331	24346
523.401	4899
523.471	1791
523.540	2438
523.610	2178
523.680	1282
523.749	2270
523.819	2173
523.888	3501
523.958	1862
524.027	1919
524.097	2528
524.166	2333
524.236	2187
524.305	2800
524.375	1850
524.444	1182
524.514	3325
524.583	2090
524.653	2446
524.722	4063
524.791	2915
524.861	2290
524.930	1268
524.999	1673
525.069	3224
525.138	2055
525.207	3753
525.277	3452
525.346	2593
525.415	1631
525.484	2130
525.554	2116
525.623	3111
525.692	2269
525.761	2308
525.830	1486
525.900	2381
525.969	2885
526.038	4829
526.107	5058
526.176	18216
526.245	20716
526.314	8813
526.383	11590
526.452	16339
526.522	21302
526.591	37408
526.660	21279
526.729	10936
526.797	9928
526.867	15684
526.935	77428
527.004	114202
527.073	65083
527.142	8152
527.211	3831
527.280	2462
527.349	4245
527.418	1164
527.487	2465
527.555	1469
527.624	623
527.693	1321
527.762	2537
527.831	1505
527.899	1072
527.968	1585
528.037	591
528.106	2000
528.174	4410
528.243	4650
528.312	3994
528.380	10713
528.449	2754
528.518	2048
528.586	-1
528.655	1098
528.723	1071
528.792	307
528.861	493
528.929	727
528.998	1665
529.066	1132
529.135	611
529.203	492
529.272	304
529.340	2332
529.409	1739
529.477	1126
529.545	796
529.614	3510
529.682	2645
529.751	3823
529.819	3994
529.887	2937
529.956	1228
530.024	1838
530.092	506
530.161	2706
530.229	3363
530.297	1916
530.365	1749
530.434	870
530.502	122
530.570	2253
530.638	-968
530.707	797
530.775	2304
530.843	981
530.911	1303
530.979	1338
531.047	274
531.115	1735
531.183	449
531.252	1567
531.320	546
531.388	994
531.456	1489
531.524	50
531.592	1271
531.660	1946
531.728	711
531.796	1500
531.864	857
531.932	1441
532.000	714
532.067	1064
532.135	1576
532.203	2079
532.271	2035
532.339	4189
532.407	14574
532.475	12898
532.542	4461
532.610	4490
532.678	4849
532.746	16157
532.814	70085
532.881	28945
532.949	4060
533.017	1746
533.084	1559
533.152	1261
533.220	975
533.287	2109
533.355	757
533.423	480
533.490	802
533.558	1773
533.625	2089
533.693	1895
533.761	2055
533.828	2651
533.896	817
533.963	5375
534.031	7118
534.098	8456
534.166	4703
534.233	1998
534.300	1657
534.368	1890
534.435	1139
534.503	2177
534.570	1694
534.637	1371
534.705	1553
534.772	2238
534.840	1362
534.907	7117
534.974	15263
535.041	4430
535.109	1663
535.176	1229
535.243	1382
535.310	1364
535.378	698
535.445	1214
535.512	1521
535.579	1047
535.646	-24
535.714	2066
535.781	1987
535.848	2887
535.915	2105
535.982	2658
536.049	2512
536.116	3480
536.183	1566
536.250	2382
536.317	1757
536.384	2882
536.451	3855
536.518	4814
536.585	2090
536.652	3766
536.719	6210
536.786	5407
536.853	3025
536.920	3930
536.987	9313
537.053	6965
537.120	25066
537.187	39469
537.254	4058
537.321	943
537.388	1865
537.454	1467
537.521	431
537.588	559
537.654	1938
537.721	2336
537.788	2631
537.855	1022
537.921	1417
537.988	1809
538.055	1894
538.121	2437
538.188	2148
538.254	3255
538.321	8795
538.388	8498
538.454	2180
538.521	2026
538.587	1628
538.654	866
538.720	1729
538.787	2181
538.853	1304
538.920	2273
538.986	2934
539.053	2932
539.119	2227
539.185	2021
539.252	2540
539.318	4102
539.385	4209
539.451	2872
539.517	3390
539.583	3780
539.650	5031
539.716	23417
539.782	11858
539.849	2216
539.915	2033
539.981	1633
540.047	2728
540.114	2682
540.180	3033
540.246	2671
540.312	2796
540.378	6718
540.444	12373
540.510	6952
540.576	24916
540.643	13799
540.709	2362
540.775	3043
540.841	1558
540.907	4188
540.973	6242
541.039	5479
541.105	6361
541.171	3249
541.237	1942
541.303	2379
541.369	3650
541.435	2909
541.500	7262
541.566	6783
541.632	1472
541.698	1533
541.764	2742
541.830	1967
541.896	1602
541.961	1282
542.027	1476
542.093	1912
542.159	2212
542.224	2657
542.290	4201
542.356	7316
542.421	12239
542.487	6271
542.553	2487
542.618	3421
542.684	3073
542.750	2180
542.815	2743
542.881	4837
542.947	17427
543.012	25189
543.078	2853
543.143	1871
543.209	2401
543.274	1889
543.340	2789
543.405	5112
543.471	14525
543.536	4274
543.602	2364
543.667	1741
543.732	2245
543.798	1828
543.863	2196
543.928	1456
543.994	1347
544.059	2184
544.124	2980
544.190	1577
544.255	2328
544.320	2980
544.386	1161
544.451	3714
544.516	4746
544.581	4748
544.646	9124
544.712	26910
544.777	7978
544.842	2827
544.907	3412
544.972	3299
545.037	2338
545.102	3536
545.168	1675
545.233	3512
545.298	4339
545.363	3877
545.428	4453
545.493	7408
545.558	17214
545.623	11794
545.688	2884
545.753	3382
545.818	2920
545.883	3568
545.947	2988
546.012	3691
546.077	3010
546.142	3786
546.207	2746
546.272	3719
546.337	4636
546.401	3961
546.466	3813
546.531	2780
546.596	4052
546.661	3300
546.725	3999
546.790	3112
546.855	2357
546.919	2233
546.984	3521
547.049	3273
547.113	4222
547.178	3390
547.243	3384
547.307	5466
547.372	4846
547.436	6333
547.501	4046
547.565	4326
547.630	4547
547.695	6221
547.759	5548
547.823	5485
547.888	4088
547.952	4314
548.017	4207
548.081	5345
548.146	6145
548.210	7814
548.274	3617
548.339	3564
548.403	3887
548.468	3222
548.532	3271
548.596	3837
548.660	3341
548.725	3792
548.789	4512
548.853	7445
548.917	5134
548.982	5196
549.046	7336
549.110	3719
549.174	4018
549.238	3254
549.303	2671
549.367	5534
549.431	3924
549.495	3989
549.559	3563
549.623	4109
549.687	4526
549.751	6965
549.815	5559
549.879	6541
549.943	4223
550.007	4862
550.071	6207
550.135	6445
550.199	5565
550.263	5568
550.327	5238
550.391	7144
550.455	6559
550.519	6077
550.582	5332
550.646	6432
550.710	8586
550.774	7036
550.838	4986
550.901	5356
550.965	6765
551.029	5737
551.093	8017
551.156	8340
551.220	15010
551.284	22943
551.347	11136
551.411	16977
551.475	27246
551.538	10132
551.602	5669
551.666	5449
551.729	4629
551.793	5585
551.856	5413
551.920	5701
551.983	5290
552.047	4803
552.110	4827
552.174	4700
552.237	4822
552.301	4766
552.364	4647
552.428	4239
552.491	4387
552.554	5143
552.618	4693
552.681	6340
552.745	5154
552.808	7887
552.871	11453
552.934	8658
552.998	4774
553.061	6475
553.124	6191
553.187	6936
553.251	6680
553.314	8228
553.377	8581
553.440	12862
553.503	29634
553.567	84006
553.630	26501
553.693	6787
553.756	6865
553.819	5855
553.882	4943
553.945	5228
554.008	3942
554.071	4375
554.134	4647
554.197	3700
554.260	4779
554.323	5780
554.386	4721
554.449	4964
554.512	5055
554.575	4246
554.638	4969
554.701	5781
554.764	4559
554.827	4364
554.889	4634
554.952	4311
555.015	3511
555.078	4491
555.141	4579
555.203	4140
555.266	4132
555.329	4377
555.391	4035
555.454	3756
555.517	4885
555.580	4308
555.642	4324
555.705	4881
555.768	4647
555.830	4069
555.893	3831
555.955	3595
556.018	3543
556.080	3984
556.143	3305
556.206	4121
556.268	4815
556.330	4764
556.393	4195
556.455	4613
556.518	5388
556.580	8097
556.643	4023
556.705	4176
556.767	2731
556.830	5194
556.892	4722
556.955	6235
557.017	7082
557.079	4496
557.142	3593
557.204	3761
557.266	7656
557.328	10298
557.391	3850
557.453	3991
557.515	3910
557.577	4580
557.639	5473
557.701	4437
557.764	2626
557.826	3380
557.888	4664
557.950	4000
558.012	4162
558.074	4432
558.136	6582
558.198	16741
558.260	11494
558.322	4900
558.384	5914
558.446	6594
558.508	6722
558.570	8739
558.632	12058
558.694	22199
558.756	16215
558.818	26803
558.880	96310
558.942	56910
559.003	19098
559.065	15781
559.127	6956
559.189	6281
559.251	7209
559.312	8824
559.374	13932
559.436	47286
559.498	48522
559.559	9073
559.621	6892
559.683	6832
559.744	10361
559.806	20794
559.868	46330
559.929	16975
559.991	8198
560.052	8953
560.114	15524
560.176	17911
560.237	9801
560.299	19271
560.360	10021
560.422	5623
560.483	5108
560.545	5291
560.606	4188
560.667	4570
560.729	4405
560.790	4289
560.852	4608
560.913	5023
560.974	4416
561.036	4270
561.097	4546
561.158	5304
561.220	5760
561.281	4848
561.342	4466
561.403	6803
561.465	6687
561.526	12901
561.587	23872
561.648	8729
561.709	5856
561.771	5382
561.832	5075
561.893	5408
561.954	5259
562.015	5628
562.076	5008
562.137	5277
562.198	4414
562.259	5034
562.320	4691
562.381	5744
562.442	7423
562.503	7556
562.564	6132
562.625	4762
562.686	5606
562.747	5589
562.808	5109
562.869	5363
562.930	7475
562.991	6514
563.051	6245
563.112	5842
563.173	5830
563.234	5082
563.294	5265
563.355	5827
563.416	5678
563.477	5890
563.537	5804
563.598	6396
563.659	6150
563.720	5968
563.780	5733
563.841	7157
563.901	6094
563.962	6529
564.023	5882
564.083	6859
564.144	6683
564.204	6471
564.265	6142
564.325	7359
564.386	11200
564.446	14413
564.507	6682
564.567	6135
564.628	6405
564.688	6049
564.749	6404
564.809	7691
564.869	8715
564.930	7758
564.990	7648
565.050	6434
565.111	7781
565.171	7227
565.231	6092
565.292	7818
565.352	6827
565.412	7947
565.472	7660
565.532	8177
565.593	7897
565.653	8052
565.713	7645
565.773	8729
565.833	8817
565.893	12399
565.953	9034
566.013	9589
566.074	10523
566.134	12162
566.194	14084
566.254	17148
566.314	13563
566.374	11571
566.434	11645
566.494	11827
566.554	11416
566.614	12317
566.673	12524
566.733	12901
566.793	14398
566.853	15128
566.913	14586
566.973	15810
567.033	15996
567.092	16848
567.152	15613
567.212	16448
567.272	16123
567.331	18188
567.391	18552
567.451	18982
567.511	20279
567.570	22623
567.630	18577
567.690	17355
567.749	17263
567.809	20618
567.868	21605
567.928	24242
567.988	28135
568.047	33615
568.107	38631
568.166	48234
568.226	66373
568.285	96060
568.345	97846
568.404	84214
568.464	75557
568.523	72712
568.582	72113
568.642	77411
568.701	86304
568.761	109495
568.820	153135
568.879	179219
568.939	149147
568.998	119256
569.057	97314
569.116	79399
569.176	67434
569.235	56749
569.294	50111
569.353	44356
569.413	39175
569.472	34731
569.531	30846
569.590	28987
569.649	26210
569.708	24465
569.767	22387
569.827	22824
569.886	21011
569.945	19090
570.004	18122
570.063	17128
570.122	16988
570.181	16747
570.240	15844
570.299	16493
570.358	16253
570.417	14286
570.475	13094
570.534	13681
570.593	12866
570.652	13148
570.711	13912
570.770	11954
570.829	13256
570.887	12038
570.946	12135
571.005	12181
571.064	11156
571.122	12024
571.181	12564
571.240	12093
571.299	10676
571.357	11275
571.416	12024
571.475	11551
571.533	12654
571.592	11119
571.650	10846
571.709	10540
571.768	10077
571.826	10448
571.885	9392
571.943	9554
572.002	9525
572.060	10504
572.119	10048
572.177	9076
572.236	9757
572.294	9457
572.352	8876
572.411	8393
572.469	8895
572.528	9523
572.586	10144
572.644	8901
572.703	11297
572.761	10845
572.819	8911
572.877	10027
572.936	8439
572.994	9542
573.052	9304
573.110	9394
573.169	9798
573.227	9413
573.285	9441
573.343	8594
573.401	8624
573.459	8983
573.517	7947
573.576	9901
573.634	9492
573.692	9572
573.750	8536
573.808	8371
573.866	10005
573.924	10716
573.982	10936
574.040	9549
574.098	9426
574.155	9028
574.213	9720
574.271	8965
574.329	9157
574.387	9473
574.445	8894
574.503	8729
574.560	8095
574.618	8386
574.676	8611
574.734	8900
574.792	9549
574.849	9243
574.907	9257
574.965	8971
575.022	8475
575.080	8031
575.138	8869
575.195	8542
575.253	10063
575.311	10234
575.368	9582
575.426	8482
575.483	10455
575.541	9063
575.598	8371
575.656	9549
575.713	9013
575.771	9620
575.828	9190
575.886	10188
575.943	10856
576.001	10035
576.058	9609
576.115	10078
576.173	11859
576.230	12080
576.287	12922
576.345	12130
576.402	11266
576.459	10261
576.517	10754
576.574	10877
576.631	11292
576.688	10653
576.746	9473
576.803	10263
576.860	10645
576.917	10156
576.974	10138
577.031	10963
577.089	11011
577.146	10475
577.203	11990
577.260	11833
577.317	11513
577.374	11422
577.431	12092
577.488	12235
577.545	11516
577.602	12257
577.659	12258
577.716	12783
577.773	13550
577.830	13811
577.886	11807
577.943	13051
578.000	12184
578.057	12891
578.114	14260
578.171	15685
578.227	18685
578.284	19242
578.341	18437
578.398	17583
578.454	15517
578.511	15564
578.568	15752
578.625	14830
578.681	13721
578.738	13412
578.794	13090
578.851	13877
578.908	13413
578.964	13605
579.021	14427
579.077	13361
579.134	13122
579.190	13427
579.247	12523
579.303	12336
579.360	12115
579.416	12887
579.473	13084
579.529	13528
579.586	12516
579.642	14660
579.698	13865
579.755	15007
579.811	15221
579.867	16011
579.924	14945
579.980	16444
580.036	18090
580.093	21530
580.149	25343
580.205	31241
580.261	29908
580.317	25890
580.374	22927
580.430	21804
580.486	20102
580.542	17772
580.598	17052
580.619	17082
580.654	17156
580.692	16771
580.710	16612
580.765	16570
580.767	16588
580.823	16647
580.838	16621
580.879	16602
580.911	16169
580.935	15892
580.984	16482
580.991	16582
581.047	17339
581.057	17288
581.103	17186
581.130	17449
581.159	17756
581.203	18662
581.215	18915
581.270	19900
581.276	19751
581.326	18477
581.349	18320
581.382	18134
581.422	17986
581.438	17944
581.494	17696
581.494	17682
581.550	17767
581.567	17697
581.606	17569
581.640	17246
581.661	17056
581.713	17572
581.717	17635
581.773	16519
581.786	16608
581.829	16877
581.859	17261
581.885	17624
581.932	16919
581.940	16808
581.996	17514
582.004	17462
582.052	17147
582.077	17238
582.107	17410
582.150	18054
582.163	18257
582.219	17132
582.223	17206
582.274	18309
582.296	18434
582.330	18560
582.368	18904
582.386	19109
582.441	18547
582.441	18553
582.497	19314
582.514	19302
582.552	19498
582.587	19674
582.608	19726
582.659	19444
582.663	19426
582.719	19398
582.732	19448
582.774	19566
582.805	20001
582.830	20512
582.877	20374
582.885	20310
582.941	20756
582.950	20885
582.996	21717
583.023	22065
583.052	22484
583.095	23347
583.107	23619
583.162	25366
583.168	25709
583.218	28841
583.240	28598
583.273	27844
583.313	26209
583.328	25624
583.384	24768
583.385	24744
583.439	24168
583.458	23993
583.494	23669
583.531	22962
583.549	22644
583.603	22574
583.605	22566
583.660	22540
583.676	22656
583.715	22895
583.748	22692
583.770	22654
583.820	22864
583.825	22882
583.881	22728
583.893	22834
583.936	23095
583.965	23218
583.991	23266
584.038	23280
584.046	23313
584.101	23767
584.110	23813
584.156	23770
584.183	23511
584.211	23306
584.255	23893
584.266	24016
584.321	23737
584.328	23893
584.376	25235
584.400	25217
584.431	25100
584.472	25193
584.486	25185
584.541	25888
584.545	25896
584.596	25943
584.617	25816
584.651	25874
584.689	26915
584.706	27222
584.761	27805
584.762	27823
584.816	28417
584.834	28476
584.871	28462
584.906	28640
584.926	28745
584.978	28959
584.980	28948
585.035	29709
585.051	29868
585.090	30453
585.123	30661
585.145	30844
585.195	32024
585.200	32102
585.254	32532
585.267	32997
585.309	35283
585.340	37619
585.364	39009
585.412	39132
585.419	38854
585.473	36142
585.484	36050
585.528	37332
585.556	38475
585.583	40121
585.628	42945
585.637	44214
585.692	55598
585.700	58420
585.747	75820
585.772	78448
585.801	70517
585.845	52294
585.856	49038
585.910	42726
585.917	42146
585.965	41238
585.989	41136
586.019	41347
586.061	42027
586.074	42295
586.128	42896
586.133	43079
586.183	44665
586.205	45049
586.237	45253
586.277	46382
586.292	46779
586.346	48131
586.349	48222
586.401	48434
586.421	48711
586.455	49747
586.493	51248
586.509	52377
586.564	56931
586.565	57139
586.618	66995
586.637	70662
586.672	72094
586.709	66864
586.727	63288
586.781	59238
586.781	59168
586.835	59891
586.853	60616
586.889	61961
586.925	63205
586.944	63956
586.996	66704
586.998	66677
587.052	68648
587.068	69480
587.106	71504
587.140	73174
587.161	73823
587.212	77093
587.215	77157
587.269	81052
587.284	82019
587.323	84537
587.356	87288
587.377	88679
587.427	92214
587.431	92356
587.485	97152
587.499	98681
587.539	102197
587.571	105629
587.593	108368
587.643	114668
587.648	115004
587.702	122333
587.715	124244
587.755	130259
587.786	135836
587.810	139491
587.858	147920
587.864	148782
587.917	161689
587.930	165030
587.971	175469
588.001	184670
588.025	192138
588.073	206691
588.079	208246
588.133	228871
588.145	233945
588.187	252221
588.217	266951
588.241	279821
588.288	306990
588.295	310698
588.348	349255
588.360	358121
588.402	392752
588.431	418766
588.456	443007
588.503	493376
588.510	502062
588.564	577883
588.575	594499
588.617	674600
588.646	730073
588.671	795853
588.718	921547
588.725	948876
588.778	1158050
588.789	1199388
588.832	1379029
588.861	1498042
588.886	1499611
588.932	1491867
588.939	1465241
588.993	1187557
589.004	1144403
589.047	1366375
589.075	1507645
589.100	1536260
589.147	1553613
589.154	1525428
589.207	1287456
589.218	1236832
589.261	1126708
589.290	1052158
589.314	1047828
589.361	1043408
589.368	1059284
589.421	1190843
589.433	1218080
589.475	1369691
589.504	1474879
589.528	1450233
589.576	1369618
589.582	1369966
589.635	1367882
589.647	1366672
589.689	1382257
589.718	1378276
589.742	1238767
589.790	949475
589.795	928436
589.849	722012
589.861	674568
589.902	583168
589.932	515855
589.955	477675
590.004	401232
590.009	395252
590.062	340350
590.075	327879
590.115	296273
590.146	273578
590.168	260288
590.218	234183
590.222	231785
590.275	209039
590.289	203826
590.328	191548
590.360	182564
590.381	175486
590.431	161160
590.435	159992
590.488	147579
590.503	144882
590.541	137699
590.574	131992
590.594	127736
590.645	118827
590.647	118234
590.700	111844
590.716	110315
590.753	104994
590.787	100965
590.806	98680
590.859	93513
590.859	93145
590.912	87952
590.930	86681
590.965	83989
591.001	81776
591.018	80322
591.071	76556
591.072	76756
591.124	73354
591.143	72377
591.177	70560
591.214	69186
591.230	68157
591.283	65569
591.285	65673
591.336	64232
591.356	63895
591.389	62347
591.427	60938
591.442	60028
591.495	57446
591.498	57432
591.547	55643
591.569	55190
591.600	54043
591.640	52690
591.653	52219
591.706	51041
591.711	51099
591.759	50406
591.782	50212
591.811	50512
591.853	51427
591.864	50687
591.917	47525
591.924	47224
591.969	45500
591.995	44701
592.022	44012
592.066	43339
592.075	43239
592.127	43432
592.137	43624
592.180	46591
592.208	48683
592.233	46337
592.279	42118
592.285	41609
592.338	38375
592.350	37766
592.390	36969
592.421	36619
592.443	36446
592.491	36451
592.495	36215
592.548	34623
592.562	34313
592.600	34539
592.633	34951
592.653	34406
592.704	33115
592.705	33296
592.775	33065
592.846	31690
592.916	33217
592.987	32552
593.058	32977
593.128	30348
593.199	30145
593.270	29254
593.341	28687
593.411	27164
593.482	28522
593.553	27596
593.623	26739
593.694	27227
593.764	28103
593.835	26985
593.906	26537
593.976	25706
594.047	25777
594.117	27945
594.188	30053
594.258	25539
594.329	24181
594.399	23820
594.470	23674
594.540	23514
594.611	22694
594.681	23178
594.751	23966
594.822	23966
594.892	24820
594.963	25260
595.033	24203
595.103	23376
595.174	24322
595.244	30464
595.314	42400
595.384	29277
595.455	22723
595.525	22718
595.595	21907
595.665	22627
595.736	22628
595.806	21853
595.876	21251
595.946	21344
596.016	21986
596.087	20846
596.157	21603
596.227	21477
596.297	20821
596.367	21827
596.437	23953
596.507	27243
596.577	37252
596.647	27651
596.717	21189
596.787	21384
596.857	21017
596.927	21502
596.997	22358
597.067	21875
597.137	23979
597.207	25981
597.277	22403
597.347	21363
597.417	21123
597.487	21835
597.557	22590
597.626	21270
597.696	22948
597.766	25860
597.836	33968
597.906	28991
597.975	21533
598.045	19967
598.115	19870
598.185	19489
598.254	21719
598.324	22071
598.394	22503
598.464	22514
598.533	22023
598.603	19785
598.672	20448
598.742	20620
598.812	20227
598.881	19945
598.951	20499
599.020	18823
599.090	19910
599.159	20176
599.229	19878
599.299	19261
599.368	19895
599.437	18768
599.507	20146
599.576	20030
599.646	21368
599.715	24123
599.785	21003
599.854	20314
599.924	22399
599.993	22860
600.062	19647
600.132	19301
600.201	20077
600.270	20682
600.340	22435
600.409	20128
600.478	20118
600.547	20561
600.617	20768
600.686	19206
600.755	19414
600.824	20210
600.894	19872
600.963	17999
601.032	18172
601.101	18564
601.170	17901
601.239	18022
601.308	17606
601.378	18323
601.447	18349
601.516	17858
601.585	18736
601.654	18823
601.723	19646
601.792	19082
601.861	19779
601.930	24494
601.999	24811
602.068	20141
602.137	19693
602.206	20207
602.275	19988
602.343	21201
602.412	24187
602.481	19984
602.550	19283
602.619	18597
602.688	19711
602.756	19691
602.825	19353
602.894	18461
602.963	19180
603.032	18805
603.100	19216
603.169	18165
603.238	18679
603.307	18655
603.375	18553
603.444	18987
603.513	18732
603.581	18753
603.650	18662
603.719	17931
603.787	17864
603.856	18273
603.924	17573
603.993	20077
604.061	18561
604.130	18701
604.198	19340
604.267	18799
604.335	18875
604.404	18637
604.472	19110
604.541	18903
604.609	19396
604.678	19242
604.746	17975
604.815	19006
604.883	20113
604.951	20077
605.020	19374
605.088	19381
605.156	19036
605.225	19132
605.293	18816
605.361	19566
605.429	19653
605.498	19606
605.566	20453
605.634	20379
605.702	19886
605.771	19855
605.839	20605
605.907	20108
605.975	18942
606.043	19441
606.111	19510
606.180	20049
606.248	23723
606.316	29167
606.384	22110
606.452	22645
606.520	24223
606.588	21517
606.656	17600
606.724	18295
606.792	17120
606.860	15827
606.928	15696
606.996	15371
607.064	14990
607.132	14297
607.200	15267
607.267	16083
607.335	15809
607.403	14993
607.471	16248
607.539	15081
607.607	14951
607.674	14634
607.742	14659
607.810	15422
607.878	15798
607.946	14503
608.013	15137
608.081	15486
608.149	16634
608.216	14377
608.284	15660
608.352	15348
608.419	16364
608.487	19114
608.555	21398
608.622	15718
608.690	15351
608.757	14988
608.825	16753
608.893	17103
608.960	17732
609.028	21651
609.095	23941
609.163	19985
609.230	16899
609.298	15924
609.365	14331
609.432	14861
609.500	16848
609.567	16421
609.635	18118
609.702	18737
609.769	19451
609.837	19459
609.904	18968
609.971	17593
610.039	20221
610.106	25735
610.173	42038
610.241	98501
610.308	160550
610.375	126591
610.442	43885
610.509	21307
610.577	18691
610.644	17152
610.711	16119
610.778	16260
610.845	16047
610.912	17181
610.980	20121
611.047	28377
611.114	28676
611.181	17456
611.248	15291
611.315	15986
611.382	15824
611.449	16555
611.516	16533
611.583	16344
611.650	16226
611.717	16575
611.784	18004
611.851	17606
611.918	20475
611.984	23226
612.051	30235
612.118	56702
612.185	146465
612.252	199338
612.319	45894
612.386	22977
612.452	20138
612.519	20479
612.586	24368
612.653	25512
612.719	18537
612.786	18065
612.853	17391
612.919	15985
612.986	16174
613.053	15461
613.120	15740
613.186	14327
613.253	16773
613.319	15015
613.386	15101
613.453	15793
613.519	16838
613.586	18896
613.652	28884
613.719	25576
613.785	24535
613.852	17533
613.918	16959
613.985	19338
614.051	27660
614.118	57745
614.184	100549
614.250	31072
614.317	16532
614.383	15131
614.449	15996
614.516	14967
614.582	16124
614.648	16748
614.715	15163
614.781	15360
614.847	15799
614.914	17097
614.980	17008
615.046	16048
615.112	16806
615.179	17913
615.245	20000
615.311	26732
615.377	45340
615.443	74018
615.509	48482
615.575	27431
615.642	21822
615.708	21309
615.774	22402
615.840	24335
615.906	31999
615.972	51240
616.038	102618
616.104	187067
616.170	244701
616.236	348875
616.302	95998
616.368	38331
616.434	30109
616.500	24028
616.565	24590
616.631	26816
616.697	25923
616.763	22499
616.829	27424
616.895	44405
616.961	59793
617.026	37962
617.092	21425
617.158	18556
617.224	16674
617.289	16990
617.355	16541
617.421	16509
617.487	17062
617.552	16161
617.618	15598
617.684	13756
617.749	15572
617.815	13747
617.880	14449
617.946	13981
618.012	14958
618.077	15634
618.143	14484
618.208	14230
618.274	16173
618.339	16909
618.405	14737
618.470	15153
618.536	14979
618.601	16826
618.667	16427
618.732	15052
618.798	14448
618.863	14302
618.928	14151
618.994	14729
619.059	16300
619.124	22005
619.190	21400
619.255	14696
619.320	14388
619.386	13970
619.451	13858
619.516	13724
619.581	13726
619.647	14665
619.712	14164
619.777	13234
619.842	14274
619.907	15085
619.972	14491
620.038	14348
620.103	14573
620.168	13622
620.233	13227
620.298	13538
620.363	13634
620.428	13462
620.493	14237
620.558	13493
620.623	12694
620.688	14569
620.753	12966
620.818	13709
620.883	13179
620.948	14807
621.013	13251
621.078	14508
621.143	13723
621.207	16021
621.272	15718
621.337	16852
621.402	16822
621.467	19331
621.532	23873
621.596	19664
621.661	17158
621.726	14534
621.791	15737
621.855	15358
621.920	17634
621.985	18128
622.049	20973
622.114	19981
622.179	19602
622.243	17384
622.308	18241
622.373	17774
622.437	17859
622.502	17308
622.566	15989
622.631	15541
622.695	16947
622.760	16550
622.824	16952
622.889	17414
622.953	17894
623.018	22915
623.082	30484
623.147	19052
623.211	16708
623.276	18233
623.340	16539
623.404	15388
623.469	14800
623.533	15512
623.597	15317
623.662	15138
623.726	15055
623.790	14291
623.854	14726
623.919	15756
623.983	15508
624.047	15447
624.111	15778
624.176	15132
624.240	16320
624.304	18486
624.368	16461
624.432	15964
624.496	15959
624.560	16767
624.625	20146
624.689	17404
624.753	14816
624.817	15095
624.881	14554
624.945	14822
625.009	13964
625.073	14665
625.137	15020
625.201	17783
625.265	22213
625.329	15074
625.393	15772
625.456	15810
625.520	15789
625.584	16677
625.648	19836
625.712	27589
625.776	59518
625.839	93139
625.903	59338
625.967	18977
626.031	24265
626.095	47196
626.158	30212
626.222	13880
626.286	12885
626.349	12139
626.413	12140
626.477	13532
626.540	13735
626.604	12180
626.668	12343
626.731	11343
626.795	12098
626.858	12712
626.922	11254
626.986	11900
627.049	10711
627.113	11191
627.176	11532
627.240	11562
627.303	10816
627.366	11130
627.430	11599
627.493	10837
627.557	11812
627.620	11154
627.684	10736
627.747	11320
627.810	11055
627.874	11292
627.937	10337
628.000	11821
628.064	11818
628.127	10295
628.190	9985
628.253	10292
628.317	10522
628.380	10633
628.443	9472
628.506	11004
628.569	10035
628.632	8886
628.696	9288
628.759	9307
628.822	9394
628.885	9292
628.948	9865
629.011	9822
629.074	9392
629.137	10127
629.200	9012
629.263	10301
629.326	9388
629.389	9253
629.452	9351
629.515	8737
629.578	9471
629.641	9253
629.704	10390
629.767	9855
629.830	9627
629.892	8433
629.955	8629
630.018	10309
630.081	9785
630.144	13661
630.207	11561
630.269	11865
630.332	10169
630.395	11145
630.458	8399
630.520	8369
630.583	8705
630.646	8068
630.708	7556
630.771	8690
630.834	8357
630.896	7192
630.959	7623
631.021	7571
631.084	7816
631.146	8909
631.209	10681
631.272	9766
631.334	8985
631.397	7593
631.459	8231
631.522	8157
631.584	8243
631.646	8645
631.709	9107
631.771	10875
631.834	11123
631.896	8629
631.958	7987
632.021	7238
632.083	7444
632.145	8174
632.208	7926
632.270	8399
632.332	7744
632.395	6839
632.457	8475
632.519	7869
632.581	7375
632.643	5979
632.706	8157
632.768	6643
632.830	7980
632.892	6537
632.954	7107
633.016	7633
633.078	6613
633.141	6357
633.203	7487
633.265	7241
633.327	6861
633.389	6568
633.451	7836
633.513	10236
633.575	10263
633.637	9974
633.698	9997
633.760	7804
633.822	6897
633.884	7198
633.946	7757
634.008	7467
634.070	8295
634.132	9883
634.193	10916
634.255	7187
634.317	6919
634.379	8418
634.441	8021
634.502	7351
634.564	7861
634.626	6987
634.687	8035
634.749	7886
634.811	6570
634.873	6134
634.934	7002
634.996	5789
635.057	6554
635.119	6528
635.181	6152
635.242	6452
635.304	6174
635.365	7633
635.427	6128
635.488	7019
635.550	6800
635.611	6291
635.673	5559
635.734	7329
635.796	7045
635.857	7929
635.918	6722
635.980	7203
636.041	7397
636.102	7348
636.164	7262
636.225	7068
636.286	6435
636.348	7048
636.409	6585
636.470	5513
636.531	6418
636.593	7307
636.654	8021
636.715	5770
636.776	5433
636.838	5262
636.899	6944
636.960	5812
637.021	5475
637.082	6162
637.143	6285
637.204	4467
637.265	6110
637.326	5493
637.387	5183
637.448	5227
637.509	5422
637.570	5976
637.631	5598
637.692	4527
637.753	4966
637.814	6129
637.875	5419
637.936	5837
637.997	5581
638.058	6133
638.119	5695
638.179	5636
638.240	5711
638.301	5440
638.362	5720
638.423	4891
638.483	5672
638.544	4121
638.605	5001
638.666	4375
638.726	5195
638.787	5654
638.848	5248
638.908	4876
638.969	4404
639.030	5366
639.090	4961
639.151	4560
639.211	5685
639.272	6658
639.332	10835
639.393	11373
639.453	5025
639.514	4968
639.574	5221
639.635	4244
639.695	5151
639.756	4919
639.816	5635
639.877	5518
639.937	8833
639.997	15688
640.058	8705
640.118	4518
640.178	4306
640.239	4470
640.299	4429
640.359	4437
640.420	4976
640.480	4273
640.540	5046
640.600	5384
640.661	5232
640.721	4167
640.781	6876
640.841	7026
640.901	5527
640.961	5212
641.021	4586
641.082	6371
641.142	8708
641.202	9008
641.262	4457
641.322	4758
641.382	4700
641.442	4446
641.502	5235
641.562	4506
641.622	3966
641.682	4306
641.742	4825
641.802	4857
641.861	5370
641.921	5265
641.981	5652
642.041	5556
642.101	6427
642.161	6329
642.221	4187
642.280	4155
642.340	3993
642.400	3205
642.460	5195
642.519	4083
642.579	4145
642.639	4155
642.698	3569
642.758	6058
642.818	4390
642.877	4317
642.937	4825
642.997	4434
643.056	7218
643.116	5836
643.175	5407
643.235	3203
643.294	4588
643.354	4981
643.414	4089
643.473	5010
643.532	5322
643.592	5883
643.651	9167
643.711	14909
643.770	26751
643.830	55397
643.889	170633
643.948	115693
644.008	12907
644.067	6362
644.126	4380
644.186	4691
644.245	4580
644.304	3507
644.363	4230
644.423	4032
644.482	3908
644.541	3380
644.600	3613
644.659	5173
644.719	4595
644.778	5555
644.837	7340
644.896	11767
644.955	26946
645.014	24648
645.073	8437
645.132	6339
645.191	5341
645.250	3301
645.309	4705
645.368	3676
645.427	4734
645.486	4341
645.545	8497
645.604	5684
645.663	4016
645.722	3677
645.781	4018
645.840	3573
645.898	4510
645.957	6128
646.016	7382
646.075	12297
646.134	21410
646.192	48111
646.251	131714
646.310	51259
646.369	7493
646.427	3938
646.486	4076
646.545	4147
646.603	4471
646.662	3360
646.721	4430
646.779	3229
646.838	2678
646.896	3331
646.955	4732
647.014	5387
647.072	6349
647.131	14542
647.189	19042
647.248	4687
647.306	3652
647.365	2702
647.423	2241
647.481	4026
647.540	2604
647.598	3844
647.657	3183
647.715	2433
647.773	2388
647.832	3247
647.890	1694
647.948	2613
648.007	3934
648.065	2547
648.123	2651
648.181	5124
648.240	5480
648.298	6480
648.356	3559
648.414	2613
648.472	3268
648.531	3093
648.589	3425
648.647	3047
648.705	3389
648.763	3087
648.821	2767
648.879	3650
648.937	3444
648.995	3756
649.053	2937
649.111	4479
649.169	6218
649.227	10038
649.285	15802
649.343	44028
649.401	61095
649.459	18057
649.516	19748
649.574	11250
649.632	20134
649.690	44092
649.748	18713
649.806	9625
649.863	20971
649.921	16962
649.979	16075
650.037	6183
650.094	2309
650.152	3222
650.210	2958
650.268	3834
650.325	3236
650.383	2948
650.440	2533
650.498	2466
650.556	2804
650.613	3133
650.671	3490
650.728	2636
650.786	3035
650.843	3158
650.901	2568
650.958	2357
651.016	2916
651.073	2306
651.131	3230
651.188	1318
651.246	2713
651.303	1913
651.360	2442
651.418	1370
651.475	2860
651.532	1918
651.590	3049
651.647	1421
651.704	2622
651.762	2125
651.819	2937
651.876	2221
651.933	2335
651.990	1869
652.048	1265
652.105	2189
652.162	3163
652.219	2211
652.276	2151
652.333	1743
652.390	1970
652.448	2531
652.505	2352
652.562	2624
652.619	2927
652.676	5008
652.733	10466
652.790	4457
652.847	1898
652.904	2890
652.961	1769
653.017	1277
653.074	3443
653.131	2360
653.188	2005
653.245	2163
653.302	2103
653.359	1969
653.415	2757
653.472	1663
653.529	2291
653.586	1799
653.642	2426
653.699	1715
653.756	1394
653.813	2505
653.869	2133
653.926	1435
653.983	2067
654.039	2115
654.096	1965
654.152	2595
654.209	2281
654.266	2730
654.322	2266
654.379	2992
654.435	2499
654.492	2641
654.548	4120
654.605	6149
654.661	6949
654.717	2033
654.774	2923
654.830	2745
654.887	2596
654.943	2749
655.000	3048
655.056	2862
655.112	3165
655.168	966
655.225	2399
655.281	2911
655.337	3383
655.394	6361
655.450	6239
655.506	4554
655.562	5106
655.618	8442
655.675	2590
655.731	2750
655.787	2337
655.843	2341
655.899	1863
655.955	2910
656.011	1901
656.067	1837
656.123	3204
656.179	3357
656.235	3496
656.291	2049
656.347	3359
656.403	2405
656.459	2870
656.515	2273
656.571	2970
656.627	2441
656.683	2055
656.739	3276
656.795	1716
656.850	2808
656.906	3127
656.962	2755
657.018	1470
657.074	2010
657.129	2206
657.185	1910
657.241	2513
657.297	2353
657.352	2975
657.408	1231
657.464	3162
657.519	2386
657.575	2063
657.630	1486
657.686	2140
657.742	723
657.797	2314
657.853	1752
657.908	3421
657.964	877
658.019	1516
658.075	2068
658.130	1894
658.186	1078
658.241	1759
658.297	1790
658.352	1700
658.407	2699
658.463	1394
658.518	2250
658.573	1740
658.629	511
658.684	2072
658.739	1848
658.795	1303
658.850	2229
658.905	2025
658.960	2319
659.016	1301
659.071	1389
659.126	2463
659.181	1532
659.236	3811
659.291	5446
659.346	3920
659.401	2613
659.457	3896
659.512	5335
659.567	5351
659.622	2107
659.677	1899
659.732	873
659.787	1796
659.842	1854
659.897	3469
659.952	2441
660.007	1455
660.061	1524
660.116	1218
660.171	1205
660.226	1693
660.281	2237
660.336	1585
660.391	1744
660.445	1615
660.500	1884
660.555	2459
660.610	1769
660.664	2269
660.719	1404
660.774	1813
660.828	1498
660.883	1043
660.938	1281
660.992	1694
661.047	1684
661.101	2097
661.156	1336
661.211	1658
661.265	1840
661.320	1090
661.374	1251
661.429	1610
661.483	2466
661.538	1693
661.592	958
661.647	1795
661.701	1472
661.755	1984
661.810	1901
661.864	1450
661.919	1492
661.973	1257
662.027	1584
662.081	838
662.136	1525
662.190	1333
662.244	2504
662.299	1731
662.353	1199
662.407	1129
662.461	1596
662.515	1105
662.569	1176
662.624	2111
662.678	1941
662.732	1943
662.786	1143
662.840	2010
662.894	2166
662.948	1243
663.002	1501
663.056	1459
663.110	995
663.164	1225
663.218	1619
663.272	979
663.326	2311
663.380	2524
663.434	2245
663.488	1287
663.542	1815
663.595	1842
663.649	218
663.703	2041
663.757	2018
663.811	942
663.864	565
663.918	1446
663.972	1539
664.026	2094
664.079	1108
664.133	1571
664.187	1514
664.240	1666
664.294	1421
664.348	1669
664.401	1655
664.455	1935
664.508	791
664.562	1576
664.615	1341
664.669	965
664.722	1450
664.776	920
664.829	1410
664.883	1709
664.936	629
664.990	1361
665.043	1713
665.097	1627
665.150	2798
665.203	1570
665.257	1131
665.310	1977
665.363	1583
665.417	2543
665.470	1633
665.523	988
665.576	1540
665.630	1705
665.683	1675
665.736	1782
665.789	1755
665.842	1597
665.895	1213
665.949	1536
666.002	1216
666.055	1336
666.108	2318
666.161	1788
666.214	1375
666.267	1913
666.320	2180
666.373	2488
666.426	1993
666.479	1060
666.532	2426
666.585	1483
666.638	3007
666.691	1706
666.744	2392
666.796	2259
666.849	2094
666.902	2485
666.955	2029
667.008	1499
667.060	1120
667.113	1370
667.166	1366
667.219	1790
667.271	935
667.324	1101
667.377	1086
667.430	2700
667.482	1881
667.535	3032
667.587	1035
667.640	2671
667.693	1741
667.745	3023
667.798	5076
667.850	3721
667.903	1272
667.955	1107
668.008	1641
668.060	2136
668.113	1381
668.165	2154
668.218	1476
668.270	2514
668.322	2262
668.375	1171
668.427	2262
668.479	1674
668.532	1501
668.584	1318
668.636	1181
668.689	2001
668.741	680
668.793	1713
668.845	1618
668.898	2191
668.950	1304
669.002	1403
669.054	1226
669.106	2320
669.158	1727
669.211	2051
669.263	1909
669.315	3326
669.367	3401
669.419	3618
669.471	2651
669.523	3068
669.575	4947
669.627	4893
669.679	3477
669.731	2335
669.783	2748
669.835	4219
669.886	2663
669.938	3745
669.990	2322
670.042	1492
670.094	2066
670.146	2560
670.197	3042
670.249	3867
670.301	4623
670.353	7332
670.404	9474
670.456	12676
670.508	22297
670.560	36774
670.611	66410
670.663	118766
670.715	224224
670.766	502275
670.818	376030
670.869	71741
670.921	22806
670.972	13487
671.024	9777
671.075	7584
671.127	5916
671.178	4202
671.230	3784
671.281	3193
671.333	3091
671.384	3182
671.436	2412
671.487	3317
671.538	2436
671.590	3850
671.641	4570
671.692	4829
671.744	6381
671.795	9386
671.846	4243
671.897	2838
671.949	2409
672.000	2116
672.051	1822
672.102	1750
672.153	1529
672.204	2137
672.256	1474
672.307	1390
672.358	1299
672.409	1538
672.460	1830
672.511	1629
672.562	664
672.613	2051
672.664	1635
672.715	1153
672.766	1040
672.817	1832
672.868	1216
672.919	1593
672.970	1463
673.021	1480
673.071	1586
673.122	2320
673.173	1175
673.224	1152
673.275	1738
673.326	1360
673.376	1491
673.427	618
673.478	945
673.528	1387
673.579	1947
673.630	1593
673.680	1397
673.731	1170
673.782	383
673.832	1792
673.883	1712
673.934	874
673.984	966
674.035	1214
674.085	1176
674.136	1897
674.186	456
674.237	1698
674.287	2634
674.338	3627
674.388	993
674.438	1198
674.489	816
674.539	1149
674.589	1440
674.640	1505
674.690	1408
674.740	747
674.791	1215
674.841	454
674.891	1679
674.942	1698
674.992	1151
675.042	1526
675.092	757
675.142	1207
675.193	663
675.243	1218
675.293	1337
675.343	1505
675.393	1128
675.443	1320
675.493	1290
675.543	225
675.593	1088
675.643	1629
675.693	819
675.743	1390
675.793	970
675.843	1050
675.893	947
675.943	1661
675.993	367
676.043	1362
676.093	1530
676.142	700
676.192	504
676.242	477
676.292	364
676.341	1680
676.391	1025
676.441	1081
676.491	923
676.540	842
676.590	1246
676.640	380
676.689	131
676.739	808
676.789	481
676.838	229
676.888	968
676.937	204
676.987	218
677.037	140
677.086	500
677.136	764
677.185	1524
677.235	900
677.284	1167
677.333	430
677.383	965
677.432	635
677.482	255
677.531	436
677.580	1028
677.630	510
677.679	876
677.728	1194
677.778	576
677.827	1095
677.876	1234
677.925	705
677.975	451
678.024	834
678.073	358
678.122	815
678.171	863
678.220	513
678.269	1199
678.319	1461
678.368	150
678.417	1147
678.466	882
678.515	1431
678.564	774
678.613	422
678.662	1074
678.711	966
678.760	627
678.809	1581
678.857	259
678.906	744
678.955	981
679.004	1124
679.053	1237
679.102	177
679.151	1418
679.199	67
679.248	518
679.297	388
679.346	763
679.394	1031
679.443	650
679.492	803
679.540	64
679.589	840
679.638	550
679.686	501
679.735	476
679.784	419
679.832	288
679.881	782
679.929	116
679.978	498
680.026	587
680.075	728
680.123	-230
680.172	559
680.220	95
680.268	1005
680.317	60
680.365	467
680.414	253
680.462	890
680.510	625
680.559	347
680.607	-76
680.655	663
680.703	408
680.752	672
680.800	-41
680.848	670
680.896	-34
680.945	337
680.993	328
681.041	113
681.089	54
681.137	83
681.185	39
681.233	-5
681.258	134
681.281	199
681.329	262
681.377	431
681.380	513
681.425	704
681.473	1614
681.502	1071
681.521	585
681.569	2015
681.617	1163
681.624	1281
681.665	1503
681.713	1540
681.745	1834
681.761	1879
681.809	1211
681.857	2310
681.867	2351
681.904	2205
681.952	2815
681.989	2671
682.000	2553
682.048	2005
682.096	2465
682.111	2486
682.143	2285
682.191	3190
682.233	3343
682.239	3302
682.286	3517
682.334	3301
682.354	3427
682.382	3408
682.430	3862
682.476	4092
682.477	4039
682.525	3579
682.572	4177
682.598	3917
682.620	3588
682.667	4293
682.715	3992
682.720	4141
682.763	4971
682.810	4265
682.841	4587
682.857	4657
682.905	4882
682.952	5706
682.963	5692
683.000	5430
683.047	5059
683.085	5625
683.095	5700
683.142	5681
683.190	5428
683.206	5886
683.237	6597
683.284	5815
683.328	6022
683.332	5987
683.379	6605
683.426	6857
683.449	6787
683.473	6637
683.521	6640
683.568	6790
683.571	6816
683.615	6471
683.662	6615
683.693	6867
683.709	6959
683.757	8023
683.804	7977
683.814	8115
683.851	8281
683.898	8478
683.936	7719
683.945	7503
683.992	8226
684.039	8271
684.057	8534
684.086	8843
684.133	8381
684.179	9022
684.180	9004
684.227	9593
684.274	9610
684.300	9679
684.321	9595
684.368	9134
684.415	8924
684.422	8975
684.462	9226
684.509	9637
684.543	10240
684.556	10336
684.603	9860
684.649	10259
684.665	9964
684.696	9473
684.743	10590
684.786	11047
684.790	11046
684.837	10329
684.883	10479
684.908	11051
684.930	11694
684.977	12215
685.023	12000
685.029	12158
685.070	12466
685.117	12364
685.150	11825
685.164	11707
685.210	13024
685.257	12912
685.272	13044
685.303	13111
685.350	13439
685.393	13425
685.396	13388
685.443	13169
685.490	13970
685.514	13898
685.536	13928
685.583	14224
685.629	13915
685.636	14040
685.675	14227
685.722	13383
685.757	13470
685.768	13589
685.815	14439
685.861	14457
685.878	14419
685.908	14271
685.954	14410
686.000	15033
686.000	15027
686.047	15172
686.093	16231
686.121	16507
686.139	16608
686.185	16146
686.232	16979
686.242	16871
686.278	16154
686.324	15600
686.363	15534
686.370	15547
686.416	15238
686.463	15795
686.484	15987
686.509	16260
686.555	16201
686.601	15806
686.606	15835
686.647	15821
686.693	16647
686.727	15927
686.739	15695
686.785	16253
686.831	16031
686.848	16258
686.877	16717
686.923	16010
686.969	17462
686.969	17464
687.015	16524
687.061	16590
687.090	16236
687.107	16169
687.153	17371
687.199	17674
687.211	17702
687.245	17398
687.291	17099
687.332	16704
687.336	16738
687.382	17396
687.428	18410
687.453	18544
687.474	18309
687.520	18076
687.565	18032
687.574	17887
687.611	17685
687.657	17928
687.695	18351
687.702	18457
687.748	19275
687.794	19656
687.816	19835
687.839	19910
687.885	19995
687.931	19550
687.937	19594
687.976	19325
688.022	18861
688.058	18455
688.067	18564
688.113	19062
688.158	19888
688.179	19871
688.204	19549
688.249	19581
688.295	19221
688.300	19248
688.340	20290
688.386	20991
688.421	21604
688.431	21590
688.477	21598
688.522	20862
688.542	20659
688.567	20453
688.613	20426
688.658	20232
688.663	20174
688.703	20020
688.749	20065
688.784	20135
688.794	20254
688.839	20192
688.884	21049
688.905	21132
688.930	21087
688.975	20872
689.020	21114
689.026	21087
689.065	21583
689.110	21891
689.146	22584
689.155	22601
689.201	21833
689.246	22023
689.267	21736
689.291	21772
689.336	21962
689.381	22082
689.388	22120
689.426	22445
689.471	22777
689.509	22797
689.516	22767
689.561	22511
689.606	22414
689.630	22150
689.651	22107
689.696	22256
689.741	22165
689.750	22172
689.785	22606
689.830	23047
689.871	23304
689.875	23305
689.920	23214
689.965	23469
689.992	22955
690.010	22988
690.054	23820
690.099	23908
690.112	24159
690.144	24636
690.189	24983
690.233	25083
690.233	25118
690.278	25172
690.323	25567
690.354	25186
690.367	25214
690.412	26059
690.457	26473
690.474	26726
690.501	27388
690.546	28366
690.590	29050
690.595	29070
690.635	30172
690.680	31596
690.716	32835
690.724	33604
690.769	37220
690.813	41339
690.836	43000
690.857	46360
690.902	53819
690.946	61513
690.957	63332
690.991	83323
691.035	109127
691.077	134886
691.080	136973
691.124	171509
691.168	204095
691.198	226086
691.213	215352
691.257	182913
691.301	150212
691.318	137120
691.346	121938
691.390	97206
691.434	71778
691.439	68894
691.478	61682
691.522	53396
691.559	45969
691.567	45518
691.611	42447
691.655	39667
691.680	37656
691.699	36954
691.743	36084
691.787	34249
691.800	33792
691.831	33445
691.875	32603
691.919	32108
691.921	32019
691.964	31837
692.008	32130
692.041	32031
692.052	32001
692.096	31642
692.139	31459
692.162	31328
692.183	31208
692.227	30517
692.271	30183
692.282	29934
692.315	30128
692.359	30671
692.402	31250
692.403	31312
692.447	31305
692.490	31112
692.523	31215
692.534	31385
692.578	31053
692.622	31784
692.643	31677
692.666	31673
692.709	31660
692.753	32017
692.763	31930
692.797	31967
692.840	32189
692.884	32325
692.884	32396
692.928	33017
692.971	33640
693.004	33848
693.015	34025
693.059	34716
693.102	35479
693.124	35643
693.146	35956
693.189	36460
693.233	37078
693.245	37147
693.276	38918
693.320	41636
693.363	43973
693.365	43963
693.407	47113
693.450	50550
693.485	53242
693.493	54956
693.537	63102
693.580	71397
693.605	76042
693.624	84332
693.667	103766
693.710	123105
693.725	129806
693.753	168564
693.797	228122
693.840	289351
693.845	296263
693.883	364116
693.926	439186
693.966	506898
693.970	500470
694.013	422540
694.056	344382
694.086	290023
694.099	273188
694.142	217424
694.185	161377
694.206	134481
694.229	124469
694.272	104911
694.315	84884
694.326	79651
694.358	74360
694.401	66499
694.444	59032
694.446	58512
694.487	55199
694.530	51732
694.566	48487
694.573	48206
694.616	45858
694.659	43516
694.686	41893
694.702	41471
694.745	40089
694.787	38593
694.806	37948
694.830	37793
694.873	37071
694.916	36500
694.926	36282
694.959	35888
695.002	35141
695.044	34377
695.046	34269
695.087	34486
695.130	34563
695.166	34533
695.172	34632
695.215	34772
695.258	34808
695.286	34790
695.301	34766
695.343	34410
695.386	34123
695.406	33929
695.428	33891
695.471	33369
695.514	32965
695.526	32834
695.556	33197
695.599	33442
695.641	33595
695.646	33543
695.684	33600
695.726	33498
695.766	33320
695.769	33407
695.811	33591
695.854	33635
695.886	33604
695.896	33621
695.938	33215
695.981	32958
696.005	32709
696.023	32846
696.065	33204
696.108	33121
696.125	33145
696.150	33428
696.192	33506
696.235	33881
696.245	33811
696.277	33847
696.319	33992
696.361	34006
696.365	33926
696.404	35087
696.446	36307
696.485	37270
696.488	37373
696.530	37414
696.572	37584
696.604	37477
696.614	37318
696.656	36329
696.698	35395
696.724	34741
696.740	34533
696.783	33602
696.825	32795
696.844	32325
696.867	32527
696.909	32752
696.951	32807
696.964	32808
696.992	32946
697.034	32930
697.076	32894
697.083	32795
697.118	32543
697.160	32274
697.202	31869
697.203	31774
697.244	32124
697.286	32418
697.323	32618
697.327	32700
697.369	32545
697.411	32524
697.442	32332
697.453	32481
697.494	32774
697.536	33114
697.562	33262
697.578	33350
697.620	33225
697.661	33140
697.682	33019
697.703	33154
697.744	33252
697.786	33379
697.801	33273
697.828	33850
697.869	34822
697.911	35712
697.921	35831
697.952	35176
697.994	34179
698.035	33188
698.040	32980
698.077	32811
698.118	32502
698.160	32194
698.160	32104
698.201	32452
698.243	32766
698.279	32921
698.284	33027
698.325	33215
698.367	33368
698.399	33370
698.408	33384
698.449	33056
698.491	32745
698.518	32423
698.532	32531
698.573	32614
698.614	32657
698.638	32598
698.656	32736
698.697	32866
698.738	32983
698.757	32943
698.779	33241
698.820	33629
698.862	34037
698.877	34094
698.903	34535
698.944	35073
698.985	35629
698.996	35684
699.026	35345
699.067	34738
699.116	33919
699.235	33338
699.354	32836
699.474	32091
699.593	34746
699.713	35977
699.832	33903
699.951	33822
700.070	32085
700.190	33593
700.309	32795
700.428	33347
700.547	32886
700.667	32494
700.786	31631
700.905	32627
701.024	31689
701.143	32599
701.262	30010
701.381	30854
701.500	31391
701.619	32531
701.738	30859
701.857	31488
701.976	30353
702.095	30085
702.214	30372
702.333	31376
702.452	30484
702.571	30145
702.690	29946
702.809	29749
702.928	29285
703.047	29979
703.165	29721
703.284	29322
703.403	27282
703.522	29598
703.640	30865
703.759	31239
703.878	32213
703.997	30882
704.115	28780
704.234	28286
704.353	28109
704.471	27950
704.590	27598
704.708	27739
704.827	27338
704.946	27148
705.064	28051
705.183	29014
705.301	28900
705.420	37560
705.538	41486
705.656	37430
705.775	34470
705.893	45186
706.012	76013
706.130	43188
706.249	34459
706.367	35386
706.485	34613
706.604	34906
706.722	33923
706.840	33904
706.958	38001
707.077	38253
707.195	32640
707.313	32451
707.431	31570
707.549	30997
707.668	30894
707.786	32519
707.904	31356
708.022	30454
708.140	30568
708.258	30759
708.376	29902
708.494	30581
708.612	31175
708.730	37745
708.848	43199
708.966	37692
709.084	35587
709.202	34890
709.320	36407
709.438	36286
709.556	36235
709.674	36549
709.791	36462
709.909	35147
710.027	34491
710.145	34098
710.263	35235
710.380	33928
710.498	34647
710.616	34215
710.733	32951
710.851	34092
710.969	32804
711.086	34216
711.204	33008
711.322	31976
711.439	32422
711.557	33382
711.674	30918
711.792	32218
711.909	33033
712.027	36724
712.144	32715
712.262	32145
712.379	30718
712.497	38815
712.614	47374
712.732	41469
712.849	36722
712.966	37330
713.084	38167
713.201	41595
713.318	38371
713.436	38180
713.553	38207
713.670	37562
713.787	37640
713.905	39221
714.022	38336
714.139	36273
714.256	36542
714.373	38017
714.490	40073
714.608	46733
714.725	89435
714.842	212783
714.959	61592
715.076	36651
715.193	34831
715.310	34438
715.427	33487
715.544	33325
715.661	32338
715.778	33278
715.895	34443
716.011	34234
716.128	33516
716.245	33024
716.362	33728
716.479	34039
716.596	31820
716.713	31914
716.829	31461
716.946	31906
717.063	30622
717.180	30436
717.296	29904
717.413	31065
717.530	29653
717.646	29463
717.763	29042
717.880	28285
717.996	28564
718.113	29619
718.229	27470
718.346	29706
718.462	27900
718.579	28955
718.695	33296
718.812	36056
718.928	31200
719.045	30552
719.161	27054
719.277	27831
719.394	26686
719.510	29161
719.626	27812
719.743	30782
719.859	30858
719.975	30674
720.092	39293
720.208	84826
720.324	54809
720.440	28855
720.557	28063
720.673	30734
720.789	35489
720.905	49325
721.021	50139
721.137	27598
721.253	26438
721.369	26739
721.486	27015
721.602	29385
721.718	28006
721.834	24750
721.950	24786
722.066	24794
722.181	23919
722.297	25185
722.413	24945
722.529	24249
722.645	24327
722.761	24465
722.877	24165
722.993	23281
723.108	23079
723.224	24060
723.340	23096
723.456	22987
723.571	22673
723.687	23950
723.803	22605
723.918	22161
724.034	22749
724.150	23640
724.265	21663
724.381	26352
724.497	39557
724.612	25319
724.728	21969
724.843	21534
724.959	22837
725.074	26305
725.190	37072
725.305	24829
725.421	21890
725.536	21449
725.651	20560
725.767	20738
725.882	20065
725.997	20783
726.113	20699
726.228	21137
726.343	20292
726.459	19865
726.574	19579
726.689	20698
726.804	19438
726.920	19964
727.035	19527
727.150	21109
727.265	19407
727.380	19752
727.495	19644
727.610	20047
727.725	18514
727.841	21173
727.956	26965
728.071	38370
728.186	21801
728.301	19655
728.416	18804
728.531	19378
728.645	18349
728.760	18243
728.875	18305
728.990	17079
729.105	18344
729.220	18935
729.335	18517
729.449	18994
729.564	17757
729.679	17822
729.794	18371
729.908	18380
730.023	17507
730.138	17817
730.253	17098
730.367	17700
730.482	17386
730.596	17615
730.711	17764
730.826	18039
730.940	17916
731.055	18094
731.169	17218
731.284	16736
731.398	16973
731.513	17223
731.627	17707
731.742	17793
731.856	19178
731.970	17217
732.085	16964
732.199	17536
732.313	18481
732.428	22654
732.542	33469
732.656	42647
732.771	21396
732.885	16800
732.999	16741
733.113	17104
733.227	16384
733.342	16166
733.456	15365
733.570	16285
733.684	15121
733.798	16767
733.912	16415
734.026	15310
734.140	15095
734.254	16535
734.368	17153
734.482	24471
734.596	16125
734.710	15713
734.824	16036
734.938	15519
735.052	15065
735.166	16193
735.280	16072
735.393	15036
735.507	15278
735.621	16411
735.735	19604
735.849	20248
735.962	14159
736.076	15908
736.190	15597
736.303	15877
736.417	19800
736.531	16788
736.644	14958
736.758	14247
736.872	14241
736.985	14463
737.099	14602
737.212	14029
737.326	13761
737.439	14921
737.553	14958
737.666	13974
737.780	14473
737.893	14390
738.007	14413
738.120	14314
738.233	14048
738.347	14239
738.460	14554
738.573	14551
738.687	14447
738.800	14833
738.913	14630
739.026	14946
739.140	14709
739.253	16010
739.366	14699
739.479	14674
739.592	13621
739.705	13057
739.818	12958
739.932	13944
740.045	13359
740.158	14052
740.271	14346
740.384	14577
740.497	13355
740.610	14614
740.723	14026
740.836	14821
740.949	14256
741.062	14992
741.174	15892
741.287	15248
741.400	14105
741.513	13750
741.626	14592
741.739	15673
741.851	14127
741.964	13308
742.077	13373
742.189	14513
742.302	13268
742.415	14238
742.527	14058
742.640	14671
742.753	13722
742.865	13813
742.978	12957
743.090	13437
743.203	13407
743.316	13513
743.428	13364
743.541	13509
743.653	13055
743.766	13471
743.878	13107
743.990	14063
744.103	15092
744.215	13165
744.327	12933
744.440	14329
744.552	14914
744.664	14737
744.777	12960
744.889	13562
745.001	12735
745.113	13138
745.226	12328
745.338	13246
745.450	13248
745.562	12720
745.674	12796
745.786	12829
745.898	12209
746.010	13427
746.122	12496
746.234	14494
746.347	13406
746.459	12643
746.570	12899
746.682	13187
746.794	13460
746.906	13270
747.018	13181
747.130	13163
747.242	13577
747.354	13343
747.466	13354
747.577	13159
747.689	12582
747.801	13098
747.913	12658
748.024	14157
748.136	12700
748.248	13316
748.359	14193
748.471	13430
748.583	13981
748.694	13318
748.806	15245
748.918	14506
749.029	14155
749.141	13414
749.252	13195
749.364	14096
749.475	15268
749.587	17134
749.698	13667
749.809	12861
749.921	13359
750.032	14021
750.144	13673
750.255	13459
750.366	13643
750.478	13204
750.589	14090
750.700	13419
750.811	13528
750.923	14553
751.034	15523
751.145	21604
751.256	15189
751.367	13130
751.479	14131
751.590	14338
751.701	14055
751.812	14914
751.923	13874
752.034	14220
752.145	12781
752.256	14732
752.367	13433
752.478	14507
752.589	14114
752.700	14127
752.811	14490
752.922	14472
753.032	13941
753.143	16067
753.254	13722
753.365	14864
753.476	13848
753.586	13919
753.697	13926
753.808	14516
753.919	14451
754.029	14244
754.140	14477
754.251	14650
754.361	14658
754.472	14338
754.582	14871
754.693	15879
754.804	15339
754.914	14889
755.025	14552
755.135	15857
755.246	15237
755.356	15543
755.466	15538
755.577	15514
755.687	15146
755.798	15384
755.908	15217
756.018	16454
756.129	16526
756.239	16217
756.349	16454
756.460	16847
756.570	16693
756.680	16944
756.790	16958
756.900	17958
757.011	18143
757.121	17950
757.231	17875
757.341	18019
757.451	17097
757.561	17583
757.671	18478
757.781	18308
757.891	18381
758.001	18680
758.111	18753
758.221	20243
758.331	18673
758.441	20661
758.551	20728
758.661	22113
758.771	20410
758.880	20786
758.990	21624
759.100	22183
759.210	21387
759.320	22154
759.429	22715
759.539	23795
759.649	22331
759.758	23753
759.868	23163
759.978	24593
760.087	25469
760.197	25348
760.307	25544
760.416	24813
760.526	26383
760.635	28147
760.745	27945
760.854	28209
760.964	28053
761.073	29449
761.182	30003
761.292	31203
761.401	31363
761.511	33222
761.620	33569
761.729	35035
761.839	34028
761.948	37719
762.057	38333
762.166	38879
762.276	38168
762.385	40933
762.494	43436
762.603	44446
762.712	45197
762.822	47535
762.931	49531
763.040	51762
763.149	53918
763.258	55253
763.367	57236
763.476	61131
763.585	63510
763.694	67947
763.803	71842
763.912	75210
764.021	80164
764.130	85423
764.238	89990
764.347	97067
764.456	104378
764.565	111358
764.674	120623
764.783	131623
764.891	144773
765.000	161359
765.109	179874
765.217	203742
765.326	232037
765.435	264352
765.543	313925
765.652	369495
765.761	443568
765.869	540092
765.978	658289
766.086	807022
766.195	956355
766.303	1035599
766.412	925537
766.520	659284
766.629	860822
766.737	1033454
766.846	962905
766.954	809581
767.062	662210
767.171	532610
767.279	432285
767.387	355309
767.496	297109
767.604	255500
767.712	221108
767.820	196869
767.928	177741
768.037	163711
768.145	155048
768.253	147196
768.361	143948
768.469	141379
768.577	142633
768.685	147805
768.793	155111
768.901	167238
769.009	188397
769.117	217646
769.225	262253
769.333	328706
769.441	432052
769.549	583662
769.657	789374
769.765	961102
769.873	838185
769.981	733412
770.088	935769
770.196	812071
770.304	621849
770.412	477106
770.519	370745
770.627	299394
770.735	246581
770.842	209536
770.950	179343
771.058	157542
771.165	138536
771.273	126348
771.380	113078
771.488	103100
771.595	93451
771.703	86622
771.810	81134
771.918	75508
772.025	70228
772.133	65927
772.240	62159
772.348	58995
772.455	56581
772.562	53369
772.670	49537
772.777	48668
772.884	45776
772.991	44674
773.099	42443
773.206	40994
773.313	39939
773.420	39212
773.528	36722
773.635	36032
773.742	34320
773.849	34107
773.956	31855
774.063	32189
774.170	30076
774.277	30334
774.384	29368
774.491	28250
774.598	28165
774.705	27204
774.812	27236
774.919	27431
775.026	26170
775.133	25838
775.239	24563
775.346	24574
775.453	23609
775.560	22827
775.667	22947
775.773	23328
775.880	22670
775.987	22792
776.093	21880
776.200	21722
776.307	20959
776.413	20470
776.520	19667
776.627	20022
776.733	19569
776.840	19041
776.946	20151
777.053	18719
777.159	18622
777.266	18541
777.372	18776
777.478	18693
777.585	17408
777.691	17271
777.798	16597
777.904	17799
778.010	18097
778.117	19036
778.223	16669
778.329	16098
778.435	15274
778.542	15941
778.648	14711
778.754	14633
778.860	14471
778.966	15214
779.072	15239
779.178	15381
779.284	15081
779.391	15915
779.497	16257
779.603	18783
779.708	24527
779.815	40582
779.920	96117
780.026	311112
780.132	223104
780.238	43332
780.344	23416
780.450	18376
780.556	15920
780.661	15618
780.767	13652
780.873	14253
780.979	13051
781.085	12568
781.190	12192
781.296	12626
781.402	11858
781.507	12333
781.613	11693
781.719	10509
781.824	10840
781.930	11303
782.035	10370
782.141	11308
782.246	10866
782.352	12158
782.457	10716
782.563	11124
782.668	10828
782.773	10595
782.879	10530
782.984	10879
783.090	10460
783.195	10710
783.300	10631
783.405	10861
783.511	11377
783.616	10716
783.721	9774
783.826	10382
783.932	10461
784.037	9544
784.142	9613
784.247	9795
784.352	9163
784.457	9135
784.562	9541
784.667	9049
784.772	9118
784.877	8649
784.982	8980
785.087	9434
785.192	9060
785.297	8864
785.402	9149
785.507	9103
785.611	8148
785.716	8660
785.821	8225
785.926	8500
786.031	7931
786.135	9210
786.240	8683
786.345	7765
786.450	8809
786.554	7919
786.659	8127
786.763	8647
786.868	8180
786.973	7855
787.077	7799
787.182	8087
787.286	8275
787.391	8345
787.495	7393
787.600	8515
787.704	7069
787.809	8270
787.913	7640
788.017	8050
788.122	8134
788.226	8105
788.330	6747
788.435	8180
788.539	7625
788.643	7753
788.747	7471
788.852	7719
788.956	6994
789.060	7667
789.164	6271
789.268	7261
789.372	7190
789.476	6492
789.580	6994
789.684	6799
789.788	7084
789.892	7691
789.996	7274
790.100	7588
790.204	7265
790.308	7278
790.412	6940
790.516	7952
790.620	7617
790.724	7895
790.828	6384
790.931	6739
791.035	7987
791.139	8039
791.242	6309
791.346	7727
791.450	6426
791.554	7340
791.657	6695
791.761	7772
791.864	6541
791.968	7072
792.072	7182
792.175	6550
792.279	6513
792.382	6937
792.486	6744
792.589	6589
792.693	6764
792.796	6646
792.899	6565
793.003	6782
793.106	5682
793.209	6643
793.313	6876
793.416	6450
793.519	6748
793.623	6851
793.726	7909
793.829	7540
793.932	6492
794.035	6913
794.138	7317
794.242	7954
794.345	8986
794.448	14404
794.551	19909
794.654	54862
794.757	182356
794.860	146397
794.963	22767
795.066	10487
795.169	8478
795.272	7897
795.375	7670
795.477	7127
795.580	6546
795.683	6069
795.786	5931
795.889	5900
795.991	6067
796.094	6727
796.197	5779
796.300	6195
796.402	5807
796.505	5109
796.608	5587
796.710	6844
796.813	5991
796.915	6259
797.018	4862
797.120	6307
797.223	5201
797.326	5444
797.428	4793
797.530	5191
797.633	4941
797.735	6116
797.838	5377
797.940	7424
798.042	4980
798.145	4437
798.247	5652
798.349	4773
798.452	4925
798.554	5079
798.656	4078
798.758	5811
798.860	5280
798.962	4354
799.065	4054
799.167	4501
799.269	5518
799.371	5865
799.473	5474
799.575	6123
799.677	5844
799.779	6863
799.881	4797
799.983	6378
800.085	5184
800.187	4666
800.289	4578
800.390	5619
800.492	4190
800.594	4974
800.696	4510
800.798	5116
800.899	3651
801.001	4857
801.103	3823
801.205	4383
801.306	4307
801.408	4708
801.509	4510
801.611	5452
801.713	3831
801.814	4522
801.916	4121
802.017	4914
802.119	3248
802.220	4867
802.322	2771
802.423	4716
802.525	4442
802.626	5550
802.727	3888
802.829	4611
802.930	4095
803.031	4519
803.133	4051
803.234	4222
803.335	4503
803.436	4779
803.538	4132
803.639	3260
803.740	4597
803.841	3962
803.942	4395
804.043	4021
804.144	4447
804.245	4240
804.346	3546
804.447	4807
804.548	4273
804.649	6033
804.750	4823
804.851	4722
804.952	4208
805.053	4122
805.154	3383
805.255	4176
805.355	3838
805.456	4416
805.557	3072
805.658	4667
805.758	4630
805.859	4676
805.960	3934
806.061	3511
806.161	3061
806.262	4331
806.362	3755
806.463	4052
806.564	4849
806.664	4923
806.765	4489
806.865	5188
806.966	5212
807.066	4568
807.166	4251
807.267	5322
807.367	4271
807.468	4621
807.568	3832
807.668	4048
807.769	4596
807.869	4866
807.969	3924
808.069	3967
808.170	3569
808.270	4296
808.370	4215
808.470	4314
808.570	4426
808.670	4292
808.770	3934
808.870	4125
808.970	3651
809.070	4170
809.170	3367
809.271	4234
809.370	3769
809.470	5041
809.570	3129
809.670	3265
809.770	3438
809.870	4714
809.970	3783
810.070	5039
810.169	3832
810.269	3298
810.369	4213
810.469	4001
810.568	3716
810.668	4214
810.768	3372
810.867	4458
810.967	4388
811.066	3840
811.166	3527
811.265	3683
811.365	4154
811.464	4356
811.564	3667
811.663	5547
811.763	4109
811.862	4891
811.962	4123
812.061	4914
812.160	3644
812.260	3722
812.359	5258
812.458	6446
812.557	9962
812.657	18506
812.756	15742
812.855	7246
812.954	4899
813.053	4789
813.153	4676
813.252	4909
813.351	4717
813.450	3984
813.549	4706
813.648	5076
813.747	5168
813.846	4660
813.945	4921
814.044	4759
814.143	4810
814.242	5346
814.341	4775
814.439	5208
814.538	5028
814.637	5257
814.736	5446
814.835	6607
814.933	5352
815.032	6587
815.131	5727
815.229	7160
815.328	6374
815.427	7305
815.525	6560
815.624	7543
815.722	7069
815.821	8044
815.919	7402
816.018	8697
816.116	8683
816.215	8686
816.313	9282
816.412	11252
816.510	9764
816.609	11277
816.707	11282
816.805	13233
816.904	13450
817.002	13996
817.100	15989
817.198	18916
817.296	19612
817.395	23429
817.493	27621
817.591	32701
817.689	41006
817.787	53588
817.885	72190
817.983	107509
818.081	175333
818.179	303375
818.277	525761
818.375	651237
818.473	530709
818.571	328812
818.669	202570
818.767	147718
818.865	129230
818.963	132794
819.061	154381
819.158	206949
819.256	303950
819.354	470627
819.452	660812
819.549	659415
819.647	574297
819.745	412954
819.842	264831
819.940	177922
820.038	126393
820.135	97044
820.233	75097
820.330	59866
820.428	51216
820.525	42249
820.623	36764
820.720	31094
820.818	28261
820.915	25550
821.012	22816
821.110	20641
821.207	20033
821.304	17468
821.402	15926
821.499	15453
821.596	13651
821.693	13276
821.791	12110
821.888	11875
821.985	12162
822.082	12492
822.179	10779
822.276	9552
822.373	9073
822.470	8934
822.567	7374
822.664	8355
822.761	8000
822.858	7603
822.955	6240
823.052	7299
823.149	6214
823.246	7555
823.343	6913
823.440	7257
823.536	6237
823.633	5225
823.730	4709
823.827	5981
823.923	4469
824.020	5259
824.117	4482
824.213	4855
824.310	5246
824.407	4829
824.503	4123
824.600	4634
824.696	4464
824.793	5313
824.889	4674
824.986	4898
825.082	3697
825.179	5200
825.275	3695
825.371	4260
825.468	3748
825.564	3886
825.660	3602
825.757	4619
825.853	3434
825.949	3755
826.045	3300
826.142	4253
826.238	3247
826.334	3371
826.430	2919
826.526	4484
826.622	3138
826.718	3147
826.814	2043
826.910	3771
827.006	2410
827.102	3611
827.198	3116
827.294	3181
827.390	2885
827.486	3354
827.582	2664
827.678	3136
827.774	3560
827.869	3466
827.965	3210
828.061	2666
828.157	2869
828.252	2934
828.348	2660
828.444	3120
828.539	2740
828.635	2620
828.731	2653
828.826	3051
828.922	3075
829.017	3356
829.113	2477
829.208	2889
829.304	1215
829.399	3732
829.495	2476
829.590	2373
829.685	1931
829.781	2748
829.876	1922
829.971	2055
830.066	1814
830.162	2881
830.257	2167
830.352	2327
830.447	2756
830.543	2540
830.638	1850
830.733	3201
830.828	2407
830.923	3200
831.018	1901
831.113	2576
831.208	2158
831.303	3031
831.398	2297
831.493	3118
831.588	2887
831.683	2665
831.778	2251
831.873	3251
831.967	2223
832.062	1841
832.157	1222
832.252	3132
832.346	2634
832.441	2598
832.536	3255
832.631	4316
832.725	6157
832.820	3282
832.914	2425
833.009	2295
833.104	3012
833.198	3202
833.293	1850
833.387	3209
833.482	1461
833.576	2009
833.670	2550
833.765	2283
833.859	1943
833.954	3043
834.048	2630
834.142	2183
834.237	1977
834.331	1858
834.425	2395
834.519	2037
834.613	2101
834.708	2393
834.802	2539
834.896	1592
834.990	1867
835.084	2673
835.178	1418
835.272	2420
835.366	1887
835.460	2848
835.554	2163
835.648	1878
835.742	1761
835.836	2231
835.930	2102
836.024	2646
836.117	2205
836.211	2181
836.305	2810
836.399	4077
836.493	2368
836.586	2219
836.680	2067
836.774	1799
836.867	2080
836.961	1718
837.055	1946
837.148	2219
837.242	1996
837.335	2248
837.429	2258
837.522	2143
837.616	1201
837.709	3596
837.803	3603
837.896	3333
837.989	1928
838.083	3550
838.176	3038
838.269	4430
838.363	3802
838.456	2147
838.549	3017
838.642	3000
838.735	5896
838.829	6098
838.922	2397
839.015	2166
839.108	1965
839.201	2600
839.294	1678
839.387	2547
839.480	2061
839.573	2582
839.666	2875
839.759	3047
839.852	1762
839.945	2111
840.038	2120
840.131	2020
840.223	1775
840.316	2557
840.409	2212
840.502	2230
840.594	2547
840.687	1651
840.780	1411
840.873	1530
840.965	2163
841.058	3163
841.150	2993
841.243	4474
841.336	3194
841.428	1793
841.521	2063
841.613	1879
841.706	2036
841.798	2815
841.890	2018
841.983	1565
842.075	2027
842.167	2719
842.260	1610
842.352	2390
842.444	2386
842.537	4142
842.629	6322
842.721	4564
842.813	2449
842.905	1616
842.997	1346
843.090	2329
843.182	1687
843.274	3380
843.366	6645
843.458	12403
843.550	15153
843.642	6060
843.734	2303
843.826	1787
843.918	2963
844.009	2682
844.101	1882
844.193	1788
844.285	1111
844.377	2822
844.469	2235
844.560	1979
844.652	1862
844.744	1919
844.835	1901
844.927	1723
845.019	1218
845.110	2929
845.202	2065
845.293	2375
845.385	1828
845.476	2081
845.568	2283
845.659	2566
845.751	2558
845.842	1945
845.934	757
846.025	1958
846.116	2199
846.208	1004
846.299	1063
846.390	1603
846.482	1621
846.573	1939
846.664	3048
846.755	2495
846.846	2616
846.937	1776
847.029	1369
847.120	2043
847.211	1164
847.302	2658
847.393	2003
847.484	1605
847.575	1322
847.666	1903
847.757	1611
847.847	1845
847.938	2681
848.029	1495
848.120	1550
848.211	1870
848.302	1397
848.392	1003
848.483	1843
848.574	2101
848.664	1685
848.755	1631
848.846	215
848.936	1607
849.027	1832
849.118	1690
849.208	1276
849.299	2040
849.389	1846
849.480	2162
849.570	2346
849.661	3549
849.751	4086
849.841	3504
849.932	2018
850.022	1131
850.112	1653
850.203	1752
850.293	944
850.383	1970
850.474	2021
850.564	2509
850.654	1402
850.744	1309
850.834	1856
850.924	2025
851.014	1449
851.104	2196
851.194	1433
851.284	2067
851.374	2376
851.464	2245
851.554	2662
851.644	2804
851.734	2894
851.824	4255
851.914	6171
852.004	9582
852.094	17999
852.183	11295
852.273	2419
852.363	2054
852.452	1587
852.542	1992
852.632	1688
852.721	1987
852.811	1085
852.901	1574
852.990	1628
853.080	1709
853.169	984
853.259	1543
853.348	1020
853.438	1029
853.527	1579
853.617	1435
853.706	1985
853.795	2150
853.885	4327
853.974	8053
854.063	12026
854.152	19895
854.242	19335
854.331	5136
854.420	1876
854.509	2228
854.598	1716
854.687	2055
854.777	1971
854.866	1763
854.955	1605
855.044	1013
855.133	72
855.222	1058
855.311	1191
855.400	2078
855.488	872
855.577	1474
855.666	168
855.755	2218
855.844	1934
855.933	3031
856.021	2430
856.110	2367
856.199	1396
856.288	1957
856.376	749
856.465	1416
856.554	1404
856.642	1602
856.731	933
856.819	1728
856.908	1846
856.996	1303
857.085	601
857.173	820
857.262	860
857.350	1551
857.438	1350
857.527	2390
857.615	1260
857.703	1665
857.792	988
857.880	996
857.968	1446
858.056	1280
858.145	703
858.233	1364
858.321	58
858.409	2471
858.497	1251
858.585	1158
858.673	1763
858.761	1089
858.849	476
858.937	2137
859.025	1327
859.113	471
859.201	269
859.289	1651
859.377	620
859.465	2263
859.552	757
859.640	2436
859.728	920
859.816	1341
859.903	1685
859.991	1907
860.079	707
860.166	1101
860.254	950
860.342	1081
860.429	1243
860.517	1209
860.604	1050
860.692	1011
860.779	738
860.867	1405
860.954	1132
861.042	2008
861.129	352
861.216	1359
861.304	1573
861.391	1003
861.478	1118
861.565	1621
861.653	1869
861.740	1087
861.827	1291
861.914	1554
862.001	842
862.089	2027
862.176	761
862.263	1463
862.350	614
862.437	756
862.524	761
862.611	1569
862.698	831
862.785	1768
862.871	1207
862.958	1949
863.045	875
863.132	1398
863.219	-25
863.306	812
863.392	1457
863.479	1269
863.566	864
863.652	1724
863.739	1038
863.826	1876
863.912	1045
863.999	453
864.086	1317
864.172	918
864.259	1299
864.345	1318
864.432	1228
864.518	1282
864.604	1263
864.691	1938
864.777	900
864.863	2225
864.950	1099
865.036	1068
865.122	910
865.209	1650
865.295	1403
865.381	1419
865.467	1414
865.553	1536
865.639	1145
865.726	1901
865.812	2225
865.898	4208
865.984	5319
866.070	8610
866.156	14026
866.242	8088
866.328	1832
866.414	1548
866.499	1371
866.585	2067
866.671	552
866.757	1883
866.843	1525
866.928	1095
867.014	439
867.100	1578
867.186	351
867.271	2016
867.357	1800
867.442	2216
867.528	2300
867.614	1050
867.699	609
867.785	1952
867.870	794
867.956	1254
868.041	944
868.127	2020
868.212	940
868.297	2233
868.383	1123
868.468	1220
868.553	2306
868.639	3877
868.724	3572
868.809	7858
868.894	3932
868.979	1706
869.065	1216
869.150	502
869.235	1240
869.320	196
869.405	574
869.490	27
869.575	295
869.660	899
869.745	554
869.830	810
869.915	1040
870.000	1901
870.085	574
870.169	548
870.254	811
870.339	565
870.424	211
870.509	985
870.593	1112
870.678	1183
870.763	39
870.847	1463
870.932	324
871.016	1069
871.101	238
871.186	1181
871.270	664
871.355	132
871.439	571
871.523	302
871.608	345
871.692	1392
871.777	1169
871.861	800
871.945	260
872.030	715
872.114	1128
872.198	320
872.282	-197
872.367	163
872.451	-329
872.535	1265
872.619	280
872.703	754
872.787	479
872.871	709
872.955	877
873.039	1208
873.123	249
873.207	1007
873.291	518
873.375	825
873.459	427
873.543	636
873.627	267
873.711	528
873.794	232
873.878	551
873.962	-30
874.045	83
874.129	4
874.137	91
874.213	966
874.245	994
874.296	1038
874.352	445
874.380	160
874.460	99
874.464	96
874.547	967
874.568	915
874.631	779
874.676	604
874.714	438
874.784	347
874.798	339
874.881	1426
874.892	1247
874.965	-34
874.999	358
875.048	912
875.107	465
875.131	284
875.215	121
875.215	121
875.298	113
875.323	176
875.381	339
875.430	562
875.465	724
875.538	689
875.548	681
875.631	1017
875.646	912
875.714	349
875.753	415
875.798	596
875.861	679
875.881	668
875.964	113
875.968	175
876.047	1281
876.076	1032
876.130	627
876.183	485
876.213	352
876.291	404
876.296	407
876.379	1132
876.398	1045
876.462	978
876.506	1093
876.545	1055
876.613	473
876.628	348
876.711	208
876.721	175
876.794	92
876.828	403
876.877	821
876.935	124
876.960	-142
877.043	873
877.043	873
877.125	586
877.150	599
877.208	683
877.258	592
877.291	587
877.365	833
877.374	839
877.456	433
877.472	438
877.539	541
877.579	467
877.622	435
877.687	772
877.704	838
877.787	524
877.794	525
877.869	674
877.901	489
877.952	96
878.008	1008
878.034	1491
878.115	810
878.117	790
878.199	620
878.222	544
878.282	588
878.329	665
878.364	628
878.437	814
878.447	852
878.529	437
878.544	386
878.611	-14
878.651	154
878.694	586
878.758	831
878.776	812
878.858	6
878.865	52
878.941	689
878.972	736
879.023	627
879.078	408
879.105	486
879.185	406
879.187	393
879.269	185
879.292	225
879.351	707
879.399	498
879.433	282
879.506	319
879.516	298
879.598	276
879.613	349
879.680	800
879.720	529
879.762	259
879.827	250
879.844	212
879.926	223
879.933	244
880.007	593
880.040	381
880.089	-37
880.147	-54
880.171	97
880.253	1119
880.254	1125
880.335	1631
880.360	1520
880.417	1401
880.467	1507
880.499	1774
880.574	2716
880.580	2740
880.662	2460
880.680	2157
880.744	1099
880.787	760
880.825	596
880.893	325
880.907	185
880.989	14
881.000	-71
881.070	66
881.106	281
881.152	399
881.213	40
881.233	-139
881.315	183
881.319	178
881.396	306
881.426	386
881.478	580
881.532	389
881.559	211
881.639	31
881.641	26
881.722	281
881.745	125
881.803	-276
881.852	-243
881.885	37
881.958	727
881.966	723
882.047	174
882.064	136
882.129	474
882.171	564
882.210	486
882.277	931
882.291	1105
882.372	1210
882.383	1218
882.454	565
882.489	497
882.535	648
882.596	302
882.616	145
882.697	14
882.702	21
882.778	697
882.808	822
882.859	507
882.914	269
882.940	293
883.020	175
883.021	170
883.102	-103
883.127	-228
883.183	152
883.233	522
883.264	377
883.339	-311
883.345	-309
883.426	160
883.445	264
883.507	373
883.551	469
883.587	479
883.657	335
883.668	309
883.749	254
883.763	181
883.830	-114
883.869	46
883.910	20
883.975	-613
883.991	-586
884.072	220
884.081	270
884.152	-112
884.187	-294
884.233	-89
884.292	143
884.314	83
884.394	193
884.398	168
884.475	-358
884.504	-289
884.555	287
884.610	477
884.636	190
884.716	-6
884.716	-6
884.797	-62
884.821	52
884.877	308
884.927	182
884.958	-63
885.033	-170
885.038	-136
885.118	-71
885.139	116
885.199	26
885.244	-233
885.279	-58
885.350	262
885.359	197
885.439	-31
885.456	-165
885.520	55
885.561	245
885.600	172
885.667	-59
885.680	-81
885.760	38
885.773	91
885.840	173
885.878	74
885.920	67
885.984	-48
886.000	-52
886.080	116
886.089	152
886.160	278
886.195	157
886.240	-234
886.300	-447
886.320	-216
886.400	655
886.406	717
886.480	233
886.511	-119
886.560	11
886.616	401
886.640	591
886.720	1129
886.722	1142
886.800	770
886.827	554
886.879	-74
886.932	-608
886.959	-296
887.038	485
887.039	471
887.119	-570
887.143	-890
887.198	-348
887.248	130
887.278	216
887.354	319
887.358	315
887.437	434
887.459	416
887.517	251
887.564	201
887.596	280
887.669	300
887.676	277
887.755	88
887.774	44
887.835	229
887.880	434
887.914	436
887.985	240
887.994	218
888.073	174
888.090	152
888.153	170
888.195	224
888.232	266
888.300	305
888.311	213
888.391	-399
888.405	-524
888.470	-26
888.510	324
888.549	328
888.615	337
888.628	376
888.708	611
888.720	643
888.787	95
888.825	-178
888.866	-190
888.930	-288
888.945	-258
889.024	-20
889.035	12
889.103	261
889.140	425
889.182	276
889.245	-16
889.261	145
889.340	1027
889.349	1124
889.419	468
889.454	156
889.498	70
889.559	-45
889.577	49
889.656	498
889.664	547
889.735	522
889.768	512
889.814	468
889.873	415
889.978	-348
890.083	136
890.187	-302
890.292	-206
890.397	455
890.501	530
890.606	81
890.710	-41
890.815	227
890.919	-481
891.024	-68
891.128	-104
891.233	1036
891.337	57
891.442	857
891.546	-937
891.650	559
891.755	-1000
891.859	960
891.963	-296
892.068	878
892.172	-550
892.276	-285
892.380	-172
892.484	466
892.589	498
892.693	-194
892.797	-376
892.901	-352
893.005	-888
893.109	254
893.213	396
893.317	90
893.421	377
893.525	-192
893.629	543
893.733	-278
893.837	-473
893.941	-715
894.045	-153
894.148	558
894.252	127
894.356	285
894.460	-428
894.564	140
894.667	94
894.771	129
894.875	-251
894.978	67
895.082	-234
895.186	747
895.289	-298
895.393	79
895.496	-202
895.600	-135
895.703	-15
895.807	-45
895.910	-383
896.014	458
896.117	181
896.221	-339
896.324	-181
896.427	-548
896.531	-770
896.634	-535
896.737	244
896.840	54
896.944	17
897.047	-208
897.150	-753
897.253	92
897.356	285
897.460	321
897.563	-667
897.666	-48
897.769	-161
897.872	784
897.975	-522
898.078	438
898.181	-570
898.284	76
898.387	222
898.490	-65
898.593	-595
898.695	-46
898.798	-467
898.901	505
899.004	-136
899.107	593
899.209	-886
899.312	-637
899.415	-599
899.518	-200
899.620	-425
899.723	-235
899.826	-153
899.928	114
900.031	-10
900.133	144
900.236	-120
900.338	-24
900.441	-328
900.543	657
900.646	-146
900.748	-36
900.851	-83
900.953	-71
901.055	-688
901.158	695
901.260	-102
901.362	125
901.465	-197
901.567	-76
901.669	-600
901.771	-581
901.873	-154
901.976	207
902.078	-663
902.180	38
902.282	-587
902.384	184
902.486	-726
902.588	-285
902.690	-1034
902.792	214
902.894	-156
902.996	-193
903.098	-196
903.200	-408
903.302	-366
903.404	273
903.505	45
903.607	-218
903.709	-280
903.811	-591
903.913	-389
904.014	-881
904.116	-92
904.218	26
904.319	-166
904.421	-89
904.523	-108
904.624	380
904.726	742
904.827	-201
904.929	358
905.030	259
905.132	-223
905.233	124
905.335	-848
905.436	-23
905.537	-411
905.639	-30
905.740	427
905.841	241
905.943	-321
906.044	-103
906.145	-1115
906.247	-574
906.348	343
906.449	286
906.550	-75
906.651	-548
906.752	-194
906.854	-69
906.955	551
907.056	-316
907.157	-528
907.258	110
907.359	-296
907.460	435
907.561	-169
907.662	-211
907.762	-1461
907.863	-331
907.964	324
908.065	849
908.166	-161
908.267	-65
908.367	-446
908.468	122
908.569	-482
908.670	-156
908.770	105
908.871	-544
908.971	-260
909.072	-143
909.173	353
909.273	-423
909.374	-405
909.474	-22
909.575	-294
909.675	136
909.776	223
909.876	62
909.977	-384
910.077	281
910.177	-737
910.278	111
910.378	-472
910.478	22
910.579	-801
910.679	-178
910.779	-553
910.879	223
910.980	-405
911.080	-675
911.180	-674
911.280	-193
911.380	-159
911.480	258
911.580	-604
911.680	-196
911.780	-441
911.880	-464
911.980	-1005
912.080	-115
912.180	-760
912.280	209
912.380	143
912.480	-1054
912.580	-867
912.679	-302
912.779	106
912.879	601
912.979	-739
913.078	-831
913.178	-485
913.278	183
913.377	-797
913.477	-575
913.577	-650
913.676	395
913.776	-899
913.875	520
913.975	-363
914.074	-497
914.174	-129
914.273	83
914.373	334
914.472	-165
914.572	-306
914.671	-401
914.770	-440
914.870	-348
914.969	-180
915.068	-965
915.167	-305
915.267	-286
915.366	-396
915.465	-349
915.564	-362
915.663	213
915.763	-243
915.862	155
915.961	-524
916.060	-457
916.159	374
916.258	733
916.357	-1303
916.456	503
916.555	-111
916.654	-175
916.752	-711
916.851	466
916.950	-265
917.049	-999
917.148	-335
917.247	166
917.345	-709
917.444	105
917.543	167
917.642	-649
917.740	170
917.839	340
917.937	72
918.036	896
918.135	-459
918.233	-83
918.332	-907
918.430	-100
918.529	218
918.627	258
918.726	-210
918.824	395
918.923	-270
919.021	378
919.119	-428
919.218	373
919.316	55
919.414	-366
919.512	-448
919.611	631
919.709	-241
919.807	-759
919.905	-175
920.003	-404
920.102	-969
920.200	3
920.298	-749
920.396	120
920.494	119
920.592	-248
920.690	115
920.788	182
920.886	-242
920.984	-340
921.082	-474
921.180	-21
921.277	-303
921.375	-638
921.473	-445
921.571	-37
921.669	-227
921.766	-335
921.864	-793
921.962	718
922.060	-288
922.157	-496
922.255	-842
922.352	-83
922.450	-135
922.548	120
922.645	-436
922.743	-466
922.840	-919
922.938	-208
923.035	-650
923.133	-342
923.230	-156
923.327	12
923.425	371
923.522	-229
923.619	32
923.717	-11
923.814	-125
923.911	-115
924.008	-592
924.106	-422
924.203	-377
924.300	164
924.397	-526
924.494	250
924.591	-345
924.688	-193
924.786	113
924.883	160
924.979	-73
925.077	409
925.173	-272
925.270	-80
925.367	-728
925.464	-581
925.561	-223
925.658	-96
925.755	-572
925.852	407
925.948	-100
926.045	28
926.142	-643
926.239	896
926.335	-80
926.432	-463
926.529	738
926.625	888
926.722	939
926.818	26
926.915	-669
927.011	-146
927.108	598
927.204	-995
927.301	-542
927.397	414
927.494	181
927.590	394
927.687	-539
927.783	-883
927.879	-485
927.976	-269
928.072	-582
928.168	-243
928.264	94
928.361	107
928.457	-362
928.553	-763
928.649	-544
928.745	53
928.841	-460
928.937	-175
929.033	-743
929.129	404
929.225	546
929.321	17
929.417	202
929.513	-177
929.609	164
929.705	-425
929.801	-193
929.897	-475
929.993	-923
930.089	-179
930.184	-111
930.280	89
930.376	79
930.471	20
930.567	-1021
930.663	-544
930.758	-769
930.854	-760
930.950	-645
931.045	-570
931.141	-224
931.236	79
931.332	-379
931.427	-583
931.523	-314
931.618	100
931.714	-511
931.809	-132
931.905	-808
932.000	-330
932.095	-722
932.191	37
932.286	-800
932.381	-321
932.476	-902
932.572	462
932.667	-58
932.762	-708
932.857	-259
932.952	358
933.047	-675
933.142	188
933.237	-352
933.332	-467
933.427	37
933.522	-792
933.617	-389
933.712	98
933.807	-622
933.902	-965
933.997	-570
934.092	-1216
934.187	-788
934.282	-460
934.376	72
934.471	534
934.566	-541
934.661	-323
934.755	-769
934.850	-195
934.945	-631
935.039	-679
935.134	-489
935.228	194
935.323	-198
935.417	-379
935.512	-873
935.606	-579
935.701	-236
935.795	-110
935.890	26
935.984	-431
936.079	-56
936.173	-135
936.267	-143
936.362	-609
936.456	-738
936.550	-561
936.644	-905
936.738	-838
936.833	19
936.927	-665
937.021	-276
937.115	-207
937.209	-840
937.303	-218
937.397	-1205
937.491	95
937.585	-253
937.679	-560
937.773	-1175
937.867	-1332
937.961	-779
938.055	-182
938.149	-252
938.243	-270
938.337	40
938.430	-826
938.524	-363
938.618	367
938.712	636
938.805	111
938.899	-428
938.993	137
939.086	-126
939.180	-307
939.274	415
939.367	1035
939.461	-1026
939.554	-1140
939.648	-397
939.741	-718
939.835	-928
939.928	-518
940.022	-1361
940.115	-1034
940.208	-614
940.302	-708
940.395	-696
940.488	-457
940.582	-463
940.675	-762
940.768	-554
940.861	-49
940.954	-241
941.048	-836
941.141	-559
941.234	-544
941.327	-280
941.420	114
941.513	-875
941.606	-814
941.699	-202
941.792	-469
941.885	-978
941.978	-262
942.071	-1399
942.164	-447
942.257	-624
942.349	140
942.442	-310
942.535	-584
942.628	-539
942.721	-491
942.813	-835
942.906	-565
942.999	-667
943.091	-297
943.184	-558
943.277	-1330
943.369	-320
943.462	-974
943.554	-715
943.647	-525
943.739	-372
943.832	-539
943.924	-762
944.017	-459
944.109	-1364
944.201	-532
944.294	118
944.386	-1320
944.478	-721
944.571	-459
944.663	-965
944.755	-620
944.847	-613
944.940	169
945.032	-778
945.124	-51
945.216	-1245
945.308	-998
945.400	-633
945.492	-407
945.584	-1397
945.676	64
945.768	-686
945.860	223
945.952	-1269
946.044	-728
946.136	-263
946.228	-955
946.320	-825
946.412	-587
946.503	-661
946.595	-628
946.687	-1543
946.779	-538
946.870	-676
946.962	-763
947.054	-1468
947.145	-53
947.237	-644
947.329	-435
947.420	-128
947.512	-435
947.603	-773
947.695	338
947.786	-399
947.878	-811
947.969	-665
948.061	-411
948.152	-782
948.243	-219
948.335	-1045
948.426	-809
948.517	-896
948.609	-296
948.700	-942
948.791	-924
948.882	-554
948.973	-859
949.065	-1168
949.156	-360
949.247	-1363
949.338	-884
949.429	-1393
949.520	-192
949.611	-1054
949.702	-1293
949.793	-558
949.884	-937
949.975	-1451
950.066	-949
950.157	-561
950.247	-761
950.338	-1028
950.429	-904
950.520	85
950.611	-560
950.701	-1245
950.792	-195
950.883	-1476
950.973	-768
951.064	-1414
951.155	-1055
951.245	-690
951.336	-815
951.427	-1423
951.517	-800
951.608	-412
951.698	-1397
951.788	-1062
951.879	-736
951.969	-786
952.060	-276
952.150	-784
952.240	-705
952.331	-1153
952.421	-262
952.511	-1086
952.602	-339
952.692	-1031
952.782	-1227
952.872	-976
952.962	-622
953.052	-1107
953.143	-1506
953.233	230
953.323	-646
953.413	-1092
953.503	-73
953.593	-1431
953.683	93
953.773	-616
953.863	-937
953.953	-765
954.042	-781
954.132	-1718
954.222	-772
954.312	-979
954.402	85
954.492	-359
954.581	125
954.671	-1045
954.761	-880
954.850	-481
954.940	-1172
955.030	-1134
955.119	-407
955.209	-858
955.298	-326
955.388	-1042
955.477	-636
955.567	-1011
955.656	-658
955.746	-1355
955.835	-603
955.925	-1284
956.014	-1592
956.103	-1051
956.193	-252
956.282	-1418
956.371	-400
956.461	-835
956.550	-1047
956.639	-1296
956.728	-996
956.817	-760
956.906	-1244
956.995	-966
957.085	-423
957.174	-842
957.263	-921
957.352	-919
957.441	-217
957.530	-1035
957.619	-647
957.708	-1377
957.796	-395
957.885	-1210
957.974	-394
958.063	-1118
958.152	-885
958.241	-366
958.329	-1684
958.418	-467
958.507	-1528
958.596	-334
958.684	-1240
958.773	-1299
958.861	-645
958.950	-294
959.039	-1136
959.127	-876
959.216	-592
959.304	-898
959.393	-898
959.481	-656
959.570	-395
959.658	-916
959.746	-375
959.835	-817
959.923	-276
960.011	-605
960.100	-376
960.188	-492
960.276	-775
960.365	-722
960.453	-1135
960.541	-1046
960.629	-1098
960.717	-1545
960.805	-992
960.893	-1122
960.981	-1032
961.069	-1219
961.158	-507
961.245	-788
961.333	-1073
961.421	-1290
961.509	-818
961.597	-1020
961.685	-550
961.773	-1638
961.861	-533
961.949	-1188
962.036	-888
962.124	-1596
962.212	-537
962.299	-654
962.387	-420
962.475	-1147
962.562	-899
962.650	-430
962.738	-549
962.825	-1010
962.913	-672
963.000	-1085
963.088	-150
963.175	-992
963.263	-793
963.350	-1291
963.438	-407
963.525	-741
963.612	-365
963.700	-528
963.787	922
963.874	446
963.962	-319
964.049	-1521
964.136	-148
964.223	-1604
964.310	-1271
964.398	-934
964.485	-1258
964.572	-1350
964.659	-271
964.746	-765
964.833	-1197
964.920	-1542
965.007	-285
965.094	-1206
965.181	-1251
965.268	-817
965.355	-1008
965.441	-1558
965.528	-781
965.615	63
965.702	-1566
965.789	-1657
965.875	-608
965.962	-835
966.049	-1175
966.136	-1125
966.222	-691
966.309	-1692
966.395	-659
966.482	-1101
966.569	-852
966.655	-789
966.742	-2
966.828	-949
966.915	-1003
967.001	-1321
967.087	-1174
967.174	-1322
967.260	-709
967.347	-427
967.433	361
967.519	-61
967.605	-283
967.692	-1348
967.778	-958
967.864	-1193
967.950	-281
968.036	-699
968.123	-803
968.209	-1321
968.295	-715
968.381	-756
968.467	-517
968.553	-1322
968.639	-208
968.725	-1467
968.811	-1243
968.897	-727
968.983	-826
969.069	-1057
969.154	-295
969.240	-1293
969.326	-1418
969.412	-1636
969.497	-1129
969.583	-1303
969.669	-458
969.755	-1418
969.840	-814
969.926	-821
970.012	-729
970.097	-866
970.183	-887
970.268	-1307
970.354	-427
970.439	-1633
970.525	823
970.610	-1118
970.696	-616
970.781	-669
970.866	-1616
970.952	-1374
971.037	-903
971.122	-1705
971.208	-1234
971.293	-835
971.378	-781
971.463	-1969
971.549	-1165
971.634	-1097
971.719	-594
971.804	-691
971.889	-1094
971.974	-1062
972.059	-955
972.144	-1558
972.229	-1124
972.314	-514
972.399	-1847
972.484	-885
972.569	-356
972.654	-1476
972.739	-363
972.824	-1274
972.908	-117
972.993	-1381
973.078	-983
973.163	-1526
973.247	-667
973.332	-2095
973.417	-795
973.501	-1858
973.586	-590
973.671	-1156
973.755	-1156
973.840	-1132
973.924	-1131
974.009	-1476
974.093	-1741
974.178	-503
974.262	-362
974.346	-1173
974.431	-723
974.515	-1241
974.600	-819
974.684	-1788
974.768	-996
974.852	-1076
974.937	-1082
975.021	-1043
975.105	-727
975.189	-1636
975.273	152
975.358	-1249
975.442	-506
975.526	-1077
975.610	-1909
975.694	-1210
975.778	-514
975.862	-642
975.946	-2066
976.030	-594
976.114	-397
976.198	-1762
976.281	-787
976.365	-1299
976.449	-351
976.533	-1147
976.617	-1958
976.700	-1433
976.784	-1057
976.868	-1449
976.951	-1066
977.035	-802
977.119	-1396
977.202	-946
977.286	-771
977.369	-849
977.453	-1323
977.536	-1172
977.620	-1256
977.703	-1239
977.787	-1333
977.870	-730
977.953	-728
978.037	-1184
978.120	-368
978.203	-1186
978.287	-984
978.370	-962
978.453	-1358
978.536	-1556
978.620	-33
978.703	-1051
978.786	-1630
978.869	-1563
978.952	-1292
979.035	-732
979.118	-838
979.201	-1727
979.284	-992
979.367	-601
979.450	-860
979.533	-2346
979.616	-1316
979.699	-1878
979.782	-1102
979.865	-999
979.948	-961
980.030	-1150
980.113	-1335
980.196	-1216
980.279	-1269
980.361	-1150
980.444	-790
980.526	-1471
980.609	-1041
980.692	-2222
980.774	-1024
980.857	-1950
980.939	-490
981.022	-1079
981.104	-1031
981.187	-1487
981.269	-1344
981.352	-1584
981.434	-1502
981.516	-1588
981.599	-657
981.681	-1627
981.763	-796
981.846	-1970
981.928	-1535
982.010	-1453
982.092	-1576
982.174	-1015
982.256	-1379
982.339	-1894
982.421	-1076
982.503	-1172
982.585	-952
982.667	-1623
982.749	-1055
982.831	-2337
982.913	-1206
982.995	-1177
983.077	-1974
983.158	-1263
983.240	-1892
983.322	-1000
983.404	-1092
983.486	-1857
983.568	-411
983.649	-1839
983.731	-1313
983.813	-1453
983.894	-1093
983.976	-1056
984.058	-1003
984.139	-2082
984.221	-1926
984.302	-755
984.384	-1637
984.465	-1709
984.547	-1126
984.628	-1299
984.710	-928
984.791	-1842
984.872	-1506
984.954	-1491
985.035	-1270
985.116	-1876
985.198	-708
985.279	-1293
985.360	-778
985.441	-1899
985.522	-207
985.604	-1314
985.685	-2061
985.766	-343
985.847	-597
985.928	-1377
986.009	-1403
986.090	-2392
986.171	-1492
986.252	-1701
986.333	-1328
986.414	-334
986.495	-714
986.576	-2242
986.656	-518
986.737	-1357
986.818	-781
986.899	-2084
986.980	-1334
987.060	-1283
987.141	-1661
987.222	-1299
987.302	-1141
987.383	-1104
987.464	-557
987.544	-1670
987.625	-824
987.705	-948
987.786	-1319
987.866	-2039
987.947	-1242
988.027	-1608
988.108	-1685
988.188	-1602
988.268	-1480
988.349	-1154
988.429	-1295
988.509	-1089
988.589	-1968
988.670	-2588
988.750	-258
988.830	-1938
988.910	-724
988.990	-1067
989.070	-1173
989.151	-1807
989.231	-1619
989.311	-1629
989.391	-941
989.471	-1443
989.551	-1344
989.631	-1915
989.711	-1143
989.791	-1863
989.870	-1191
989.950	-1056
990.030	-1559
990.110	-1267
990.190	-1024
990.269	-1539
990.349	-1029
990.429	-1429
990.509	-1490
990.588	-1660
990.668	-1421
990.747	-2133
990.827	-1040
990.907	-1179
990.986	-1423
991.066	-1776
991.145	-1343
991.225	-1188
991.304	-1492
991.383	-1792
991.463	-979
991.542	-1913
991.622	-1635
991.701	-2285
991.780	-1503
991.859	-850
991.939	-1409
992.018	-1844
992.097	-703
992.176	-713
992.256	-1668
992.335	-1447
992.414	-427
992.493	-1067
992.572	-1889
992.651	-966
992.730	-633
992.809	-1296
992.888	-1169
992.967	-1133
993.046	-1437
993.125	-1393
993.203	-1196
993.282	-1943
993.361	-1314
993.440	-1590
993.519	-1491
993.597	-1677
993.676	-1977
993.755	-1245
993.834	-1452
993.912	-2130
993.991	-1037
994.069	-2566
994.148	-1609
994.226	-1977
994.305	-1497
994.384	-2451
994.462	-473
994.540	-1905
994.619	-1798
994.697	-800
994.776	-2262
994.854	-2542
994.932	-1396
995.011	-1368
995.089	-1742
995.167	-1842
995.245	-1705
995.324	-2073
995.402	-974
995.480	-2514
995.558	-576
995.636	-2217
995.714	-1559
995.792	-1144
995.870	-1294
995.948	-1324
996.026	-1424
996.104	-2246
996.182	-643
996.260	-1806
996.338	-1508
996.416	-2151
996.494	-1168
996.572	-1448
996.649	-1103
996.727	-1710
996.805	-1427
996.883	-2504
996.960	-1752
997.038	-1385
997.116	-1557
997.193	-2481
997.271	-754
997.348	-1999
997.426	-1852
997.504	-1890
997.581	-1100
997.658	-1129
997.736	-2133
997.813	-2132
997.891	-1528
997.968	-1794
998.046	-1101
998.123	-1890
998.200	-1935
998.277	-1584
998.355	-393
998.432	-2068
998.509	-1994
998.586	-2007
998.663	-1669
998.741	-1110
998.818	-1130
998.895	-1207
998.972	-836
999.049	-1972
999.126	-1270
999.203	-724
999.280	-2238
999.357	-2083
999.434	-2264
999.511	-2116
999.587	-960
999.664	-2145
999.741	-2240
999.818	-1868
999.895	-1714
999.971	-2787
1000.048	-1608
1000.125	-965
1000.202	-2089
1000.278	-1692
1000.355	-858
1000.431	-2214
1000.508	-2412
1000.584	-1858
1000.661	-1445
1000.738	-2056
1000.814	-1658
1000.890	-1900
1000.967	-1541
1001.043	-2219
1001.120	-2309
1001.196	-1718
1001.272	-1122
1001.349	-1385
1001.425	-1239
1001.501	-2090
1001.577	-2034
1001.654	-2291
1001.730	-2271
1001.806	-2061
1001.882	-1683
1001.958	-1266
1002.034	-1580
1002.110	-1365
1002.186	-1701
1002.262	-1476
1002.338	-1962
1002.414	-780
1002.490	-1397
1002.566	-2595
1002.642	-1314
1002.718	-1683
1002.794	-1940
1002.870	-1409
1002.945	-2078
1003.021	-1612
1003.097	-2232
1003.173	-1284
1003.248	-1594
1003.324	-1442
1003.400	-1768
1003.475	-2083
1003.551	-1741
1003.626	-2045
1003.702	-1962
1003.777	-1974
1003.853	-988
1003.928	-2270
1004.004	-1772
1004.079	-1497
1004.155	-1182
1004.230	-2463
1004.305	-1011
1004.381	-2246
1004.456	-2114
1004.531	-1453
1004.607	-1406
1004.682	-1820
1004.757	-1850
1004.832	-2304
1004.907	-1565
1004.982	-1596
1005.057	-1677
1005.133	-2007
1005.208	-1690
1005.283	-2177
1005.358	-1344
1005.433	-1263
1005.508	-1156
1005.583	-2094
1005.657	-1307
1005.732	-1871
1005.807	-757
1005.882	-2321
1005.957	-1461
1006.032	-1716
1006.106	-1702
1006.181	-2440
1006.256	-1831
1006.331	-1932
1006.405	-2384
1006.480	-1932
1006.554	-778
1006.629	-1408
1006.704	-1440
1006.778	-1820
1006.853	-1695
1006.927	-2272
1007.002	-1176
1007.076	-1827
1007.150	-1722
1007.225	-2352
1007.299	-1067
1007.373	-1923
1007.448	-1268
1007.522	-2278
1007.596	-1231
1007.671	-2495
1007.745	-2086
1007.819	-1645
1007.893	-1812
1007.967	-1894
1008.041	-1693
1008.115	-1211
1008.190	-1629
1008.264	-1948
1008.338	-2001
1008.412	-2010
1008.486	-1678
1008.560	-2344
1008.633	-1553
1008.707	-2414
1008.781	-1099
1008.855	-1904
1008.929	-2099
1009.003	-2741
1009.076	-1889
1009.150	-2621
1009.224	-1449
1009.298	-2025
1009.371	-2047
1009.445	-1866
1009.519	-2032
1009.592	-1968
1009.666	-1573
1009.739	-2033
1009.813	-2604
1009.886	-2237
1009.960	-2483
1010.033	-2227
1010.107	-1565
1010.180	-2567
1010.253	-2230
1010.327	-3044
1010.400	-2970
1010.473	-2299
1010.547	-1350
1010.620	-2554
1010.693	-1094
1010.766	-2040
1010.840	-2515
1010.913	-1092
1010.986	-1607
1011.059	-1881
1011.132	-2306
1011.205	-939
1011.278	-2026
1011.351	-1811
1011.424	-1847
1011.497	-2182
1011.570	-2211
1011.643	-2289
1011.716	-2053
1011.789	-1848
1011.862	-1290
1011.934	-1845
1012.007	-2500
1012.080	-1619
1012.153	-1801
1012.225	-1952
1012.298	-1848
1012.371	-2480
1012.443	-2546
1012.516	-2214
1012.588	-1706
1012.661	-1984
1012.733	-2661
1012.806	-2076
1012.879	-1750
1012.951	-2413
1013.023	-2483
1013.096	-2448
1013.168	-1807
1013.241	-1540
1013.313	-2312
1013.385	-1959
1013.458	-1522
1013.530	-1942
1013.602	-1793
1013.674	-2477
1013.746	-2081
1013.819	-1864
1013.891	-1660
1013.963	-2869
1014.035	-1729
1014.107	-2422
1014.179	-1671
1014.251	-2402
1014.323	-1740
1014.395	-1982
1014.467	-1517
1014.539	-1638
1014.611	-1782
1014.683	-2552
1014.754	-1305
1014.826	-2047
1014.898	-2233
1014.970	-2400
1015.042	-1577
1015.113	-2192
1015.185	-1877
1015.257	-3169
1015.328	-1418
1015.400	-1493
1015.471	-1870
1015.543	-2974
1015.615	-1738
1015.686	-2072
1015.757	-2449
1015.829	-2713
1015.901	-2491
1015.972	-2043
1016.043	-1848
1016.115	-2342
1016.186	-2385
1016.257	-2111
1016.328	-792
1016.400	-1455
1016.471	-2384
1016.542	-2283
1016.613	-1929
1016.685	-2051
1016.756	-2064
1016.827	-2782
1016.898	-2443
1016.969	-858
1017.040	-1836
1017.111	-1910
1017.182	-2420
1017.253	-1766
1017.324	-2076
1017.395	-1895
1017.466	-1580
1017.537	-1984
1017.608	-1914
1017.678	-2325
1017.749	-1329
1017.820	-1299
1017.891	-1817
1017.961	-1998
1018.032	-1424
1018.103	-2037
1018.173	-1619
1018.244	-2705
1018.315	-2066
1018.385	-1941
1018.456	-2957
1018.526	-2288
1018.597	-1409
1018.667	-2977
1018.738	-1837
1018.808	-2168
1018.878	-2097
1018.949	-2503
1019.019	-2327
1019.089	-1840
1019.160	-2116
1019.230	-3257
1019.300	-1552
1019.371	-2317
1019.441	-2365
1019.511	-2621
1019.581	-2600
1019.651	-2432
1019.721	-1790
1019.791	-2665
1019.861	-2108
1019.931	-1506
1020.001	-2069
1020.071	-2288
1020.141	-2313
1020.211	-1854
1020.281	-1868
1020.351	-2987
1020.421	-1509
1020.491	-2508
1020.560	-2070
1020.630	-2411
1020.700	-2114
1020.770	-2704
1020.839	-1583
1020.909	-3357
1020.979	-1811
1021.048	-1379
1021.118	-1224
1021.187	-2029
1021.257	-1582
1021.326	-1615
1021.396	-2187
1021.465	-2168
1021.535	-1719
1021.604	-3172
1021.674	-2288
1021.743	-1993
1021.812	-1225
1021.882	-2548
1021.951	-2162
1022.020	-1674
1022.089	-1920
1022.159	-2128
1022.228	-1933
1022.297	-2610
1022.366	-2225
1022.435	-2533
1022.504	-1686
1022.573	-2604
1022.642	-2118
1022.711	-2610
1022.781	-2122
1022.849	-1609
1022.918	-2127
1022.987	-2512
1023.056	-2279
1023.125	-1727
1023.194	-1457
1023.263	-2706
1023.331	-1136
1023.400	-2348
1023.469	-2082
1023.538	-1677
1023.606	-2545
1023.675	-2734
1023.744	-1788
1023.812	-2596
1023.881	-1572
1023.949	-2784
1024.018	-2275
1024.086	-2705
1024.155	-2008
1024.223	-2312
1024.292	-1845
1024.360	-2303
1024.429	-2490
1024.497	-2504
1024.565	-1365
1024.634	-2634
1024.702	-1770
1024.770	-2371
1024.838	-1776
1024.907	-1485
1024.975	-1867
1025.043	-1709
1025.111	-1526
1025.179	-1922
1025.247	-1732
1025.315	-2089
1025.383	-2609
1025.451	-2028
1025.519	-1886
1025.587	-1995
1025.655	-1455
1025.723	-1453
1025.791	-2537
1025.859	-2587
1025.927	-947
1025.995	-2021
1026.062	-2205
1026.130	-1766
1026.198	-1533
1026.266	-2184
1026.333	-2121
1026.401	-3001
1026.469	-2477
1026.536	-1961
1026.604	-2138
1026.671	-2625
1026.739	-1606
1026.806	-2109
1026.874	-2986
1026.941	-2890
1027.009	-1654
1027.076	-2378
1027.144	-1256
1027.211	-2659
1027.278	-1653
1027.345	-2506
1027.413	-745
1027.480	-2374
1027.547	-2015
1027.614	-2755
1027.682	-1589
1027.749	-2303
1027.816	-1340
1027.883	-1652
1027.950	-1742
1028.017	-2526
1028.084	-1466
1028.151	-2396
1028.218	-1742
1028.285	-2239
1028.352	-2124
1028.419	-2310
1028.486	-1756
1028.553	-1790
1028.619	-2307
1028.686	-2455
1028.753	-2152
1028.820	-2498
1028.886	-1665
1028.953	-1417
1029.020	-2402
1029.086	-2072
1029.153	-2120
1029.220	-2276
1029.286	-2428
1029.353	-2491
1029.419	-1754
1029.486	-1988
1029.552	-1809
1029.619	-1890
1029.685	-2829
1029.751	-3221
1029.818	-1629
1029.884	-1606
1029.951	-1682
1030.017	-2270
1030.083	-1910
1030.149	-2233
1030.216	-1555
1030.282	-2285
1030.348	-1221
1030.414	-2481
1030.480	-2349
1030.546	-2247
1030.612	-1988
1030.678	-1846
1030.744	-1419
1030.810	-2283
1030.876	-1721
1030.942	-2528
1031.008	-2187
1031.074	-2326
1031.140	-1848
1031.206	-2254
1031.272	-2370
1031.337	-1653
1031.403	-1790
1031.469	-1995
1031.534	-1877
1031.600	-1453
1031.666	-2322
1031.731	-2537
1031.797	-1599
1031.863	-1958
1031.928	-1825
1031.994	-3114
1032.059	-2104
1032.125	-2573
1032.190	-1545
1032.256	-3243
1032.321	-2120
1032.386	-1667
1032.452	-2359
1032.517	-1895
1032.582	-2195
1032.647	-2171
1032.713	-2051
1032.778	-2053
1032.843	-2103
1032.908	-2675
1032.974	-1891
1033.039	-2681
1033.104	-1636
1033.169	-3098
1033.234	-1823
1033.299	-2386
1033.364	-1887
1033.429	-2429
1033.494	-1941
1033.559	-2394
1033.624	-1684
1033.688	-1669
1033.753	-1724
1033.818	-2488
1033.883	-1577
1033.948	-1993
1034.013	-2371
1034.077	-1742
1034.142	-1215
1034.207	-2106
1034.271	-1663
1034.336	-2162
1034.400	-1767
1034.465	-1914
1034.530	-1506
1034.594	-2773
1034.658	-2103
1034.723	-2614
1034.787	-2222
1034.852	-2238
1034.916	-1736
1034.981	-2611
1035.045	-2042
1035.109	-2502
1035.173	-1853
1035.238	-2088
1035.302	-2441
1035.366	-2213
1035.430	-2628
1035.495	-2623
1035.559	-1699
1035.623	-1689
1035.687	-2388
1035.751	-2045
1035.815	-1814
1035.879	-2049
1035.943	-1757
1036.007	-2114
1036.071	-1984
1036.135	-2104
1036.198	-2510
1036.262	-1977
1036.326	-2499
1036.390	-2229
1036.454	-1669
1036.517	-2282
1036.581	-2091
1036.645	-2584
1036.709	-2332
1036.772	-1954
1036.836	-2467
1036.900	-2628
1036.963	-2173
1037.026	-2733
1037.090	-1850
1037.154	-2506
1037.217	-1828
1037.280	-2731
1037.344	-1395
1037.407	-2414
1037.471	-2280
1037.534	-1893
1037.597	-1985
1037.661	-2745
1037.724	-1960
1037.787	-3005
1037.850	-1749
1037.913	-2273
1037.977	-1657
1038.040	-3311
1038.103	-2201
1038.166	-2241
1038.229	-1852
1038.292	-2488
1038.355	-1848
1038.418	-2188
1038.481	-1809
1038.544	-2171
1038.607	-1592
1038.670	-2085
1038.732	-2324
1038.795	-2204
1038.858	-1910
1038.921	-2618
1038.984	-1930
1039.046	-2575
1039.109	-2052
1039.172	-2040
1039.234	-3023
1039.297	-2441
1039.360	-2099
1039.422	-2218
1039.485	-2347
1039.547	-2556
1039.610	-1694
1039.672	-2429
1039.734	-2326
1039.797	-2352
1039.859	-1556
1039.922	-2305
1039.984	-2163
1040.046	-1802
1040.109	-1550
1040.171	-3074
1040.233	-2020
1040.295	-2246
1040.358	-1117
1040.420	-2443
1040.482	-2377
1040.544	-2298
1040.606	-2421
1040.668	-2479
1040.730	-2152
1040.792	-2681
1040.854	-2377
1040.916	-1397
1040.978	-2081
1041.040	-2286
1041.102	-2123
1041.164	-2618
1041.225	-2198
1041.287	-2379
1041.349	-1936
1041.411	-3282
1041.472	-2002
1041.534	-2221
1041.596	-1855
1041.657	-2518
1041.719	-1924
1041.781	-2479
1041.842	-2244
1041.904	-1781
1041.965	-2507
1042.027	-1982
1042.088	-1611
1042.150	-2602
1042.211	-2089
1042.272	-1815
1042.334	-2543
1042.395	-3223
1042.456	-3037
1042.518	-2539
1042.579	-1237
1042.640	-1952
1042.701	-2385
1042.763	-2446
1042.824	-2172
1042.885	-2919
1042.946	-1934
1043.007	-2238
1043.068	-2504
1043.129	-3018
1043.190	-2591
1043.251	-2435
1043.312	-1995
1043.373	-2110
1043.434	-2365
1043.495	-1671
1043.556	-2148
1043.616	-2316
1043.677	-2354
1043.738	-2236
1043.799	-1735
1043.859	-2488
1043.920	-1847
1043.981	-3073
1044.041	-1243
1044.102	-2317
1044.162	-2345
1044.223	-2528
1044.284	-1941
1044.344	-1886
1044.405	-1730
1044.465	-2462
1044.525	-2132
1044.586	-2225
1044.646	-1756
1044.707	-1739
1044.767	-2655
1044.827	-2680
1044.887	-1543
1044.948	-1877
1045.008	-1692
1045.068	-1580
1045.128	-2022
1045.188	-2538
1045.249	-1678
1045.309	-1926
1045.369	-1702
1045.429	-1894
1045.489	-1939
1045.549	-2389
1045.609	-1545
1045.669	-2173
1045.729	-1747
1045.789	-2895
1045.848	-1321
1045.908	-1919
1045.968	-1045
1046.028	-1923
1046.088	-2003
1046.147	-2140
1046.207	-2125
1046.267	-2150
1046.326	-2007
1046.386	-2485
1046.446	-1408
1046.505	-2060
1046.565	-1635
1046.624	-1700
1046.684	-771
1046.743	-1124
1046.803	-680
1046.862	-1487
1046.922	0
