'Start Wavelength	183.907
'End Wavelength	1046.922
'Gate Delay	5.000
'Gate Width (ms)	1.050
'Laser Output Level	0.000
'X Position	0.000
'Y Position	0.000
'Z Position	0.000
'Grid Point Number	1.000
'Shot Number	100.000
183.907	699.000
183.977	314.000
184.047	242
184.116	750
184.186	84
184.256	-82
184.325	-50
184.395	-814
184.465	776
184.534	-421
184.604	-115
184.674	54
184.743	-432
184.813	251
184.883	696
184.952	1244
185.022	27
185.092	334
185.161	-904
185.231	-73
185.301	-530
185.370	198
185.440	-170
185.509	230
185.579	354
185.649	-121
185.718	-260
185.788	584
185.857	-276
185.927	62
185.996	-276
186.066	537
186.136	-453
186.205	156
186.275	229
186.344	-160
186.414	-264
186.483	-460
186.553	160
186.622	92
186.692	848
186.761	850
186.831	814
186.900	-216
186.970	99
187.039	710
187.109	108
187.178	437
187.248	148
187.317	-26
187.387	-1027
187.456	406
187.526	-570
187.595	809
187.664	-211
187.734	642
187.803	154
187.873	-255
187.942	598
188.012	55
188.081	-900
188.150	60
188.220	492
188.289	274
188.358	420
188.428	-480
188.497	215
188.567	882
188.636	-50
188.705	-128
188.775	-72
188.844	150
188.913	476
188.983	-204
189.052	188
189.121	30
189.191	-373
189.260	148
189.329	481
189.399	126
189.468	432
189.537	227
189.606	-409
189.676	796
189.745	769
189.814	40
189.883	-396
189.953	100
190.022	337
190.091	-194
190.161	-54
190.230	541
190.299	80
190.368	108
190.437	-316
190.507	436
190.576	-684
190.645	-176
190.714	19
190.783	-578
190.853	535
190.922	519
190.991	-20
191.060	786
191.129	-911
191.198	530
191.268	-12
191.337	251
191.406	480
191.475	-277
191.544	137
191.613	652
191.682	-232
191.752	824
191.821	-580
191.890	92
191.959	795
192.028	238
192.097	36
192.166	-364
192.235	-563
192.304	1092
192.373	-67
192.442	22
192.511	-200
192.580	251
192.650	-154
192.719	-82
192.788	-380
192.857	98
192.926	352
192.995	355
193.064	-566
193.133	494
193.202	343
193.271	441
193.340	484
193.409	110
193.478	-161
193.547	324
193.615	286
193.684	-9
193.753	-359
193.822	280
193.891	-1027
193.960	-175
194.029	-536
194.098	292
194.167	-944
194.236	622
194.305	-155
194.374	460
194.443	146
194.512	139
194.580	388
194.649	22
194.718	580
194.787	689
194.856	152
194.925	207
194.994	40
195.062	812
195.131	174
195.200	966
195.269	-573
195.338	-96
195.407	26
195.475	-588
195.544	1180
195.613	503
195.682	183
195.751	10
195.819	275
195.888	474
195.957	998
196.026	1082
196.094	408
196.163	-40
196.232	315
196.301	671
196.369	-368
196.438	355
196.507	-359
196.576	-666
196.644	-221
196.713	-108
196.782	127
196.850	664
196.919	260
196.988	189
197.056	-186
197.125	-979
197.194	-61
197.262	-182
197.331	-132
197.400	75
197.468	-8
197.537	-679
197.606	-196
197.674	324
197.743	355
197.812	1
197.880	-298
197.949	292
198.017	-492
198.086	418
198.155	146
198.223	-129
198.292	63
198.360	361
198.429	-428
198.497	-248
198.566	490
198.635	511
198.703	148
198.772	-314
198.840	-351
198.909	248
198.977	-306
199.046	821
199.114	-119
199.183	28
199.251	-432
199.320	27
199.388	-42
199.457	-497
199.525	-289
199.594	646
199.662	402
199.731	117
199.799	199
199.867	-223
199.936	-395
200.004	51
200.073	435
200.141	99
200.210	-320
200.278	316
200.346	298
200.415	552
200.483	-512
200.552	48
200.620	-387
200.688	850
200.757	-93
200.825	148
200.893	116
200.962	187
201.030	-128
201.098	184
201.167	431
201.235	300
201.303	-235
201.372	355
201.440	282
201.508	1130
201.577	-334
201.645	78
201.713	-661
201.781	29
201.850	673
201.918	402
201.986	-20
202.055	544
202.123	-89
202.191	-246
202.259	305
202.327	59
202.396	326
202.464	302
202.532	84
202.600	772
202.669	-234
202.737	174
202.805	-883
202.873	208
202.941	-140
203.009	593
203.078	-61
203.146	344
203.214	-13
203.282	-381
203.350	227
203.418	-109
203.487	193
203.555	73
203.623	-203
203.691	24
203.759	-465
203.827	-316
203.895	744
203.963	201
204.031	-399
204.099	-128
204.168	132
204.236	-34
204.304	105
204.372	-252
204.440	-200
204.508	932
204.576	57
204.644	374
204.712	-68
204.780	376
204.848	207
204.916	-538
204.984	-86
205.052	146
205.120	736
205.188	-359
205.256	-28
205.324	-137
205.392	-302
205.460	-510
205.528	-629
205.596	-448
205.664	-45
205.732	49
205.799	33
205.867	132
205.935	-714
206.003	97
206.071	-369
206.139	-136
206.207	-372
206.275	-645
206.343	-181
206.411	366
206.478	124
206.546	-397
206.614	-618
206.682	347
206.750	1008
206.818	65
206.885	307
206.953	-1098
207.021	706
207.089	716
207.157	-599
207.225	-290
207.292	-83
207.360	323
207.428	-309
207.496	402
207.563	43
207.631	506
207.699	-317
207.767	152
207.834	-337
207.902	-142
207.970	-229
208.038	-514
208.105	-186
208.173	-295
208.241	-651
208.309	-1
208.376	-450
208.444	438
208.512	-27
208.579	-661
208.647	271
208.715	786
208.782	-463
208.850	462
208.918	165
208.985	-497
209.053	208
209.120	455
209.188	-1357
209.256	-381
209.323	-1083
209.391	-529
209.459	1199
209.526	245
209.594	-600
209.661	128
209.729	-797
209.796	139
209.864	285
209.932	-307
209.999	762
210.067	275
210.134	249
210.202	-1123
210.269	1112
210.337	813
210.404	9
210.472	26
210.539	-88
210.607	-328
210.674	-356
210.742	941
210.809	-176
210.877	678
210.944	552
211.012	-518
211.079	1995
211.146	533
211.214	-462
211.281	-129
211.349	319
211.416	906
211.484	61
211.551	-302
211.618	150
211.686	-147
211.753	-505
211.821	548
211.888	494
211.955	332
212.023	-157
212.090	535
212.157	384
212.225	345
212.292	446
212.359	284
212.427	1601
212.494	1418
212.561	-159
212.629	-107
212.696	146
212.763	576
212.831	-886
212.898	98
212.965	-294
213.032	483
213.100	300
213.167	-232
213.234	521
213.301	860
213.369	317
213.436	-79
213.503	-3
213.570	541
213.638	106
213.705	542
213.772	-907
213.839	-28
213.906	472
213.973	792
214.041	-331
214.108	1246
214.175	158
214.242	-507
214.309	153
214.376	-228
214.444	-788
214.511	-9
214.578	-20
214.645	962
214.712	234
214.779	398
214.846	-539
214.913	252
214.980	-145
215.048	274
215.115	709
215.182	-49
215.249	-16
215.316	-344
215.383	358
215.450	521
215.517	21
215.584	232
215.651	-562
215.718	-308
215.785	85
215.852	-146
215.919	631
215.986	476
216.053	-10
216.120	42
216.187	13
216.254	614
216.321	525
216.388	-358
216.455	283
216.522	139
216.589	273
216.656	288
216.722	456
216.789	701
216.856	377
216.923	543
216.990	107
217.057	-226
217.124	547
217.191	-453
217.258	-133
217.324	334
217.391	1383
217.458	187
217.525	366
217.592	65
217.659	-967
217.725	830
217.792	-131
217.859	773
217.926	-445
217.993	620
218.059	153
218.126	-323
218.193	-21
218.260	-90
218.327	-209
218.393	273
218.460	304
218.527	-303
218.594	-84
218.660	-110
218.727	521
218.794	-1263
218.860	976
218.927	-798
218.994	-306
219.061	284
219.127	-10
219.194	662
219.261	-140
219.327	-686
219.394	491
219.461	-659
219.527	858
219.594	652
219.661	283
219.727	-553
219.794	-6
219.860	-816
219.927	-154
219.994	192
220.060	991
220.127	1302
220.193	982
220.260	-531
220.326	126
220.393	795
220.460	1073
220.526	-344
220.593	80
220.659	982
220.726	180
220.792	1064
220.859	243
220.925	1241
220.992	1410
221.058	1923
221.125	1302
221.191	503
221.258	-650
221.324	497
221.391	-305
221.457	624
221.524	-467
221.590	434
221.657	1168
221.723	518
221.789	-98
221.856	943
221.922	204
221.989	198
222.055	87
222.121	-209
222.188	2106
222.254	248
222.321	695
222.387	-841
222.453	10
222.520	-76
222.586	-213
222.652	185
222.719	-199
222.785	837
222.851	84
222.918	0
222.984	74
223.050	-541
223.116	-1446
223.183	1181
223.249	-1328
223.315	-247
223.382	300
223.448	-418
223.514	-794
223.580	71
223.647	-438
223.713	-1025
223.779	-166
223.845	129
223.911	-148
223.978	-1247
224.044	492
224.110	-205
224.176	209
224.242	132
224.309	-317
224.375	-437
224.441	531
224.507	495
224.573	-556
224.639	891
224.705	-1093
224.772	569
224.838	-447
224.904	1232
224.970	-1255
225.036	621
225.102	-826
225.168	499
225.234	325
225.300	-339
225.366	-1
225.432	163
225.499	-195
225.565	681
225.631	-806
225.697	-338
225.763	48
225.829	-314
225.895	461
225.961	220
226.027	471
226.093	124
226.159	1264
226.225	1153
226.291	2090
226.357	3483
226.423	1438
226.489	1302
226.554	926
226.620	844
226.686	984
226.752	2029
226.818	1556
226.884	4500
226.950	4784
227.016	914
227.082	1591
227.148	249
227.214	1137
227.279	80
227.345	-239
227.411	772
227.477	1063
227.543	2685
227.609	2192
227.674	1908
227.740	662
227.806	1313
227.872	-419
227.938	-548
228.003	719
228.069	244
228.135	-60
228.201	-209
228.267	-322
228.332	338
228.398	-641
228.464	180
228.530	-627
228.595	473
228.661	-699
228.727	-363
228.792	1300
228.858	-59
228.924	-993
228.990	1680
229.055	-1606
229.121	909
229.187	479
229.252	179
229.318	-101
229.384	-26
229.449	610
229.515	-1517
229.581	-700
229.646	2262
229.712	-220
229.777	318
229.843	-78
229.909	1638
229.974	1319
230.040	174
230.105	669
230.171	-382
230.236	463
230.302	394
230.368	58
230.433	432
230.499	171
230.564	1072
230.630	-97
230.695	121
230.761	946
230.826	-1549
230.892	1413
230.957	-544
231.023	-148
231.088	642
231.154	223
231.219	1536
231.284	-66
231.350	704
231.415	-1109
231.481	1486
231.546	-415
231.612	819
231.677	183
231.742	-919
231.808	248
231.873	-145
231.939	-1569
232.004	1680
232.069	449
232.135	262
232.200	-358
232.265	1036
232.331	-662
232.396	-426
232.461	-1011
232.527	57
232.592	-551
232.657	442
232.723	-304
232.788	311
232.853	199
232.918	76
232.984	-693
233.049	124
233.114	-405
233.179	-282
233.245	1203
233.310	1274
233.375	-480
233.440	734
233.506	8
233.571	367
233.636	-296
233.701	263
233.766	318
233.832	236
233.897	427
233.962	-1555
234.027	979
234.092	443
234.157	-41
234.222	-238
234.288	729
234.353	1822
234.418	1732
234.483	1737
234.548	669
234.613	177
234.678	1295
234.743	-163
234.808	2444
234.873	923
234.938	1530
235.004	497
235.069	394
235.134	-1189
235.199	1125
235.264	536
235.329	-1218
235.394	461
235.459	1019
235.524	-382
235.589	840
235.654	439
235.719	-1478
235.784	75
235.849	228
235.913	474
235.978	881
236.043	1293
236.108	62
236.173	-454
236.238	649
236.303	-160
236.368	129
236.433	1333
236.498	739
236.563	295
236.627	1632
236.692	6860
236.757	5807
236.822	1790
236.887	697
236.952	1658
237.017	-959
237.081	2526
237.146	150
237.211	3569
237.276	6169
237.341	11672
237.405	4732
237.470	2875
237.535	1204
237.600	583
237.664	1080
237.729	-132
237.794	105
237.859	1702
237.923	-51
237.988	1226
238.053	1667
238.118	1485
238.182	1466
238.247	3238
238.312	-311
238.376	1711
238.441	-1409
238.506	1483
238.570	-386
238.635	1298
238.700	67
238.764	-222
238.829	661
238.893	1336
238.958	1348
239.023	375
239.087	-117
239.152	1114
239.216	-740
239.281	66
239.346	593
239.410	365
239.475	-11
239.539	2954
239.604	426
239.668	1879
239.733	660
239.797	2345
239.862	6087
239.926	4954
239.991	1919
240.055	1835
240.120	424
240.184	1192
240.249	145
240.313	623
240.378	280
240.442	778
240.507	1679
240.571	1278
240.635	27
240.700	1353
240.764	415
240.829	-67
240.893	-691
240.957	787
241.022	1665
241.086	2532
241.151	214
241.215	-511
241.279	1270
241.344	716
241.408	806
241.472	718
241.537	1172
241.601	999
241.665	-890
241.730	-181
241.794	1388
241.858	-755
241.922	-48
241.987	588
242.051	-727
242.115	-664
242.179	449
242.244	268
242.308	774
242.372	822
242.436	-240
242.501	329
242.565	-685
242.629	78
242.693	1808
242.757	628
242.822	-619
242.886	850
242.950	638
243.014	-303
243.078	650
243.142	103
243.206	-209
243.271	1117
243.335	15
243.399	1414
243.463	1196
243.527	6826
243.591	1435
243.655	997
243.719	-154
243.783	1537
243.847	902
243.911	1515
243.975	1961
244.040	380
244.104	2111
244.168	781
244.232	-361
244.296	1692
244.360	1488
244.424	42
244.488	1624
244.552	1015
244.615	-1512
244.679	1405
244.743	170
244.807	31
244.871	663
244.935	767
244.999	-59
245.063	125
245.127	1444
245.191	998
245.255	339
245.319	1335
245.383	-582
245.446	1894
245.510	238
245.574	414
245.638	903
245.702	-551
245.766	1265
245.829	2311
245.893	-566
245.957	131
246.021	1306
246.085	1067
246.149	479
246.212	2803
246.276	3286
246.340	1413
246.404	1138
246.467	1810
246.531	-167
246.595	1693
246.659	1676
246.722	-5
246.786	1504
246.850	803
246.913	1481
246.977	54
247.041	891
247.104	1065
247.168	213
247.232	3322
247.295	4061
247.359	2610
247.423	783
247.486	2699
247.550	1758
247.614	1479
247.677	1887
247.741	1350
247.804	113
247.868	2028
247.932	1638
247.995	5625
248.059	2172
248.122	516
248.186	2143
248.249	3185
248.313	7486
248.376	8838
248.440	5360
248.503	870
248.567	3035
248.630	1991
248.694	3788
248.757	4953
248.821	8877
248.884	7258
248.948	4680
249.011	6490
249.075	10542
249.138	8928
249.202	3750
249.265	1579
249.328	3904
249.392	1180
249.455	1862
249.519	1210
249.582	1072
249.645	2735
249.709	1134
249.772	713
249.835	833
249.899	1468
249.962	873
250.025	799
250.089	3180
250.152	5276
250.215	2234
250.279	1986
250.342	1005
250.405	1613
250.468	326
250.532	838
250.595	2666
250.658	5805
250.721	11762
250.785	4244
250.848	3687
250.911	1498
250.974	1580
251.038	2331
251.101	5420
251.164	2551
251.227	1914
251.290	1802
251.354	2612
251.417	9986
251.480	9562
251.543	6167
251.606	17685
251.669	13234
251.732	4553
251.795	6467
251.859	6846
251.922	11623
251.985	8075
252.048	3257
252.111	2110
252.174	2260
252.237	5276
252.300	10222
252.363	8988
252.426	18266
252.489	6254
252.552	3563
252.615	2301
252.678	3104
252.741	6821
252.804	7290
252.867	15930
252.930	10813
252.993	5503
253.056	5598
253.119	1958
253.182	1678
253.245	1800
253.308	2564
253.371	2438
253.434	2751
253.497	2515
253.559	5419
253.622	3463
253.685	5300
253.748	4940
253.811	2358
253.874	2858
253.937	2575
254.000	2457
254.062	3776
254.125	6462
254.188	5365
254.251	3660
254.314	2098
254.376	3817
254.439	5548
254.502	4307
254.565	3391
254.628	7506
254.690	4618
254.753	1938
254.816	1497
254.878	1673
254.941	3703
255.004	4344
255.067	1725
255.129	937
255.192	935
255.255	342
255.317	1221
255.380	1051
255.443	36
255.505	-195
255.568	180
255.631	-412
255.693	1168
255.756	-322
255.819	1330
255.881	161
255.944	1234
256.006	270
256.069	341
256.132	-509
256.194	821
256.257	2089
256.319	1255
256.382	1793
256.444	2040
256.507	760
256.569	587
256.632	383
256.694	1222
256.757	4078
256.819	12310
256.882	3210
256.944	1899
257.007	1834
257.069	1943
257.132	926
257.194	1916
257.257	581
257.319	1520
257.381	1078
257.444	3564
257.506	13569
257.569	17027
257.631	11488
257.693	4894
257.756	2012
257.818	1809
257.880	713
257.943	1278
258.005	-623
258.067	892
258.130	537
258.192	1035
258.254	2074
258.317	1789
258.379	1506
258.441	5073
258.503	3503
258.566	2254
258.628	4504
258.690	526
258.753	1980
258.815	3365
258.877	857
258.939	435
259.001	1004
259.064	447
259.126	247
259.188	1785
259.250	875
259.312	2692
259.375	5836
259.437	3859
259.499	1603
259.561	1654
259.623	2056
259.685	1264
259.747	1605
259.809	2823
259.872	5404
259.934	7544
259.996	7007
260.058	2215
260.120	588
260.182	1549
260.244	665
260.306	459
260.368	287
260.430	-46
260.492	1888
260.554	6551
260.616	4092
260.678	4485
260.740	4485
260.802	590
260.864	1351
260.926	-448
260.988	1695
261.050	603
261.112	1717
261.174	5519
261.236	4242
261.298	1501
261.359	1768
261.421	3845
261.483	504
261.545	1162
261.607	-164
261.669	885
261.731	1704
261.793	4115
261.854	1309
261.916	2050
261.978	1194
262.040	361
262.102	1254
262.164	690
262.225	1262
262.287	1277
262.349	2379
262.411	2548
262.472	2223
262.534	1210
262.596	2887
262.658	1132
262.719	165
262.781	1285
262.843	1357
262.904	1562
262.966	1549
263.028	1465
263.090	4054
263.151	9641
263.213	4340
263.275	2700
263.336	1553
263.398	1344
263.459	324
263.521	956
263.583	2479
263.644	1981
263.706	1239
263.767	148
263.829	494
263.891	399
263.952	71
264.014	99
264.075	379
264.137	2206
264.198	1391
264.260	-679
264.321	314
264.383	606
264.444	3742
264.506	914
264.567	661
264.629	1760
264.690	860
264.752	962
264.813	1480
264.875	29
264.936	1331
264.998	-363
265.059	669
265.120	1031
265.182	179
265.243	3886
265.305	5787
265.366	835
265.427	1044
265.489	1469
265.550	-32
265.611	1358
265.673	660
265.734	255
265.795	255
265.857	64
265.918	-547
265.979	2170
266.040	8510
266.102	8179
266.163	2100
266.224	1841
266.286	725
266.347	771
266.408	1074
266.469	788
266.530	1732
266.592	997
266.653	1598
266.714	3792
266.775	964
266.836	496
266.898	-43
266.959	1728
267.020	1063
267.081	1639
267.142	291
267.203	440
267.264	-1220
267.326	929
267.387	128
267.448	132
267.509	1190
267.570	355
267.631	-378
267.692	175
267.753	635
267.814	-443
267.875	1253
267.936	4051
267.997	756
268.058	508
268.119	737
268.180	806
268.241	-33
268.302	448
268.363	-625
268.424	230
268.485	727
268.546	-63
268.607	93
268.668	496
268.729	-810
268.790	-286
268.851	869
268.912	2053
268.972	3046
269.033	841
269.094	-118
269.155	1249
269.216	-140
269.277	1194
269.338	-267
269.398	239
269.459	708
269.520	1196
269.581	1259
269.642	1501
269.702	223
269.763	1639
269.824	-35
269.885	392
269.945	1715
270.006	79
270.067	-155
270.128	45
270.188	61
270.249	-29
270.310	-32
270.370	1432
270.431	-495
270.492	783
270.553	271
270.613	2422
270.674	3940
270.734	1051
270.795	1188
270.856	2477
270.916	660
270.977	363
271.038	1047
271.098	684
271.159	1192
271.219	1533
271.280	1688
271.340	1300
271.401	369
271.462	1352
271.522	1580
271.583	596
271.643	681
271.704	633
271.764	1096
271.825	2713
271.885	9049
271.946	11089
272.006	4605
272.066	5120
272.127	9016
272.187	5153
272.248	2849
272.308	1969
272.369	5288
272.429	3740
272.489	3241
272.550	2878
272.610	3422
272.671	2452
272.731	2232
272.791	2040
272.852	1544
272.912	2903
272.972	1615
273.033	1167
273.093	752
273.153	1770
273.214	960
273.274	1387
273.334	3404
273.394	9251
273.455	4089
273.515	4430
273.575	8243
273.635	4069
273.696	5143
273.756	7917
273.816	4710
273.876	3282
273.936	3386
273.997	5253
274.057	1860
274.117	1748
274.177	2396
274.237	9927
274.297	6975
274.358	6281
274.418	6413
274.478	6009
274.538	1447
274.598	773
274.658	3918
274.718	5299
274.778	2506
274.838	1802
274.898	1570
274.958	6054
275.018	7959
275.078	5514
275.138	1921
275.198	1035
275.258	435
275.318	481
275.378	2588
275.438	3984
275.498	2295
275.558	2405
275.618	7199
275.678	5793
275.738	4176
275.798	2164
275.858	722
275.918	1086
275.978	1279
276.038	974
276.098	1433
276.157	2108
276.217	7205
276.277	2972
276.337	2017
276.397	1574
276.457	1397
276.517	1550
276.576	1487
276.636	638
276.696	1661
276.756	4479
276.815	2222
276.875	2015
276.935	1613
276.995	1552
277.055	875
277.114	1821
277.174	2121
277.234	4918
277.293	2545
277.353	1538
277.413	849
277.472	909
277.532	789
277.592	2427
277.651	6715
277.711	12997
277.771	4141
277.830	14329
277.890	13091
277.950	8303
278.009	21821
278.069	10688
278.128	9720
278.188	13968
278.248	7506
278.307	15160
278.367	9068
278.426	3782
278.486	1781
278.545	1517
278.605	1408
278.664	1105
278.724	1327
278.783	3708
278.843	8829
278.902	3346
278.962	2414
279.021	2900
279.081	3764
279.140	3224
279.199	2186
279.259	3074
279.318	3226
279.378	5409
279.437	9551
279.496	25199
279.556	50914
279.615	41102
279.675	12450
279.734	9156
279.793	13537
279.853	19505
279.912	9512
279.971	5924
280.031	6292
280.090	10026
280.149	15170
280.208	11683
280.268	32750
280.327	36267
280.386	10380
280.445	8722
280.505	6868
280.564	4404
280.623	2840
280.682	4235
280.742	6209
280.801	1845
280.860	1871
280.919	1685
280.978	1943
281.037	770
281.097	1389
281.156	3159
281.215	940
281.274	1829
281.333	6603
281.392	4850
281.451	2216
281.510	1513
281.569	398
281.628	469
281.688	1063
281.747	2646
281.806	2225
281.865	2398
281.924	1082
281.983	1005
282.042	-573
282.101	643
282.160	1088
282.219	1046
282.278	1788
282.337	3629
282.396	2340
282.454	1702
282.513	1430
282.572	6148
282.631	3798
282.690	1472
282.749	1287
282.808	1908
282.867	1662
282.926	1647
282.985	1490
283.043	1010
283.102	874
283.161	993
283.220	2736
283.279	6162
283.338	1919
283.396	1835
283.455	1823
283.514	2235
283.573	1543
283.631	3143
283.690	1394
283.749	1762
283.808	3329
283.866	4430
283.925	2278
283.984	2280
284.043	2829
284.101	2652
284.160	2654
284.219	3460
284.277	3678
284.336	5194
284.395	9387
284.453	7677
284.512	4586
284.570	6200
284.629	6490
284.688	7323
284.746	8373
284.805	10014
284.863	12998
284.922	17174
284.981	20293
285.039	27845
285.098	35686
285.156	40184
285.215	30082
285.273	30813
285.332	40909
285.390	39582
285.449	29742
285.507	23027
285.566	17262
285.624	14530
285.683	11265
285.741	8497
285.799	7530
285.858	6939
285.916	6359
285.975	4691
286.033	3699
286.091	3524
286.150	2339
286.208	2609
286.267	2531
286.325	3359
286.383	4070
286.442	2991
286.500	2265
286.558	941
286.616	1245
286.675	3018
286.733	2207
286.791	1692
286.850	2462
286.908	2462
286.966	3076
287.024	1875
287.083	1576
287.141	980
287.199	1318
287.257	2501
287.315	2038
287.374	1029
287.432	3002
287.490	1706
287.548	963
287.606	1228
287.664	1189
287.723	368
287.781	2024
287.839	1101
287.897	628
287.955	1237
288.013	1000
288.071	4227
288.129	12628
288.187	36989
288.245	15366
288.303	5019
288.361	2858
288.419	2052
288.477	1933
288.535	1921
288.593	1064
288.651	785
288.709	541
288.767	1008
288.825	1098
288.883	786
288.941	499
288.999	435
289.057	810
289.115	-98
289.173	434
289.231	1093
289.289	695
289.346	823
289.404	917
289.462	1733
289.520	1781
289.578	429
289.636	-55
289.694	466
289.751	42
289.809	91
289.867	704
289.925	1142
289.983	690
290.040	996
290.098	261
290.156	159
290.214	747
290.271	519
290.329	554
290.387	931
290.444	-41
290.502	549
290.560	111
290.617	63
290.675	-64
290.733	178
290.790	338
290.848	1440
290.906	566
290.963	361
291.021	289
291.078	876
291.136	356
291.194	1416
291.251	4559
291.309	1912
291.366	431
291.424	375
291.481	1265
291.539	1252
291.596	1053
291.654	990
291.711	322
291.769	1169
291.826	1682
291.884	1110
291.941	307
291.999	431
292.056	999
292.114	1130
292.171	698
292.228	1167
292.286	957
292.343	1652
292.401	2213
292.458	1367
292.515	719
292.573	2694
292.630	539
292.687	1954
292.745	515
292.802	203
292.859	2982
292.917	7031
292.974	3444
293.031	2014
293.089	1032
293.146	820
293.203	1268
293.260	445
293.318	1045
293.375	1459
293.432	535
293.489	1090
293.546	1049
293.604	1312
293.661	3900
293.718	9554
293.775	5235
293.832	3991
293.889	4078
293.947	4823
294.004	3095
294.061	2320
294.118	3368
294.175	6118
294.232	6633
294.289	3318
294.346	1447
294.403	1666
294.460	422
294.517	575
294.574	681
294.631	927
294.688	404
294.745	2859
294.802	8708
294.859	8769
294.916	5500
294.973	3041
295.030	2497
295.087	1599
295.144	786
295.201	866
295.258	862
295.315	1158
295.372	3701
295.429	7187
295.486	3045
295.542	1150
295.599	2553
295.656	5131
295.713	3404
295.770	5690
295.827	1905
295.883	1283
295.940	797
295.997	3108
296.054	2105
296.111	839
296.167	1103
296.224	133
296.281	-196
296.338	-205
296.394	-19
296.451	571
296.508	1941
296.564	5522
296.621	4547
296.678	7275
296.734	11625
296.791	4769
296.848	2414
296.904	2482
296.961	5398
297.018	6849
297.074	5082
297.131	1975
297.187	955
297.244	2479
297.301	5980
297.357	13290
297.414	4507
297.470	2100
297.527	1101
297.583	912
297.640	672
297.696	1063
297.753	-240
297.809	437
297.866	-642
297.922	468
297.979	-309
298.035	1060
298.092	1339
298.148	4191
298.204	4069
298.261	1905
298.317	3752
298.374	9299
298.430	6262
298.486	1885
298.543	1449
298.599	1821
298.656	884
298.712	2894
298.768	4691
298.824	2531
298.881	1314
298.937	496
298.993	880
299.050	685
299.106	1257
299.162	688
299.218	1298
299.275	404
299.331	1363
299.387	2442
299.443	9445
299.500	13794
299.556	7345
299.612	3294
299.668	2953
299.724	6319
299.780	8714
299.837	3611
299.893	3755
299.949	9175
300.005	14156
300.061	9983
300.117	16128
300.173	8295
300.229	4349
300.285	4323
300.341	4821
300.397	2370
300.453	803
300.510	1411
300.566	1435
300.622	3716
300.678	11381
300.734	18627
300.790	10949
300.845	10179
300.901	9507
300.957	14876
301.013	8494
301.069	4126
301.125	3360
301.181	3201
301.237	1325
301.293	1128
301.349	1443
301.405	907
301.461	102
301.516	529
301.572	1120
301.628	2803
301.684	2064
301.740	3168
301.796	4639
301.851	4101
301.907	6666
301.963	6440
302.019	8569
302.074	20024
302.130	22372
302.186	11035
302.242	4607
302.297	3365
302.353	2476
302.409	4909
302.464	4465
302.520	3230
302.576	8532
302.631	10558
302.687	6594
302.743	2416
302.798	1265
302.854	721
302.910	1203
302.965	1134
303.021	3234
303.076	3115
303.132	2908
303.187	4751
303.243	2580
303.299	1488
303.354	834
303.410	792
303.465	413
303.521	445
303.576	1203
303.632	1360
303.687	2176
303.743	7098
303.798	6337
303.853	2071
303.909	1398
303.964	1136
304.020	1875
304.075	5015
304.130	3215
304.186	6387
304.241	6969
304.297	6830
304.352	3072
304.358	2982
304.407	2256
304.449	2590
304.463	2701
304.518	2680
304.539	2290
304.573	1653
304.629	695
304.630	740
304.684	2858
304.720	4640
304.739	5475
304.794	8266
304.811	7358
304.850	5192
304.902	2053
304.905	1852
304.960	1069
304.992	508
305.015	103
305.071	1260
305.083	1191
305.126	902
305.173	809
305.181	815
305.236	415
305.264	946
305.292	1410
305.347	953
305.354	982
305.402	1322
305.445	1553
305.457	1566
305.512	2365
305.535	2036
305.567	1712
305.622	1670
305.626	1705
305.678	2919
305.716	6240
305.733	7292
305.788	9685
305.807	8366
305.843	6410
305.897	7656
305.898	7657
305.953	8231
305.988	5123
306.008	3485
306.063	2364
306.078	2151
306.118	1917
306.168	1136
306.173	1047
306.228	1622
306.259	1186
306.283	888
306.338	566
306.349	688
306.393	1264
306.440	977
306.448	911
306.503	1471
306.530	1318
306.558	1438
306.613	2018
306.620	2311
306.668	5057
306.711	8075
306.723	8223
306.778	6980
306.801	5269
306.833	3729
306.888	2085
306.892	2016
306.943	1578
306.982	1572
306.997	1524
307.052	1510
307.072	1394
307.107	1420
307.162	1679
307.163	1678
307.217	1622
307.253	1717
307.272	1751
307.327	1693
307.343	1641
307.381	1616
307.434	1824
307.436	1916
307.491	4123
307.524	5991
307.546	6267
307.600	6913
307.614	6249
307.655	4017
307.704	2753
307.710	2772
307.765	2361
307.795	2776
307.819	2893
307.874	3617
307.885	3672
307.929	3867
307.975	3606
307.984	3750
308.038	5327
308.065	6581
308.093	12488
308.148	26602
308.156	29547
308.202	42102
308.246	51419
308.257	50132
308.312	27288
308.336	18646
308.366	13807
308.421	9064
308.426	8524
308.475	5694
308.517	4559
308.530	4377
308.585	3648
308.607	3669
308.639	3808
308.694	3474
308.697	3488
308.748	4627
308.787	5332
308.803	5268
308.857	4874
308.877	4834
308.912	5599
308.967	6641
308.967	6655
309.021	10939
309.058	14549
309.076	17796
309.130	28904
309.148	32636
309.185	51594
309.238	81558
309.239	81793
309.293	88328
309.328	84048
309.348	74304
309.402	40366
309.418	31590
309.457	23819
309.508	16205
309.511	16257
309.566	19676
309.598	22160
309.620	28113
309.674	45192
309.688	49664
309.729	46302
309.778	37442
309.783	36492
309.837	23655
309.868	16891
309.892	17227
309.946	19223
309.959	20114
310.001	21628
310.049	22685
310.055	21917
310.109	13193
310.139	8272
310.163	6577
310.218	3699
310.229	3206
310.272	3203
310.319	3554
310.326	3484
310.381	2684
310.409	2240
310.435	2111
310.489	1987
310.499	2016
310.543	2199
310.589	2032
310.598	2039
310.652	2307
310.679	2388
310.706	2153
310.760	1623
310.769	1556
310.814	2259
310.859	2814
310.868	2701
310.923	2027
310.948	1814
310.977	1949
311.031	1909
311.038	1928
311.085	1803
311.128	1490
311.139	1630
311.193	2496
311.218	2805
311.247	2415
311.301	1734
311.308	1656
311.356	1979
311.398	2213
311.410	2147
311.464	1713
311.488	1574
311.518	1835
311.572	2174
311.578	2213
311.626	2518
311.668	2765
311.680	2726
311.734	2482
311.758	2366
311.788	2272
311.842	2086
311.847	2062
311.896	2538
311.937	2974
311.950	2968
312.004	2886
312.027	2846
312.058	2469
312.112	1786
312.117	1717
312.165	1769
312.207	1811
312.297	1518
312.386	1575
312.476	2675
312.566	4468
312.656	2343
312.745	1274
312.835	2152
312.925	2011
313.015	2850
313.104	1684
313.194	2809
313.284	2198
313.374	2867
313.463	2791
313.553	3139
313.643	2623
313.732	2245
313.822	2020
313.912	2876
314.001	2750
314.091	3749
314.180	3451
314.270	3378
314.360	3815
314.449	3732
314.539	2957
314.628	3064
314.718	3686
314.808	3972
314.897	3351
314.987	3656
315.076	4651
315.166	4980
315.255	4429
315.345	4331
315.434	3083
315.524	4027
315.613	4775
315.703	6580
315.792	12106
315.881	33779
315.971	11564
316.060	7413
316.150	6316
316.239	5080
316.328	3479
316.418	3967
316.507	3728
316.597	4825
316.686	4033
316.775	4019
316.865	5662
316.954	3340
317.043	3044
317.133	2923
317.222	2614
317.311	3044
317.400	1880
317.490	4566
317.579	3861
317.668	4253
317.757	7112
317.847	19516
317.936	52659
318.025	18875
318.114	14192
318.203	7188
318.293	5157
318.382	7729
318.471	8981
318.560	8980
318.649	12065
318.738	4797
318.828	3550
318.917	3739
319.006	3690
319.095	5191
319.184	15491
319.273	10128
319.362	7048
319.451	2524
319.540	2746
319.629	6033
319.718	8785
319.807	4441
319.896	6831
319.985	19411
320.074	8025
320.163	3003
320.252	3533
320.341	3743
320.430	3616
320.519	5253
320.608	3411
320.697	4792
320.786	5063
320.875	6256
320.964	7004
321.053	8761
321.142	11409
321.230	13102
321.319	12468
321.408	18863
321.497	11255
321.586	9665
321.675	8032
321.764	8239
321.852	6499
321.941	10704
322.030	8505
322.119	9770
322.207	18553
322.296	11044
322.385	10328
322.474	15582
322.562	25559
322.651	14456
322.740	13647
322.829	15791
322.917	8633
323.006	8366
323.095	8078
323.183	4508
323.272	5860
323.361	8042
323.449	13340
323.538	6795
323.626	11842
323.715	8760
323.804	4517
323.892	8762
323.981	6643
324.069	4369
324.158	5020
324.246	5055
324.335	5701
324.424	7299
324.512	3972
324.601	4600
324.689	8218
324.778	14286
324.866	8172
324.954	3497
325.043	3370
325.131	2829
325.220	4961
325.308	5594
325.397	4801
325.485	3213
325.574	3499
325.662	4230
325.750	3013
325.839	4518
325.927	2562
326.015	3916
326.104	2469
326.192	2788
326.280	1501
326.369	2427
326.457	4426
326.545	6055
326.634	3058
326.722	2680
326.810	2071
326.898	2983
326.987	3293
327.075	4707
327.163	4487
327.251	2960
327.340	6741
327.428	8326
327.516	4908
327.604	2675
327.692	2331
327.781	2551
327.869	2243
327.957	2575
328.045	2818
328.133	2142
328.221	1512
328.309	3016
328.397	2837
328.485	3860
328.574	5836
328.662	13364
328.750	5605
328.838	3295
328.926	1598
329.014	2080
329.102	2735
329.190	5635
329.278	3141
329.366	1793
329.454	1571
329.542	2334
329.630	1570
329.718	2987
329.806	2145
329.893	2302
329.981	1270
330.069	2511
330.157	2912
330.245	4512
330.333	3164
330.421	3058
330.509	3563
330.597	12539
330.684	6594
330.772	3069
330.860	2283
330.948	3711
331.036	2705
331.123	2139
331.211	2120
331.299	2748
331.387	3767
331.475	4447
331.562	2360
331.650	1958
331.738	1932
331.825	3350
331.913	1830
332.001	3146
332.089	1815
332.176	3530
332.264	3466
332.352	3606
332.439	2834
332.527	4045
332.614	2047
332.702	3098
332.790	2907
332.877	4301
332.965	8067
333.052	6256
333.140	7846
333.228	18937
333.315	5097
333.403	3561
333.490	4417
333.578	8397
333.665	26988
333.753	11906
333.840	3655
333.928	4336
334.015	5408
334.103	9408
334.190	17729
334.278	10357
334.365	12027
334.452	11627
334.540	7042
334.627	6230
334.715	8599
334.802	14704
334.889	28624
334.977	35753
335.064	18406
335.151	8990
335.239	6794
335.326	6197
335.413	12849
335.501	14494
335.588	6330
335.675	6235
335.762	7803
335.850	10520
335.937	15713
336.024	27053
336.111	49064
336.199	39559
336.286	16554
336.373	9634
336.460	5654
336.547	5119
336.635	4643
336.722	4222
336.809	4253
336.896	4562
336.983	7651
337.070	15040
337.157	18860
337.245	9087
337.332	7012
337.419	3802
337.506	2984
337.593	4194
337.680	5960
337.767	11350
337.854	4679
337.941	4352
338.028	4987
338.115	2882
338.202	3920
338.289	5466
338.376	8586
338.463	5575
338.550	7194
338.637	6540
338.724	3295
338.811	4247
338.898	2892
338.984	2671
339.071	2063
339.158	3572
339.245	5981
339.332	4128
339.419	2828
339.506	3482
339.593	1779
339.679	3724
339.766	1962
339.853	3788
339.940	4706
340.027	3057
340.113	2879
340.200	3579
340.287	2861
340.374	3353
340.460	5235
340.547	2166
340.634	5819
340.720	13967
340.807	7171
340.894	3014
340.980	2379
341.067	3064
341.154	3047
341.240	5109
341.327	7189
341.414	5117
341.500	3684
341.587	3622
341.674	2751
341.760	5867
341.847	6081
341.933	2789
342.020	1418
342.106	2583
342.193	3599
342.279	4342
342.366	4283
342.452	5333
342.539	3037
342.625	7686
342.712	13416
342.798	6807
342.885	3279
342.971	2243
343.058	1786
343.144	2094
343.230	2654
343.317	2594
343.403	2720
343.490	2381
343.576	2549
343.662	2961
343.749	2412
343.835	3362
343.921	6124
344.008	27828
344.094	48255
344.180	11894
344.267	6573
344.353	17318
344.439	13400
344.525	8359
344.612	5824
344.698	5160
344.784	3120
344.870	3261
344.957	2260
345.043	4407
345.129	2628
345.215	5668
345.301	3369
345.387	2963
345.474	1192
345.560	2207
345.646	1594
345.732	2733
345.818	2472
345.904	4064
345.990	2832
346.076	3082
346.162	2626
346.249	3405
346.335	3235
346.421	4136
346.507	9483
346.593	21634
346.679	4946
346.765	3725
346.851	4763
346.937	3859
347.023	3656
347.108	3572
347.194	2115
347.280	2893
347.366	5201
347.452	14164
347.538	30648
347.624	22053
347.710	13612
347.796	3826
347.882	2736
347.967	2568
348.053	2135
348.139	2981
348.225	2878
348.311	2680
348.397	3009
348.482	3967
348.568	3625
348.654	4482
348.740	11738
348.825	10637
348.911	7526
348.997	15257
349.083	22041
349.168	3963
349.254	3430
349.340	3025
349.425	2744
349.511	4116
349.597	3447
349.682	7548
349.768	18652
349.854	8072
349.939	3968
350.025	3041
350.110	4215
350.196	3103
350.282	2053
350.367	2887
350.453	2224
350.538	3161
350.624	2838
350.709	3196
350.795	1677
350.880	2185
350.966	3071
351.051	3119
351.137	2822
351.222	3174
351.308	7550
351.393	15140
351.479	5251
351.564	2670
351.649	2949
351.735	2161
351.820	3261
351.906	3405
351.991	3400
352.076	11905
352.162	14017
352.247	4652
352.332	3340
352.418	5218
352.503	6394
352.588	22896
352.673	14455
352.759	5297
352.844	2478
352.929	4724
353.014	3976
353.100	6457
353.185	14748
353.270	10310
353.355	5950
353.441	2590
353.526	2564
353.611	6158
353.696	5262
353.781	4576
353.866	2078
353.952	4702
354.037	5549
354.122	10196
354.207	8294
354.292	3509
354.377	3231
354.462	2896
354.547	3008
354.632	5259
354.717	10223
354.802	16987
354.887	5074
354.972	3189
355.057	2691
355.142	2488
355.227	3580
355.312	4540
355.397	7773
355.482	14772
355.567	6967
355.652	7448
355.737	7351
355.822	20366
355.907	13480
355.991	4680
356.076	3273
356.161	3340
356.246	2498
356.331	3862
356.416	6336
356.501	32706
356.585	25692
356.670	5283
356.755	6802
356.840	9122
356.924	38401
357.009	73284
357.094	23792
357.179	7041
357.263	4548
357.348	5336
357.433	4046
357.517	5441
357.602	4808
357.687	4777
357.771	10001
357.856	10791
357.941	8462
358.025	20138
358.110	63271
358.195	27031
358.279	6251
358.364	6548
358.448	16597
358.533	36615
358.617	26197
358.702	27052
358.787	9285
358.871	7180
358.956	5401
359.040	4262
359.125	3289
359.209	3710
359.294	6480
359.378	8903
359.462	6335
359.547	4853
359.631	2721
359.716	2219
359.800	3352
359.885	4575
359.969	2857
360.053	4269
360.138	3138
360.222	4127
360.306	5961
360.391	5792
360.475	8020
360.559	13425
360.644	13789
360.728	10403
360.812	23392
360.896	44115
360.981	16174
361.065	8255
361.149	5003
361.233	3912
361.318	3050
361.402	4095
361.486	5049
361.570	3734
361.654	5018
361.739	9778
361.823	31231
361.907	42815
361.991	10084
362.075	8312
362.159	13241
362.243	16888
362.327	31848
362.411	47664
362.495	18388
362.580	9413
362.664	8400
362.748	8318
362.832	14046
362.916	27721
363.000	84779
363.084	131736
363.168	73450
363.252	20178
363.336	9642
363.420	10754
363.503	17334
363.587	17231
363.671	7204
363.755	6901
363.839	9111
363.923	6767
364.007	10337
364.091	12674
364.175	18537
364.258	51331
364.342	96903
364.426	166387
364.510	83285
364.594	27606
364.677	19922
364.761	43445
364.845	26470
364.929	11596
365.013	8900
365.096	9199
365.180	7461
365.264	10116
365.347	22669
365.431	9665
365.515	4329
365.598	3633
365.682	4365
365.766	4053
365.849	4457
365.933	4361
366.017	5635
366.100	3584
366.184	3152
366.267	5114
366.351	4965
366.435	3777
366.518	3496
366.602	3608
366.685	3699
366.769	3798
366.852	5262
366.936	6801
367.019	5034
367.103	3426
367.186	5741
367.270	4256
367.353	3158
367.436	4960
367.520	4635
367.603	5866
367.687	5563
367.770	7182
367.853	6511
367.937	16839
368.020	19470
368.104	5825
368.187	7664
368.270	8539
368.353	6995
368.437	6511
368.520	7815
368.603	8746
368.687	15711
368.770	24650
368.853	6341
368.936	7628
369.020	6035
369.103	3736
369.186	2511
369.269	3585
369.352	6456
369.436	6114
369.519	4570
369.602	2455
369.685	5934
369.768	3920
369.851	3751
369.934	3022
370.018	2782
370.101	5315
370.184	7457
370.267	5157
370.350	6149
370.433	8455
370.516	26389
370.599	34513
370.682	12828
370.765	18875
370.848	21444
370.931	31847
371.014	11522
371.097	4110
371.180	4961
371.263	5125
371.346	2414
371.429	4761
371.511	3877
371.594	6548
371.677	7593
371.760	8436
371.843	10261
371.926	32828
372.009	54358
372.091	23963
372.174	17375
372.257	31766
372.340	13463
372.423	11682
372.505	10868
372.588	7358
372.671	14736
372.754	32609
372.836	15696
372.919	10846
373.002	15143
373.085	7963
373.167	9869
373.250	18294
373.332	31313
373.415	43740
373.498	70939
373.580	30765
373.663	53650
373.746	54251
373.828	14389
373.911	8428
373.993	6928
374.076	14534
374.159	10621
374.241	12331
374.324	29095
374.406	17871
374.489	27247
374.571	60835
374.654	24189
374.736	17346
374.819	40861
374.901	56313
374.983	49348
375.066	12257
375.148	7565
375.231	13359
375.313	20982
375.395	10098
375.478	5143
375.560	5710
375.643	7441
375.725	17520
375.807	49824
375.890	29687
375.972	8082
376.054	8177
376.136	7160
376.219	6614
376.301	19705
376.383	41724
376.465	16193
376.548	11191
376.630	15823
376.712	38684
376.794	15933
376.877	4820
376.959	2471
377.041	3673
377.123	4132
377.205	4409
377.287	3503
377.369	4234
377.452	3490
377.534	4043
377.616	3973
377.698	4314
377.780	2973
377.862	4595
377.944	4978
378.026	3304
378.108	4215
378.190	4096
378.272	4448
378.354	2968
378.436	3414
378.518	4089
378.600	7987
378.682	9991
378.764	21522
378.846	14580
378.928	6169
379.010	8394
379.091	6483
379.173	4172
379.255	2856
379.337	5626
379.419	12506
379.501	29052
379.583	10221
379.664	5444
379.746	7799
379.828	22687
379.910	28001
379.991	22702
380.073	5925
380.155	5425
380.237	3983
380.318	4083
380.400	4156
380.482	7589
380.564	9176
380.645	15467
380.727	11957
380.809	7910
380.890	5236
380.972	5763
381.053	5407
381.135	5639
381.217	9937
381.298	23058
381.380	11224
381.461	12338
381.543	41526
381.624	40922
381.706	10410
381.787	7335
381.869	9285
381.951	22028
382.032	58846
382.113	35936
382.195	10244
382.276	14948
382.358	25004
382.439	40211
382.521	42331
382.602	57832
382.684	35190
382.765	64428
382.846	103334
382.928	187891
383.009	101299
383.090	87685
383.172	234300
383.253	273429
383.334	105143
383.416	76444
383.497	44599
383.578	38805
383.659	74568
383.741	210252
383.822	355654
383.903	186951
383.984	76091
384.066	79014
384.147	44863
384.228	18221
384.309	15346
384.390	13972
384.471	10690
384.553	10509
384.634	10323
384.715	12449
384.796	9452
384.877	11339
384.958	24476
385.039	24154
385.120	12297
385.201	9218
385.282	8403
385.363	9126
385.444	10949
385.525	14929
385.606	29692
385.687	23173
385.768	8992
385.849	10728
385.930	35115
386.011	46798
386.092	14751
386.173	8543
386.254	6592
386.335	7883
386.416	7610
386.496	16851
386.577	22088
386.658	9450
386.739	7446
386.820	8190
386.901	6719
386.981	7806
387.062	8476
387.143	12563
387.224	26022
387.304	21614
387.385	13053
387.466	8666
387.547	11254
387.627	10364
387.708	17073
387.789	42200
387.869	40164
387.950	15046
388.031	7441
388.111	5412
388.192	9410
388.273	10459
388.353	9338
388.434	6786
388.514	10718
388.595	34380
388.676	37812
388.756	20664
388.837	20051
388.917	12026
388.998	4227
389.078	6070
389.159	5231
389.239	3868
389.320	7511
389.400	4439
389.480	11986
389.561	22576
389.641	11463
389.722	6475
389.802	7298
389.883	13404
389.963	25965
390.043	12096
390.124	5013
390.204	10630
390.284	23272
390.365	12836
390.445	10151
390.525	19300
390.605	19074
390.686	11018
390.766	6438
390.846	5963
390.927	3548
391.007	4623
391.087	5526
391.167	4444
391.247	3169
391.328	6365
391.408	6751
391.488	6351
391.568	3913
391.648	5991
391.728	7989
391.808	8114
391.888	8486
391.969	16911
392.049	20923
392.129	12093
392.209	14928
392.289	27564
392.369	16355
392.449	12327
392.529	10029
392.609	14277
392.689	16977
392.769	33201
392.849	29008
392.929	29654
393.009	49999
393.089	55867
393.169	87772
393.248	216404
393.328	443631
393.408	410716
393.488	184303
393.568	74351
393.648	39792
393.728	26086
393.807	18852
393.887	16557
393.967	13510
394.047	12715
394.127	9979
394.206	13683
394.286	34944
394.366	126564
394.446	111433
394.525	25572
394.605	10248
394.685	9825
394.764	13969
394.844	20729
394.924	21073
395.003	9875
395.083	7215
395.163	6636
395.242	5902
395.322	6222
395.402	4655
395.481	8295
395.561	12076
395.640	32769
395.720	46029
395.799	28331
395.879	17081
395.958	14585
396.038	45974
396.117	158995
396.197	148321
396.276	41018
396.356	18427
396.435	18436
396.515	21782
396.594	33399
396.673	68953
396.753	202148
396.832	392607
396.912	280283
396.991	92648
397.070	38185
397.150	21368
397.229	20503
397.308	36875
397.388	59846
397.467	26783
397.546	10725
397.625	5887
397.705	10092
397.784	6950
397.863	5448
397.942	5033
398.022	5800
398.101	7677
398.180	13903
398.259	7427
398.338	6364
398.417	5012
398.497	4600
398.576	4741
398.655	3332
398.734	4763
398.813	4512
398.892	7298
398.971	14883
399.050	7511
399.129	2784
399.208	3055
399.287	4460
399.366	2936
399.445	3607
399.524	3216
399.603	2901
399.682	4610
399.761	8998
399.840	17740
399.919	12334
399.998	2766
400.077	2449
400.156	1742
400.235	5411
400.313	2412
400.392	3318
400.471	13460
400.550	16119
400.629	4515
400.708	4226
400.786	2542
400.865	4622
400.944	3713
401.023	5233
401.102	1815
401.180	2276
401.259	2113
401.338	2657
401.416	4114
401.495	2948
401.574	3596
401.652	2246
401.731	5023
401.810	5521
401.888	3615
401.967	1841
402.046	2136
402.124	3348
402.203	2832
402.281	3849
402.360	2250
402.438	5872
402.517	2830
402.596	2525
402.674	2338
402.753	3343
402.831	3412
402.910	5333
402.988	16873
403.066	44892
403.145	23997
403.223	20981
403.302	44390
403.380	35504
403.459	36120
403.537	15323
403.615	6912
403.694	2714
403.772	3856
403.850	3487
403.929	3072
404.007	3251
404.085	12015
404.164	14386
404.242	4796
404.320	8595
404.398	18539
404.477	21897
404.555	51676
404.633	36613
404.711	14437
404.789	8608
404.868	6223
404.946	4388
405.024	2785
405.102	2173
405.180	2158
405.258	1159
405.336	2565
405.415	1788
405.493	6520
405.571	8549
405.649	2633
405.727	1933
405.805	5869
405.883	6440
405.961	4864
406.039	2098
406.117	1254
406.195	4785
406.273	14940
406.351	41984
406.429	20485
406.507	3642
406.585	2749
406.663	2395
406.740	3166
406.818	2064
406.896	1813
406.974	3696
407.052	5543
407.130	27390
407.208	29814
407.285	7616
407.363	1540
407.441	2119
407.519	1763
407.596	2629
407.674	4710
407.752	8611
407.830	7781
407.907	7885
407.985	3617
408.063	2404
408.141	1449
408.218	4426
408.296	5222
408.373	5904
408.451	3931
408.529	2797
408.606	2599
408.684	3604
408.762	2352
408.839	3277
408.917	2815
408.994	3447
409.072	2609
409.149	4507
409.227	7972
409.304	11295
409.382	12122
409.459	13524
409.537	17649
409.614	15381
409.692	11299
409.769	12563
409.846	17927
409.924	21353
410.001	14385
410.079	10207
410.156	7368
410.233	5971
410.311	4580
410.388	4543
410.465	4482
410.543	2972
410.620	4192
410.697	4803
410.775	3885
410.852	1760
410.929	5158
411.006	4862
411.083	3524
411.161	4558
411.238	4641
411.315	3407
411.392	3498
411.469	4282
411.547	2997
411.624	2052
411.701	2645
411.778	2374
411.855	3940
411.932	2738
412.009	1410
412.086	2531
412.163	2712
412.240	1764
412.317	2870
412.394	2063
412.471	2798
412.548	1962
412.625	2200
412.702	2569
412.779	2869
412.856	3170
412.933	1784
413.010	2267
413.087	3845
413.164	11551
413.241	13127
413.318	3340
413.395	3260
413.471	4403
413.548	2631
413.625	2661
413.702	1149
413.779	1661
413.855	1641
413.932	1598
414.009	706
414.086	1961
414.162	2079
414.239	3578
414.316	12380
414.393	20965
414.469	5582
414.546	1820
414.623	2326
414.699	1910
414.776	2114
414.853	1955
414.929	2697
415.006	1909
415.082	2268
415.159	1776
415.236	1764
415.312	2405
415.389	3277
415.465	3028
415.542	2237
415.618	1783
415.695	2672
415.771	2226
415.848	1838
415.924	1602
416.000	1206
416.077	2106
416.153	1015
416.230	1330
416.306	1562
416.383	1128
416.459	2303
416.535	2115
416.612	2356
416.688	1977
416.764	1504
416.841	2039
416.917	1572
416.993	2513
417.069	2482
417.146	1558
417.222	2027
417.298	2854
417.374	1491
417.451	2577
417.527	2152
417.603	2184
417.679	1843
417.755	2354
417.831	1140
417.908	1636
417.984	1939
418.060	1773
418.136	3936
418.212	4601
418.288	1769
418.364	2366
418.440	2126
418.516	2763
418.592	2724
418.668	4355
418.744	7396
418.820	4676
418.896	1885
418.972	2224
419.048	1878
419.124	4610
419.200	2037
419.276	2279
419.352	659
419.428	2294
419.504	2267
419.579	3199
419.655	2872
419.731	2787
419.807	6279
419.883	7400
419.959	5515
420.034	3356
420.110	6190
420.186	15018
420.262	10755
420.337	3905
420.413	3652
420.489	3032
420.565	3641
420.640	3158
420.716	4871
420.792	2815
420.867	3876
420.943	4277
421.019	4726
421.094	4703
421.170	4569
421.245	4424
421.321	5613
421.397	4770
421.472	7685
421.548	9792
421.623	10215
421.699	9043
421.774	9781
421.850	10141
421.925	13314
422.001	15663
422.076	17767
422.152	22087
422.227	30317
422.302	42976
422.378	62844
422.453	107250
422.529	186233
422.604	236864
422.679	200694
422.755	228123
422.830	176971
422.905	104354
422.981	64929
423.056	45037
423.131	32734
423.207	24261
423.282	20810
423.357	19212
423.432	15704
423.508	16108
423.583	16026
423.658	11654
423.733	9409
423.808	8103
423.883	8279
423.959	9639
424.034	10970
424.109	9259
424.184	6790
424.259	5480
424.334	5261
424.409	4382
424.484	4162
424.559	4776
424.634	4157
424.709	4786
424.784	4333
424.859	3924
424.934	4092
425.009	12786
425.084	16244
425.159	6516
425.234	3553
425.309	2676
425.384	4414
425.459	4645
425.534	3236
425.609	2936
425.683	2328
425.758	3026
425.833	3354
425.908	3736
425.983	7703
426.058	15814
426.132	5803
426.207	2725
426.282	3090
426.357	2150
426.431	2506
426.506	3485
426.581	2521
426.655	2195
426.730	1767
426.805	2110
426.879	2644
426.954	1874
427.029	3957
427.103	18990
427.178	34773
427.253	12290
427.327	2654
427.402	2988
427.476	4523
427.551	2652
427.625	2114
427.700	2076
427.774	1604
427.849	2464
427.923	2299
427.998	2493
428.072	4012
428.147	8169
428.221	34376
428.296	86821
428.370	39725
428.444	7155
428.519	4428
428.593	3563
428.667	3898
428.742	5222
428.816	13654
428.890	56123
428.965	73117
429.039	17697
429.113	5458
429.188	2752
429.262	1745
429.336	4267
429.410	8583
429.485	5536
429.559	3880
429.633	3641
429.707	3649
429.781	12160
429.855	56390
429.930	69151
430.004	20505
430.078	18323
430.152	38678
430.226	112534
430.300	95392
430.374	20030
430.448	7310
430.522	7401
430.596	13440
430.670	22307
430.744	82762
430.818	81707
430.892	14865
430.966	3721
431.040	2596
431.114	1931
431.188	1958
431.262	1714
431.336	900
431.410	3744
431.484	4448
431.557	4016
431.631	1758
431.705	5317
431.779	24892
431.853	82935
431.927	46700
432.000	7550
432.074	2525
432.148	2189
432.222	1921
432.295	1485
432.369	1348
432.443	2949
432.516	16611
432.590	32643
432.664	9718
432.737	1826
432.811	480
432.885	1170
432.958	1926
433.032	816
433.106	775
433.179	1074
433.253	1645
433.326	1357
433.400	479
433.473	1399
433.547	694
433.620	1342
433.694	1533
433.767	2187
433.841	36
433.914	1240
433.988	842
434.061	1248
434.134	1369
434.208	879
434.281	1128
434.355	689
434.428	1794
434.501	1288
434.575	839
434.648	764
434.721	1606
434.795	924
434.868	812
434.941	2092
435.014	1046
435.088	2006
435.161	2474
435.234	4435
435.307	4275
435.381	4189
435.454	5953
435.527	9045
435.600	8674
435.673	7718
435.746	4980
435.819	3947
435.892	2709
435.966	2860
436.039	1462
436.112	1756
436.185	1299
436.258	1056
436.331	587
436.404	779
436.477	509
436.550	1132
436.623	983
436.696	840
436.769	1547
436.842	1533
436.915	1314
436.987	1551
437.060	1175
437.133	1316
437.206	76
437.279	1591
437.352	998
437.425	379
437.498	1356
437.570	3078
437.643	2150
437.716	1519
437.789	678
437.861	1770
437.934	1204
438.007	1426
438.080	616
438.152	1775
438.225	4303
438.298	23003
438.370	45774
438.443	14404
438.516	2953
438.588	1126
438.661	171
438.734	866
438.806	1054
438.879	1418
438.951	1625
439.024	1029
439.096	882
439.169	1044
439.241	552
439.314	407
439.386	1349
439.459	882
439.531	1164
439.604	1488
439.676	773
439.749	637
439.821	780
439.893	1305
439.966	1050
440.038	843
440.110	1519
440.183	432
440.255	216
440.327	2761
440.400	9201
440.472	30395
440.544	14152
440.617	2481
440.689	1823
440.761	2595
440.833	2592
440.905	2263
440.978	560
441.050	1318
441.122	1416
441.194	1325
441.266	1034
441.338	1853
441.411	2523
441.483	12078
441.555	12572
441.627	2539
441.699	2123
441.771	1848
441.843	1522
441.915	1344
441.987	1658
442.059	1749
442.131	1602
442.203	2664
442.275	2835
442.347	5335
442.419	14504
442.491	68744
442.563	123020
442.635	43306
442.706	10994
442.778	6681
442.850	3919
442.922	2747
442.994	2889
443.066	3596
443.137	4140
443.209	5126
443.281	8148
443.353	21594
443.425	76320
443.496	199449
443.568	187997
443.640	69915
443.711	15921
443.783	6896
443.855	4143
443.926	3597
443.998	1843
444.070	2531
444.141	2442
444.213	3732
444.285	3379
444.356	2921
444.428	1946
444.499	2317
444.571	1723
444.642	2409
444.714	2690
444.785	2763
444.857	2941
444.928	4388
445.000	3831
445.071	4813
445.143	7334
445.214	9505
445.285	15107
445.357	41301
445.428	138745
445.500	225492
445.571	173934
445.642	106578
445.714	33254
445.785	13191
445.856	6933
445.928	4927
445.999	3065
446.070	2926
446.141	4565
446.213	4923
446.284	2628
446.355	2410
446.426	1561
446.497	2592
446.569	1591
446.640	2260
446.711	2009
446.782	2050
446.853	429
446.924	2031
446.995	1411
447.066	1015
447.138	586
447.209	1317
447.280	561
447.351	1019
447.422	-192
447.493	181
447.564	983
447.635	1273
447.706	841
447.777	234
447.847	649
447.918	125
447.989	-21
448.060	1142
448.131	1918
448.202	1861
448.273	1840
448.344	845
448.414	178
448.485	830
448.556	-188
448.627	720
448.698	828
448.768	364
448.839	475
448.910	663
448.981	2186
449.051	1322
449.122	243
449.193	927
449.263	-239
449.334	961
449.405	1757
449.475	2412
449.546	1178
449.616	1727
449.687	1196
449.758	662
449.828	1003
449.899	627
449.969	436
450.040	612
450.110	160
450.181	1576
450.251	901
450.322	836
450.392	772
450.463	127
450.533	429
450.604	1201
450.674	459
450.744	1221
450.815	690
450.885	1508
450.955	707
451.026	761
451.096	666
451.166	1334
451.237	1371
451.307	2506
451.377	1159
451.447	359
451.518	607
451.588	1179
451.658	812
451.728	790
451.799	2592
451.869	2126
451.939	303
452.009	820
452.079	696
452.149	739
452.219	1087
452.289	3700
452.360	1682
452.430	933
452.500	2191
452.570	3033
452.640	7525
452.710	19893
452.780	17457
452.850	10212
452.920	5054
452.990	3150
453.060	1514
453.129	1908
453.199	1724
453.269	4209
453.339	5953
453.409	7724
453.479	8922
453.549	11182
453.619	10071
453.688	3610
453.758	938
453.828	520
453.898	520
453.968	316
454.037	928
454.087	1008
454.107	1038
454.168	132
454.177	-16
454.247	187
454.249	201
454.316	220
454.330	499
454.386	1609
454.411	1466
454.456	1099
454.492	1451
454.525	1765
454.574	1538
454.595	1432
454.655	1296
454.665	1274
454.734	784
454.736	815
454.804	1438
454.817	1571
454.873	1932
454.898	2022
454.943	2169
454.979	1470
455.013	834
455.060	1014
455.082	1105
455.141	645
455.152	599
455.221	3223
455.222	3280
455.291	6432
455.303	8289
455.360	15092
455.384	20622
455.430	29077
455.465	18940
455.499	9557
455.546	4820
455.569	2862
455.627	2767
455.638	2759
455.707	412
455.708	425
455.777	1193
455.789	1297
455.846	1617
455.869	1384
455.916	893
455.950	857
455.985	868
456.031	885
456.054	863
456.112	567
456.124	507
456.193	1406
456.193	1398
456.262	1415
456.274	1423
456.332	1402
456.355	1415
456.401	1390
456.436	1321
456.470	1213
456.516	798
456.540	617
456.597	1154
456.609	1248
456.678	1566
456.678	1557
456.747	1003
456.759	945
456.817	762
456.840	985
456.886	1379
456.920	1525
456.955	1589
457.001	1906
457.024	2076
457.082	2100
457.093	2139
457.162	2189
457.163	2205
457.232	2114
457.243	2056
457.301	1606
457.324	1326
457.370	1189
457.405	1989
457.439	2676
457.485	2457
457.508	2339
457.566	2945
457.577	3145
457.646	3923
457.647	3961
457.715	10452
457.727	11820
457.784	21221
457.808	28670
457.853	37225
457.889	41207
457.922	39154
457.969	24358
457.991	24281
458.050	32752
458.060	34170
458.129	61509
458.130	62146
458.198	58262
458.211	51852
458.267	24357
458.292	15842
458.336	10472
458.372	10344
458.405	15960
458.453	25497
458.474	32621
458.533	60300
458.543	62342
458.611	97109
458.614	97285
458.680	52044
458.694	39785
458.749	15450
458.775	10464
458.818	6569
458.855	5438
458.887	4848
458.936	4096
458.955	3802
459.016	3294
459.024	3312
459.093	2902
459.097	2904
459.162	2284
459.177	2443
459.230	3181
459.257	3138
459.299	2975
459.338	3211
459.368	3259
459.418	2803
459.437	2750
459.499	2913
459.505	2904
459.574	2534
459.579	2539
459.643	2406
459.659	2343
459.711	2516
459.740	2826
459.780	3012
459.820	2724
459.849	2583
459.900	2907
459.917	2996
459.981	2729
459.986	2687
460.054	2351
460.061	2339
460.123	2593
460.141	2739
460.191	3399
460.222	3495
460.260	3252
460.302	3599
460.328	3643
460.382	3250
460.397	3221
460.462	2932
460.465	2947
460.534	3629
460.543	3763
460.602	7938
460.623	9600
460.671	13661
460.703	17634
460.739	17251
460.783	13852
460.808	11205
460.864	3806
460.876	3305
460.944	2361
460.945	2352
461.013	2772
461.024	2823
461.081	2657
461.104	2734
461.150	3216
461.184	2992
461.218	2702
461.264	3184
461.286	3440
461.345	3552
461.355	3475
461.423	3208
461.425	3184
461.491	2661
461.505	2702
461.559	2773
461.585	2820
461.628	4168
461.665	5474
461.696	5781
461.745	6127
461.764	5605
461.825	3460
461.832	3474
461.901	3392
461.905	3448
461.969	2703
461.985	2435
462.037	3646
462.065	4227
462.105	3644
462.145	3325
462.173	3757
462.225	3905
462.241	3807
462.305	4553
462.310	4569
462.378	4067
462.385	4011
462.446	3438
462.465	3250
462.514	3388
462.545	3465
462.582	3261
462.625	3054
462.650	3001
462.705	3121
462.718	3159
462.785	3196
462.786	3202
462.854	3312
462.865	3408
462.922	3930
462.945	3948
462.990	3426
463.025	3042
463.058	3104
463.104	3272
463.126	3197
463.184	3132
463.194	3232
463.262	3592
463.264	3620
463.330	3586
463.344	3446
463.398	4025
463.424	4402
463.466	3838
463.504	3322
463.533	3181
463.583	3074
463.601	3259
463.663	3537
463.669	3550
463.737	4001
463.743	4011
463.805	4601
463.823	4892
463.873	5673
463.903	5952
463.940	5846
463.982	5919
464.008	5377
464.062	3952
464.076	3900
464.142	3838
464.144	3846
464.211	3653
464.221	3658
464.279	2876
464.301	2622
464.347	3347
464.381	3762
464.414	3635
464.461	3528
464.482	3791
464.540	4643
464.550	4631
464.617	4062
464.620	4048
464.685	3963
464.699	3912
464.753	5003
464.779	5617
464.820	5441
464.859	5093
464.888	4702
464.938	4157
464.956	4564
465.018	5815
465.023	5742
465.091	4882
465.098	4779
465.158	4778
465.177	4797
465.226	5119
465.257	5241
465.293	4897
465.336	4512
465.361	4542
465.416	4467
465.428	4590
465.495	5582
465.496	5598
465.563	6659
465.575	6874
465.631	7350
465.654	7548
465.698	6134
465.734	4840
465.765	4680
465.813	4458
465.833	4515
465.893	4664
465.900	4603
465.968	3948
465.972	3908
466.035	3803
466.052	3731
466.102	4242
466.131	4574
466.170	4592
466.210	4510
466.237	4512
466.290	4594
466.304	4534
466.369	4045
466.372	4060
466.439	4424
466.449	4471
466.506	4910
466.528	5057
466.573	5809
466.607	6316
466.641	7423
466.687	9055
466.708	9806
466.766	11763
466.775	11158
466.842	6444
466.845	6209
466.909	5675
466.925	5550
466.977	5574
467.004	5581
467.044	5691
467.083	5785
467.111	5842
467.163	5909
467.178	6270
467.242	7741
467.245	7716
467.312	6928
467.321	6814
467.379	6161
467.400	5906
467.446	6162
467.480	6331
467.559	6536
467.638	6184
467.717	5700
467.796	6198
467.875	7251
467.955	7037
468.034	8439
468.113	12608
468.192	15538
468.271	11381
468.350	14591
468.429	19459
468.508	21039
468.588	14237
468.667	9843
468.746	8238
468.825	7842
468.904	6675
468.983	7276
469.062	8265
469.141	8829
469.220	7152
469.299	5988
469.378	5444
469.456	6769
469.535	5836
469.614	6101
469.693	5941
469.772	7281
469.851	8599
469.930	7317
470.009	6652
470.088	8359
470.166	11115
470.245	18520
470.324	22724
470.403	14216
470.482	8869
470.560	6911
470.639	7138
470.718	7600
470.797	6783
470.875	8120
470.954	8562
471.033	8239
471.111	6227
471.190	5339
471.269	5484
471.347	5733
471.426	5398
471.505	6487
471.583	6010
471.662	6734
471.740	5935
471.819	5058
471.898	5722
471.976	5748
472.055	5515
472.133	5413
472.212	6939
472.290	7143
472.369	5424
472.447	5793
472.526	5394
472.604	6994
472.683	8214
472.761	7584
472.839	6323
472.918	6557
472.996	6285
473.075	7734
473.153	6335
473.231	6613
473.310	6549
473.388	6198
473.466	6724
473.545	7208
473.623	7358
473.701	8185
473.780	7683
473.858	5565
473.936	10121
474.014	6828
474.093	7419
474.171	7668
474.249	7491
474.327	7354
474.405	6137
474.484	5604
474.562	5537
474.640	5759
474.718	5679
474.796	6103
474.874	6530
474.952	5852
475.030	5251
475.108	5707
475.187	5677
475.265	9985
475.343	20580
475.421	25619
475.499	7809
475.577	6757
475.655	7228
475.733	7691
475.811	10342
475.889	9785
475.966	8433
476.044	7559
476.122	13297
476.200	20335
476.278	16221
476.356	5580
476.434	7379
476.512	11284
476.590	17513
476.667	15167
476.745	6092
476.823	6729
476.901	6579
476.979	5302
477.056	6671
477.134	6052
477.212	5384
477.290	6333
477.367	5433
477.445	5658
477.523	4981
477.601	5421
477.678	5768
477.756	5953
477.834	6254
477.911	5554
477.989	6272
478.066	5597
478.144	7658
478.222	13909
478.299	27549
478.377	28858
478.454	7376
478.532	5546
478.609	5826
478.687	7034
478.764	4762
478.842	6521
478.919	6380
478.997	7020
479.074	6431
479.152	5614
479.229	5618
479.307	4646
479.384	5702
479.461	5328
479.539	5001
479.616	5480
479.694	4997
479.771	6211
479.848	5638
479.926	4877
480.003	7310
480.080	5958
480.157	6215
480.235	5435
480.312	6398
480.389	6930
480.467	5938
480.544	7001
480.621	6184
480.698	6862
480.775	6636
480.853	5882
480.930	5286
481.007	5299
481.084	6264
481.161	6880
481.238	5963
481.315	6206
481.392	5009
481.470	5098
481.547	6040
481.624	5194
481.701	5901
481.778	6442
481.855	6636
481.932	7209
482.009	8518
482.086	9153
482.163	10635
482.240	21373
482.317	41082
482.393	34086
482.470	9251
482.547	8240
482.624	6876
482.701	6415
482.778	6444
482.855	6476
482.932	7284
483.009	7244
483.085	7977
483.162	8893
483.239	8906
483.316	7855
483.393	8623
483.469	7758
483.546	7884
483.623	6756
483.699	6658
483.776	5989
483.853	6268
483.930	6591
484.006	9367
484.083	15063
484.160	11964
484.236	16238
484.313	14210
484.389	11790
484.466	12318
484.543	12794
484.619	14787
484.696	17508
484.772	12723
484.849	12345
484.925	10358
485.002	9550
485.078	9974
485.155	9446
485.231	7709
485.308	9079
485.384	9980
485.461	9719
485.537	10206
485.614	12387
485.690	8686
485.766	9013
485.843	9361
485.919	11143
485.995	13525
486.072	9714
486.148	8416
486.224	9030
486.301	8929
486.377	8832
486.453	7799
486.530	10216
486.606	12022
486.682	11461
486.758	11717
486.835	12116
486.911	10289
486.987	15691
487.063	21508
487.139	28982
487.215	22667
487.292	15029
487.368	14225
487.444	17661
487.520	22362
487.596	30179
487.672	66496
487.748	222717
487.824	344635
487.900	121773
487.976	31605
488.052	18032
488.128	17281
488.204	11831
488.280	12282
488.356	11124
488.432	13661
488.508	16442
488.584	10526
488.660	9886
488.736	9322
488.812	9639
488.888	12050
488.964	13217
489.039	24085
489.115	39856
489.191	27891
489.267	9874
489.343	8181
489.418	8017
489.494	8410
489.570	6569
489.646	10242
489.722	9167
489.797	7660
489.873	8606
489.949	14390
490.024	12923
490.100	8734
490.176	7954
490.251	9648
490.327	11931
490.403	9576
490.478	8803
490.554	8082
490.629	7461
490.705	7444
490.781	9186
490.856	7220
490.932	9351
491.007	8243
491.083	7812
491.158	7430
491.234	8300
491.309	11129
491.385	10347
491.460	8015
491.536	8312
491.611	8127
491.686	8317
491.762	10574
491.837	17684
491.913	28369
491.988	36233
492.063	49412
492.139	15915
492.214	9055
492.289	7711
492.365	7709
492.440	9066
492.515	7823
492.590	7365
492.666	7961
492.741	8062
492.816	9257
492.891	7871
492.967	8367
493.042	8813
493.117	9527
493.192	10367
493.267	19116
493.342	69150
493.418	108760
493.493	22979
493.568	8002
493.643	7171
493.718	8260
493.793	8782
493.868	11138
493.943	10369
494.018	7628
494.093	7441
494.168	7664
494.243	6876
494.318	8151
494.393	7141
494.468	7220
494.543	7990
494.618	7795
494.693	8092
494.768	7828
494.842	7286
494.917	7589
494.992	7411
495.067	7813
495.142	7005
495.217	6978
495.292	7571
495.366	8341
495.441	8294
495.516	10291
495.591	12513
495.665	34382
495.740	80953
495.815	44543
495.890	10124
495.964	6852
496.039	10437
496.114	8274
496.188	9013
496.263	9144
496.338	7318
496.412	8004
496.487	9415
496.561	8709
496.636	10549
496.710	8917
496.785	7892
496.860	8211
496.934	7692
497.009	8664
497.083	7678
497.158	8190
497.232	9492
497.307	10374
497.381	9622
497.455	9824
497.530	10426
497.604	7737
497.679	9286
497.753	9980
497.827	9939
497.902	8753
497.976	10582
498.050	20647
498.125	63719
498.199	73539
498.273	17189
498.348	13212
498.422	11425
498.496	12928
498.570	13939
498.645	8736
498.719	6575
498.793	8960
498.867	10636
498.941	12432
499.016	27544
499.090	67510
499.164	33920
499.238	8575
499.312	7694
499.386	10470
499.460	11958
499.534	10953
499.609	13700
499.683	11810
499.757	9312
499.831	13877
499.905	43082
499.979	46241
500.053	11324
500.127	10861
500.201	11259
500.275	10109
500.349	9601
500.422	10027
500.496	13082
500.570	22171
500.644	37688
500.718	52682
500.792	17860
500.866	7145
500.940	6992
501.013	7504
501.087	8425
501.161	12293
501.235	12324
501.309	17020
501.382	37659
501.456	39339
501.530	12804
501.603	13557
501.677	9699
501.751	5045
501.825	7836
501.898	8807
501.972	16446
502.046	14344
502.119	5911
502.193	10442
502.266	18167
502.340	12108
502.413	9583
502.487	15865
502.561	10518
502.634	7104
502.708	6776
502.781	6521
502.855	8090
502.928	6089
503.002	5446
503.075	4875
503.149	5314
503.222	5612
503.295	6362
503.369	7169
503.442	7691
503.516	14098
503.589	28959
503.662	23154
503.736	12878
503.809	21406
503.882	22391
503.956	32937
504.029	51707
504.102	128760
504.175	200884
504.249	81555
504.322	28503
504.395	15097
504.468	11324
504.542	8867
504.615	6903
504.688	7707
504.761	6039
504.834	8162
504.907	8171
504.980	11645
505.053	7731
505.127	5612
505.200	12276
505.273	6773
505.346	5438
505.419	4491
505.492	6531
505.565	4839
505.638	4757
505.711	4203
505.784	3693
505.857	4716
505.930	6151
506.003	3929
506.076	6741
506.149	4676
506.221	4584
506.294	7279
506.367	6986
506.440	20887
506.513	16466
506.586	6752
506.659	4903
506.731	5497
506.804	5373
506.877	7020
506.950	5672
507.022	6101
507.095	4058
507.168	6413
507.241	6166
507.313	5088
507.386	4604
507.459	7551
507.531	5878
507.604	3592
507.677	5637
507.749	3609
507.822	6473
507.894	8722
507.967	11182
508.040	6015
508.112	6231
508.185	5750
508.257	5020
508.330	9917
508.402	6485
508.475	5141
508.547	5799
508.620	5196
508.692	5876
508.765	6457
508.837	4947
508.909	5738
508.982	5655
509.054	6039
509.127	6074
509.199	4596
509.271	4074
509.344	5011
509.416	5725
509.488	4935
509.560	5925
509.633	5600
509.705	6107
509.777	5998
509.849	8779
509.922	6864
509.994	5785
510.066	6643
510.138	4988
510.210	9889
510.283	7625
510.355	7148
510.427	6403
510.499	6368
510.571	6986
510.643	5880
510.715	10090
510.787	8537
510.859	7309
510.931	7123
511.003	8803
511.076	10293
511.148	5484
511.219	6763
511.291	6660
511.363	8623
511.435	6513
511.507	4749
511.579	6609
511.651	6718
511.723	5876
511.795	5566
511.867	5570
511.939	5854
512.010	6670
512.082	7373
512.154	4524
512.226	5889
512.298	8574
512.369	9817
512.441	9033
512.513	8669
512.585	6394
512.656	7958
512.728	7825
512.800	6480
512.871	6553
512.943	6371
513.015	4950
513.086	6569
513.158	7412
513.230	5423
513.301	7961
513.373	10969
513.444	7526
513.516	6056
513.588	5696
513.659	6941
513.731	7672
513.802	6397
513.874	12891
513.945	21167
514.016	9744
514.088	6759
514.159	6067
514.231	8489
514.302	9774
514.374	7870
514.445	6043
514.516	10148
514.588	7410
514.659	6378
514.730	7411
514.802	9377
514.873	5134
514.944	8365
515.016	7475
515.087	8715
515.158	7727
515.229	10065
515.301	5764
515.372	8045
515.443	5844
515.514	6299
515.585	5495
515.656	8406
515.728	7640
515.799	6137
515.870	7709
515.941	8751
516.012	6536
516.083	10160
516.154	10984
516.225	14007
516.296	16243
516.367	15615
516.438	17634
516.509	22738
516.580	33526
516.651	111679
516.722	392184
516.793	198432
516.864	34471
516.935	30392
517.006	34301
517.077	43293
517.148	97362
517.219	413578
517.289	659297
517.360	132714
517.431	36527
517.502	17255
517.573	15839
517.643	13973
517.714	14485
517.785	16761
517.856	17013
517.926	22765
517.997	28209
518.068	35133
518.138	49705
518.209	73399
518.280	261864
518.350	895282
518.421	408732
518.492	71292
518.562	38689
518.633	37446
518.703	44812
518.774	90565
518.845	246930
518.915	257610
518.986	75157
519.056	33794
519.127	28495
519.197	29514
519.268	37946
519.338	25564
519.408	11634
519.479	15412
519.549	12566
519.620	11304
519.690	8868
519.760	7628
519.831	8131
519.901	8959
519.971	7377
520.042	7388
520.112	6775
520.182	10242
520.253	9980
520.323	6660
520.393	6986
520.463	11484
520.534	5854
520.604	12980
520.674	8925
520.744	7963
520.814	10766
520.885	13365
520.955	11272
521.025	28780
521.095	17082
521.165	9076
521.235	5526
521.305	6520
521.375	7351
521.445	7213
521.515	8153
521.585	11797
521.655	9448
521.725	8729
521.795	8720
521.865	4161
521.935	8348
522.005	6392
522.075	5256
522.145	6990
522.215	5457
522.285	8369
522.355	8060
522.424	12004
522.494	10421
522.564	9446
522.634	16141
522.704	50348
522.774	26998
522.843	8426
522.913	8289
522.983	9403
523.053	7483
523.122	8694
523.192	8339
523.262	24606
523.331	29351
523.401	9871
523.471	6985
523.540	7970
523.610	6395
523.680	7356
523.749	7033
523.819	7165
523.888	7360
523.958	6635
524.027	6298
524.097	6802
524.166	6571
524.236	6347
524.305	8536
524.375	6267
524.444	5305
524.514	8255
524.583	5935
524.653	6783
524.722	8056
524.791	5641
524.861	7953
524.930	6580
524.999	7201
525.069	9157
525.138	7652
525.207	7963
525.277	8203
525.346	7882
525.415	9626
525.484	10474
525.554	11647
525.623	12006
525.692	14550
525.761	17709
525.830	22490
525.900	29122
525.969	44024
526.038	78809
526.107	156608
526.176	481830
526.245	413161
526.314	121450
526.383	229466
526.452	338976
526.522	451692
526.591	465078
526.660	96418
526.729	51254
526.797	51134
526.867	74860
526.935	254797
527.004	730675
527.073	486377
527.142	70522
527.211	26800
527.280	19450
527.349	15866
527.418	10672
527.487	11233
527.555	7803
527.624	7886
527.693	6124
527.762	8378
527.831	6132
527.899	7406
527.968	7377
528.037	6546
528.106	8042
528.174	11552
528.243	10894
528.312	10162
528.380	14604
528.449	7781
528.518	8133
528.586	5989
528.655	6985
528.723	6653
528.792	5635
528.861	6632
528.929	5342
528.998	7321
529.066	6193
529.135	9092
529.203	8741
529.272	8571
529.340	11186
529.409	11766
529.477	8823
529.545	8498
529.614	12146
529.682	10477
529.751	13540
529.819	15036
529.887	14740
529.956	12745
530.024	12807
530.092	11537
530.161	13308
530.229	14700
530.297	14196
530.365	13617
530.434	12929
530.502	13086
530.570	12621
530.638	10408
530.707	12936
530.775	13400
530.843	11106
530.911	11827
530.979	12710
531.047	12966
531.115	12924
531.183	11914
531.252	11254
531.320	11052
531.388	10445
531.456	12273
531.524	11735
531.592	14023
531.660	16229
531.728	13247
531.796	12133
531.864	13273
531.932	13265
532.000	13208
532.067	13674
532.135	15291
532.203	16548
532.271	16467
532.339	20602
532.407	31701
532.475	27066
532.542	18328
532.610	17775
532.678	18576
532.746	44610
532.814	111152
532.881	43381
532.949	17735
533.017	16265
533.084	13990
533.152	14238
533.220	13164
533.287	13938
533.355	14318
533.423	15724
533.490	15131
533.558	14259
533.625	14450
533.693	14420
533.761	14533
533.828	15081
533.896	14167
533.963	20849
534.031	23332
534.098	32790
534.166	24590
534.233	17932
534.300	19453
534.368	19093
534.435	18379
534.503	18901
534.570	20967
534.637	22799
534.705	25927
534.772	29724
534.840	45624
534.907	205310
534.974	293267
535.041	47073
535.109	21206
535.176	16723
535.243	17246
535.310	16513
535.378	15335
535.445	15004
535.512	14625
535.579	15121
535.646	13911
535.714	15014
535.781	16257
535.848	15995
535.915	16987
535.982	15682
536.049	16366
536.116	17294
536.183	15056
536.250	14061
536.317	14577
536.384	15847
536.451	17473
536.518	19207
536.585	15260
536.652	17808
536.719	20353
536.786	17623
536.853	16712
536.920	19188
536.987	22750
537.053	22198
537.120	57397
537.187	63817
537.254	17900
537.321	15424
537.388	15513
537.454	14179
537.521	15027
537.588	14783
537.654	15002
537.721	17163
537.788	18589
537.855	14373
537.921	15528
537.988	15130
538.055	15005
538.121	13373
538.188	14106
538.254	15519
538.321	22012
538.388	19625
538.454	16731
538.521	16258
538.587	15351
538.654	14655
538.720	14348
538.787	15473
538.853	15358
538.920	16131
538.986	14263
539.053	14784
539.119	14619
539.185	14130
539.252	16788
539.318	19565
539.385	19819
539.451	18063
539.517	18912
539.583	17977
539.650	22692
539.716	51488
539.782	25753
539.849	14691
539.915	15632
539.981	16998
540.047	15768
540.114	15740
540.180	16808
540.246	16574
540.312	18539
540.378	22783
540.444	24732
540.510	25782
540.576	55822
540.643	28719
540.709	15650
540.775	17122
540.841	14865
540.907	16267
540.973	17219
541.039	16624
541.105	18293
541.171	16692
541.237	15908
541.303	17211
541.369	19044
541.435	17395
541.500	21997
541.566	17470
541.632	14222
541.698	14074
541.764	16723
541.830	15461
541.896	14316
541.961	15487
542.027	16613
542.093	16877
542.159	17372
542.224	15686
542.290	18184
542.356	21367
542.421	23929
542.487	18399
542.553	15638
542.618	16283
542.684	14618
542.750	15628
542.815	17994
542.881	19879
542.947	46388
543.012	46132
543.078	16931
543.143	14661
543.209	16149
543.274	16339
543.340	17078
543.405	24536
543.471	36722
543.536	18333
543.602	16503
543.667	13935
543.732	15965
543.798	14407
543.863	15491
543.928	14669
543.994	14253
544.059	14970
544.124	15857
544.190	15500
544.255	16293
544.320	17147
544.386	16056
544.451	18658
544.516	20130
544.581	18567
544.646	33323
544.712	56604
544.777	22565
544.842	17417
544.907	16795
544.972	17591
545.037	17251
545.102	18073
545.168	18252
545.233	19440
545.298	19394
545.363	19420
545.428	21040
545.493	27753
545.558	46538
545.623	30063
545.688	19661
545.753	20128
545.818	20506
545.883	21801
545.947	20807
546.012	22697
546.077	22981
546.142	24584
546.207	24490
546.272	27418
546.337	28561
546.401	28332
546.466	27862
546.531	28406
546.596	31205
546.661	32079
546.725	33269
546.790	33944
546.855	37760
546.919	39901
546.984	46410
547.049	49703
547.113	56486
547.178	59712
547.243	67345
547.307	77082
547.372	87015
547.436	88585
547.501	89426
547.565	97933
547.630	91713
547.695	90217
547.759	87121
547.823	88782
547.888	88886
547.952	91017
548.017	94797
548.081	98239
548.146	97289
548.210	98813
548.274	106885
548.339	105238
548.403	96276
548.468	90575
548.532	87555
548.596	92072
548.660	91328
548.725	98506
548.789	107423
548.853	107358
548.917	101060
548.982	99032
549.046	89888
549.110	80165
549.174	81100
549.238	94507
549.303	104001
549.367	108986
549.431	102845
549.495	96645
549.559	96294
549.623	108860
549.687	122542
549.751	123087
549.815	141869
549.879	144430
549.943	137933
550.007	143440
550.071	142605
550.135	134129
550.199	123961
550.263	122122
550.327	114986
550.391	116299
550.455	128878
550.519	135025
550.582	144264
550.646	166019
550.710	169730
550.774	163522
550.838	165396
550.901	167528
550.965	177740
551.029	185169
551.093	200057
551.156	215111
551.220	245637
551.284	276504
551.347	216710
551.411	183801
551.475	176343
551.538	176656
551.602	167461
551.666	160397
551.729	148509
551.793	143600
551.856	143020
551.920	141599
551.983	139893
552.047	136557
552.110	137839
552.174	139314
552.237	142895
552.301	134542
552.364	128516
552.428	124359
552.491	128745
552.554	131883
552.618	131672
552.681	135399
552.745	133037
552.808	149132
552.871	174573
552.934	148718
552.998	135656
553.061	130776
553.124	126747
553.187	124849
553.251	131049
553.314	130566
553.377	133119
553.440	145159
553.503	197812
553.567	267591
553.630	157630
553.693	139723
553.756	137418
553.819	135100
553.882	130249
553.945	129087
554.008	129451
554.071	131490
554.134	132430
554.197	124170
554.260	121940
554.323	123483
554.386	125018
554.449	129083
554.512	131719
554.575	126155
554.638	124425
554.701	123255
554.764	122018
554.827	116666
554.889	114758
554.952	108324
555.015	105051
555.078	106875
555.141	108805
555.203	108000
555.266	106336
555.329	105433
555.391	101059
555.454	101757
555.517	97919
555.580	94151
555.642	90346
555.705	89103
555.768	88898
555.830	87061
555.893	82654
555.955	81347
556.018	79240
556.080	78388
556.143	80951
556.206	82729
556.268	78531
556.330	78650
556.393	75809
556.455	72823
556.518	72223
556.580	71185
556.643	68675
556.705	66838
556.767	65781
556.830	64635
556.892	63180
556.955	66856
557.017	63127
557.079	61282
557.142	60309
557.204	59143
557.266	65625
557.328	61871
557.391	53231
557.453	51012
557.515	51412
557.577	52533
557.639	54669
557.701	51847
557.764	52522
557.826	53264
557.888	55689
557.950	56934
558.012	61098
558.074	72697
558.136	149804
558.198	372350
558.260	152806
558.322	61739
558.384	60362
558.446	63840
558.508	68793
558.570	77742
558.632	91809
558.694	116322
558.756	159436
558.818	433611
558.880	944751
558.942	414610
559.003	395971
559.065	213785
559.127	81941
559.189	77019
559.251	78848
559.312	103718
559.374	234110
559.436	709412
559.498	394798
559.559	97688
559.621	76339
559.683	79967
559.744	120816
559.806	372484
559.868	573988
559.929	144162
559.991	80443
560.052	121175
560.114	346478
560.176	239596
560.237	194519
560.299	337852
560.360	88290
560.422	36162
560.483	31023
560.545	28044
560.606	26021
560.667	25711
560.729	25205
560.790	22934
560.852	23092
560.913	22960
560.974	21719
561.036	22147
561.097	22168
561.158	22567
561.220	23267
561.281	21480
561.342	21375
561.403	23025
561.465	22974
561.526	34341
561.587	42232
561.648	23302
561.709	20476
561.771	20323
561.832	18861
561.893	19338
561.954	18769
562.015	19152
562.076	18143
562.137	18365
562.198	17837
562.259	19229
562.320	17941
562.381	19211
562.442	20570
562.503	19462
562.564	17662
562.625	18040
562.686	16536
562.747	16930
562.808	16448
562.869	16882
562.930	17375
562.991	16820
563.051	16799
563.112	16871
563.173	16373
563.234	16278
563.294	16058
563.355	15043
563.416	15809
563.477	15442
563.537	15573
563.598	15122
563.659	16620
563.720	15672
563.780	14435
563.841	16589
563.901	15643
563.962	14562
564.023	14994
564.083	15512
564.144	14862
564.204	14758
564.265	14663
564.325	14990
564.386	17015
564.446	16474
564.507	14181
564.567	14913
564.628	13883
564.688	15174
564.749	13993
564.809	14348
564.869	14862
564.930	14617
564.990	14472
565.050	14203
565.111	14377
565.171	14891
565.231	13825
565.292	15325
565.352	13963
565.412	14219
565.472	14714
565.532	14658
565.593	14177
565.653	13478
565.713	14999
565.773	15351
565.833	15817
565.893	17558
565.953	14261
566.013	14755
566.074	13832
566.134	14133
566.194	14810
566.254	16752
566.314	14602
566.374	14229
566.434	13812
566.494	13875
566.554	13902
566.614	13920
566.673	14032
566.733	15204
566.793	14055
566.853	14153
566.913	14216
566.973	13898
567.033	13523
567.092	13982
567.152	13823
567.212	14755
567.272	13918
567.331	13830
567.391	14582
567.451	14722
567.511	15185
567.570	15476
567.630	14519
567.690	14563
567.749	13904
567.809	13741
567.868	15273
567.928	14056
567.988	14285
568.047	13978
568.107	13629
568.166	14363
568.226	13994
568.285	15385
568.345	14700
568.404	14946
568.464	14443
568.523	13188
568.582	14956
568.642	15201
568.701	14985
568.761	14400
568.820	13919
568.879	14546
568.939	15601
568.998	14196
569.057	13016
569.116	13592
569.176	13486
569.235	13282
569.294	13280
569.353	13629
569.413	13805
569.472	12734
569.531	12612
569.590	12662
569.649	13077
569.708	11764
569.767	13256
569.827	12984
569.886	13772
569.945	12750
570.004	12891
570.063	13532
570.122	14044
570.181	14439
570.240	13211
570.299	15119
570.358	14566
570.417	13347
570.475	14124
570.534	14830
570.593	13844
570.652	15117
570.711	13399
570.770	13850
570.829	13929
570.887	14687
570.946	15259
571.005	14048
571.064	14950
571.122	14959
571.181	14656
571.240	13124
571.299	13063
571.357	13356
571.416	13020
571.475	14402
571.533	14137
571.592	13329
571.650	13729
571.709	14628
571.768	15575
571.826	16386
571.885	14463
571.943	13393
572.002	12993
572.060	12442
572.119	12660
572.177	12782
572.236	13505
572.294	14255
572.352	13939
572.411	14586
572.469	12264
572.528	12576
572.586	12930
572.644	12304
572.703	13392
572.761	12717
572.819	12475
572.877	11849
572.936	12281
572.994	11043
573.052	11598
573.110	11781
573.169	11691
573.227	12146
573.285	12199
573.343	12105
573.401	12177
573.459	12613
573.517	11779
573.576	12387
573.634	13031
573.692	10999
573.750	12941
573.808	11603
573.866	11768
573.924	11980
573.982	12094
574.040	11437
574.098	11741
574.155	12259
574.213	12258
574.271	10552
574.329	12651
574.387	11756
574.445	11466
574.503	11020
574.560	10168
574.618	10282
574.676	10231
574.734	9804
574.792	11210
574.849	10172
574.907	9470
574.965	9668
575.022	9740
575.080	9422
575.138	9991
575.195	10355
575.253	8993
575.311	10251
575.368	10411
575.426	10095
575.483	10269
575.541	10221
575.598	9876
575.656	9442
575.713	9438
575.771	9511
575.828	9070
575.886	8970
575.943	9593
576.001	9106
576.058	8798
576.115	9117
576.173	10712
576.230	10658
576.287	11294
576.345	10632
576.402	9733
576.459	10349
576.517	9099
576.574	9822
576.631	9474
576.688	9644
576.746	8288
576.803	8518
576.860	8579
576.917	9337
576.974	9257
577.031	9797
577.089	9436
577.146	8150
577.203	8404
577.260	10158
577.317	8804
577.374	8622
577.431	8870
577.488	9360
577.545	8449
577.602	9098
577.659	9471
577.716	11443
577.773	13091
577.830	10671
577.886	8665
577.943	8883
578.000	9470
578.057	9330
578.114	9899
578.171	9623
578.227	12495
578.284	11102
578.341	10215
578.398	8507
578.454	9549
578.511	8968
578.568	9692
578.625	8684
578.681	9640
578.738	8456
578.794	8643
578.851	9270
578.908	9701
578.964	9260
579.021	10045
579.077	8786
579.134	9288
579.190	9602
579.247	8933
579.303	8395
579.360	8260
579.416	8357
579.473	9011
579.529	8359
579.586	9210
579.642	9366
579.698	8721
579.755	10081
579.811	8919
579.867	9549
579.924	8690
579.980	10050
580.036	10365
580.093	12176
580.149	13919
580.205	16001
580.261	13159
580.317	11311
580.374	11224
580.430	10905
580.486	9175
580.542	10357
580.598	10890
580.619	10378
580.654	9497
580.692	9812
580.710	9985
580.765	9225
580.767	9211
580.823	10794
580.838	10680
580.879	10409
580.911	9723
580.935	9248
580.984	10273
580.991	10424
581.047	9754
581.057	9795
581.103	10028
581.130	10256
581.159	10501
581.203	10969
581.215	11108
581.270	9927
581.276	9898
581.326	9684
581.349	9735
581.382	9828
581.422	9744
581.438	9722
581.494	8937
581.494	8932
581.550	8955
581.567	9255
581.606	9951
581.640	9952
581.661	9924
581.713	10177
581.717	10210
581.773	9421
581.786	9562
581.829	10061
581.859	9829
581.885	9617
581.932	10352
581.940	10491
581.996	10568
582.004	10540
582.052	10369
582.077	10246
582.107	10166
582.150	10419
582.163	10475
582.219	10991
582.223	10866
582.274	9597
582.296	9849
582.330	10154
582.368	10206
582.386	10278
582.441	10314
582.441	10316
582.497	10652
582.514	10520
582.552	10529
582.587	11938
582.608	12696
582.659	11756
582.663	11688
582.719	11493
582.732	11298
582.774	10724
582.805	10529
582.830	10356
582.877	11232
582.885	11409
582.941	11041
582.950	11219
582.996	11769
583.023	12009
583.052	12608
583.095	12998
583.107	13037
583.162	14362
583.168	14368
583.218	14122
583.240	13530
583.273	12674
583.313	11670
583.328	11373
583.384	10633
583.385	10630
583.439	10555
583.458	10628
583.494	10554
583.531	10235
583.549	10222
583.603	10392
583.605	10386
583.660	9567
583.676	9804
583.715	10496
583.748	10277
583.770	10249
583.820	10590
583.825	10566
583.881	10061
583.893	9942
583.936	10019
583.965	10267
583.991	10338
584.038	10075
584.046	10041
584.101	10583
584.110	10543
584.156	10256
584.183	10410
584.211	10649
584.255	10663
584.266	10644
584.321	11228
584.328	11205
584.376	11137
584.400	11038
584.431	10866
584.472	10948
584.486	10955
584.541	10873
584.545	10894
584.596	11241
584.617	11276
584.651	11596
584.689	12854
584.706	13213
584.761	12719
584.762	12722
584.816	13309
584.834	13156
584.871	12748
584.906	13221
584.926	13430
584.978	14112
584.980	14156
585.035	15247
585.051	15476
585.090	16088
585.123	17250
585.145	17837
585.195	19529
585.200	19800
585.254	22993
585.267	24090
585.309	27573
585.340	30688
585.364	32920
585.412	35140
585.419	35609
585.473	41206
585.484	42758
585.528	51907
585.556	63617
585.583	86289
585.628	143722
585.637	163267
585.692	343776
585.700	374468
585.747	476640
585.772	397442
585.801	250938
585.845	92053
585.856	70542
585.910	37861
585.917	35252
585.965	27821
585.989	24937
586.019	22397
586.061	19932
586.074	19345
586.128	18240
586.133	18228
586.183	18253
586.205	18054
586.237	17725
586.277	17377
586.292	17369
586.346	16779
586.349	16774
586.401	16642
586.421	16781
586.455	16729
586.493	16527
586.509	16793
586.564	17038
586.565	17080
586.618	18992
586.637	19437
586.672	20740
586.709	22218
586.727	22738
586.781	24263
586.781	24261
586.835	20157
586.853	18820
586.889	17079
586.925	15938
586.944	15783
586.996	16545
586.998	16551
587.052	16259
587.068	16197
587.106	16611
587.140	16566
587.161	16361
587.212	16221
587.215	16247
587.269	16835
587.284	16929
587.323	16781
587.356	16916
587.377	17214
587.427	17893
587.431	17932
587.485	17783
587.499	17855
587.539	18401
587.571	18844
587.593	19084
587.643	19607
587.648	19691
587.702	20538
587.715	20658
587.755	20655
587.786	20688
587.810	20582
587.858	20457
587.864	20479
587.917	20413
587.930	20329
587.971	20849
588.001	21419
588.025	21356
588.073	21374
588.079	21493
588.133	21899
588.145	22088
588.187	22090
588.217	21966
588.241	22459
588.288	23863
588.295	24031
588.348	24516
588.360	24770
588.402	25671
588.431	26125
588.456	26877
588.503	28534
588.510	28783
588.564	30849
588.575	31325
588.617	33688
588.646	35274
588.671	36975
588.718	40632
588.725	41771
588.778	51984
588.789	54817
588.832	84591
588.861	108544
588.886	156326
588.932	262261
588.939	270659
588.993	321173
589.004	317872
589.047	177615
589.075	94182
589.100	71344
589.147	43857
589.154	42893
589.207	38276
589.218	37418
589.261	37189
589.290	37622
589.314	38869
589.361	42010
589.368	43812
589.421	60239
589.433	64491
589.475	112365
589.504	151454
589.528	197073
589.576	290347
589.582	280972
589.635	143238
589.647	115360
589.689	64511
589.718	36522
589.742	32939
589.790	26999
589.795	26851
589.849	25895
589.861	25775
589.902	25215
589.932	24524
589.955	24085
590.004	23187
590.009	23167
590.062	23187
590.075	23122
590.115	22358
590.146	21825
590.168	22235
590.218	22845
590.222	22865
590.275	23119
590.289	23107
590.328	23338
590.360	23696
590.381	23952
590.431	24296
590.435	24320
590.488	24136
590.503	24181
590.541	24199
590.574	24000
590.594	24377
590.645	25271
590.647	25320
590.700	26054
590.716	26256
590.753	27069
590.787	27685
590.806	27632
590.859	27435
590.859	27486
590.912	28996
590.930	29446
590.965	28992
591.001	28511
591.018	28441
591.071	27972
591.072	27936
591.124	28101
591.143	28175
591.177	28340
591.214	28404
591.230	28694
591.283	29525
591.285	29523
591.336	29355
591.356	29305
591.389	29464
591.427	29375
591.442	29070
591.495	27985
591.498	27880
591.547	28427
591.569	28566
591.600	28847
591.640	29218
591.653	29352
591.706	29699
591.711	29712
591.759	30029
591.782	30097
591.811	30844
591.853	31904
591.864	32142
591.917	33030
591.924	33126
591.969	33298
591.995	33290
592.022	32943
592.066	32319
592.075	32533
592.127	33634
592.137	33804
592.180	34187
592.208	34340
592.233	34584
592.279	34935
592.285	35103
592.338	36194
592.350	36390
592.390	36349
592.421	36236
592.443	36340
592.491	36433
592.495	36525
592.548	37151
592.562	37281
592.600	37195
592.633	37031
592.653	37112
592.704	37008
592.705	37231
592.775	37807
592.846	38869
592.916	39019
592.987	38924
593.058	39651
593.128	40366
593.199	40090
593.270	41806
593.341	40778
593.411	43129
593.482	43831
593.553	45050
593.623	44373
593.694	46011
593.764	46421
593.835	45696
593.906	46376
593.976	46792
594.047	49197
594.117	51234
594.188	51106
594.258	51790
594.329	51203
594.399	53451
594.470	53843
594.540	56278
594.611	57826
594.681	56838
594.751	56058
594.822	60196
594.892	60472
594.963	61232
595.033	63891
595.103	65851
595.174	66930
595.244	69349
595.314	70489
595.384	71680
595.455	72255
595.525	74960
595.595	78577
595.665	77899
595.736	76144
595.806	77676
595.876	79703
595.946	79918
596.016	83653
596.087	84890
596.157	85165
596.227	86776
596.297	91460
596.367	96009
596.437	102636
596.507	101117
596.577	101937
596.647	105084
596.717	109146
596.787	110411
596.857	110360
596.927	112025
596.997	111728
597.067	113096
597.137	118385
597.207	116737
597.277	117046
597.347	110374
597.417	109610
597.487	109725
597.557	112969
597.626	114904
597.696	115105
597.766	114846
597.836	107698
597.906	103193
597.975	102614
598.045	104876
598.115	109158
598.185	117559
598.254	130521
598.324	140541
598.394	142440
598.464	137082
598.533	133487
598.603	126401
598.672	124120
598.742	125246
598.812	127378
598.881	130220
598.951	128089
599.020	132212
599.090	137633
599.159	137935
599.229	133206
599.299	130104
599.368	133402
599.437	132395
599.507	121234
599.576	119435
599.646	117617
599.715	116772
599.785	115379
599.854	112162
599.924	110155
599.993	110824
600.062	113424
600.132	117436
600.201	124086
600.270	143000
600.340	149603
600.409	145793
600.478	145129
600.547	147693
600.617	132357
600.686	110033
600.755	100332
600.824	96922
600.894	94399
600.963	95854
601.032	93208
601.101	91786
601.170	87588
601.239	85821
601.308	89848
601.378	89172
601.447	89155
601.516	89378
601.585	91796
601.654	95076
601.723	93264
601.792	95935
601.861	98649
601.930	105552
601.999	104343
602.068	103293
602.137	106836
602.206	109011
602.275	107791
602.343	108326
602.412	109092
602.481	109657
602.550	110712
602.619	112858
602.688	114892
602.756	116066
602.825	115810
602.894	118179
602.963	120268
603.032	122483
603.100	123160
603.169	123070
603.238	124888
603.307	125066
603.375	126051
603.444	128441
603.513	127464
603.581	130307
603.650	132240
603.719	123453
603.787	127492
603.856	131017
603.924	133303
603.993	138405
604.061	144344
604.130	150387
604.198	152149
604.267	154637
604.335	156628
604.404	160180
604.472	161886
604.541	162958
604.609	166039
604.678	166401
604.746	166739
604.815	173823
604.883	172535
604.951	173094
605.020	177216
605.088	177433
605.156	178417
605.225	181868
605.293	181323
605.361	182790
605.429	185010
605.498	188320
605.566	193967
605.634	201135
605.702	207038
605.771	212244
605.839	213859
605.907	208740
605.975	201745
606.043	198391
606.111	196717
606.180	198782
606.248	195889
606.316	196449
606.384	190660
606.452	189956
606.520	192715
606.588	196493
606.656	197057
606.724	192835
606.792	179246
606.860	163296
606.928	150102
606.996	143580
607.064	142299
607.132	146488
607.200	154970
607.267	159280
607.335	163778
607.403	166579
607.471	158497
607.539	155823
607.607	154317
607.674	137294
607.742	139248
607.810	137913
607.878	136412
607.946	140186
608.013	145916
608.081	150018
608.149	149753
608.216	156249
608.284	162815
608.352	160706
608.419	156781
608.487	156353
608.555	153117
608.622	158491
608.690	169052
608.757	186250
608.825	188268
608.893	183570
608.960	171391
609.028	165348
609.095	164676
609.163	163356
609.230	145379
609.298	136493
609.365	143612
609.432	156063
609.500	169607
609.567	194321
609.635	219697
609.702	226708
609.769	214543
609.837	166654
609.904	147056
609.971	151955
610.039	167169
610.106	207397
610.173	356767
610.241	708530
610.308	381057
610.375	181815
610.442	158379
610.509	151207
610.577	154774
610.644	155990
610.711	161301
610.778	164872
610.845	172000
610.912	183751
610.980	191968
611.047	195924
611.114	188104
611.181	179058
611.248	179798
611.315	191718
611.382	193244
611.449	202227
611.516	204449
611.583	201450
611.650	200864
611.717	206350
611.784	206164
611.851	215907
611.918	226585
611.984	258629
612.051	332965
612.118	577660
612.185	1138646
612.252	694849
612.319	293394
612.386	259047
612.452	239250
612.519	229841
612.586	224461
612.653	228337
612.719	236840
612.786	227057
612.853	212736
612.919	208588
612.986	211883
613.053	197933
613.120	186963
613.186	179348
613.253	183674
613.319	183072
613.386	185427
613.453	186434
613.519	188972
613.586	186426
613.652	189455
613.719	185917
613.785	189360
613.852	190034
613.918	189779
613.985	195072
614.051	206096
614.118	220722
614.184	207383
614.250	189481
614.317	193915
614.383	190113
614.449	194118
614.516	191744
614.582	192477
614.648	190224
614.715	189243
614.781	184378
614.847	183429
614.914	182463
614.980	177778
615.046	179578
615.112	185379
615.179	185646
615.245	189084
615.311	184130
615.377	186628
615.443	187853
615.509	192084
615.575	196978
615.642	193841
615.708	200332
615.774	209621
615.840	216773
615.906	230507
615.972	268064
616.038	367480
616.104	665569
616.170	1257023
616.236	961556
616.302	378855
616.368	313021
616.434	239918
616.500	229124
616.565	250214
616.631	301481
616.697	253394
616.763	263336
616.829	374294
616.895	607398
616.961	533548
617.026	258683
617.092	203508
617.158	195997
617.224	191053
617.289	179317
617.355	171075
617.421	171092
617.487	169797
617.552	162369
617.618	160257
617.684	159339
617.749	165112
617.815	155523
617.880	152708
617.946	152334
618.012	157509
618.077	159762
618.143	151374
618.208	155953
618.274	164923
618.339	162515
618.405	136204
618.470	139502
618.536	137118
618.601	134580
618.667	126566
618.732	121180
618.798	118682
618.863	119642
618.928	116602
618.994	122057
619.059	121259
619.124	123487
619.190	120299
619.255	118347
619.320	119303
619.386	118653
619.451	116882
619.516	115139
619.581	116940
619.647	119003
619.712	119319
619.777	115708
619.842	115589
619.907	119162
619.972	120507
620.038	119187
620.103	116198
620.168	116075
620.233	118582
620.298	117919
620.363	121656
620.428	124500
620.493	125837
620.558	127246
620.623	129810
620.688	127647
620.753	128102
620.818	128527
620.883	131085
620.948	130591
621.013	128277
621.078	126126
621.143	127262
621.207	129805
621.272	126980
621.337	123372
621.402	122179
621.467	119189
621.532	120068
621.596	122059
621.661	117555
621.726	118102
621.791	118705
621.855	118539
621.920	118726
621.985	119699
622.049	123886
622.114	121791
622.179	123340
622.243	127004
622.308	129630
622.373	135682
622.437	130430
622.502	124912
622.566	123275
622.631	122011
622.695	125482
622.760	124973
622.824	124524
622.889	124936
622.953	124378
623.018	135501
623.082	134482
623.147	131125
623.211	128184
623.276	127769
623.340	123182
623.404	121033
623.469	120063
623.533	121480
623.597	117907
623.662	118567
623.726	108289
623.790	104265
623.854	102360
623.919	104855
623.983	105175
624.047	106820
624.111	107008
624.176	109385
624.240	109701
624.304	113461
624.368	107813
624.432	108884
624.496	113044
624.560	116968
624.625	117567
624.689	117834
624.753	120969
624.817	116316
624.881	111970
624.945	103923
625.009	99894
625.073	102497
625.137	105111
625.201	109857
625.265	110011
625.329	105627
625.393	106680
625.456	106539
625.520	108815
625.584	110597
625.648	112671
625.712	115198
625.776	118648
625.839	112420
625.903	92559
625.967	87012
626.031	95599
626.095	110445
626.158	99081
626.222	80062
626.286	75594
626.349	71959
626.413	66780
626.477	68666
626.540	68280
626.604	67722
626.668	68028
626.731	64661
626.795	66331
626.858	65305
626.922	63698
626.986	64706
627.049	61862
627.113	67018
627.176	63359
627.240	62356
627.303	62763
627.366	60673
627.430	62457
627.493	60707
627.557	58315
627.620	61198
627.684	63171
627.747	63139
627.810	56966
627.874	53625
627.937	50905
628.000	54383
628.064	52508
628.127	44202
628.190	45123
628.253	45922
628.317	41307
628.380	41206
628.443	40169
628.506	39199
628.569	38659
628.632	36403
628.696	36179
628.759	36691
628.822	34927
628.885	33725
628.948	33232
629.011	32670
629.074	32302
629.137	31771
629.200	29752
629.263	31673
629.326	29760
629.389	29432
629.452	29593
629.515	29228
629.578	28844
629.641	29979
629.704	28655
629.767	29214
629.830	27975
629.892	28179
629.955	26273
630.018	29469
630.081	26834
630.144	27907
630.207	25988
630.269	28295
630.332	24675
630.395	25564
630.458	25975
630.520	22880
630.583	25540
630.646	25748
630.708	24617
630.771	24819
630.834	28220
630.896	26509
630.959	26404
631.021	25273
631.084	25235
631.146	25735
631.209	26478
631.272	25669
631.334	26047
631.397	26195
631.459	25669
631.522	28457
631.584	27983
631.646	31060
631.709	31164
631.771	31693
631.834	29180
631.896	28620
631.958	25720
632.021	26270
632.083	24627
632.145	25204
632.208	23734
632.270	24829
632.332	24335
632.395	23192
632.457	25236
632.519	24332
632.581	24317
632.643	23529
632.706	24632
632.768	22496
632.830	24414
632.892	24445
632.954	24570
633.016	26162
633.078	23473
633.141	23145
633.203	22660
633.265	24799
633.327	23987
633.389	22961
633.451	24775
633.513	24541
633.575	25798
633.637	25227
633.698	25489
633.760	25759
633.822	27341
633.884	27080
633.946	28887
634.008	28066
634.070	29746
634.132	32656
634.193	33743
634.255	35388
634.317	35062
634.379	35079
634.441	31634
634.502	28068
634.564	28934
634.626	24633
634.687	24498
634.749	23728
634.811	23926
634.873	22687
634.934	23375
634.996	24255
635.057	22536
635.119	22898
635.181	23758
635.242	24512
635.304	22522
635.365	26622
635.427	22560
635.488	24120
635.550	22481
635.611	24561
635.673	21514
635.734	26839
635.796	26562
635.857	29375
635.918	29241
635.980	34672
636.041	33740
636.102	37725
636.164	36371
636.225	36650
636.286	29695
636.348	27908
636.409	25357
636.470	24064
636.531	23533
636.593	22599
636.654	22632
636.715	22841
636.776	21518
636.838	21217
636.899	21055
636.960	20520
637.021	20202
637.082	19775
637.143	19741
637.204	19244
637.265	19476
637.326	20065
637.387	20329
637.448	19685
637.509	20935
637.570	21403
637.631	20250
637.692	18336
637.753	18007
637.814	19018
637.875	18591
637.936	19847
637.997	18286
638.058	18421
638.119	20045
638.179	18910
638.240	18480
638.301	18409
638.362	17425
638.423	17309
638.483	18251
638.544	16475
638.605	17645
638.666	16369
638.726	18031
638.787	18114
638.848	15898
638.908	15913
638.969	17107
639.030	16676
639.090	15770
639.151	15937
639.211	17741
639.272	17801
639.332	18580
639.393	18253
639.453	17288
639.514	18703
639.574	16967
639.635	15567
639.695	17361
639.756	15026
639.816	16492
639.877	15913
639.937	18098
639.997	17711
640.058	14608
640.118	14564
640.178	16275
640.239	15913
640.299	15043
640.359	15951
640.420	16351
640.480	19215
640.540	20569
640.600	19622
640.661	17739
640.721	16733
640.781	19075
640.841	14302
640.901	16928
640.961	15560
641.021	17094
641.082	17592
641.142	15849
641.202	17063
641.262	13928
641.322	15950
641.382	14203
641.442	15003
641.502	15098
641.562	15410
641.622	14847
641.682	17437
641.742	17566
641.802	17499
641.861	15614
641.921	13906
641.981	15720
642.041	14517
642.101	14339
642.161	12874
642.221	12931
642.280	14066
642.340	14270
642.400	13151
642.460	15305
642.519	14378
642.579	14706
642.639	15400
642.698	12538
642.758	17124
642.818	14530
642.877	13860
642.937	14394
642.997	15352
643.056	16638
643.116	13821
643.175	15503
643.235	14515
643.294	15849
643.354	16494
643.414	18339
643.473	21133
643.532	24690
643.592	33306
643.651	49408
643.711	82279
643.770	155433
643.830	371207
643.889	638955
643.948	159156
644.008	39648
644.067	26007
644.126	20626
644.186	18027
644.245	17270
644.304	13707
644.363	17404
644.423	14966
644.482	14731
644.541	16966
644.600	14470
644.659	21308
644.719	25458
644.778	36909
644.837	61612
644.896	126916
644.955	263753
645.014	78358
645.073	23377
645.132	18834
645.191	17060
645.250	16254
645.309	16921
645.368	18895
645.427	24762
645.486	41280
645.545	64941
645.604	19202
645.663	16251
645.722	14689
645.781	16742
645.840	18617
645.898	23338
645.957	32030
646.016	46170
646.075	81562
646.134	151048
646.192	396401
646.251	479158
646.310	80893
646.369	29883
646.427	25814
646.486	18078
646.545	15636
646.603	14909
646.662	14198
646.721	13818
646.779	12844
646.838	14208
646.896	19221
646.955	24123
647.014	39077
647.072	72244
647.131	185825
647.189	74935
647.248	15641
647.306	14235
647.365	12881
647.423	9790
647.481	12456
647.540	10040
647.598	11030
647.657	11000
647.715	10771
647.773	8845
647.832	11240
647.890	8075
647.948	8703
648.007	10140
648.065	8482
648.123	8410
648.181	11002
648.240	11079
648.298	8396
648.356	8609
648.414	8813
648.472	7868
648.531	9170
648.589	8826
648.647	7859
648.705	9139
648.763	9104
648.821	8471
648.879	9241
648.937	10548
648.995	12766
649.053	16031
649.111	24881
649.169	38326
649.227	68801
649.285	143040
649.343	372700
649.401	149367
649.459	28241
649.516	19243
649.574	16941
649.632	25329
649.690	27649
649.748	21248
649.806	31476
649.863	57151
649.921	137338
649.979	76681
650.037	12767
650.094	6970
650.152	8237
650.210	7038
650.268	7302
650.325	6520
650.383	7268
650.440	6020
650.498	6609
650.556	5641
650.613	6393
650.671	5858
650.728	6706
650.786	7299
650.843	9753
650.901	4804
650.958	6305
651.016	5587
651.073	4992
651.131	5256
651.188	3635
651.246	5171
651.303	4153
651.360	4868
651.418	4807
651.475	5395
651.532	4347
651.590	5001
651.647	5043
651.704	5434
651.762	4206
651.819	4755
651.876	5104
651.933	4243
651.990	5368
652.048	2962
652.105	4238
652.162	4236
652.219	4283
652.276	4916
652.333	5055
652.390	3067
652.448	4621
652.505	4493
652.562	4590
652.619	5175
652.676	6833
652.733	8060
652.790	3964
652.847	2672
652.904	4081
652.961	2855
653.017	3562
653.074	4744
653.131	3663
653.188	3207
653.245	4232
653.302	3146
653.359	3962
653.415	3522
653.472	3824
653.529	4334
653.586	3134
653.642	3232
653.699	4106
653.756	3424
653.813	3482
653.869	4060
653.926	3585
653.983	3306
654.039	4158
654.096	3181
654.152	3904
654.209	3007
654.266	3133
654.322	2475
654.379	4205
654.435	4091
654.492	3605
654.548	3937
654.605	3794
654.661	4342
654.717	3089
654.774	3446
654.830	3401
654.887	3392
654.943	3741
655.000	3464
655.056	3701
655.112	3610
655.168	3026
655.225	3414
655.281	3743
655.337	4092
655.394	4321
655.450	3249
655.506	3465
655.562	2971
655.618	4829
655.675	3312
655.731	3489
655.787	2566
655.843	4726
655.899	2357
655.955	3377
656.011	3308
656.067	2580
656.123	3525
656.179	2476
656.235	4353
656.291	2346
656.347	3997
656.403	3047
656.459	4205
656.515	3948
656.571	2424
656.627	3390
656.683	3492
656.739	4870
656.795	3284
656.850	4219
656.906	3927
656.962	3747
657.018	3337
657.074	5155
657.129	5240
657.185	9418
657.241	22040
657.297	10986
657.352	3782
657.408	3289
657.464	3929
657.519	2640
657.575	2375
657.630	3133
657.686	3173
657.742	2968
657.797	2601
657.853	3094
657.908	3468
657.964	2225
658.019	2978
658.075	2442
658.130	3875
658.186	2654
658.241	4040
658.297	1921
658.352	2319
658.407	3676
658.463	1821
658.518	2931
658.573	3100
658.629	2602
658.684	3079
658.739	3701
658.795	2148
658.850	3169
658.905	2507
658.960	2406
659.016	2056
659.071	3020
659.126	2714
659.181	1717
659.236	3688
659.291	5219
659.346	3346
659.401	3961
659.457	4626
659.512	5589
659.567	4531
659.622	3005
659.677	2632
659.732	2877
659.787	1852
659.842	2108
659.897	2240
659.952	2490
660.007	2610
660.061	3019
660.116	2032
660.171	2283
660.226	3115
660.281	3482
660.336	1692
660.391	2474
660.445	1286
660.500	2350
660.555	2959
660.610	2038
660.664	2435
660.719	2588
660.774	2644
660.828	2996
660.883	3085
660.938	3029
660.992	2133
661.047	3245
661.101	1709
661.156	1893
661.211	1408
661.265	2838
661.320	2102
661.374	2718
661.429	1572
661.483	3351
661.538	1087
661.592	2660
661.647	1908
661.701	2465
661.755	1863
661.810	1983
661.864	1397
661.919	1810
661.973	2872
662.027	2200
662.081	1257
662.136	2602
662.190	2963
662.244	2537
662.299	2556
662.353	2239
662.407	1561
662.461	2062
662.515	2453
662.569	2565
662.624	2692
662.678	1396
662.732	1895
662.786	2149
662.840	2299
662.894	2609
662.948	1935
663.002	1702
663.056	1906
663.110	2216
663.164	1539
663.218	1992
663.272	2275
663.326	3013
663.380	1677
663.434	2689
663.488	1374
663.542	3235
663.595	2274
663.649	2013
663.703	2390
663.757	2373
663.811	2416
663.864	1530
663.918	1530
663.972	2236
664.026	2085
664.079	2473
664.133	1696
664.187	2976
664.240	1881
664.294	1880
664.348	2073
664.401	2591
664.455	2285
664.508	1835
664.562	2349
664.615	2213
664.669	2191
664.722	1799
664.776	2237
664.829	2630
664.883	2741
664.936	1320
664.990	1491
665.043	2819
665.097	1207
665.150	3229
665.203	2091
665.257	1976
665.310	2918
665.363	2252
665.417	2624
665.470	2831
665.523	2309
665.576	3045
665.630	2145
665.683	2141
665.736	2296
665.789	2485
665.842	1444
665.895	2435
665.949	2314
666.002	1932
666.055	1804
666.108	3008
666.161	2379
666.214	2617
666.267	2567
666.320	3241
666.373	2970
666.426	2078
666.479	2203
666.532	3250
666.585	2070
666.638	2366
666.691	2043
666.744	2976
666.796	1752
666.849	2353
666.902	2937
666.955	2409
667.008	2831
667.060	2270
667.113	1759
667.166	2233
667.219	2107
667.271	2487
667.324	3327
667.377	3674
667.430	2453
667.482	3755
667.535	2617
667.587	2896
667.640	2448
667.693	2477
667.745	2816
667.798	4054
667.850	2567
667.903	3267
667.955	2126
668.008	2913
668.060	2143
668.113	2772
668.165	2522
668.218	2364
668.270	1686
668.322	2875
668.375	1553
668.427	2383
668.479	2442
668.532	3274
668.584	2314
668.636	2171
668.689	2581
668.741	2044
668.793	2513
668.845	2763
668.898	2270
668.950	2161
669.002	2338
669.054	2690
669.106	2318
669.158	3079
669.211	2892
669.263	3087
669.315	3949
669.367	3128
669.419	1790
669.471	2980
669.523	2585
669.575	2656
669.627	2325
669.679	2320
669.731	1781
669.783	2994
669.835	2611
669.886	2543
669.938	2170
669.990	3595
670.042	1616
670.094	4051
670.146	2311
670.197	2777
670.249	3021
670.301	3704
670.353	4870
670.404	6676
670.456	8092
670.508	12501
670.560	18791
670.611	29014
670.663	48359
670.715	119625
670.766	172705
670.818	50754
670.869	8885
670.921	6068
670.972	4927
671.024	4551
671.075	3512
671.127	3729
671.178	2823
671.230	3756
671.281	3524
671.333	4438
671.384	4100
671.436	6384
671.487	8129
671.538	12084
671.590	18300
671.641	30256
671.692	56269
671.744	100217
671.795	60682
671.846	19783
671.897	8335
671.949	6312
672.000	4786
672.051	3920
672.102	4351
672.153	3095
672.204	2820
672.256	2421
672.307	2608
672.358	2987
672.409	1999
672.460	2314
672.511	1174
672.562	1413
672.613	1455
672.664	1635
672.715	2344
672.766	1320
672.817	1329
672.868	2644
672.919	1702
672.970	2377
673.021	1516
673.071	1367
673.122	1275
673.173	1568
673.224	1801
673.275	1368
673.326	772
673.376	1435
673.427	1449
673.478	1334
673.528	2106
673.579	1769
673.630	1445
673.680	1977
673.731	1753
673.782	1138
673.832	1745
673.883	2140
673.934	970
673.984	1185
674.035	2216
674.085	863
674.136	1912
674.186	1816
674.237	692
674.287	1667
674.338	1434
674.388	1776
674.438	1422
674.489	2503
674.539	2255
674.589	1763
674.640	1717
674.690	1733
674.740	1535
674.791	1428
674.841	1574
674.891	1954
674.942	1434
674.992	1286
675.042	1254
675.092	1063
675.142	410
675.193	992
675.243	891
675.293	1795
675.343	863
675.393	1784
675.443	1266
675.493	1793
675.543	713
675.593	758
675.643	1029
675.693	1526
675.743	1298
675.793	1425
675.843	1368
675.893	990
675.943	1251
675.993	836
676.043	630
676.093	1781
676.142	484
676.192	1240
676.242	756
676.292	1053
676.341	1026
676.391	868
676.441	865
676.491	938
676.540	843
676.590	1639
676.640	551
676.689	1065
676.739	984
676.789	2084
676.838	506
676.888	531
676.937	180
676.987	981
677.037	1124
677.086	703
677.136	796
677.185	691
677.235	-228
677.284	1093
677.333	463
677.383	650
677.432	908
677.482	1587
677.531	632
677.580	987
677.630	1149
677.679	1199
677.728	649
677.778	15
677.827	669
677.876	1314
677.925	895
677.975	1110
678.024	1446
678.073	1300
678.122	753
678.171	1266
678.220	901
678.269	1356
678.319	1651
678.368	1640
678.417	1226
678.466	1253
678.515	1201
678.564	839
678.613	750
678.662	804
678.711	574
678.760	684
678.809	874
678.857	617
678.906	932
678.955	1822
679.004	978
679.053	660
679.102	552
679.151	854
679.199	31
679.248	529
679.297	405
679.346	250
679.394	263
679.443	1350
679.492	1272
679.540	1091
679.589	-525
679.638	1574
679.686	2011
679.735	1082
679.784	1205
679.832	1595
679.881	550
679.929	736
679.978	874
680.026	1165
680.075	699
680.123	1021
680.172	572
680.220	873
680.268	763
680.317	-360
680.365	381
680.414	216
680.462	716
680.510	850
680.559	420
680.607	627
680.655	943
680.703	719
680.752	446
680.800	640
680.848	121
680.896	597
680.945	602
680.993	74
681.041	399
681.089	654
681.137	695
681.185	1048
681.233	-17
681.258	178
681.281	356
681.329	2
681.377	983
681.380	949
681.425	186
681.473	550
681.502	761
681.521	888
681.569	1898
681.617	66
681.624	251
681.665	1396
681.713	888
681.745	760
681.761	687
681.809	338
681.857	1025
681.867	962
681.904	710
681.952	953
681.989	696
682.000	615
682.048	600
682.096	411
682.111	675
682.143	1183
682.191	810
682.233	1585
682.239	1700
682.286	718
682.334	1575
682.354	1294
682.382	875
682.430	1390
682.476	1017
682.477	1003
682.525	1096
682.572	867
682.598	669
682.620	495
682.667	512
682.715	1845
682.720	1765
682.763	952
682.810	965
682.841	960
682.857	934
682.905	690
682.952	957
682.963	997
683.000	1134
683.047	1027
683.085	1830
683.095	2039
683.142	1598
683.190	1512
683.206	1278
683.237	812
683.284	1272
683.328	1323
683.332	1320
683.379	1182
683.426	993
683.449	1122
683.473	1283
683.521	1011
683.568	1482
683.571	1465
683.615	1118
683.662	1352
683.693	1065
683.709	912
683.757	1353
683.804	1280
683.814	1370
683.851	1604
683.898	1566
683.936	2004
683.945	2119
683.992	1035
684.039	1251
684.057	1160
684.086	957
684.133	729
684.179	1140
684.180	1152
684.227	1176
684.274	1678
684.300	1789
684.321	1855
684.368	1416
684.415	1689
684.422	1677
684.462	1528
684.509	1751
684.543	1405
684.556	1274
684.603	1387
684.649	938
684.665	1126
684.696	1600
684.743	1348
684.786	2085
684.790	2134
684.837	1142
684.883	1465
684.908	1598
684.930	1707
684.977	1803
685.023	1452
685.029	1460
685.070	1430
685.117	1475
685.150	1749
685.164	1888
685.210	1316
685.257	2070
685.272	1907
685.303	1513
685.350	1447
685.393	1626
685.396	1637
685.443	1358
685.490	1291
685.514	1512
685.536	1715
685.583	1742
685.629	1484
685.636	1573
685.675	2052
685.722	2502
685.757	1860
685.768	1626
685.815	1757
685.861	2209
685.878	2058
685.908	1965
685.954	1526
686.000	2297
686.000	2303
686.047	2345
686.093	2240
686.121	2644
686.139	2935
686.185	2620
686.232	2333
686.242	2310
686.278	2215
686.324	2516
686.363	2266
686.370	2222
686.416	1877
686.463	2338
686.484	2267
686.509	2231
686.555	2347
686.601	2019
686.606	2100
686.647	2710
686.693	1565
686.727	2183
686.739	2415
686.785	2212
686.831	2147
686.848	2146
686.877	2132
686.923	2497
686.969	1524
686.969	1519
687.015	1440
687.061	1979
687.090	2259
687.107	2400
687.153	2205
687.199	2494
687.211	2444
687.245	2324
687.291	1873
687.332	2380
687.336	2434
687.382	3051
687.428	2028
687.453	2632
687.474	3070
687.520	2643
687.565	2581
687.574	2573
687.611	2700
687.657	2533
687.695	2297
687.702	2227
687.748	2970
687.794	2845
687.816	2700
687.839	2534
687.885	2623
687.931	2425
687.937	2393
687.976	2401
688.022	2814
688.058	2629
688.067	2556
688.113	2428
688.158	2294
688.179	2642
688.204	3097
688.249	3258
688.295	3390
688.300	3312
688.340	2569
688.386	2746
688.421	2280
688.431	2203
688.477	2816
688.522	3096
688.542	3066
688.567	3098
688.613	3162
688.658	3382
688.663	3396
688.703	3118
688.749	2883
688.784	2245
688.794	2159
688.839	2933
688.884	3222
688.905	3361
688.930	3430
688.975	3071
689.020	2574
689.026	2543
689.065	2265
689.110	2725
689.146	2608
689.155	2656
689.201	2594
689.246	2724
689.267	3089
689.291	3321
689.336	3055
689.381	2983
689.388	2899
689.426	2698
689.471	3136
689.509	3414
689.516	3432
689.561	3468
689.606	2852
689.630	2827
689.651	2865
689.696	2922
689.741	3606
689.750	3568
689.785	3427
689.830	2629
689.871	3460
689.875	3542
689.920	3639
689.965	3478
689.992	3236
690.010	3107
690.054	3224
690.099	3183
690.112	3167
690.144	3130
690.189	2783
690.233	2722
690.233	2728
690.278	3232
690.323	2955
690.354	3484
690.367	3721
690.412	3669
690.457	3622
690.474	3666
690.501	3578
690.546	3638
690.590	3151
690.595	3111
690.635	3036
690.680	3085
690.716	3143
690.724	3189
690.769	3726
690.813	4324
690.836	4197
690.857	4322
690.902	5426
690.946	6229
690.957	6406
690.991	7910
691.035	10247
691.077	13068
691.080	13056
691.124	10318
691.168	8136
691.198	6759
691.213	6334
691.257	5503
691.301	3914
691.318	3671
691.346	3827
691.390	3593
691.434	3502
691.439	3497
691.478	3497
691.522	3848
691.559	3575
691.567	3539
691.611	3897
691.655	3264
691.680	3445
691.699	3624
691.743	3354
691.787	3530
691.800	3468
691.831	3436
691.875	3683
691.919	4086
691.921	4079
691.964	3752
692.008	3378
692.041	3549
692.052	3673
692.096	3653
692.139	3476
692.162	3499
692.183	3469
692.227	3523
692.271	3653
692.282	3620
692.315	3732
692.359	3967
692.402	4428
692.403	4437
692.447	3904
692.490	3989
692.523	3799
692.534	3701
692.578	3893
692.622	3298
692.643	3280
692.666	3472
692.709	3311
692.753	3393
692.763	3484
692.797	3783
692.840	3984
692.884	4134
692.884	4143
692.928	3815
692.971	3958
693.004	3917
693.015	3842
693.059	3728
693.102	3453
693.124	3358
693.146	3526
693.189	3694
693.233	3573
693.245	3722
693.276	4109
693.320	4181
693.363	4283
693.365	4281
693.407	4578
693.450	4889
693.485	5093
693.493	5204
693.537	5975
693.580	6272
693.605	6417
693.624	7078
693.667	9266
693.710	11229
693.725	11933
693.753	14958
693.797	19848
693.840	25300
693.845	25699
693.883	21165
693.926	15752
693.966	11390
693.970	11164
694.013	8960
694.056	6877
694.086	4936
694.099	4698
694.142	4679
694.185	4483
694.206	4394
694.229	4474
694.272	4317
694.315	4273
694.326	4302
694.358	4416
694.401	4707
694.444	4485
694.446	4478
694.487	4467
694.530	4338
694.566	4282
694.573	4289
694.616	4025
694.659	4280
694.686	4204
694.702	4257
694.745	4425
694.787	4329
694.806	4489
694.830	4630
694.873	4592
694.916	4634
694.926	4624
694.959	4566
695.002	4463
695.044	4296
695.046	4284
695.087	4375
695.130	4249
695.166	4388
695.172	4486
695.215	4680
695.258	5182
695.286	5436
695.301	5422
695.343	5312
695.386	5322
695.406	5239
695.428	5297
695.471	5377
695.514	5480
695.526	5541
695.556	5818
695.599	6209
695.641	6399
695.646	6419
695.684	6274
695.726	5851
695.766	5576
695.769	5591
695.811	5815
695.854	5736
695.886	5720
695.896	5708
695.938	5720
695.981	5450
696.005	5360
696.023	5641
696.065	6406
696.108	7171
696.125	7425
696.150	7362
696.192	7377
696.235	7154
696.245	7149
696.277	7140
696.319	6652
696.361	6629
696.365	6580
696.404	6477
696.446	6670
696.485	6653
696.488	6669
696.530	6688
696.572	6738
696.604	6758
696.614	6800
696.656	6903
696.698	7069
696.724	7070
696.740	7038
696.783	7040
696.825	6902
696.844	6869
696.867	6851
696.909	6676
696.951	6662
696.964	6594
696.992	6722
697.034	6933
697.076	7081
697.083	7124
697.118	7363
697.160	7447
697.202	7538
697.203	7523
697.244	7304
697.286	7004
697.323	6705
697.327	6723
697.369	6876
697.411	6780
697.442	6860
697.453	6951
697.494	7047
697.536	7324
697.562	7427
697.578	7469
697.620	7583
697.661	7586
697.682	7621
697.703	7720
697.744	7807
697.786	7970
697.801	7988
697.828	7923
697.869	7804
697.911	7634
697.921	7598
697.952	7484
697.994	7224
698.035	6973
698.040	6927
698.077	7018
698.118	7110
698.160	7145
698.160	7126
698.201	7768
698.243	8374
698.279	8917
698.284	8924
698.325	8743
698.367	8571
698.399	8405
698.408	8450
698.449	8590
698.491	8736
698.518	8784
698.532	8795
698.573	8792
698.614	8797
698.638	8762
698.656	8708
698.697	8561
698.738	8385
698.757	8291
698.779	8508
698.820	8880
698.862	9239
698.877	9355
698.903	9495
698.944	9678
698.985	9857
698.996	9884
699.026	9730
699.067	9485
699.116	9171
699.235	8631
699.354	9268
699.474	7798
699.593	8495
699.713	8746
699.832	7872
699.951	9114
700.070	8786
700.190	8268
700.309	7996
700.428	8064
700.547	8110
700.667	7648
700.786	7173
700.905	7016
701.024	7587
701.143	7590
701.262	7037
701.381	7313
701.500	7983
701.619	8535
701.738	8487
701.857	8140
701.976	7778
702.095	7309
702.214	7867
702.333	7026
702.452	7669
702.571	7355
702.690	7115
702.809	7164
702.928	7611
703.047	7606
703.165	7873
703.284	7772
703.403	7106
703.522	7280
703.640	7534
703.759	7359
703.878	6908
703.997	7528
704.115	6144
704.234	6934
704.353	7117
704.471	6201
704.590	6136
704.708	7148
704.827	6328
704.946	6442
705.064	6783
705.183	6476
705.301	7140
705.420	7181
705.538	6859
705.656	6049
705.775	7128
705.893	12953
706.012	11209
706.130	6143
706.249	6731
706.367	5553
706.485	5759
706.604	5574
706.722	6472
706.840	6128
706.958	6490
707.077	5439
707.195	5993
707.313	6315
707.431	5976
707.549	5252
707.668	5868
707.786	6642
707.904	5091
708.022	5810
708.140	5220
708.258	5313
708.376	6210
708.494	4822
708.612	6247
708.730	6001
708.848	5849
708.966	5778
709.084	5897
709.202	5717
709.320	5420
709.438	4949
709.556	4349
709.674	4305
709.791	5644
709.909	3831
710.027	4882
710.145	5393
710.263	4236
710.380	5274
710.498	5764
710.616	5418
710.733	4889
710.851	4504
710.969	4639
711.086	4666
711.204	5339
711.322	5317
711.439	4088
711.557	4773
711.674	4819
711.792	5042
711.909	6251
712.027	4948
712.144	4413
712.262	4669
712.379	4944
712.497	5914
712.614	5262
712.732	5741
712.849	4958
712.966	5100
713.084	5266
713.201	3912
713.318	5542
713.436	5520
713.553	4646
713.670	5619
713.787	5676
713.905	5002
714.022	6083
714.139	5618
714.256	8353
714.373	12512
714.490	25431
714.608	81143
714.725	329450
714.842	206008
714.959	16691
715.076	8567
715.193	7066
715.310	6297
715.427	5023
715.544	5582
715.661	4604
715.778	4880
715.895	4665
716.011	5184
716.128	3583
716.245	4523
716.362	5025
716.479	3996
716.596	4695
716.713	4684
716.829	3534
716.946	4565
717.063	4518
717.180	4032
717.296	3709
717.413	4075
717.530	3963
717.646	3647
717.763	4241
717.880	2934
717.996	2873
718.113	3574
718.229	3284
718.346	3039
718.462	3562
718.579	3610
718.695	4786
718.812	4028
718.928	3850
719.045	4401
719.161	3885
719.277	3865
719.394	3903
719.510	3042
719.626	4539
719.743	6792
719.859	11253
719.975	26767
720.092	120418
720.208	182308
720.324	14891
720.440	5633
720.557	4439
720.673	4727
720.789	5057
720.905	5108
721.021	3611
721.137	4090
721.253	3808
721.369	3038
721.486	3579
721.602	3887
721.718	2906
721.834	3323
721.950	3305
722.066	3467
722.181	3037
722.297	2597
722.413	3032
722.529	3360
722.645	2763
722.761	2893
722.877	3289
722.993	3581
723.108	3260
723.224	3098
723.340	2903
723.456	2569
723.571	3417
723.687	2767
723.803	2111
723.918	2893
724.034	2788
724.150	2253
724.265	2713
724.381	3556
724.497	2741
724.612	2429
724.728	2739
724.843	1840
724.959	2862
725.074	3289
725.190	3101
725.305	3225
725.421	2798
725.536	2874
725.651	2382
725.767	2291
725.882	2571
725.997	2395
726.113	2470
726.228	2134
726.343	2403
726.459	2692
726.574	2690
726.689	1928
726.804	2439
726.920	2730
727.035	2007
727.150	2390
727.265	3460
727.380	2705
727.495	3254
727.610	2432
727.725	3202
727.841	4211
727.956	7804
728.071	3627
728.186	3066
728.301	2545
728.416	2132
728.531	2237
728.645	1662
728.760	1199
728.875	2063
728.990	1836
729.105	2327
729.220	1975
729.335	2500
729.449	2732
729.564	2394
729.679	2475
729.794	2379
729.908	2046
730.023	2451
730.138	2056
730.253	2594
730.367	2071
730.482	2941
730.596	2415
730.711	2884
730.826	4099
730.940	2974
731.055	2787
731.169	2948
731.284	2977
731.398	2487
731.513	2824
731.627	3285
731.742	5264
731.856	5199
731.970	5851
732.085	7352
732.199	10407
732.313	18748
732.428	58894
732.542	168997
732.656	62957
732.771	12259
732.885	7902
732.999	8306
733.113	7041
733.227	6772
733.342	6532
733.456	5954
733.570	6467
733.684	5950
733.798	4991
733.912	5179
734.026	5538
734.140	5587
734.254	5731
734.368	6008
734.482	5428
734.596	4657
734.710	4854
734.824	5050
734.938	5112
735.052	5137
735.166	5121
735.280	5328
735.393	5365
735.507	4862
735.621	5448
735.735	4653
735.849	5216
735.962	4912
736.076	5415
736.190	4541
736.303	5005
736.417	5615
736.531	4026
736.644	5009
736.758	5404
736.872	4365
736.985	4891
737.099	4315
737.212	4618
737.326	5213
737.439	4533
737.553	3920
737.666	4341
737.780	3961
737.893	4618
738.007	4844
738.120	4092
738.233	4273
738.347	4426
738.460	4533
738.573	4720
738.687	4144
738.800	4903
738.913	4083
739.026	4107
739.140	3849
739.253	4199
739.366	3482
739.479	2748
739.592	3460
739.705	3437
739.818	4849
739.932	3584
740.045	4403
740.158	2990
740.271	4549
740.384	3998
740.497	3228
740.610	3905
740.723	3076
740.836	3608
740.949	3246
741.062	4151
741.174	3607
741.287	3720
741.400	3118
741.513	3295
741.626	3523
741.739	3982
741.851	3496
741.964	3597
742.077	3146
742.189	2825
742.302	2836
742.415	3338
742.527	3561
742.640	3607
742.753	3304
742.865	3309
742.978	3263
743.090	2920
743.203	3307
743.316	3100
743.428	3374
743.541	3011
743.653	2728
743.766	2510
743.878	2770
743.990	3102
744.103	3722
744.215	2852
744.327	2898
744.440	3586
744.552	3825
744.664	2443
744.777	3342
744.889	2378
745.001	3449
745.113	2751
745.226	2321
745.338	3116
745.450	3371
745.562	2680
745.674	2889
745.786	3801
745.898	3367
746.010	2760
746.122	3021
746.234	2574
746.347	3360
746.459	2718
746.570	2907
746.682	3740
746.794	3517
746.906	2366
747.018	2484
747.130	2961
747.242	2277
747.354	3391
747.466	3209
747.577	2185
747.689	2814
747.801	2693
747.913	2453
748.024	2451
748.136	1644
748.248	1528
748.359	2722
748.471	3289
748.583	2309
748.694	3299
748.806	4043
748.918	2261
749.029	3094
749.141	2548
749.252	3086
749.364	2355
749.475	2789
749.587	1362
749.698	2218
749.809	2893
749.921	3383
750.032	2200
750.144	2040
750.255	2740
750.366	1849
750.478	2227
750.589	2154
750.700	2887
750.811	2362
750.923	2835
751.034	3098
751.145	3135
751.256	1929
751.367	2184
751.479	2654
751.590	1383
751.701	1900
751.812	2001
751.923	2732
752.034	2720
752.145	2128
752.256	2342
752.367	2434
752.478	2924
752.589	2886
752.700	2149
752.811	1884
752.922	1985
753.032	2277
753.143	2768
753.254	2524
753.365	3457
753.476	2474
753.586	2129
753.697	2257
753.808	2036
753.919	1724
754.029	2380
754.140	2481
754.251	1719
754.361	1960
754.472	1902
754.582	1640
754.693	2244
754.804	1807
754.914	1838
755.025	1535
755.135	2283
755.246	1929
755.356	1703
755.466	2079
755.577	1620
755.687	2184
755.798	896
755.908	2535
756.018	2275
756.129	1873
756.239	2730
756.349	2658
756.460	2007
756.570	2080
756.680	1789
756.790	1347
756.900	2251
757.011	2146
757.121	1214
757.231	2184
757.341	2022
757.451	1820
757.561	1966
757.671	1566
757.781	1396
757.891	2193
758.001	1823
758.111	1936
758.221	2853
758.331	1644
758.441	2915
758.551	1754
758.661	2673
758.771	2604
758.880	1838
758.990	1865
759.100	2399
759.210	2709
759.320	2295
759.429	2710
759.539	2911
759.649	2786
759.758	2786
759.868	3581
759.978	2890
760.087	3287
760.197	4096
760.307	2902
760.416	2697
760.526	2103
760.635	3228
760.745	3396
760.854	3391
760.964	3642
761.073	4421
761.182	4274
761.292	3012
761.401	3671
761.511	2527
761.620	2864
761.729	3492
761.839	3168
761.948	3014
762.057	2078
762.166	2744
762.276	1925
762.385	4078
762.494	2810
762.603	3271
762.712	3373
762.822	2990
762.931	2990
763.040	2744
763.149	2322
763.258	3606
763.367	4557
763.476	3543
763.585	3362
763.694	3368
763.803	3495
763.912	4745
764.021	3617
764.130	3799
764.238	4354
764.347	4298
764.456	4615
764.565	4990
764.674	5580
764.783	5646
764.891	5837
765.000	8230
765.109	9304
765.217	9916
765.326	12570
765.435	13555
765.543	17385
765.652	22004
765.761	29282
765.869	41213
765.978	63707
766.086	104077
766.195	181235
766.303	306993
766.412	328198
766.520	319132
766.629	211908
766.737	113297
766.846	71065
766.954	46504
767.062	34481
767.171	26947
767.279	20722
767.387	15856
767.496	14759
767.604	12967
767.712	11347
767.820	10045
767.928	9390
768.037	7926
768.145	8656
768.253	8118
768.361	7700
768.469	6939
768.577	8063
768.685	8712
768.793	8368
768.901	8643
769.009	11062
769.117	14293
769.225	17498
769.333	25482
769.441	41381
769.549	77514
769.657	155153
769.765	282749
769.873	291409
769.981	193413
770.088	84318
770.196	46426
770.304	31098
770.412	21653
770.519	16594
770.627	13524
770.735	10795
770.842	9835
770.950	7816
771.058	7154
771.165	7716
771.273	6254
771.380	7561
771.488	7363
771.595	7006
771.703	5328
771.810	7011
771.918	5660
772.025	6558
772.133	7060
772.240	6066
772.348	7244
772.455	6652
772.562	5125
772.670	5256
772.777	5669
772.884	6231
772.991	5980
773.099	5267
773.206	5087
773.313	5907
773.420	4511
773.528	3884
773.635	5118
773.742	4760
773.849	5137
773.956	4485
774.063	4289
774.170	4385
774.277	4924
774.384	4811
774.491	3421
774.598	4759
774.705	4422
774.812	4017
774.919	5285
775.026	3483
775.133	4483
775.239	4805
775.346	3376
775.453	4719
775.560	3412
775.667	4124
775.773	2690
775.880	4384
775.987	3149
776.093	5206
776.200	4121
776.307	3004
776.413	4153
776.520	3643
776.627	3593
776.733	3403
776.840	1776
776.946	5160
777.053	3453
777.159	3633
777.266	1668
777.372	4362
777.478	3628
777.585	3325
777.691	2943
777.798	3459
777.904	3607
778.010	3497
778.117	3793
778.223	3459
778.329	3293
778.435	3155
778.542	4017
778.648	3010
778.754	2725
778.860	3391
778.966	2737
779.072	2639
779.178	3511
779.284	1724
779.391	3062
779.497	1480
779.603	4744
779.708	2728
779.815	6079
779.920	18078
780.026	17171
780.132	3368
780.238	2610
780.344	2011
780.450	3678
780.556	2609
780.661	2944
780.767	2657
780.873	1042
780.979	2762
781.085	2052
781.190	2597
781.296	2159
781.402	1655
781.507	1838
781.613	1778
781.719	1331
781.824	2076
781.930	2354
782.035	2243
782.141	2517
782.246	1591
782.352	1933
782.457	2712
782.563	2244
782.668	2957
782.773	1972
782.879	1834
782.984	2865
783.090	1718
783.195	2845
783.300	1647
783.405	2213
783.511	1530
783.616	1679
783.721	1262
783.826	1113
783.932	2394
784.037	1458
784.142	1987
784.247	2502
784.352	1835
784.457	2039
784.562	1788
784.667	2568
784.772	572
784.877	751
784.982	2711
785.087	836
785.192	2621
785.297	1426
785.402	2325
785.507	1223
785.611	1385
785.716	1183
785.821	894
785.926	1146
786.031	674
786.135	1139
786.240	2108
786.345	64
786.450	1337
786.554	1466
786.659	1990
786.763	994
786.868	1989
786.973	2587
787.077	486
787.182	773
787.286	2136
787.391	1342
787.495	415
787.600	1419
787.704	1006
787.809	1158
787.913	614
788.017	1770
788.122	556
788.226	927
788.330	332
788.435	1441
788.539	1655
788.643	1160
788.747	21
788.852	1324
788.956	709
789.060	2147
789.164	1424
789.268	355
789.372	1601
789.476	1174
789.580	232
789.684	1074
789.788	845
789.892	867
789.996	1015
790.100	323
790.204	946
790.308	1096
790.412	753
790.516	1683
790.620	1343
790.724	1059
790.828	579
790.931	186
791.035	2331
791.139	1105
791.242	252
791.346	2530
791.450	451
791.554	1208
791.657	-425
791.761	1362
791.864	1568
791.968	983
792.072	884
792.175	861
792.279	584
792.382	940
792.486	760
792.589	473
792.693	829
792.796	797
792.899	1610
793.003	1252
793.106	-1085
793.209	543
793.313	1407
793.416	-646
793.519	931
793.623	1431
793.726	719
793.829	766
793.932	978
794.035	-69
794.138	651
794.242	1326
794.345	641
794.448	963
794.551	1302
794.654	8444
794.757	8798
794.860	943
794.963	844
795.066	-579
795.169	1334
795.272	205
795.375	933
795.477	351
795.580	638
795.683	-1305
795.786	1147
795.889	-776
795.991	714
796.094	1433
796.197	-798
796.300	1528
796.402	282
796.505	680
796.608	-115
796.710	1108
796.813	485
796.915	239
797.018	742
797.120	1403
797.223	-175
797.326	1039
797.428	46
797.530	897
797.633	347
797.735	1213
797.838	364
797.940	1230
798.042	-207
798.145	88
798.247	876
798.349	-698
798.452	873
798.554	-492
798.656	-530
798.758	1388
798.860	212
798.962	354
799.065	-670
799.167	-464
799.269	1417
799.371	1536
799.473	905
799.575	-491
799.677	76
799.779	1962
799.881	-391
799.983	1179
800.085	780
800.187	589
800.289	195
800.390	298
800.492	1113
800.594	1801
800.696	-118
800.798	138
800.899	-483
801.001	-165
801.103	-81
801.205	-394
801.306	955
801.408	-1328
801.509	206
801.611	1216
801.713	56
801.814	148
801.916	-21
802.017	647
802.119	-325
802.220	497
802.322	-997
802.423	1148
802.525	-1243
802.626	862
802.727	953
802.829	638
802.930	-1543
803.031	1441
803.133	-1
803.234	723
803.335	436
803.436	-477
803.538	-19
803.639	-1655
803.740	481
803.841	-569
803.942	455
804.043	524
804.144	-750
804.245	131
804.346	-832
804.447	-28
804.548	-331
804.649	1191
804.750	-315
804.851	-681
804.952	-1046
805.053	89
805.154	-712
805.255	982
805.355	290
805.456	830
805.557	76
805.658	-420
805.758	151
805.859	185
805.960	125
806.061	-276
806.161	-143
806.262	201
806.362	44
806.463	-386
806.564	1265
806.664	802
806.765	199
806.865	317
806.966	-880
807.066	-106
807.166	452
807.267	638
807.367	-932
807.468	-118
807.568	-974
807.668	534
807.769	555
807.869	-402
807.969	-208
808.069	323
808.170	612
808.270	175
808.370	325
808.470	222
808.570	-955
808.670	-41
808.770	351
808.870	-584
808.970	64
809.070	-288
809.170	-495
809.271	259
809.370	-916
809.470	-122
809.570	-333
809.670	-842
809.770	17
809.870	132
809.970	-384
810.070	530
810.169	379
810.269	-828
810.369	261
810.469	-559
810.568	-395
810.668	-1102
810.768	-471
810.867	688
810.967	-1042
811.066	537
811.166	-586
811.265	247
811.365	-770
811.464	-85
811.564	-133
811.663	235
811.763	-753
811.862	-310
811.962	808
812.061	-525
812.160	-973
812.260	313
812.359	650
812.458	-216
812.557	316
812.657	-938
812.756	230
812.855	-299
812.954	-577
813.053	309
813.153	-1001
813.252	-312
813.351	-9
813.450	-341
813.549	-938
813.648	-79
813.747	105
813.846	209
813.945	-649
814.044	-25
814.143	-92
814.242	394
814.341	-334
814.439	745
814.538	272
814.637	161
814.736	-844
814.835	1058
814.933	-137
815.032	1331
815.131	880
815.229	2391
815.328	2667
815.427	1415
815.525	1553
815.624	1848
815.722	645
815.821	2612
815.919	1955
816.018	1229
816.116	1789
816.215	636
816.313	1676
816.412	3097
816.510	2424
816.609	3519
816.707	2963
816.805	1943
816.904	1642
817.002	2398
817.100	3115
817.198	2777
817.296	1477
817.395	1682
817.493	2731
817.591	1601
817.689	2151
817.787	1475
817.885	2263
817.983	1565
818.081	2556
818.179	2916
818.277	5198
818.375	3927
818.473	2058
818.571	1946
818.669	2235
818.767	2103
818.865	1269
818.963	993
819.061	2108
819.158	2193
819.256	4107
819.354	4407
819.452	8232
819.549	2955
819.647	3365
819.745	790
819.842	2024
819.940	2242
820.038	1537
820.135	1750
820.233	2860
820.330	787
820.428	1134
820.525	2651
820.623	1023
820.720	854
820.818	1571
820.915	1325
821.012	1638
821.110	-156
821.207	1862
821.304	654
821.402	1415
821.499	2371
821.596	1352
821.693	842
821.791	1917
821.888	992
821.985	1294
822.082	749
822.179	2336
822.276	1352
822.373	821
822.470	1308
822.567	1959
822.664	1071
822.761	2571
822.858	844
822.955	811
823.052	1606
823.149	1341
823.246	647
823.343	910
823.440	1932
823.536	1096
823.633	119
823.730	345
823.827	1597
823.923	2019
824.020	2376
824.117	101
824.213	614
824.310	1113
824.407	356
824.503	1655
824.600	786
824.696	1106
824.793	1842
824.889	534
824.986	1407
825.082	135
825.179	881
825.275	728
825.371	778
825.468	709
825.564	-1555
825.660	1392
825.757	1381
825.853	1794
825.949	-191
826.045	1165
826.142	1011
826.238	701
826.334	1149
826.430	-34
826.526	349
826.622	88
826.718	907
826.814	885
826.910	1867
827.006	721
827.102	-533
827.198	1702
827.294	1097
827.390	1172
827.486	941
827.582	-1299
827.678	-197
827.774	2259
827.869	-56
827.965	1870
828.061	-1
828.157	1247
828.252	813
828.348	-111
828.444	298
828.539	-600
828.635	578
828.731	996
828.826	-589
828.922	1051
829.017	867
829.113	573
829.208	424
829.304	16
829.399	1566
829.495	148
829.590	1225
829.685	69
829.781	521
829.876	3
829.971	-543
830.066	802
830.162	288
830.257	288
830.352	595
830.447	725
830.543	231
830.638	-312
830.733	763
830.828	197
830.923	1273
831.018	726
831.113	-517
831.208	-499
831.303	-37
831.398	-310
831.493	453
831.588	499
831.683	-893
831.778	-486
831.873	-77
831.967	895
832.062	404
832.157	92
832.252	253
832.346	-170
832.441	579
832.536	1028
832.631	1267
832.725	330
832.820	404
832.914	-7
833.009	451
833.104	312
833.198	-110
833.293	-43
833.387	133
833.482	18
833.576	-132
833.670	835
833.765	-199
833.859	-616
833.954	512
834.048	-77
834.142	342
834.237	-650
834.331	142
834.425	83
834.519	-291
834.613	472
834.708	-297
834.802	54
834.896	-382
834.990	-801
835.084	-235
835.178	-589
835.272	-585
835.366	-499
835.460	745
835.554	659
835.648	-665
835.742	-1499
835.836	253
835.930	-1619
836.024	371
836.117	121
836.211	-1134
836.305	475
836.399	-341
836.493	-1140
836.586	653
836.680	-397
836.774	-590
836.867	-208
836.961	-902
837.055	-1229
837.148	-775
837.242	286
837.335	-764
837.429	115
837.522	-820
837.616	-177
837.709	644
837.803	-381
837.896	374
837.989	-645
838.083	-782
838.176	-243
838.269	-1125
838.363	937
838.456	-1064
838.549	621
838.642	-422
838.735	1237
838.829	50
838.922	-762
839.015	-863
839.108	-1628
839.201	-95
839.294	-397
839.387	-223
839.480	-1213
839.573	206
839.666	-780
839.759	-187
839.852	-762
839.945	-15
840.038	-838
840.131	-559
840.223	-616
840.316	480
840.409	-150
840.502	-1563
840.594	1033
840.687	-1525
840.780	-330
840.873	-601
840.965	-773
841.058	-184
841.150	39
841.243	-1769
841.336	-77
841.428	51
841.521	-823
841.613	-1101
841.706	-188
841.798	-900
841.890	-501
841.983	-1243
842.075	130
842.167	-461
842.260	-504
842.352	-604
842.444	-426
842.537	-425
842.629	-280
842.721	187
842.813	-180
842.905	-1452
842.997	-49
843.090	-182
843.182	-431
843.274	-1644
843.366	484
843.458	644
843.550	377
843.642	-48
843.734	-116
843.826	185
843.918	-663
844.009	185
844.101	-433
844.193	-660
844.285	-140
844.377	-20
844.469	542
844.560	389
844.652	75
844.744	-441
844.835	-1268
844.927	-170
845.019	-671
845.110	-452
845.202	-602
845.293	-397
845.385	-937
845.476	-661
845.568	378
845.659	-76
845.751	305
845.842	-884
845.934	-538
846.025	-1121
846.116	-237
846.208	-603
846.299	-1194
846.390	-541
846.482	-385
846.573	91
846.664	-1160
846.755	-993
846.846	-332
846.937	-1631
847.029	-697
847.120	-728
847.211	-435
847.302	-154
847.393	-966
847.484	-3
847.575	-1446
847.666	-1037
847.757	-573
847.847	-564
847.938	91
848.029	-690
848.120	-914
848.211	-619
848.302	-74
848.392	-876
848.483	-495
848.574	-1371
848.664	-272
848.755	-530
848.846	-1136
848.936	-1191
849.027	-669
849.118	-62
849.208	-729
849.299	457
849.389	1049
849.480	4082
849.570	8703
849.661	17967
849.751	25553
849.841	5566
849.932	-17
850.022	-671
850.112	-97
850.203	-728
850.293	-951
850.383	-826
850.474	-639
850.564	-841
850.654	-339
850.744	-1329
850.834	-246
850.924	-591
851.014	-272
851.104	-330
851.194	-1917
851.284	-768
851.374	-880
851.464	-679
851.554	-585
851.644	-974
851.734	-1206
851.824	-223
851.914	-1165
852.004	-914
852.094	-1244
852.183	-1261
852.273	-857
852.363	25
852.452	-490
852.542	-364
852.632	-732
852.721	-798
852.811	-480
852.901	-544
852.990	-1046
853.080	-426
853.169	-407
853.259	-52
853.348	-713
853.438	-512
853.527	1012
853.617	1406
853.706	4650
853.795	8966
853.885	22228
853.974	41106
854.063	78680
854.152	94658
854.242	28328
854.331	4737
854.420	1578
854.509	985
854.598	628
854.687	704
854.777	759
854.866	-804
854.955	139
855.044	-698
855.133	-526
855.222	98
855.311	-1002
855.400	-853
855.488	-763
855.577	-579
855.666	-1605
855.755	-562
855.844	-723
855.933	-972
856.021	-1293
856.110	-1358
856.199	-1789
856.288	-687
856.376	-713
856.465	-1321
856.554	-1000
856.642	-1582
856.731	-1399
856.819	-532
856.908	-1164
856.996	-859
857.085	-823
857.173	-1143
857.262	-531
857.350	85
857.438	-1008
857.527	-773
857.615	-731
857.703	-517
857.792	-1229
857.880	-759
857.968	-1520
858.056	-821
858.145	-964
858.233	-252
858.321	-1382
858.409	-670
858.497	-652
858.585	-757
858.673	-473
858.761	-1300
858.849	-823
858.937	-718
859.025	-1026
859.113	-661
859.201	-533
859.289	-874
859.377	-140
859.465	-888
859.552	-591
859.640	-905
859.728	-223
859.816	-604
859.903	-812
859.991	-1714
860.079	-814
860.166	-850
860.254	-1160
860.342	-286
860.429	-123
860.517	-2087
860.604	-80
860.692	-906
860.779	-1247
860.867	-1753
860.954	-929
861.042	-352
861.129	-766
861.216	-868
861.304	-1184
861.391	-877
861.478	-1030
861.565	-697
861.653	-102
861.740	-1061
861.827	-860
861.914	-397
862.001	-911
862.089	-728
862.176	-1171
862.263	-1252
862.350	-166
862.437	-1797
862.524	-993
862.611	-1267
862.698	-169
862.785	-293
862.871	-654
862.958	-859
863.045	-614
863.132	-871
863.219	-915
863.306	-1671
863.392	-419
863.479	-171
863.566	-434
863.652	-553
863.739	-752
863.826	-491
863.912	-657
863.999	-1356
864.086	-625
864.172	-453
864.259	-825
864.345	-902
864.432	-366
864.518	-559
864.604	-395
864.691	-276
864.777	68
864.863	628
864.950	128
865.036	901
865.122	2545
865.209	2049
865.295	1693
865.381	2216
865.467	1920
865.553	2530
865.639	3632
865.726	6301
865.812	13273
865.898	22308
865.984	33303
866.070	63486
866.156	50882
866.242	12303
866.328	4008
866.414	1756
866.499	2214
866.585	2860
866.671	2070
866.757	1943
866.843	1795
866.928	783
867.014	1780
867.100	891
867.186	1173
867.271	847
867.357	2054
867.442	1691
867.528	2187
867.614	779
867.699	872
867.785	1588
867.870	1249
867.956	953
868.041	1231
868.127	1510
868.212	139
868.297	1210
868.383	1234
868.468	1050
868.553	2039
868.639	557
868.724	1318
868.809	1547
868.894	674
868.979	1080
869.065	937
869.150	169
869.235	596
869.320	828
869.405	859
869.490	713
869.575	476
869.660	735
869.745	1567
869.830	399
869.915	1000
870.000	37
870.085	455
870.169	667
870.254	1299
870.339	-167
870.424	430
870.509	887
870.593	1023
870.678	760
870.763	1002
870.847	-252
870.932	49
871.016	1129
871.101	-261
871.186	1571
871.270	1333
871.355	-239
871.439	935
871.523	454
871.608	329
871.692	321
871.777	1202
871.861	1030
871.945	911
872.030	-157
872.114	1231
872.198	398
872.282	620
872.367	464
872.451	-29
872.535	652
872.619	520
872.703	199
872.787	444
872.871	407
872.955	-186
873.039	-530
873.123	315
873.207	1722
873.291	47
873.375	423
873.459	917
873.543	658
873.627	123
873.711	-13
873.794	555
873.878	161
873.962	-256
874.045	-51
874.129	-84
874.137	-9
874.213	740
874.245	531
874.296	191
874.352	78
874.380	23
874.460	327
874.464	338
874.547	90
874.568	121
874.631	194
874.676	-74
874.714	-282
874.784	96
874.798	172
874.881	1088
874.892	901
874.965	-387
874.999	8
875.048	483
875.107	95
875.131	-47
875.215	-395
875.215	-395
875.298	-843
875.323	-432
875.381	560
875.430	922
875.465	1160
875.538	748
875.548	689
875.631	-867
875.646	-709
875.714	17
875.753	-19
875.798	-4
875.861	693
875.881	880
875.964	219
875.968	215
876.047	335
876.076	388
876.130	401
876.183	254
876.213	202
876.291	860
876.296	892
876.379	154
876.398	47
876.462	-178
876.506	-256
876.545	-346
876.613	496
876.628	700
876.711	868
876.721	785
876.794	89
876.828	410
876.877	795
876.935	666
876.960	686
877.043	523
877.043	522
877.125	488
877.150	831
877.208	1453
877.258	589
877.291	72
877.365	177
877.374	191
877.456	967
877.472	856
877.539	550
877.579	817
877.622	990
877.687	586
877.704	527
877.787	1192
877.794	1234
877.869	1508
877.901	1234
877.952	652
878.008	547
878.034	631
878.115	799
878.117	804
878.199	378
878.222	708
878.282	1645
878.329	1811
878.364	1752
878.437	1572
878.447	1572
878.529	781
878.544	778
878.611	658
878.651	801
878.694	1222
878.758	783
878.776	595
878.858	1861
878.865	1766
878.941	501
878.972	567
879.023	768
879.078	643
879.105	657
879.185	1341
879.187	1361
879.269	1169
879.292	1444
879.351	1867
879.399	1444
879.433	1264
879.506	1520
879.516	1549
879.598	1361
879.613	1436
879.680	1577
879.720	1583
879.762	1797
879.827	1362
879.844	1228
879.926	1149
879.933	1167
880.007	1272
880.040	1322
880.089	1675
880.147	1748
880.171	1803
880.253	3345
880.254	3345
880.335	4705
880.360	5068
880.417	7733
880.467	10892
880.499	12098
880.574	12979
880.580	12611
880.662	5243
880.680	4045
880.744	2262
880.787	1256
880.825	1118
880.893	1225
880.907	1270
880.989	1336
881.000	1385
881.070	2059
881.106	2264
881.152	2019
881.213	1491
881.233	1468
881.315	1905
881.319	1905
881.396	2106
881.426	2191
881.478	2113
881.532	2086
881.559	2097
881.639	1620
881.641	1616
881.722	1720
881.745	1599
881.803	1992
881.852	2257
881.885	1775
881.958	1569
881.966	1664
882.047	1689
882.064	1690
882.129	1256
882.171	1132
882.210	1547
882.277	2187
882.291	2175
882.372	2004
882.383	1987
882.454	2291
882.489	2546
882.535	2624
882.596	1970
882.616	1865
882.697	2005
882.702	2000
882.778	1459
882.808	1350
882.859	1564
882.914	1744
882.940	1815
883.020	1609
883.021	1621
883.102	2288
883.127	2541
883.183	2884
883.233	2991
883.264	2526
883.339	1681
883.345	1668
883.426	817
883.445	798
883.507	1689
883.551	2056
883.587	2241
883.657	2506
883.668	2492
883.749	2644
883.763	2572
883.830	1436
883.869	1133
883.910	1824
883.975	2488
883.991	2550
884.072	2899
884.081	2869
884.152	3058
884.187	3429
884.233	3484
884.292	3279
884.314	2952
884.394	1727
884.398	1659
884.475	1568
884.504	1467
884.555	1747
884.610	2153
884.636	2198
884.716	2192
884.716	2206
884.797	2805
884.821	3048
884.877	3075
884.927	2639
884.958	2435
885.033	2364
885.038	2302
885.118	817
885.139	481
885.199	1354
885.244	2206
885.279	2598
885.350	3222
885.359	3321
885.439	3653
885.456	3731
885.520	2787
885.561	2254
885.600	2205
885.667	2051
885.680	2121
885.760	2612
885.773	2632
885.840	1783
885.878	1377
885.920	1700
885.984	2102
886.000	2243
886.080	3030
886.089	3093
886.160	3040
886.195	2962
886.240	2815
886.300	2715
886.320	2780
886.400	2958
886.406	2935
886.480	2797
886.511	2857
886.560	2978
886.616	3041
886.640	2913
886.720	2465
886.722	2438
886.800	2275
886.827	2296
886.879	2609
886.932	2870
886.959	3123
887.038	3569
887.039	3584
887.119	3615
887.143	3620
887.198	3588
887.248	3586
887.278	3410
887.354	2571
887.358	2576
887.437	2712
887.459	2687
887.517	3402
887.564	3991
887.596	3593
887.669	2536
887.676	2509
887.755	2310
887.774	2193
887.835	2131
887.880	2094
887.914	2620
887.985	3688
887.994	3727
888.073	3970
888.090	3971
888.153	4087
888.195	4179
888.232	3840
888.300	3172
888.311	3112
888.391	2577
888.405	2468
888.470	2003
888.510	1688
888.549	2127
888.615	2965
888.628	3049
888.708	3310
888.720	3346
888.787	3414
888.825	3425
888.866	2902
888.930	2029
888.945	2214
889.024	3249
889.035	3364
889.103	3696
889.140	3842
889.182	3615
889.245	3255
889.261	3326
889.340	3655
889.349	3675
889.419	3434
889.454	3296
889.498	2910
889.559	2346
889.577	2749
889.656	4486
889.664	4644
889.735	4157
889.768	3902
889.814	4118
889.873	4375
889.978	3384
890.083	2883
890.187	4199
890.292	4082
890.397	3430
890.501	3741
890.606	2423
890.710	3510
890.815	4506
890.919	3619
891.024	3082
891.128	2290
891.233	2645
891.337	4125
891.442	3526
891.546	3862
891.650	2326
891.755	3153
891.859	4719
891.963	4069
892.068	3366
892.172	3223
892.276	1671
892.380	3226
892.484	3903
892.589	3607
892.693	2872
892.797	2553
892.901	2524
893.005	2643
893.109	4332
893.213	3681
893.317	3535
893.421	2715
893.525	1061
893.629	2240
893.733	4459
893.837	3490
893.941	2776
894.045	3054
894.148	2262
894.252	3882
894.356	4714
894.460	5153
894.564	2769
894.667	3093
894.771	2317
894.875	2423
894.978	2627
895.082	2961
895.186	3896
895.289	3236
895.393	3000
895.496	3520
895.600	2053
895.703	1662
895.807	2881
895.910	2322
896.014	3579
896.117	1828
896.221	3135
896.324	2902
896.427	2795
896.531	2533
896.634	2003
896.737	3230
896.840	2376
896.944	3932
897.047	3047
897.150	2639
897.253	1931
897.356	2635
897.460	1546
897.563	2368
897.666	3510
897.769	2901
897.872	2388
897.975	2403
898.078	1812
898.181	2900
898.284	2192
898.387	3990
898.490	3096
898.593	2486
898.695	2628
898.798	1603
898.901	2112
899.004	3160
899.107	2186
899.209	3040
899.312	3174
899.415	2316
899.518	1412
899.620	2375
899.723	1914
899.826	3976
899.928	2824
900.031	3672
900.133	2493
900.236	1936
900.338	1352
900.441	2025
900.543	2060
900.646	3215
900.748	2115
900.851	3805
900.953	1979
901.055	2440
901.158	2137
901.260	2321
901.362	2734
901.465	1561
901.567	2409
901.669	2615
901.771	2103
901.873	2260
901.976	2429
902.078	2693
902.180	1216
902.282	2305
902.384	2940
902.486	3705
902.588	2353
902.690	2015
902.792	1117
902.894	2652
902.996	3047
903.098	2440
903.200	1543
903.302	2802
903.404	2491
903.505	1625
903.607	2439
903.709	3705
903.811	2913
903.913	1990
904.014	1867
904.116	1476
904.218	1841
904.319	2443
904.421	3105
904.523	2103
904.624	1830
904.726	2020
904.827	1717
904.929	1520
905.030	1833
905.132	4236
905.233	2699
905.335	2268
905.436	1500
905.537	1780
905.639	1830
905.740	2533
905.841	3276
905.943	1915
906.044	1183
906.145	1604
906.247	1159
906.348	2026
906.449	2218
906.550	3541
906.651	1462
906.752	2989
906.854	1368
906.955	2038
907.056	2021
907.157	2957
907.258	2618
907.359	1062
907.460	776
907.561	1934
907.662	1409
907.762	2438
907.863	2369
907.964	3054
908.065	1501
908.166	1952
908.267	1935
908.367	1793
908.468	1909
908.569	2192
908.670	2379
908.770	3563
908.871	3029
908.971	3064
909.072	2214
909.173	1877
909.273	1931
909.374	3234
909.474	2485
909.575	1874
909.675	1268
909.776	2483
909.876	1708
909.977	2443
910.077	2006
910.177	3008
910.278	1764
910.378	2228
910.478	1452
910.579	2615
910.679	2504
910.779	2984
910.879	2493
910.980	2399
911.080	2026
911.180	1606
911.280	670
911.380	1655
911.480	2394
911.580	2399
911.680	2181
911.780	3002
911.880	2827
911.980	1751
912.080	1955
912.180	3512
912.280	1694
912.380	1691
912.480	1960
912.580	1581
912.679	1817
912.779	2838
912.879	1881
912.979	1923
913.078	701
913.178	1622
913.278	1673
913.377	1818
913.477	1372
913.577	1550
913.676	2529
913.776	2624
913.875	1257
913.975	1989
914.074	2009
914.174	2237
914.273	768
914.373	2544
914.472	1102
914.572	961
914.671	999
914.770	2290
914.870	1289
914.969	1917
915.068	2199
915.167	2377
915.267	1364
915.366	2234
915.465	2385
915.564	2382
915.663	2225
915.763	2466
915.862	2310
915.961	2593
916.060	1644
916.159	1715
916.258	2006
916.357	2335
916.456	2580
916.555	1976
916.654	2434
916.752	2836
916.851	2226
916.950	1565
917.049	2081
917.148	1699
917.247	2076
917.345	1843
917.444	1512
917.543	1162
917.642	1435
917.740	2633
917.839	3096
917.937	3322
918.036	2777
918.135	1895
918.233	1241
918.332	1926
918.430	1312
918.529	1798
918.627	2154
918.726	2033
918.824	2206
918.923	1845
919.021	1867
919.119	2272
919.218	1972
919.316	2584
919.414	2998
919.512	2957
919.611	2284
919.709	2731
919.807	3617
919.905	3204
920.003	2531
920.102	2896
920.200	2605
920.298	3596
920.396	2942
920.494	2552
920.592	2230
920.690	2880
920.788	2221
920.886	2608
920.984	2685
921.082	3566
921.180	3831
921.277	3383
921.375	4508
921.473	5700
921.571	4521
921.669	4180
921.766	5329
921.864	5146
921.962	4337
922.060	5047
922.157	4511
922.255	5506
922.352	4670
922.450	5212
922.548	5343
922.645	6782
922.743	7767
922.840	13195
922.938	13238
923.035	12145
923.133	11422
923.230	14408
923.327	15896
923.425	13433
923.522	14749
923.619	11750
923.717	11159
923.814	12681
923.911	11668
924.008	12378
924.106	10866
924.203	11003
924.300	11410
924.397	11044
924.494	12338
924.591	11620
924.688	10802
924.786	10871
924.883	11824
924.979	11277
925.077	9299
925.173	11643
925.270	10918
925.367	11611
925.464	12198
925.561	12570
925.658	11620
925.755	11681
925.852	11805
925.948	11331
926.045	10531
926.142	11392
926.239	10246
926.335	9116
926.432	10345
926.529	12129
926.625	10986
926.722	9553
926.818	9853
926.915	11310
927.011	9847
927.108	10990
927.204	10051
927.301	9418
927.397	11518
927.494	10889
927.590	7482
927.687	9749
927.783	11004
927.879	10254
927.976	8196
928.072	9470
928.168	10047
928.264	9152
928.361	9700
928.457	10408
928.553	8276
928.649	10408
928.745	8967
928.841	8461
928.937	8899
929.033	9017
929.129	9027
929.225	10762
929.321	7856
929.417	8496
929.513	9813
929.609	8269
929.705	9329
929.801	9986
929.897	8274
929.993	8769
930.089	7832
930.184	7951
930.280	9258
930.376	10859
930.471	7079
930.567	8272
930.663	8671
930.758	7903
930.854	7586
930.950	8500
931.045	6914
931.141	8971
931.236	9805
931.332	7296
931.427	6420
931.523	9742
931.618	7722
931.714	5964
931.809	8042
931.905	8222
932.000	5392
932.095	5601
932.191	9539
932.286	10148
932.381	6430
932.476	6506
932.572	7359
932.667	7277
932.762	6143
932.857	8527
932.952	9161
933.047	6776
933.142	5828
933.237	8260
933.332	8172
933.427	8477
933.522	6068
933.617	6288
933.712	7389
933.807	8495
933.902	8657
933.997	7525
934.092	5213
934.187	7848
934.282	6934
934.376	7523
934.471	7210
934.566	5916
934.661	6074
934.755	6990
934.850	7416
934.945	6959
935.039	5351
935.134	5164
935.228	7378
935.323	8132
935.417	4617
935.512	4858
935.606	5443
935.701	7109
935.795	7457
935.890	6964
935.984	5916
936.079	5721
936.173	6841
936.267	5584
936.362	3918
936.456	7637
936.550	7907
936.644	6485
936.738	5420
936.833	5011
936.927	5327
937.021	6828
937.115	6124
937.209	5771
937.303	5772
937.397	4810
937.491	4652
937.585	7239
937.679	5396
937.773	4949
937.867	4284
937.961	5898
938.055	7592
938.149	5401
938.243	3730
938.337	3537
938.430	5336
938.524	7681
938.618	4882
938.712	4436
938.805	4552
938.899	6803
938.993	7079
939.086	3565
939.180	3448
939.274	5503
939.367	6313
939.461	6081
939.554	4396
939.648	4542
939.741	5079
939.835	6558
939.928	7508
940.022	6283
940.115	4754
940.208	6602
940.302	7057
940.395	7732
940.488	3568
940.582	5696
940.675	3316
940.768	4721
940.861	5302
940.954	5948
941.048	3196
941.141	4084
941.234	4696
941.327	4937
941.420	5493
941.513	5298
941.606	3348
941.699	5358
941.792	5781
941.885	5061
941.978	5581
942.071	4201
942.164	2893
942.257	3733
942.349	5151
942.442	4761
942.535	3021
942.628	4398
942.721	3911
942.813	4076
942.906	4317
942.999	4825
943.091	3176
943.184	4591
943.277	3341
943.369	3850
943.462	2764
943.554	5819
943.647	3848
943.739	5776
943.832	5018
943.924	2088
944.017	3584
944.109	2955
944.201	4091
944.294	4195
944.386	3305
944.478	3345
944.571	3605
944.663	3668
944.755	4505
944.847	5064
944.940	4162
945.032	2507
945.124	2279
945.216	4909
945.308	3733
945.400	3709
945.492	2984
945.584	5193
945.676	4919
945.768	3933
945.860	6274
945.952	5009
946.044	3901
946.136	3626
946.228	3412
946.320	3174
946.412	4571
946.503	5035
946.595	4429
946.687	2602
946.779	2205
946.870	3662
946.962	3075
947.054	3949
947.145	4292
947.237	3612
947.329	4307
947.420	3609
947.512	2274
947.603	2639
947.695	2363
947.786	2812
947.878	3268
947.969	4859
948.061	3425
948.152	2745
948.243	1424
948.335	3008
948.426	1230
948.517	3662
948.609	3644
948.700	3702
948.791	2995
948.882	2290
948.973	2900
949.065	4487
949.156	2417
949.247	2492
949.338	2695
949.429	1462
949.520	2377
949.611	3053
949.702	3343
949.793	4013
949.884	2518
949.975	2651
950.066	1554
950.157	2302
950.247	2286
950.338	1964
950.429	2078
950.520	2745
950.611	2009
950.701	3363
950.792	4458
950.883	3937
950.973	3015
951.064	3619
951.155	3230
951.245	3673
951.336	3235
951.427	3668
951.517	3902
951.608	3017
951.698	2038
951.788	2351
951.879	2604
951.969	2167
952.060	2352
952.150	4019
952.240	3860
952.331	2361
952.421	3369
952.511	2310
952.602	1010
952.692	1806
952.782	2004
952.872	3023
952.962	2485
953.052	3026
953.143	2390
953.233	3489
953.323	3289
953.413	3009
953.503	2508
953.593	2939
953.683	1427
953.773	1568
953.863	2164
953.953	1772
954.042	2680
954.132	2122
954.222	2324
954.312	1934
954.402	1447
954.492	2887
954.581	2566
954.671	2270
954.761	2385
954.850	3996
954.940	1236
955.030	1693
955.119	1110
955.209	2645
955.298	1564
955.388	3032
955.477	1594
955.567	1401
955.656	1881
955.746	3087
955.835	1468
955.925	1742
956.014	2775
956.103	2843
956.193	3357
956.282	3347
956.371	2152
956.461	3148
956.550	2077
956.639	2940
956.728	1427
956.817	2581
956.906	2273
956.995	3195
957.085	1487
957.174	2964
957.263	1746
957.352	1769
957.441	1458
957.530	1714
957.619	1328
957.708	2488
957.796	798
957.885	2416
957.974	2035
958.063	2484
958.152	694
958.241	1703
958.329	2584
958.418	1884
958.507	1129
958.596	3179
958.684	1564
958.773	2401
958.861	1716
958.950	2369
959.039	1903
959.127	3242
959.216	2098
959.304	2037
959.393	2375
959.481	2631
959.570	1844
959.658	1581
959.746	1741
959.835	2855
959.923	1754
960.011	1969
960.100	2249
960.188	2699
960.276	1567
960.365	743
960.453	1645
960.541	656
960.629	1057
960.717	1231
960.805	438
960.893	2208
960.981	1211
961.069	3535
961.158	2786
961.245	4071
961.333	1918
961.421	1808
961.509	1916
961.597	2381
961.685	1785
961.773	1868
961.861	1778
961.949	2683
962.036	139
962.124	1536
962.212	1107
962.299	1581
962.387	787
962.475	1544
962.562	385
962.650	2337
962.738	1107
962.825	1260
962.913	1337
963.000	1904
963.088	1473
963.175	1611
963.263	1452
963.350	1479
963.438	1064
963.525	1062
963.612	908
963.700	1947
963.787	2552
963.874	1027
963.962	810
964.049	1457
964.136	343
964.223	1281
964.310	66
964.398	1702
964.485	999
964.572	2407
964.659	1402
964.746	1262
964.833	79
964.920	1796
965.007	1534
965.094	1027
965.181	1445
965.268	1607
965.355	1158
965.441	1621
965.528	1368
965.615	2284
965.702	775
965.789	2526
965.875	1442
965.962	1306
966.049	1571
966.136	2792
966.222	1706
966.309	2462
966.395	1739
966.482	2044
966.569	1103
966.655	1646
966.742	397
966.828	1047
966.915	567
967.001	793
967.087	-316
967.174	848
967.260	844
967.347	1929
967.433	1526
967.519	1523
967.605	985
967.692	1681
967.778	297
967.864	1076
967.950	648
968.036	1853
968.123	1317
968.209	1584
968.295	104
968.381	2245
968.467	1632
968.553	-124
968.639	1406
968.725	1437
968.811	2194
968.897	1811
968.983	1286
969.069	-690
969.154	866
969.240	1164
969.326	87
969.412	424
969.497	151
969.583	1312
969.669	1657
969.755	1988
969.840	1276
969.926	3463
970.012	3762
970.097	4351
970.183	2266
970.268	1219
970.354	1707
970.439	773
970.525	1480
970.610	1086
970.696	1225
970.781	1090
970.866	96
970.952	1917
971.037	536
971.122	1181
971.208	42
971.293	1117
971.378	-248
971.463	592
971.549	1100
971.634	734
971.719	669
971.804	1147
971.889	1311
971.974	850
972.059	344
972.144	982
972.229	1181
972.314	1010
972.399	294
972.484	866
972.569	833
972.654	-9
972.739	2093
972.824	447
972.908	487
972.993	198
973.078	1274
973.163	1360
973.247	256
973.332	81
973.417	1832
973.501	1013
973.586	284
973.671	1602
973.755	76
973.840	1260
973.924	1000
974.009	1944
974.093	1890
974.178	2559
974.262	1331
974.346	756
974.431	1062
974.515	782
974.600	320
974.684	1039
974.768	1067
974.852	2100
974.937	62
975.021	2368
975.105	325
975.189	1122
975.273	467
975.358	522
975.442	-224
975.526	995
975.610	-336
975.694	805
975.778	2039
975.862	929
975.946	-1229
976.030	2386
976.114	410
976.198	329
976.281	408
976.365	1206
976.449	497
976.533	1274
976.617	-454
976.700	641
976.784	762
976.868	458
976.951	870
977.035	343
977.119	948
977.202	814
977.286	1323
977.369	2231
977.453	2353
977.536	2218
977.620	1335
977.703	2014
977.787	547
977.870	2258
977.953	2264
978.037	557
978.120	1827
978.203	1099
978.287	1361
978.370	791
978.453	-667
978.536	629
978.620	1513
978.703	557
978.786	-268
978.869	-186
978.952	37
979.035	2905
979.118	1419
979.201	610
979.284	2142
979.367	1244
979.450	975
979.533	386
979.616	-14
979.699	792
979.782	1013
979.865	1731
979.948	456
980.030	496
980.113	593
980.196	709
980.279	1909
980.361	1021
980.444	1463
980.526	1735
980.609	3208
980.692	1992
980.774	2211
980.857	512
980.939	1756
981.022	698
981.104	778
981.187	1214
981.269	1370
981.352	1319
981.434	647
981.516	668
981.599	1100
981.681	1722
981.763	633
981.846	1010
981.928	1189
982.010	1032
982.092	-260
982.174	2057
982.256	47
982.339	815
982.421	1048
982.503	764
982.585	-241
982.667	515
982.749	775
982.831	2072
982.913	467
982.995	2195
983.077	1469
983.158	2384
983.240	-282
983.322	2903
983.404	3478
983.486	2674
983.568	2102
983.649	2577
983.731	2318
983.813	2094
983.894	2257
983.976	1627
984.058	984
984.139	2580
984.221	578
984.302	2184
984.384	1611
984.465	1454
984.547	794
984.628	914
984.710	1693
984.791	1835
984.872	710
984.954	714
985.035	2014
985.116	1781
985.198	1993
985.279	2799
985.360	1466
985.441	1226
985.522	1873
985.604	2437
985.685	-969
985.766	2586
985.847	2537
985.928	-368
986.009	1712
986.090	1015
986.171	1568
986.252	1567
986.333	1227
986.414	1292
986.495	1690
986.576	1662
986.656	1239
986.737	1954
986.818	1368
986.899	2114
986.980	1190
987.060	2582
987.141	1600
987.222	1962
987.302	2563
987.383	3368
987.464	1724
987.544	3182
987.625	1297
987.705	3058
987.786	2773
987.866	2061
987.947	2891
988.027	2596
988.108	2057
988.188	3027
988.268	2536
988.349	1556
988.429	2036
988.509	2297
988.589	2271
988.670	1074
988.750	2875
988.830	979
988.910	1283
988.990	2133
989.070	1878
989.151	2119
989.231	1411
989.311	1994
989.391	1740
989.471	1507
989.551	1274
989.631	1009
989.711	2486
989.791	1600
989.870	951
989.950	2383
990.030	849
990.110	2592
990.190	900
990.269	1444
990.349	1212
990.429	2355
990.509	1269
990.588	1213
990.668	1028
990.747	873
990.827	2006
990.907	1543
990.986	1255
991.066	1869
991.145	704
991.225	2475
991.304	599
991.383	1506
991.463	446
991.542	1739
991.622	425
991.701	716
991.780	570
991.859	828
991.939	852
992.018	1614
992.097	1295
992.176	706
992.256	788
992.335	240
992.414	1310
992.493	605
992.572	-272
992.651	1540
992.730	647
992.809	1124
992.888	254
992.967	1223
993.046	1361
993.125	267
993.203	370
993.282	1091
993.361	916
993.440	2153
993.519	-512
993.597	1050
993.676	687
993.755	1461
993.834	210
993.912	-245
993.991	1983
994.069	550
994.148	-145
994.226	850
994.305	1033
994.384	371
994.462	1389
994.540	-879
994.619	-161
994.697	541
994.776	466
994.854	1466
994.932	52
995.011	431
995.089	654
995.167	226
995.245	490
995.324	511
995.402	853
995.480	602
995.558	577
995.636	-189
995.714	-495
995.792	1883
995.870	-491
995.948	228
996.026	-170
996.104	-633
996.182	-22
996.260	-571
996.338	133
996.416	191
996.494	-402
996.572	824
996.649	-602
996.727	-378
996.805	429
996.883	-457
996.960	-78
997.038	682
997.116	496
997.193	-573
997.271	453
997.348	-251
997.426	116
997.504	-133
997.581	277
997.658	420
997.736	-1406
997.813	419
997.891	371
997.968	-884
998.046	-989
998.123	50
998.200	-302
998.277	-250
998.355	-144
998.432	-1409
998.509	-740
998.586	470
998.663	73
998.741	60
998.818	-140
998.895	4
998.972	284
999.049	208
999.126	-426
999.203	711
999.280	411
999.357	227
999.434	-478
999.511	285
999.587	-282
999.664	-679
999.741	-853
999.818	804
999.895	-1489
999.971	-170
1000.048	-223
1000.125	340
1000.202	-775
1000.278	-13
1000.355	-351
1000.431	-595
1000.508	-1071
1000.584	-410
1000.661	-663
1000.738	-847
1000.814	-1021
1000.890	512
1000.967	-592
1001.043	-220
1001.120	-1010
1001.196	-907
1001.272	-1824
1001.349	188
1001.425	-27
1001.501	107
1001.577	-1081
1001.654	-74
1001.730	-382
1001.806	-102
1001.882	-658
1001.958	-153
1002.034	-296
1002.110	153
1002.186	-1167
1002.262	-900
1002.338	-1743
1002.414	-245
1002.490	-720
1002.566	-114
1002.642	-882
1002.718	-310
1002.794	-1175
1002.870	-618
1002.945	-1047
1003.021	-473
1003.097	-981
1003.173	166
1003.248	-840
1003.324	-64
1003.400	-754
1003.475	-970
1003.551	-1033
1003.626	-722
1003.702	-651
1003.777	-576
1003.853	-515
1003.928	-1245
1004.004	-833
1004.079	427
1004.155	-597
1004.230	-1558
1004.305	-354
1004.381	-563
1004.456	-652
1004.531	-1671
1004.607	-756
1004.682	-669
1004.757	-546
1004.832	-736
1004.907	-702
1004.982	-702
1005.057	-201
1005.133	-745
1005.208	-1338
1005.283	-1129
1005.358	-374
1005.433	-1012
1005.508	-160
1005.583	-1309
1005.657	-986
1005.732	-309
1005.807	-1443
1005.882	-430
1005.957	-974
1006.032	-585
1006.106	-795
1006.181	-576
1006.256	-428
1006.331	-564
1006.405	-2120
1006.480	-661
1006.554	-1774
1006.629	-655
1006.704	-1104
1006.778	-456
1006.853	-521
1006.927	-1737
1007.002	-544
1007.076	-1007
1007.150	-1262
1007.225	-722
1007.299	-657
1007.373	-2254
1007.448	-567
1007.522	131
1007.596	-924
1007.671	-979
1007.745	-1052
1007.819	-1643
1007.893	-1542
1007.967	-1430
1008.041	-2153
1008.115	570
1008.190	-2313
1008.264	-608
1008.338	-1334
1008.412	-1403
1008.486	-1711
1008.560	-1038
1008.633	-1777
1008.707	-379
1008.781	-980
1008.855	-753
1008.929	-1289
1009.003	-683
1009.076	-2192
1009.150	-863
1009.224	-987
1009.298	-639
1009.371	-1262
1009.445	-614
1009.519	-1276
1009.592	-1781
1009.666	-1217
1009.739	191
1009.813	-1722
1009.886	-232
1009.960	-2225
1010.033	-1279
1010.107	-616
1010.180	-1461
1010.253	-1817
1010.327	-1993
1010.400	-1669
1010.473	-1067
1010.547	-755
1010.620	-1654
1010.693	-1064
1010.766	-1387
1010.840	-1091
1010.913	-808
1010.986	-2360
1011.059	-1326
1011.132	-1600
1011.205	-1646
1011.278	-2134
1011.351	-1776
1011.424	-1666
1011.497	-1128
1011.570	-1729
1011.643	-402
1011.716	-1949
1011.789	-799
1011.862	-761
1011.934	-96
1012.007	-2329
1012.080	-1183
1012.153	-1523
1012.225	-454
1012.298	-2530
1012.371	-1379
1012.443	-902
1012.516	-2019
1012.588	-1500
1012.661	-496
1012.733	-2259
1012.806	-1309
1012.879	-1657
1012.951	-723
1013.023	-2299
1013.096	-653
1013.168	-1852
1013.241	-597
1013.313	-1296
1013.385	-1881
1013.458	-1714
1013.530	-874
1013.602	-2743
1013.674	-919
1013.746	-1452
1013.819	-2040
1013.891	-1002
1013.963	-1265
1014.035	-1555
1014.107	-666
1014.179	-934
1014.251	-1887
1014.323	-1225
1014.395	-1958
1014.467	-1570
1014.539	-447
1014.611	-2391
1014.683	-1449
1014.754	-1530
1014.826	-1787
1014.898	-1250
1014.970	-1796
1015.042	-656
1015.113	-1769
1015.185	-1907
1015.257	-2178
1015.328	-1363
1015.400	-1632
1015.471	-2162
1015.543	-1944
1015.615	-1784
1015.686	-1271
1015.757	-1624
1015.829	-1369
1015.901	-1266
1015.972	-1681
1016.043	-1094
1016.115	-1945
1016.186	-2014
1016.257	-2156
1016.328	-1010
1016.400	-419
1016.471	-2156
1016.542	-1945
1016.613	-1850
1016.685	-1196
1016.756	-1058
1016.827	-1573
1016.898	-1917
1016.969	-1076
1017.040	-903
1017.111	-2096
1017.182	-1209
1017.253	-1272
1017.324	-1809
1017.395	-1512
1017.466	-1752
1017.537	-1846
1017.608	-1250
1017.678	-1618
1017.749	-2060
1017.820	-1209
1017.891	-2688
1017.961	-1840
1018.032	-1981
1018.103	-1496
1018.173	-2302
1018.244	-1195
1018.315	-2152
1018.385	-662
1018.456	-1974
1018.526	-1719
1018.597	-1813
1018.667	-1144
1018.738	-2012
1018.808	-1204
1018.878	-1570
1018.949	-1194
1019.019	-1917
1019.089	-1902
1019.160	-1581
1019.230	-2287
1019.300	-1383
1019.371	-2862
1019.441	-1313
1019.511	-1367
1019.581	-2549
1019.651	-1697
1019.721	-1753
1019.791	-1575
1019.861	-2063
1019.931	-1699
1020.001	-2198
1020.071	-2086
1020.141	-2120
1020.211	-2071
1020.281	-2310
1020.351	-1372
1020.421	-1045
1020.491	-1301
1020.560	-2346
1020.630	-1845
1020.700	-1522
1020.770	-2223
1020.839	-2184
1020.909	-1392
1020.979	-1689
1021.048	-2151
1021.118	-1836
1021.187	-1809
1021.257	-2313
1021.326	-1059
1021.396	-2337
1021.465	-1577
1021.535	-2128
1021.604	-2508
1021.674	-1514
1021.743	-2000
1021.812	-1651
1021.882	-2079
1021.951	-1579
1022.020	-1420
1022.089	-1709
1022.159	-1663
1022.228	-1566
1022.297	-1944
1022.366	-2268
1022.435	-1949
1022.504	-1745
1022.573	-2498
1022.642	-2263
1022.711	-1635
1022.781	-2245
1022.849	-1462
1022.918	-2251
1022.987	-2041
1023.056	-2388
1023.125	-1548
1023.194	-2578
1023.263	-1803
1023.331	-2324
1023.400	-2148
1023.469	-2096
1023.538	-1156
1023.606	-1887
1023.675	-2167
1023.744	-2427
1023.812	-2566
1023.881	-2280
1023.949	-2254
1024.018	-2408
1024.086	-1705
1024.155	-2407
1024.223	-1995
1024.292	-2450
1024.360	-1578
1024.429	-1685
1024.497	-2647
1024.565	-2733
1024.634	-1724
1024.702	-1444
1024.770	-1886
1024.838	-2783
1024.907	-1437
1024.975	-1418
1025.043	-1475
1025.111	-2722
1025.179	-2024
1025.247	-1566
1025.315	-2502
1025.383	-2348
1025.451	-2110
1025.519	-1875
1025.587	-1724
1025.655	-2098
1025.723	-2132
1025.791	-2456
1025.859	-1906
1025.927	-1885
1025.995	-1862
1026.062	-2478
1026.130	-1338
1026.198	-2598
1026.266	-1976
1026.333	-1782
1026.401	-2044
1026.469	-1781
1026.536	-2127
1026.604	-2696
1026.671	-2329
1026.739	-1956
1026.806	-1983
1026.874	-2341
1026.941	-1799
1027.009	-2788
1027.076	-1845
1027.144	-1941
1027.211	-2354
1027.278	-2265
1027.345	-1807
1027.413	-3214
1027.480	-2069
1027.547	-2453
1027.614	-2134
1027.682	-2535
1027.749	-1201
1027.816	-2317
1027.883	-1385
1027.950	-1912
1028.017	-2394
1028.084	-1511
1028.151	-1931
1028.218	-1890
1028.285	-2010
1028.352	-2547
1028.419	-2758
1028.486	-2556
1028.553	-2015
1028.619	-2591
1028.686	-1401
1028.753	-2187
1028.820	-1587
1028.886	-3117
1028.953	-2669
1029.020	-2821
1029.086	-2599
1029.153	-2087
1029.220	-2445
1029.286	-2700
1029.353	-1197
1029.419	-2740
1029.486	-3042
1029.552	-3265
1029.619	-2544
1029.685	-2467
1029.751	-2276
1029.818	-2021
1029.884	-1983
1029.951	-2387
1030.017	-1851
1030.083	-2892
1030.149	-1684
1030.216	-2535
1030.282	-1979
1030.348	-2101
1030.414	-1869
1030.480	-2207
1030.546	-1721
1030.612	-2415
1030.678	-2719
1030.744	-2254
1030.810	-2815
1030.876	-2534
1030.942	-2009
1031.008	-2747
1031.074	-1377
1031.140	-2490
1031.206	-1792
1031.272	-3012
1031.337	-1573
1031.403	-2196
1031.469	-945
1031.534	-2546
1031.600	-2104
1031.666	-2501
1031.731	-2906
1031.797	-2538
1031.863	-1391
1031.928	-2339
1031.994	-2267
1032.059	-2675
1032.125	-1821
1032.190	-2362
1032.256	-1713
1032.321	-3494
1032.386	-2748
1032.452	-3115
1032.517	-1320
1032.582	-1808
1032.647	-1860
1032.713	-2698
1032.778	-2270
1032.843	-2949
1032.908	-1562
1032.974	-3036
1033.039	-2647
1033.104	-3353
1033.169	-2663
1033.234	-2757
1033.299	-1635
1033.364	-2092
1033.429	-2108
1033.494	-2427
1033.559	-1643
1033.624	-2322
1033.688	-1369
1033.753	-1918
1033.818	-1823
1033.883	-1433
1033.948	-1229
1034.013	-2079
1034.077	-1052
1034.142	-819
1034.207	525
1034.271	372
1034.336	1537
1034.400	-751
1034.465	-595
1034.530	-1918
1034.594	-2260
1034.658	-1979
1034.723	-2429
1034.787	-2160
1034.852	-1432
1034.916	-2393
1034.981	-2374
1035.045	-1791
1035.109	-1791
1035.173	-1512
1035.238	-2048
1035.302	-1889
1035.366	-2198
1035.430	-2041
1035.495	-1736
1035.559	-2307
1035.623	-2091
1035.687	-2215
1035.751	-1849
1035.815	-2117
1035.879	-2756
1035.943	-1986
1036.007	-2796
1036.071	-2669
1036.135	-2154
1036.198	-2135
1036.262	-2126
1036.326	-2095
1036.390	-1681
1036.454	-2286
1036.517	-1611
1036.581	-2879
1036.645	-1316
1036.709	-1939
1036.772	-1887
1036.836	-1934
1036.900	-1650
1036.963	-2500
1037.026	-1977
1037.090	-2910
1037.154	-1995
1037.217	-2527
1037.280	-1622
1037.344	-2002
1037.407	-2020
1037.471	-2208
1037.534	-2163
1037.597	-2158
1037.661	-1406
1037.724	-2360
1037.787	-2313
1037.850	-2601
1037.913	-1681
1037.977	-1793
1038.040	-1601
1038.103	-2561
1038.166	-1891
1038.229	-2795
1038.292	-2282
1038.355	-2212
1038.418	-2540
1038.481	-1289
1038.544	-1850
1038.607	-2433
1038.670	-2037
1038.732	-2086
1038.795	-2180
1038.858	-1955
1038.921	-2312
1038.984	-2411
1039.046	-2175
1039.109	-2272
1039.172	-2662
1039.234	-2074
1039.297	-2162
1039.360	-2401
1039.422	-2269
1039.485	-2095
1039.547	-2487
1039.610	-2345
1039.672	-2502
1039.734	-2276
1039.797	-1738
1039.859	-2454
1039.922	-1971
1039.984	-2094
1040.046	-2005
1040.109	-2205
1040.171	-2266
1040.233	-2719
1040.295	-1721
1040.358	-2568
1040.420	-2569
1040.482	-2529
1040.544	-3176
1040.606	-2584
1040.668	-2555
1040.730	-2346
1040.792	-1368
1040.854	-2700
1040.916	-2333
1040.978	-2415
1041.040	-1204
1041.102	-2036
1041.164	-2294
1041.225	-2499
1041.287	-2546
1041.349	-2519
1041.411	-2140
1041.472	-2129
1041.534	-2515
1041.596	-2839
1041.657	-2135
1041.719	-1713
1041.781	-1931
1041.842	-2811
1041.904	-1423
1041.965	-2798
1042.027	-1995
1042.088	-2471
1042.150	-2203
1042.211	-2184
1042.272	-1034
1042.334	-2824
1042.395	-2481
1042.456	-2192
1042.518	-1582
1042.579	-2058
1042.640	-1937
1042.701	-1384
1042.763	-1628
1042.824	-2834
1042.885	-2175
1042.946	-2810
1043.007	-1187
1043.068	-2497
1043.129	-1837
1043.190	-2463
1043.251	-2009
1043.312	-2270
1043.373	-2003
1043.434	-2763
1043.495	-1632
1043.556	-2910
1043.616	-1542
1043.677	-1720
1043.738	-2320
1043.799	-2719
1043.859	-2311
1043.920	-2966
1043.981	-1632
1044.041	-2635
1044.102	-1781
1044.162	-2470
1044.223	-2228
1044.284	-2347
1044.344	-1936
1044.405	-2247
1044.465	-1122
1044.525	-2117
1044.586	-2223
1044.646	-1844
1044.707	-1773
1044.767	-2235
1044.827	-2515
1044.887	-2158
1044.948	-1368
1045.008	-1715
1045.068	-1321
1045.128	-1678
1045.188	-1360
1045.249	-1613
1045.309	-2056
1045.369	-1803
1045.429	-1564
1045.489	-2033
1045.549	-1234
1045.609	-2531
1045.669	-1891
1045.729	-2138
1045.789	-2030
1045.848	-2354
1045.908	-2239
1045.968	-1837
1046.028	-1649
1046.088	-1709
1046.147	-1128
1046.207	-1846
1046.267	-1248
1046.326	-2141
1046.386	-1162
1046.446	-1497
1046.505	-1122
1046.565	-1429
1046.624	-627
1046.684	-954
1046.743	-956
1046.803	-1088
1046.862	16
1046.922	0
