'Start Wavelength	183.907
'End Wavelength	1046.922
'Gate Delay	5.000
'Gate Width (ms)	1.050
'Laser Output Level	0.000
'X Position	0.000
'Y Position	0.000
'Z Position	0.000
'Grid Point Number	1.000
'Shot Number	100.000
183.907	369.000
183.977	-570.000
184.047	-12
184.116	6
184.186	235
184.256	793
184.325	-76
184.395	104
184.465	780
184.534	590
184.604	251
184.674	-64
184.743	-233
184.813	805
184.883	-229
184.952	780
185.022	-267
185.092	77
185.161	-177
185.231	412
185.301	291
185.370	382
185.440	-542
185.509	442
185.579	299
185.649	718
185.718	265
185.788	648
185.857	-124
185.927	332
185.996	-13
186.066	143
186.136	663
186.205	-233
186.275	-235
186.344	-367
186.414	153
186.483	-590
186.553	606
186.622	429
186.692	315
186.761	494
186.831	232
186.900	436
186.970	192
187.039	606
187.109	865
187.178	-245
187.248	757
187.317	230
187.387	304
187.456	796
187.526	-145
187.595	918
187.664	417
187.734	-303
187.803	-356
187.873	411
187.942	874
188.012	454
188.081	361
188.150	293
188.220	-65
188.289	107
188.358	543
188.428	406
188.497	-596
188.567	1383
188.636	57
188.705	-104
188.775	289
188.844	-396
188.913	1069
188.983	-108
189.052	-219
189.121	-413
189.191	471
189.260	695
189.329	758
189.399	107
189.468	-21
189.537	31
189.606	52
189.676	1174
189.745	1117
189.814	515
189.883	164
189.953	-316
190.022	-151
190.091	715
190.161	437
190.230	589
190.299	264
190.368	650
190.437	347
190.507	146
190.576	513
190.645	405
190.714	337
190.783	-391
190.853	461
190.922	869
190.991	464
191.060	482
191.129	-341
191.198	1146
191.268	670
191.337	558
191.406	1024
191.475	652
191.544	274
191.613	344
191.682	-201
191.752	277
191.821	963
191.890	-342
191.959	734
192.028	163
192.097	79
192.166	61
192.235	1
192.304	417
192.373	486
192.442	-325
192.511	-93
192.580	1096
192.650	-70
192.719	79
192.788	392
192.857	186
192.926	288
192.995	-21
193.064	896
193.133	649
193.202	295
193.271	-18
193.340	849
193.409	934
193.478	775
193.547	1201
193.615	-83
193.684	72
193.753	274
193.822	339
193.891	-657
193.960	657
194.029	162
194.098	-153
194.167	253
194.236	645
194.305	248
194.374	353
194.443	265
194.512	1132
194.580	880
194.649	462
194.718	304
194.787	-149
194.856	-552
194.925	782
194.994	-41
195.062	-187
195.131	-371
195.200	-4
195.269	771
195.338	297
195.407	1127
195.475	468
195.544	91
195.613	321
195.682	172
195.751	366
195.819	13
195.888	253
195.957	1040
196.026	287
196.094	305
196.163	26
196.232	200
196.301	600
196.369	792
196.438	157
196.507	312
196.576	196
196.644	269
196.713	326
196.782	-126
196.850	597
196.919	-291
196.988	90
197.056	-122
197.125	353
197.194	404
197.262	-242
197.331	182
197.400	492
197.468	296
197.537	259
197.606	390
197.674	1347
197.743	357
197.812	196
197.880	816
197.949	424
198.017	806
198.086	-631
198.155	-200
198.223	45
198.292	712
198.360	-315
198.429	567
198.497	13
198.566	445
198.635	431
198.703	106
198.772	685
198.840	597
198.909	417
198.977	110
199.046	-228
199.114	402
199.183	654
199.251	560
199.320	187
199.388	95
199.457	74
199.525	576
199.594	516
199.662	562
199.731	650
199.799	791
199.867	766
199.936	78
200.004	1418
200.073	-16
200.141	339
200.210	161
200.278	99
200.346	282
200.415	492
200.483	767
200.552	596
200.620	449
200.688	577
200.757	320
200.825	112
200.893	417
200.962	471
201.030	-117
201.098	-414
201.167	1130
201.235	393
201.303	143
201.372	1037
201.440	180
201.508	312
201.577	872
201.645	-240
201.713	479
201.781	976
201.850	631
201.918	-152
201.986	-134
202.055	785
202.123	-195
202.191	-53
202.259	306
202.327	1140
202.396	-360
202.464	166
202.532	289
202.600	856
202.669	669
202.737	101
202.805	-155
202.873	334
202.941	683
203.009	588
203.078	171
203.146	1029
203.214	397
203.282	-561
203.350	275
203.418	614
203.487	378
203.555	113
203.623	-513
203.691	488
203.759	81
203.827	260
203.895	-103
203.963	75
204.031	429
204.099	719
204.168	333
204.236	43
204.304	625
204.372	-290
204.440	842
204.508	-130
204.576	29
204.644	573
204.712	379
204.780	-59
204.848	756
204.916	-44
204.984	809
205.052	693
205.120	-385
205.188	477
205.256	260
205.324	768
205.392	151
205.460	1145
205.528	-537
205.596	635
205.664	-236
205.732	-507
205.799	210
205.867	746
205.935	-387
206.003	532
206.071	209
206.139	-202
206.207	407
206.275	-187
206.343	111
206.411	506
206.478	1080
206.546	348
206.614	243
206.682	969
206.750	1
206.818	1474
206.885	764
206.953	-674
207.021	1209
207.089	805
207.157	-137
207.225	537
207.292	25
207.360	255
207.428	-104
207.496	231
207.563	577
207.631	140
207.699	177
207.767	775
207.834	43
207.902	234
207.970	341
208.038	22
208.105	803
208.173	512
208.241	-161
208.309	830
208.376	97
208.444	752
208.512	31
208.579	-276
208.647	1249
208.715	421
208.782	-124
208.850	727
208.918	-327
208.985	1165
209.053	78
209.120	343
209.188	572
209.256	-263
209.323	-203
209.391	428
209.459	1532
209.526	-136
209.594	-447
209.661	722
209.729	-97
209.796	1076
209.864	693
209.932	-666
209.999	1303
210.067	690
210.134	-411
210.202	-149
210.269	924
210.337	1753
210.404	982
210.472	572
210.539	471
210.607	249
210.674	133
210.742	546
210.809	820
210.877	929
210.944	841
211.012	382
211.079	2441
211.146	-331
211.214	739
211.281	2444
211.349	2389
211.416	1414
211.484	853
211.551	614
211.618	911
211.686	909
211.753	-534
211.821	1069
211.888	625
211.955	989
212.023	646
212.090	1410
212.157	169
212.225	1258
212.292	665
212.359	1339
212.427	1917
212.494	381
212.561	1270
212.629	591
212.696	555
212.763	66
212.831	318
212.898	650
212.965	13
213.032	494
213.100	-31
213.167	751
213.234	512
213.301	107
213.369	894
213.436	298
213.503	1237
213.570	642
213.638	246
213.705	307
213.772	-37
213.839	-593
213.906	135
213.973	729
214.041	-1171
214.108	37
214.175	-666
214.242	487
214.309	149
214.376	930
214.444	517
214.511	-245
214.578	385
214.645	1249
214.712	760
214.779	705
214.846	113
214.913	1123
214.980	574
215.048	1359
215.115	1836
215.182	1789
215.249	1765
215.316	1026
215.383	1116
215.450	677
215.517	524
215.584	813
215.651	-285
215.718	-241
215.785	180
215.852	127
215.919	844
215.986	103
216.053	43
216.120	-15
216.187	-237
216.254	87
216.321	612
216.388	70
216.455	349
216.522	495
216.589	337
216.656	338
216.722	430
216.789	979
216.856	299
216.923	-167
216.990	834
217.057	-394
217.124	1650
217.191	396
217.258	93
217.324	305
217.391	945
217.458	-230
217.525	-110
217.592	98
217.659	-804
217.725	389
217.792	363
217.859	1450
217.926	-118
217.993	996
218.059	185
218.126	268
218.193	63
218.260	405
218.327	-767
218.393	496
218.460	-269
218.527	-622
218.594	481
218.660	473
218.727	895
218.794	-582
218.860	1465
218.927	-672
218.994	479
219.061	22
219.127	-84
219.194	648
219.261	299
219.327	671
219.394	737
219.461	370
219.527	907
219.594	1281
219.661	483
219.727	341
219.794	1247
219.860	672
219.927	1682
219.994	3442
220.060	3179
220.127	3611
220.193	2711
220.260	1384
220.326	2060
220.393	1668
220.460	825
220.526	280
220.593	18
220.659	2186
220.726	39
220.792	1678
220.859	1681
220.925	1578
220.992	930
221.058	1725
221.125	1607
221.191	799
221.258	390
221.324	1526
221.391	243
221.457	148
221.524	317
221.590	1476
221.657	1537
221.723	968
221.789	1005
221.856	1584
221.922	281
221.989	1341
222.055	1240
222.121	552
222.188	2303
222.254	653
222.321	1387
222.387	556
222.453	918
222.520	357
222.586	-83
222.652	658
222.719	-433
222.785	862
222.851	474
222.918	1119
222.984	181
223.050	-34
223.116	-1191
223.183	1010
223.249	389
223.315	-972
223.382	447
223.448	973
223.514	-248
223.580	338
223.647	-272
223.713	450
223.779	83
223.845	706
223.911	557
223.978	-323
224.044	737
224.110	-49
224.176	1296
224.242	676
224.309	-794
224.375	439
224.441	597
224.507	-93
224.573	-960
224.639	778
224.705	375
224.772	-442
224.838	231
224.904	1149
224.970	578
225.036	172
225.102	-273
225.168	1003
225.234	189
225.300	299
225.366	963
225.432	1335
225.499	217
225.565	687
225.631	-551
225.697	202
225.763	-41
225.829	270
225.895	1023
225.961	762
226.027	1163
226.093	322
226.159	1182
226.225	2163
226.291	1715
226.357	2229
226.423	1440
226.489	1712
226.554	1056
226.620	758
226.686	-117
226.752	915
226.818	428
226.884	3157
226.950	2646
227.016	1563
227.082	1900
227.148	1482
227.214	1002
227.279	1592
227.345	2009
227.411	2868
227.477	5725
227.543	6636
227.609	8906
227.674	7697
227.740	3513
227.806	2468
227.872	1175
227.938	1216
228.003	1501
228.069	705
228.135	433
228.201	1326
228.267	1268
228.332	163
228.398	-635
228.464	-30
228.530	-11
228.595	383
228.661	-201
228.727	-129
228.792	1371
228.858	591
228.924	-1379
228.990	1762
229.055	-382
229.121	341
229.187	37
229.252	659
229.318	-50
229.384	862
229.449	799
229.515	-1217
229.581	-1003
229.646	2296
229.712	865
229.777	559
229.843	-341
229.909	1151
229.974	1206
230.040	821
230.105	85
230.171	-219
230.236	1134
230.302	313
230.368	404
230.433	32
230.499	395
230.564	893
230.630	-79
230.695	118
230.761	1483
230.826	-836
230.892	1344
230.957	-452
231.023	-57
231.088	412
231.154	252
231.219	927
231.284	-173
231.350	609
231.415	-721
231.481	1269
231.546	94
231.612	982
231.677	-411
231.742	-321
231.808	1439
231.873	549
231.939	-542
232.004	994
232.069	1043
232.135	502
232.200	678
232.265	1466
232.331	332
232.396	550
232.461	-31
232.527	529
232.592	120
232.657	1671
232.723	871
232.788	0
232.853	258
232.918	1473
232.984	697
233.049	210
233.114	-68
233.179	1020
233.245	2011
233.310	939
233.375	-839
233.440	1230
233.506	-118
233.571	495
233.636	498
233.701	-66
233.766	220
233.832	461
233.897	83
233.962	-634
234.027	1124
234.092	377
234.157	872
234.222	1529
234.288	1721
234.353	1103
234.418	1369
234.483	1809
234.548	245
234.613	268
234.678	-143
234.743	256
234.808	921
234.873	-436
234.938	965
235.004	795
235.069	-164
235.134	-383
235.199	749
235.264	696
235.329	-327
235.394	445
235.459	1141
235.524	273
235.589	334
235.654	20
235.719	-204
235.784	1166
235.849	-118
235.913	745
235.978	848
236.043	678
236.108	234
236.173	-368
236.238	271
236.303	730
236.368	-67
236.433	1177
236.498	322
236.563	799
236.627	994
236.692	5393
236.757	4160
236.822	693
236.887	-223
236.952	601
237.017	-607
237.081	1284
237.146	-331
237.211	1857
237.276	4806
237.341	8924
237.405	2568
237.470	1889
237.535	515
237.600	1287
237.664	1657
237.729	511
237.794	-211
237.859	1495
237.923	368
237.988	679
238.053	1085
238.118	1684
238.182	1803
238.247	3086
238.312	-836
238.376	1076
238.441	-584
238.506	1524
238.570	-192
238.635	1553
238.700	1392
238.764	424
238.829	141
238.893	-10
238.958	1081
239.023	1074
239.087	1076
239.152	2921
239.216	582
239.281	1403
239.346	1601
239.410	627
239.475	776
239.539	3521
239.604	2042
239.668	3828
239.733	6012
239.797	12702
239.862	16324
239.926	16917
239.991	8848
240.055	5146
240.120	3514
240.184	2329
240.249	900
240.313	1623
240.378	1101
240.442	1598
240.507	1868
240.571	1279
240.635	682
240.700	2196
240.764	392
240.829	828
240.893	615
240.957	1507
241.022	1535
241.086	2015
241.151	389
241.215	-73
241.279	1132
241.344	538
241.408	486
241.472	-53
241.537	1003
241.601	708
241.665	-442
241.730	76
241.794	1246
241.858	263
241.922	1021
241.987	865
242.051	274
242.115	-247
242.179	1183
242.244	-129
242.308	1019
242.372	878
242.436	193
242.501	1291
242.565	256
242.629	-415
242.693	1155
242.757	506
242.822	135
242.886	852
242.950	855
243.014	-239
243.078	1111
243.142	294
243.206	370
243.271	1330
243.335	289
243.399	1752
243.463	1739
243.527	7581
243.591	1012
243.655	1022
243.719	-200
243.783	1016
243.847	640
243.911	979
243.975	120
244.040	-313
244.104	1482
244.168	1055
244.232	-38
244.296	342
244.360	991
244.424	-685
244.488	451
244.552	734
244.615	-1225
244.679	106
244.743	-261
244.807	379
244.871	97
244.935	1107
244.999	-574
245.063	-76
245.127	1295
245.191	885
245.255	336
245.319	926
245.383	-666
245.446	2270
245.510	-351
245.574	868
245.638	541
245.702	-259
245.766	1226
245.829	1698
245.893	-457
245.957	430
246.021	1170
246.085	724
246.149	431
246.212	2373
246.276	849
246.340	905
246.404	765
246.467	1000
246.531	-1056
246.595	1306
246.659	1732
246.722	76
246.786	211
246.850	795
246.913	541
246.977	167
247.041	1087
247.104	511
247.168	1354
247.232	1484
247.295	2496
247.359	1151
247.423	552
247.486	1282
247.550	1727
247.614	460
247.677	823
247.741	593
247.804	990
247.868	5480
247.932	1205
247.995	4684
248.059	1218
248.122	311
248.186	2959
248.249	1482
248.313	5263
248.376	5023
248.440	1944
248.503	-281
248.567	1971
248.630	-174
248.694	997
248.757	2168
248.821	6094
248.884	3747
248.948	1898
249.011	3473
249.075	5925
249.138	5083
249.202	1648
249.265	558
249.328	2284
249.392	765
249.455	1284
249.519	1155
249.582	1425
249.645	1883
249.709	1968
249.772	721
249.835	1502
249.899	1363
249.962	1652
250.025	93
250.089	1992
250.152	3482
250.215	744
250.279	779
250.342	1164
250.405	1854
250.468	544
250.532	1458
250.595	2583
250.658	9362
250.721	15553
250.785	2802
250.848	3412
250.911	748
250.974	1664
251.038	1334
251.101	3419
251.164	1449
251.227	1803
251.290	1700
251.354	3213
251.417	14194
251.480	11295
251.543	7357
251.606	26107
251.669	15494
251.732	4274
251.795	4649
251.859	5959
251.922	14971
251.985	6651
252.048	2947
252.111	1585
252.174	1054
252.237	3512
252.300	6666
252.363	6760
252.426	20129
252.489	4301
252.552	2084
252.615	1373
252.678	2704
252.741	5840
252.804	6934
252.867	19903
252.930	8819
252.993	3525
253.056	2862
253.119	767
253.182	557
253.245	1127
253.308	2032
253.371	914
253.434	1245
253.497	1656
253.559	3600
253.622	1735
253.685	1844
253.748	648
253.811	1026
253.874	2523
253.937	285
254.000	270
254.062	2376
254.125	3726
254.188	2776
254.251	1383
254.314	1068
254.376	991
254.439	2070
254.502	1430
254.565	1483
254.628	4349
254.690	1538
254.753	655
254.816	719
254.878	1512
254.941	2257
255.004	1808
255.067	1177
255.129	52
255.192	1580
255.255	-201
255.317	1420
255.380	382
255.443	1532
255.505	1643
255.568	-311
255.631	581
255.693	1837
255.756	1287
255.819	3560
255.881	2240
255.944	1227
256.006	1273
256.069	397
256.132	582
256.194	1827
256.257	1874
256.319	1427
256.382	2839
256.444	5566
256.507	3655
256.569	1521
256.632	1088
256.694	727
256.757	2824
256.819	8078
256.882	2687
256.944	2154
257.007	2189
257.069	299
257.132	1498
257.194	1988
257.257	713
257.319	1189
257.381	361
257.444	2910
257.506	10457
257.569	9319
257.631	3451
257.693	2018
257.756	1716
257.818	655
257.880	1492
257.943	1293
258.005	526
258.067	1539
258.130	1367
258.192	1845
258.254	860
258.317	1567
258.379	1341
258.441	2387
258.503	2408
258.566	1724
258.628	2908
258.690	372
258.753	1679
258.815	2096
258.877	594
258.939	1445
259.001	1107
259.064	1336
259.126	833
259.188	1615
259.250	1282
259.312	2054
259.375	2069
259.437	832
259.499	1676
259.561	1648
259.623	1359
259.685	429
259.747	1412
259.809	1578
259.872	3647
259.934	5828
259.996	4101
260.058	2447
260.120	1021
260.182	2375
260.244	1740
260.306	1445
260.368	1585
260.430	733
260.492	1176
260.554	2337
260.616	1218
260.678	2924
260.740	2800
260.802	2049
260.864	1300
260.926	870
260.988	2765
261.050	1980
261.112	1848
261.174	3978
261.236	3378
261.298	1773
261.359	1939
261.421	3117
261.483	1605
261.545	2639
261.607	997
261.669	3223
261.731	2252
261.793	2486
261.854	375
261.916	2165
261.978	1905
262.040	2099
262.102	2715
262.164	726
262.225	2126
262.287	2343
262.349	1370
262.411	995
262.472	1992
262.534	1582
262.596	2084
262.658	2772
262.719	753
262.781	3328
262.843	1298
262.904	2189
262.966	2410
263.028	2181
263.090	4467
263.151	8252
263.213	2826
263.275	2118
263.336	2293
263.398	2949
263.459	1886
263.521	2152
263.583	2715
263.644	2631
263.706	1724
263.767	1326
263.829	1787
263.891	1595
263.952	1629
264.014	1339
264.075	1151
264.137	2207
264.198	2168
264.260	1227
264.321	2080
264.383	1666
264.444	2194
264.506	1417
264.567	1991
264.629	2824
264.690	1121
264.752	2082
264.813	2768
264.875	546
264.936	2550
264.998	1310
265.059	2534
265.120	2498
265.182	854
265.243	3442
265.305	4459
265.366	3091
265.427	1772
265.489	2543
265.550	1709
265.611	2047
265.673	1789
265.734	2019
265.795	1393
265.857	1514
265.918	835
265.979	3427
266.040	6706
266.102	4538
266.163	3430
266.224	2202
266.286	1760
266.347	1219
266.408	1248
266.469	1349
266.530	1992
266.592	1479
266.653	1427
266.714	2138
266.775	1212
266.836	1647
266.898	1932
266.959	1568
267.020	1108
267.081	2721
267.142	1994
267.203	2312
267.264	630
267.326	3011
267.387	1274
267.448	1008
267.509	1881
267.570	1875
267.631	1012
267.692	1420
267.753	2044
267.814	1022
267.875	985
267.936	2082
267.997	812
268.058	1303
268.119	819
268.180	1681
268.241	410
268.302	1363
268.363	1077
268.424	964
268.485	744
268.546	1649
268.607	1541
268.668	1820
268.729	950
268.790	1869
268.851	1258
268.912	1464
268.972	2134
269.033	1212
269.094	1515
269.155	2019
269.216	593
269.277	1957
269.338	1902
269.398	777
269.459	1111
269.520	1486
269.581	931
269.642	2131
269.702	1490
269.763	2105
269.824	2083
269.885	1607
269.945	1383
270.006	1711
270.067	1963
270.128	1007
270.188	1866
270.249	1191
270.310	1729
270.370	3063
270.431	1361
270.492	1210
270.553	1711
270.613	1945
270.674	2729
270.734	815
270.795	2030
270.856	2059
270.916	932
270.977	1441
271.038	1730
271.098	2127
271.159	1198
271.219	1568
271.280	2226
271.340	2503
271.401	1084
271.462	2043
271.522	1825
271.583	2411
271.643	1988
271.704	1574
271.764	2542
271.825	2080
271.885	5928
271.946	6701
272.006	2649
272.066	5343
272.127	7693
272.187	13973
272.248	5777
272.308	3402
272.369	4951
272.429	3908
272.489	2075
272.550	2383
272.610	3195
272.671	2766
272.731	2420
272.791	2644
272.852	2256
272.912	2776
272.972	1893
273.033	2564
273.093	1907
273.153	2993
273.214	1740
273.274	2670
273.334	3395
273.394	4840
273.455	1996
273.515	2427
273.575	2642
273.635	2502
273.696	3498
273.756	4582
273.816	2733
273.876	1955
273.936	3143
273.997	3628
274.057	1359
274.117	1602
274.177	2672
274.237	4483
274.297	4465
274.358	3195
274.418	3789
274.478	2959
274.538	2120
274.598	1958
274.658	3496
274.718	3295
274.778	2590
274.838	2649
274.898	2400
274.958	3999
275.018	5379
275.078	3131
275.138	2493
275.198	2168
275.258	1499
275.318	2210
275.378	1860
275.438	2676
275.498	2806
275.558	3949
275.618	4903
275.678	4030
275.738	3382
275.798	2529
275.858	1877
275.918	1346
275.978	2391
276.038	2474
276.098	2616
276.157	2482
276.217	3423
276.277	2226
276.337	2050
276.397	2334
276.457	3164
276.517	2272
276.576	2620
276.636	2222
276.696	2858
276.756	3090
276.815	2146
276.875	3156
276.935	2365
276.995	3377
277.055	3567
277.114	3633
277.174	3027
277.234	2933
277.293	2454
277.353	2006
277.413	1316
277.472	1948
277.532	2189
277.592	3351
277.651	7480
277.711	8568
277.771	4254
277.830	10993
277.890	7800
277.950	8215
278.009	19132
278.069	7161
278.128	8836
278.188	9185
278.248	5263
278.307	12306
278.367	7189
278.426	4039
278.486	3136
278.545	2103
278.605	2807
278.664	3332
278.724	2179
278.783	4001
278.843	5699
278.902	4104
278.962	2490
279.021	3214
279.081	3993
279.140	4630
279.199	3566
279.259	3526
279.318	4919
279.378	6628
279.437	7417
279.496	18432
279.556	63086
279.615	39117
279.675	11950
279.734	8329
279.793	7948
279.853	10873
279.912	6494
279.971	5637
280.031	5040
280.090	6747
280.149	8915
280.208	10064
280.268	44377
280.327	35002
280.386	9455
280.445	6255
280.505	4960
280.564	4206
280.623	3559
280.682	3789
280.742	4493
280.801	3226
280.860	2682
280.919	3123
280.978	2218
281.037	2840
281.097	1651
281.156	3996
281.215	3519
281.274	2416
281.333	4297
281.392	3164
281.451	2432
281.510	2985
281.569	2298
281.628	2700
281.688	3479
281.747	3661
281.806	2290
281.865	3302
281.924	2166
281.983	2538
282.042	1985
282.101	2610
282.160	2939
282.219	2869
282.278	2076
282.337	2879
282.396	2282
282.454	2891
282.513	2595
282.572	2720
282.631	3005
282.690	2836
282.749	2466
282.808	3055
282.867	2484
282.926	2603
282.985	2650
283.043	2190
283.102	2810
283.161	3428
283.220	3533
283.279	5093
283.338	2733
283.396	2485
283.455	2567
283.514	3981
283.573	3298
283.631	3485
283.690	3263
283.749	2070
283.808	3784
283.866	2677
283.925	2436
283.984	3518
284.043	3294
284.101	2585
284.160	2678
284.219	3394
284.277	2749
284.336	2955
284.395	5121
284.453	3805
284.512	3495
284.570	3658
284.629	3117
284.688	3969
284.746	4070
284.805	4307
284.863	5179
284.922	5669
284.981	8018
285.039	11353
285.098	16585
285.156	36549
285.215	58586
285.273	58485
285.332	32451
285.390	18204
285.449	11742
285.507	8851
285.566	6780
285.624	5520
285.683	6641
285.741	4135
285.799	4068
285.858	4036
285.916	4128
285.975	4059
286.033	3002
286.091	2633
286.150	3300
286.208	3540
286.267	2907
286.325	3129
286.383	3632
286.442	3226
286.500	2663
286.558	2989
286.616	3384
286.675	3411
286.733	2745
286.791	2857
286.850	3274
286.908	3055
286.966	3620
287.024	2324
287.083	3014
287.141	3346
287.199	3469
287.257	3770
287.315	3362
287.374	2828
287.432	3277
287.490	3635
287.548	3224
287.606	3114
287.664	3526
287.723	3996
287.781	4170
287.839	3786
287.897	3960
287.955	4345
288.013	3816
288.071	6344
288.129	17641
288.187	39967
288.245	15619
288.303	7827
288.361	4967
288.419	4647
288.477	3887
288.535	3855
288.593	3406
288.651	3362
288.709	2877
288.767	3580
288.825	2030
288.883	3722
288.941	3341
288.999	2509
289.057	3054
289.115	2843
289.173	2978
289.231	3064
289.289	2644
289.346	3537
289.404	3380
289.462	2948
289.520	3363
289.578	2473
289.636	3114
289.694	3921
289.751	3204
289.809	3335
289.867	3551
289.925	4180
289.983	4078
290.040	3765
290.098	2692
290.156	3810
290.214	3335
290.271	2942
290.329	3556
290.387	4599
290.444	2975
290.502	3211
290.560	2809
290.617	3892
290.675	2922
290.733	2807
290.790	2044
290.848	3896
290.906	3362
290.963	3617
291.021	3501
291.078	3268
291.136	2326
291.194	4393
291.251	3399
291.309	2691
291.366	3172
291.424	3035
291.481	3698
291.539	2765
291.596	3658
291.654	3481
291.711	3505
291.769	3550
291.826	2904
291.884	3854
291.941	1759
291.999	2677
292.056	3494
292.114	3639
292.171	3889
292.228	4124
292.286	3523
292.343	3579
292.401	3403
292.458	3155
292.515	3235
292.573	3982
292.630	3655
292.687	3627
292.745	3841
292.802	2866
292.859	4597
292.917	3990
292.974	3012
293.031	2751
293.089	3209
293.146	3102
293.203	3555
293.260	3484
293.318	3324
293.375	3009
293.432	2462
293.489	4407
293.546	3368
293.604	3445
293.661	4477
293.718	6651
293.775	4522
293.832	4240
293.889	4590
293.947	3349
294.004	2463
294.061	3630
294.118	2694
294.175	5072
294.232	4486
294.289	3517
294.346	3439
294.403	3899
294.460	3374
294.517	3330
294.574	3552
294.631	3865
294.688	3878
294.745	4750
294.802	5985
294.859	4390
294.916	3854
294.973	3262
295.030	3441
295.087	3144
295.144	2795
295.201	3436
295.258	3031
295.315	3699
295.372	3681
295.429	4676
295.486	3674
295.542	3066
295.599	3361
295.656	3886
295.713	3953
295.770	4882
295.827	3103
295.883	3386
295.940	2858
295.997	3203
296.054	2258
296.111	2815
296.167	2880
296.224	2222
296.281	2449
296.338	2967
296.394	3135
296.451	2824
296.508	3225
296.564	4643
296.621	3775
296.678	6800
296.734	6641
296.791	4262
296.848	3375
296.904	3059
296.961	4107
297.018	5356
297.074	3707
297.131	3136
297.187	2786
297.244	4155
297.301	5778
297.357	8168
297.414	3843
297.470	3329
297.527	2638
297.583	3202
297.640	3755
297.696	3488
297.753	2250
297.809	2383
297.866	2925
297.922	3020
297.979	2694
298.035	2264
298.092	3167
298.148	4265
298.204	3923
298.261	2718
298.317	4220
298.374	7122
298.430	4712
298.486	3783
298.543	2338
298.599	3821
298.656	2272
298.712	3538
298.768	4962
298.824	3946
298.881	3140
298.937	4191
298.993	3636
299.050	2705
299.106	3941
299.162	2961
299.218	3649
299.275	3308
299.331	3615
299.387	5614
299.443	11067
299.500	22708
299.556	17847
299.612	9248
299.668	8730
299.724	21678
299.780	21684
299.837	9778
299.893	9077
299.949	17479
300.005	22523
300.061	19777
300.117	25462
300.173	12176
300.229	7270
300.285	5644
300.341	5356
300.397	4764
300.453	3566
300.510	5894
300.566	6710
300.622	11592
300.678	33071
300.734	34438
300.790	17547
300.845	12474
300.901	18766
300.957	24540
301.013	11604
301.069	6457
301.125	5619
301.181	4350
301.237	4001
301.293	3245
301.349	4023
301.405	4064
301.461	3011
301.516	3579
301.572	3222
301.628	3031
301.684	2638
301.740	3545
301.796	3484
301.851	3313
301.907	3771
301.963	3781
302.019	6347
302.074	13658
302.130	12888
302.186	7580
302.242	4206
302.297	3858
302.353	3007
302.409	4325
302.464	3150
302.520	3713
302.576	4727
302.631	5372
302.687	4046
302.743	3095
302.798	2854
302.854	2659
302.910	3091
302.965	2806
303.021	3381
303.076	3368
303.132	2728
303.187	3402
303.243	2610
303.299	2182
303.354	2453
303.410	3076
303.465	2210
303.521	2747
303.576	2233
303.632	2396
303.687	3298
303.743	6009
303.798	5274
303.853	3031
303.909	1681
303.964	2805
304.020	3056
304.075	2634
304.130	2174
304.186	3209
304.241	4534
304.297	2824
304.352	2844
304.358	2843
304.407	2832
304.449	2406
304.463	2262
304.518	2659
304.539	2949
304.573	3388
304.629	2875
304.630	2878
304.684	3042
304.720	3771
304.739	4082
304.794	5150
304.811	4971
304.850	4547
304.902	3449
304.905	3381
304.960	3435
304.992	3240
305.015	3090
305.071	3652
305.083	3563
305.126	3181
305.173	2506
305.181	2408
305.236	2497
305.264	3082
305.292	3630
305.347	2837
305.354	2821
305.402	2774
305.445	3189
305.457	3295
305.512	3393
305.535	3523
305.567	3747
305.622	2620
305.626	2659
305.678	3578
305.716	4598
305.733	4892
305.788	4984
305.807	4699
305.843	4462
305.897	6106
305.898	6119
305.953	5840
305.988	4372
306.008	3714
306.063	3862
306.078	3689
306.118	3235
306.168	2935
306.173	2918
306.228	2542
306.259	3103
306.283	3580
306.338	3057
306.349	3123
306.393	3307
306.440	3559
306.448	3619
306.503	3675
306.530	3556
306.558	3447
306.613	3883
306.620	3881
306.668	4159
306.711	4870
306.723	4867
306.778	4380
306.801	3896
306.833	3553
306.888	3671
306.892	3700
306.943	4160
306.982	3583
306.997	3420
307.052	3117
307.072	3430
307.107	3916
307.162	3517
307.163	3515
307.217	3998
307.253	3548
307.272	3255
307.327	3755
307.343	3767
307.381	4063
307.434	3924
307.436	3938
307.491	4611
307.524	5106
307.546	5106
307.600	4786
307.614	4679
307.655	4383
307.704	3903
307.710	3953
307.765	4209
307.795	4747
307.819	4852
307.874	4915
307.885	4882
307.929	5273
307.975	5647
307.984	5929
308.038	8349
308.065	9146
308.093	14979
308.148	29842
308.156	32798
308.202	38935
308.246	40406
308.257	38854
308.312	19851
308.336	12777
308.366	9709
308.421	6437
308.426	6236
308.475	5568
308.517	5179
308.530	5153
308.585	5198
308.607	5259
308.639	5400
308.694	5213
308.697	5238
308.748	6124
308.787	6214
308.803	6050
308.857	6047
308.877	5929
308.912	6100
308.967	6167
308.967	6163
309.021	8951
309.058	10673
309.076	13011
309.130	21299
309.148	24076
309.185	42745
309.238	74552
309.239	74549
309.293	65932
309.328	51716
309.348	44230
309.402	21976
309.418	16717
309.457	13749
309.508	10708
309.511	10671
309.566	10876
309.598	11276
309.620	12176
309.674	14539
309.688	15216
309.729	14805
309.778	13030
309.783	12828
309.837	10484
309.868	9145
309.892	9254
309.946	9694
309.959	9809
310.001	9507
310.049	8900
310.055	8801
310.109	7839
310.139	7204
310.163	6736
310.218	5744
310.229	5555
310.272	5936
310.319	6389
310.326	6353
310.381	5759
310.409	5569
310.435	5781
310.489	5833
310.499	5884
310.543	6251
310.589	6465
310.598	6372
310.652	5753
310.679	5493
310.706	5797
310.760	6071
310.769	6129
310.814	6664
310.859	7110
310.868	7170
310.923	7116
310.948	7261
310.977	7303
311.031	7090
311.038	7052
311.085	6721
311.128	6230
311.139	6326
311.193	6929
311.218	7129
311.247	7335
311.301	7709
311.308	7735
311.356	7588
311.398	7337
311.410	7233
311.464	6686
311.488	6418
311.518	6910
311.572	7723
311.578	7794
311.626	7240
311.668	6737
311.680	6953
311.734	7797
311.758	8128
311.788	7981
311.842	7701
311.847	7641
311.896	8541
311.937	9351
311.950	9058
312.004	7579
312.027	6921
312.058	7384
312.112	8180
312.117	8233
312.165	8067
312.207	7882
312.297	7962
312.386	7991
312.476	8798
312.566	8882
312.656	8246
312.745	8334
312.835	9307
312.925	10159
313.015	10426
313.104	9528
313.194	10298
313.284	11168
313.374	11298
313.463	12262
313.553	13152
313.643	12674
313.732	13278
313.822	13796
313.912	15813
314.001	15337
314.091	16550
314.180	16274
314.270	16851
314.360	15393
314.449	15963
314.539	14492
314.628	16556
314.718	16718
314.808	16732
314.897	17307
314.987	18463
315.076	19605
315.166	18498
315.255	18780
315.345	18871
315.434	17242
315.524	18827
315.613	22022
315.703	31589
315.792	93560
315.881	214704
315.971	63103
316.060	26645
316.150	21951
316.239	19359
316.328	18657
316.418	20582
316.507	22163
316.597	24504
316.686	24439
316.775	22943
316.865	21615
316.954	18458
317.043	18219
317.133	16000
317.222	15735
317.311	15449
317.400	14830
317.490	17354
317.579	18681
317.668	24302
317.757	42831
317.847	146851
317.936	285348
318.025	99718
318.114	99699
318.203	42251
318.293	25082
318.382	35032
318.471	33962
318.560	29970
318.649	25711
318.738	18837
318.828	14803
318.917	11914
319.006	13794
319.095	14784
319.184	18063
319.273	14543
319.362	12874
319.451	12700
319.540	12134
319.629	13061
319.718	13943
319.807	13047
319.896	15720
319.985	21194
320.074	15514
320.163	14556
320.252	15532
320.341	16132
320.430	16363
320.519	18749
320.608	19239
320.697	22384
320.786	23859
320.875	26476
320.964	27427
321.053	29572
321.142	31813
321.230	34966
321.319	36688
321.408	37900
321.497	37039
321.586	34184
321.675	31111
321.764	30070
321.852	31909
321.941	33322
322.030	32487
322.119	36603
322.207	41838
322.296	43815
322.385	45117
322.474	48880
322.562	47631
322.651	38718
322.740	32586
322.829	31746
322.917	26607
323.006	25350
323.095	23781
323.183	21722
323.272	21936
323.361	21776
323.449	22605
323.538	19843
323.626	20741
323.715	18550
323.804	18143
323.892	18902
323.981	15515
324.069	16039
324.158	17114
324.246	15439
324.335	15048
324.424	14441
324.512	14402
324.601	14068
324.689	14830
324.778	15770
324.866	13527
324.954	12741
325.043	12335
325.131	13072
325.220	13618
325.308	12676
325.397	12493
325.485	11732
325.574	10919
325.662	12194
325.750	11236
325.839	12012
325.927	11743
326.015	12311
326.104	11674
326.192	11229
326.280	10915
326.369	11412
326.457	11921
326.545	12593
326.634	10871
326.722	11929
326.810	12695
326.898	14904
326.987	14557
327.075	14038
327.163	13653
327.251	12548
327.340	15367
327.428	19717
327.516	22077
327.604	18830
327.692	15602
327.781	13968
327.869	11801
327.957	11428
328.045	9868
328.133	11047
328.221	9196
328.309	9901
328.397	10944
328.485	13527
328.574	20689
328.662	25201
328.750	18680
328.838	15184
328.926	12330
329.014	11616
329.102	11229
329.190	12598
329.278	10307
329.366	10033
329.454	9659
329.542	10728
329.630	9137
329.718	10794
329.806	10963
329.893	10249
329.981	9232
330.069	10399
330.157	15346
330.245	18324
330.333	12357
330.421	10458
330.509	10960
330.597	12194
330.684	10377
330.772	10934
330.860	10679
330.948	11377
331.036	11039
331.123	9733
331.211	10145
331.299	10643
331.387	11361
331.475	11086
331.562	10770
331.650	11058
331.738	10027
331.825	11569
331.913	10030
332.001	11857
332.089	11469
332.176	12077
332.264	12852
332.352	11959
332.439	11256
332.527	11800
332.614	11311
332.702	12107
332.790	12841
332.877	13401
332.965	14491
333.052	14491
333.140	14514
333.228	17175
333.315	15004
333.403	15346
333.490	17395
333.578	18842
333.665	23839
333.753	21512
333.840	20746
333.928	24553
334.015	28620
334.103	36436
334.190	46937
334.278	53547
334.365	62895
334.452	60407
334.540	50694
334.627	56052
334.715	67757
334.802	89803
334.889	117674
334.977	120971
335.064	82491
335.151	55877
335.239	43839
335.326	40611
335.413	44434
335.501	44867
335.588	45651
335.675	53198
335.762	64728
335.850	83295
335.937	108402
336.024	150365
336.111	175686
336.199	136974
336.286	83275
336.373	56417
336.460	42093
336.547	35100
336.635	29946
336.722	26816
336.809	24216
336.896	22763
336.983	23014
337.070	27076
337.157	26802
337.245	24137
337.332	22125
337.419	19709
337.506	19146
337.593	18187
337.680	20321
337.767	20835
337.854	15960
337.941	16952
338.028	17085
338.115	17069
338.202	17338
338.289	18638
338.376	17981
338.463	16614
338.550	18167
338.637	16314
338.724	14002
338.811	14256
338.898	13542
338.984	13489
339.071	13341
339.158	13244
339.245	13305
339.332	13196
339.419	13365
339.506	13471
339.593	12606
339.679	13534
339.766	12631
339.853	13064
339.940	12848
340.027	12934
340.113	12038
340.200	12572
340.287	11534
340.374	12083
340.460	11667
340.547	11410
340.634	12154
340.720	14622
340.807	11070
340.894	12908
340.980	11873
341.067	11941
341.154	13148
341.240	13148
341.327	13437
341.414	12227
341.500	11506
341.587	13180
341.674	12450
341.760	13235
341.847	12362
341.933	12970
342.020	11084
342.106	11955
342.193	11592
342.279	12122
342.366	11787
342.452	11287
342.539	11703
342.625	12650
342.712	12426
342.798	11637
342.885	11013
342.971	10646
343.058	11546
343.144	11100
343.230	11930
343.317	12002
343.403	11370
343.490	11898
343.576	11125
343.662	11344
343.749	10668
343.835	12339
343.921	13603
344.008	28470
344.094	32376
344.180	14715
344.267	12268
344.353	15426
344.439	12989
344.525	11662
344.612	12347
344.698	11577
344.784	10193
344.870	11979
344.957	10449
345.043	12800
345.129	10746
345.215	12413
345.301	10560
345.387	11389
345.474	10775
345.560	10919
345.646	10380
345.732	10893
345.818	10601
345.904	11519
345.990	11437
346.076	11023
346.162	11002
346.249	12205
346.335	10908
346.421	12481
346.507	14287
346.593	16965
346.679	11471
346.765	17225
346.851	23512
346.937	19710
347.023	15655
347.108	13757
347.194	11730
347.280	14002
347.366	20822
347.452	46026
347.538	52321
347.624	30363
347.710	19294
347.796	15480
347.882	13808
347.967	13047
348.053	12599
348.139	12825
348.225	12323
348.311	11702
348.397	13432
348.482	14030
348.568	16304
348.654	26529
348.740	62327
348.825	63150
348.911	32422
348.997	26128
349.083	21838
349.168	13954
349.254	13417
349.340	12683
349.425	14047
349.511	14132
349.597	12846
349.682	14004
349.768	16421
349.854	14358
349.939	12589
350.025	13130
350.110	13224
350.196	12706
350.282	11897
350.367	12522
350.453	12716
350.538	12562
350.624	12203
350.709	12713
350.795	11947
350.880	11544
350.966	13168
351.051	12663
351.137	11143
351.222	12496
351.308	14035
351.393	13914
351.479	11733
351.564	11778
351.649	12361
351.735	12593
351.820	12141
351.906	11992
351.991	11142
352.076	13166
352.162	13425
352.247	11917
352.332	12052
352.418	11864
352.503	12253
352.588	16266
352.673	12361
352.759	11636
352.844	11135
352.929	11911
353.014	10793
353.100	11893
353.185	11766
353.270	12112
353.355	12079
353.441	11804
353.526	11525
353.611	11631
353.696	11329
353.781	12782
353.866	9903
353.952	12362
354.037	11531
354.122	13064
354.207	12672
354.292	11800
354.377	11586
354.462	11625
354.547	10517
354.632	13176
354.717	12069
354.802	11799
354.887	11543
354.972	12623
355.057	11505
355.142	11444
355.227	12252
355.312	11961
355.397	13587
355.482	13633
355.567	12767
355.652	14280
355.737	14062
355.822	17436
355.907	13711
355.991	13886
356.076	11768
356.161	12922
356.246	12440
356.331	13492
356.416	15265
356.501	26113
356.585	20640
356.670	13547
356.755	14709
356.840	15411
356.924	25774
357.009	39164
357.094	19519
357.179	12877
357.263	12845
357.348	13860
357.433	13172
357.517	14296
357.602	13067
357.687	13852
357.771	14903
357.856	16789
357.941	16630
358.025	28086
358.110	51222
358.195	24775
358.279	16251
358.364	16576
358.448	19256
358.533	22857
358.617	19816
358.702	18454
358.787	14881
358.871	14432
358.956	15052
359.040	14840
359.125	13895
359.209	15284
359.294	19695
359.378	28872
359.462	22377
359.547	15981
359.631	14157
359.716	12959
359.800	13162
359.885	14246
359.969	13323
360.053	14930
360.138	14127
360.222	14143
360.306	14007
360.391	14997
360.475	15970
360.559	17323
360.644	18210
360.728	15727
360.812	24582
360.896	31116
360.981	20323
361.065	16813
361.149	17119
361.233	17520
361.318	15771
361.402	18791
361.486	20279
361.570	19871
361.654	21713
361.739	25410
361.823	38190
361.907	42471
361.991	35823
362.075	44415
362.159	63357
362.243	112043
362.327	192653
362.411	191049
362.495	94277
362.580	67458
362.664	70061
362.748	87673
362.832	139034
362.916	244920
363.000	402523
363.084	373904
363.168	185024
363.252	88399
363.336	60773
363.420	50885
363.503	49866
363.587	45846
363.671	43313
363.755	45115
363.839	53057
363.923	60406
364.007	78024
364.091	107747
364.175	170020
364.258	301951
364.342	483026
364.426	516464
364.510	304428
364.594	145097
364.677	88824
364.761	70446
364.845	49534
364.929	37615
365.013	31496
365.096	29089
365.180	25549
365.264	28684
365.347	32795
365.431	23878
365.515	20714
365.598	20090
365.682	21579
365.766	19452
365.849	20459
365.933	19721
366.017	22148
366.100	19884
366.184	20109
366.267	20851
366.351	19891
366.435	19422
366.518	18528
366.602	18701
366.685	19205
366.769	18980
366.852	19678
366.936	19276
367.019	18852
367.103	17957
367.186	18988
367.270	19418
367.353	18616
367.436	22934
367.520	21447
367.603	22587
367.687	19487
367.770	21049
367.853	21350
367.937	22758
368.020	22280
368.104	17572
368.187	17799
368.270	18062
368.353	16311
368.437	18287
368.520	17893
368.603	16901
368.687	17827
368.770	19614
368.853	16138
368.936	16958
369.020	16064
369.103	15471
369.186	15809
369.269	14615
369.352	16111
369.436	14814
369.519	15191
369.602	14215
369.685	16731
369.768	14646
369.851	15375
369.934	14469
370.018	13841
370.101	14403
370.184	16855
370.267	16687
370.350	17537
370.433	24287
370.516	66368
370.599	135204
370.682	59317
370.765	25576
370.848	22788
370.931	22760
371.014	18141
371.097	14340
371.180	15400
371.263	16598
371.346	14194
371.429	15905
371.511	14131
371.594	14514
371.677	16360
371.760	17503
371.843	17901
371.926	34115
372.009	42400
372.091	23101
372.174	19432
372.257	25833
372.340	18571
372.423	17912
372.505	17526
372.588	16299
372.671	19414
372.754	22092
372.836	18635
372.919	19523
373.002	19584
373.085	16806
373.167	19180
373.250	21790
373.332	28073
373.415	44509
373.498	61305
373.580	75859
373.663	200601
373.746	155598
373.828	39257
373.911	26759
373.993	22811
374.076	25630
374.159	23880
374.241	22897
374.324	25073
374.406	25517
374.489	32452
374.571	43255
374.654	25580
374.736	27322
374.819	37924
374.901	49226
374.983	42527
375.066	24977
375.148	23323
375.231	29058
375.313	30579
375.395	25719
375.478	24150
375.560	24270
375.643	23610
375.725	30621
375.807	41079
375.890	31888
375.972	21593
376.054	21681
376.136	21239
376.219	20962
376.301	26807
376.383	30191
376.465	21731
376.548	18171
376.630	20885
376.712	27117
376.794	19783
376.877	16474
376.959	15039
377.041	15970
377.123	15496
377.205	16563
377.287	15366
377.369	17840
377.452	17149
377.534	17042
377.616	17327
377.698	16805
377.780	16012
377.862	16371
377.944	17377
378.026	16054
378.108	16906
378.190	16041
378.272	16667
378.354	15973
378.436	15076
378.518	15375
378.600	16316
378.682	17074
378.764	18958
378.846	18112
378.928	15176
379.010	16101
379.091	16354
379.173	16235
379.255	14524
379.337	16265
379.419	17825
379.501	21787
379.583	16042
379.664	15203
379.746	16466
379.828	19983
379.910	18605
379.991	19165
380.073	15451
380.155	17430
380.237	15139
380.318	14827
380.400	15539
380.482	17301
380.564	15993
380.645	15973
380.727	15192
380.809	17290
380.890	16016
380.972	15292
381.053	15835
381.135	17308
381.217	16882
381.298	20416
381.380	17107
381.461	19877
381.543	29705
381.624	27066
381.706	16748
381.787	18156
381.869	19256
381.951	28786
382.032	45110
382.113	32325
382.195	17249
382.276	20217
382.358	21958
382.439	29017
382.521	35243
382.602	41286
382.684	30027
382.765	40345
382.846	58989
382.928	79759
383.009	51782
383.090	68210
383.172	147647
383.253	144228
383.334	58349
383.416	44918
383.497	35417
383.578	37862
383.659	65706
383.741	161937
383.822	236082
383.903	107742
383.984	47753
384.066	46558
384.147	35443
384.228	31763
384.309	32876
384.390	34717
384.471	34008
384.553	31745
384.634	28389
384.715	28625
384.796	26181
384.877	27264
384.958	29908
385.039	28297
385.120	26015
385.201	26636
385.282	27081
385.363	29256
385.444	32110
385.525	34427
385.606	40242
385.687	36669
385.768	33738
385.849	34637
385.930	47933
386.011	52313
386.092	36912
386.173	36429
386.254	32369
386.335	32058
386.416	31664
386.496	34100
386.577	33958
386.658	32768
386.739	31271
386.820	35093
386.901	34335
386.981	39077
387.062	43224
387.143	43912
387.224	45650
387.304	47597
387.385	46716
387.466	46228
387.547	49679
387.627	50022
387.708	52114
387.789	57248
387.869	52995
387.950	46369
388.031	42346
388.111	41539
388.192	44953
388.273	47508
388.353	41008
388.434	32347
388.514	33445
388.595	40782
388.676	37627
388.756	31467
388.837	30361
388.917	28386
388.998	25311
389.078	27674
389.159	27574
389.239	24735
389.320	28272
389.400	25237
389.480	28516
389.561	29258
389.641	26793
389.722	27190
389.802	25172
389.883	29103
389.963	31556
390.043	28083
390.124	25603
390.204	27639
390.284	29441
390.365	27359
390.445	32204
390.525	37863
390.605	33275
390.686	28828
390.766	28998
390.846	29652
390.927	28040
391.007	28907
391.087	30698
391.167	30540
391.247	31001
391.328	33059
391.408	34962
391.488	35295
391.568	35180
391.648	37413
391.728	39862
391.808	42004
391.888	43338
391.969	46558
392.049	49092
392.129	53533
392.209	56991
392.289	64311
392.369	66004
392.449	72345
392.529	78681
392.609	90898
392.689	104358
392.769	126420
392.849	154234
392.929	199367
393.009	267292
393.089	384344
393.169	595466
393.248	856019
393.328	975977
393.408	950924
393.488	752597
393.568	478317
393.648	305387
393.728	211243
393.807	153508
393.887	123280
393.967	101661
394.047	87206
394.127	74335
394.206	72331
394.286	95428
394.366	166889
394.446	133941
394.525	61518
394.605	49048
394.685	49528
394.764	58622
394.844	89869
394.924	98251
395.003	58118
395.083	43785
395.163	41317
395.242	39064
395.322	39527
395.402	39105
395.481	46489
395.561	63007
395.640	136030
395.720	205966
395.799	119631
395.879	66933
395.958	65367
396.038	107536
396.117	209719
396.197	183398
396.276	103003
396.356	103583
396.435	131920
396.515	177752
396.594	274200
396.673	479229
396.753	770025
396.832	914368
396.912	788495
396.991	466834
397.070	261247
397.150	171292
397.229	149292
397.308	221804
397.388	294418
397.467	165689
397.546	81285
397.625	58983
397.705	53534
397.784	45505
397.863	42263
397.942	39861
398.022	36940
398.101	35324
398.180	37567
398.259	32029
398.338	31406
398.417	27677
398.497	27808
398.576	26394
398.655	25481
398.734	25019
398.813	25392
398.892	26339
398.971	29093
399.050	23357
399.129	21497
399.208	21651
399.287	22394
399.366	20131
399.445	19994
399.524	20320
399.603	18663
399.682	21021
399.761	23000
399.840	26873
399.919	23197
399.998	18383
400.077	17103
400.156	16742
400.235	20114
400.313	16522
400.392	16345
400.471	19111
400.550	18929
400.629	15250
400.708	16645
400.786	15039
400.865	16431
400.944	14698
401.023	16906
401.102	13404
401.180	14972
401.259	14692
401.338	15109
401.416	14829
401.495	14169
401.574	14590
401.652	14167
401.731	15323
401.810	13873
401.888	13533
401.967	13674
402.046	14027
402.124	14324
402.203	12913
402.281	14430
402.360	13861
402.438	14901
402.517	13698
402.596	14506
402.674	13505
402.753	12908
402.831	14783
402.910	15697
402.988	17532
403.066	22390
403.145	18959
403.223	19668
403.302	21503
403.380	21771
403.459	20644
403.537	18954
403.615	18226
403.694	16210
403.772	17144
403.850	16700
403.929	15697
404.007	16160
404.085	17559
404.164	15885
404.242	16512
404.320	20634
404.398	24928
404.477	25443
404.555	34167
404.633	27363
404.711	21060
404.789	17230
404.868	14684
404.946	13491
405.024	13455
405.102	13665
405.180	12706
405.258	11596
405.336	13437
405.415	12897
405.493	13896
405.571	14183
405.649	12705
405.727	13731
405.805	16135
405.883	16259
405.961	15474
406.039	13916
406.117	11973
406.195	14028
406.273	15833
406.351	24442
406.429	17363
406.507	13218
406.585	12201
406.663	13646
406.740	13313
406.818	12438
406.896	12361
406.974	14796
407.052	13234
407.130	20486
407.208	19600
407.285	15661
407.363	13212
407.441	14688
407.519	14846
407.596	21177
407.674	60409
407.752	141992
407.830	86448
407.907	23415
407.985	14245
408.063	14034
408.141	12819
408.218	14788
408.296	13751
408.373	15706
408.451	18181
408.529	18066
408.606	17743
408.684	20022
408.762	19642
408.839	20712
408.917	22078
408.994	25056
409.072	26746
409.149	33725
409.227	47235
409.304	62884
409.382	69555
409.459	81777
409.537	93273
409.614	89175
409.692	82469
409.769	84677
409.846	101660
409.924	109348
410.001	91681
410.079	75644
410.156	61171
410.233	49998
410.311	42079
410.388	39242
410.465	35756
410.543	33042
410.620	31114
410.697	28553
410.775	27698
410.852	26780
410.929	28213
411.006	28103
411.083	24918
411.161	24323
411.238	23939
411.315	22321
411.392	21612
411.469	21841
411.547	20069
411.624	18290
411.701	18468
411.778	18473
411.855	17545
411.932	17326
412.009	15659
412.086	17088
412.163	16448
412.240	15870
412.317	17174
412.394	15468
412.471	14744
412.548	14759
412.625	14536
412.702	14466
412.779	14454
412.856	14417
412.933	13708
413.010	14500
413.087	13461
413.164	14519
413.241	14150
413.318	12501
413.395	13127
413.471	12709
413.548	12471
413.625	12639
413.702	11534
413.779	12536
413.855	11264
413.932	11476
414.009	10518
414.086	11595
414.162	12408
414.239	12910
414.316	13268
414.393	16363
414.469	10757
414.546	11124
414.623	10834
414.699	10711
414.776	10558
414.853	11254
414.929	11708
415.006	10433
415.082	11134
415.159	11846
415.236	10592
415.312	11569
415.389	11715
415.465	10016
415.542	10421
415.618	10767
415.695	11584
415.771	10758
415.848	10974
415.924	11221
416.000	10345
416.077	11718
416.153	10015
416.230	10153
416.306	10597
416.383	10495
416.459	10618
416.535	10411
416.612	10611
416.688	11752
416.764	10320
416.841	10365
416.917	10349
416.993	11330
417.069	9735
417.146	10271
417.222	10344
417.298	11237
417.374	10388
417.451	11302
417.527	9973
417.603	10730
417.679	10911
417.755	10713
417.831	10982
417.908	11699
417.984	11877
418.060	11673
418.136	11889
418.212	11149
418.288	12044
418.364	12129
418.440	11007
418.516	12101
418.592	11957
418.668	12791
418.744	11878
418.820	13119
418.896	13484
418.972	11985
419.048	12871
419.124	13619
419.200	11998
419.276	14229
419.352	13737
419.428	14657
419.504	14406
419.579	15063
419.655	15628
419.731	16714
419.807	17564
419.883	17677
419.959	17153
420.034	18495
420.110	19836
420.186	20614
420.262	21026
420.337	21265
420.413	22037
420.489	23701
420.565	25509
420.640	26406
420.716	27282
420.792	27446
420.867	30347
420.943	31703
421.019	34324
421.094	34618
421.170	37687
421.245	41195
421.321	45949
421.397	53035
421.472	86489
421.548	133878
421.623	94509
421.699	77284
421.774	82447
421.850	94492
421.925	110937
422.001	130192
422.076	154093
422.152	190036
422.227	234050
422.302	293970
422.378	361777
422.453	411868
422.529	381159
422.604	263550
422.679	202384
422.755	322544
422.830	424268
422.905	407318
422.981	346209
423.056	286755
423.131	232814
423.207	188368
423.282	155188
423.357	132386
423.432	112029
423.508	100436
423.583	85011
423.658	76036
423.733	70177
423.808	65450
423.883	62650
423.959	66128
424.034	67247
424.109	62109
424.184	50771
424.259	44308
424.334	39108
424.409	35940
424.484	32738
424.559	30459
424.634	28501
424.709	29294
424.784	25716
424.859	25648
424.934	24077
425.009	25309
425.084	24193
425.159	21579
425.234	21413
425.309	21280
425.384	21187
425.459	20480
425.534	18658
425.609	17884
425.683	18139
425.758	17052
425.833	17473
425.908	18238
425.983	17009
426.058	18444
426.132	16598
426.207	15186
426.282	17163
426.357	14739
426.431	15113
426.506	15580
426.581	14433
426.655	14086
426.730	13957
426.805	12679
426.879	14268
426.954	13378
427.029	13880
427.103	17088
427.178	19860
427.253	14874
427.327	12833
427.402	13219
427.476	14045
427.551	13126
427.625	12757
427.700	13688
427.774	13316
427.849	14506
427.923	14269
427.998	18488
428.072	23859
428.147	52296
428.221	159442
428.296	280256
428.370	144099
428.444	41639
428.519	22740
428.593	21074
428.667	22393
428.742	31531
428.816	80788
428.890	216491
428.965	233815
429.039	74354
429.113	26173
429.188	18426
429.262	15424
429.336	16434
429.410	15418
429.485	17126
429.559	18519
429.633	19585
429.707	28187
429.781	74642
429.855	208932
429.930	213394
430.004	85713
430.078	87926
430.152	204166
430.226	382322
430.300	310990
430.374	113806
430.448	50186
430.522	37041
430.596	44892
430.670	108963
430.744	246572
430.818	199872
430.892	54370
430.966	21620
431.040	16300
431.114	13005
431.188	12295
431.262	12972
431.336	11217
431.410	13302
431.484	12825
431.557	15878
431.631	20293
431.705	43197
431.779	137594
431.853	276940
431.927	161512
432.000	40935
432.074	17912
432.148	13004
432.222	9780
432.295	9658
432.369	8395
432.443	8663
432.516	12735
432.590	15521
432.664	9204
432.737	7710
432.811	5963
432.885	7203
432.958	7304
433.032	6468
433.106	6557
433.179	7890
433.253	7283
433.326	6485
433.400	7394
433.473	8546
433.547	7421
433.620	7734
433.694	7802
433.767	8831
433.841	7887
433.914	8389
433.988	8319
434.061	9084
434.134	8777
434.208	8069
434.281	7299
434.355	7396
434.428	8786
434.501	8644
434.575	7112
434.648	7536
434.721	8094
434.795	8377
434.868	8617
434.941	8855
435.014	9614
435.088	11160
435.161	11978
435.234	13877
435.307	15520
435.381	19961
435.454	29959
435.527	41032
435.600	45482
435.673	41466
435.746	33876
435.819	29289
435.892	25123
435.966	20882
436.039	17651
436.112	16740
436.185	13334
436.258	12935
436.331	11152
436.404	11604
436.477	10447
436.550	10664
436.623	9727
436.696	9432
436.769	8403
436.842	8780
436.915	7712
436.987	7914
437.060	7268
437.133	8039
437.206	7247
437.279	8110
437.352	5780
437.425	7494
437.498	6557
437.570	6361
437.643	5754
437.716	7340
437.789	6534
437.861	6903
437.934	6934
438.007	5857
438.080	6374
438.152	6521
438.225	6957
438.298	14724
438.370	20519
438.443	10912
438.516	7510
438.588	7076
438.661	5856
438.734	6758
438.806	5573
438.879	6773
438.951	6277
439.024	7040
439.096	5467
439.169	6830
439.241	5962
439.314	6142
439.386	6095
439.459	7212
439.531	7122
439.604	6604
439.676	6435
439.749	6416
439.821	5594
439.893	6949
439.966	5920
440.038	6040
440.110	5450
440.183	6212
440.255	6698
440.327	7925
440.400	9537
440.472	14138
440.544	9931
440.617	7222
440.689	8158
440.761	7080
440.833	6888
440.905	8008
440.978	6907
441.050	7635
441.122	7256
441.194	7440
441.266	7475
441.338	7895
441.411	8508
441.483	9925
441.555	10258
441.627	9213
441.699	9287
441.771	9937
441.843	9140
441.915	11124
441.987	11129
442.059	13617
442.131	15076
442.203	20634
442.275	27896
442.347	48942
442.419	117188
442.491	294679
442.563	378289
442.635	178304
442.706	61192
442.778	34564
442.850	25784
442.922	24896
442.994	25598
443.066	29983
443.137	36069
443.209	49866
443.281	82098
443.353	165040
443.425	350699
443.496	533422
443.568	504994
443.640	263050
443.711	104072
443.783	54552
443.855	35737
443.926	27245
443.998	22456
444.070	19896
444.141	17069
444.213	16107
444.285	14911
444.356	14688
444.428	14848
444.499	14799
444.571	15592
444.642	16954
444.714	17169
444.785	20551
444.857	21923
444.928	26736
445.000	30315
445.071	39475
445.143	52938
445.214	80502
445.285	135414
445.357	274563
445.428	466561
445.500	558682
445.571	532590
445.642	377598
445.714	172084
445.785	76988
445.856	45623
445.928	32384
445.999	24771
446.070	20403
446.141	17292
446.213	15075
446.284	12828
446.355	12796
446.426	10107
446.497	9950
446.569	8754
446.640	8751
446.711	8686
446.782	7662
446.853	7465
446.924	7834
446.995	6869
447.066	6843
447.138	6111
447.209	6466
447.280	4938
447.351	5193
447.422	4115
447.493	5277
447.564	4737
447.635	5755
447.706	5404
447.777	5477
447.847	3985
447.918	4477
447.989	5274
448.060	4527
448.131	4416
448.202	4971
448.273	4514
448.344	4475
448.414	4574
448.485	4121
448.556	3987
448.627	5049
448.698	4961
448.768	4578
448.839	3689
448.910	4293
448.981	4395
449.051	4470
449.122	3064
449.193	4293
449.263	4003
449.334	3901
449.405	4444
449.475	3932
449.546	4243
449.616	5643
449.687	6045
449.758	5096
449.828	3721
449.899	4162
449.969	2775
450.040	4546
450.110	3588
450.181	4426
450.251	3548
450.322	4338
450.392	5258
450.463	4613
450.533	3819
450.604	5360
450.674	4353
450.744	6497
450.815	6321
450.885	7504
450.955	7995
451.026	8348
451.096	6978
451.166	8036
451.237	8975
451.307	10464
451.377	9086
451.447	7462
451.518	5643
451.588	5322
451.658	5468
451.728	5870
451.799	6088
451.869	5883
451.939	4684
452.009	5402
452.079	5249
452.149	6339
452.219	6074
452.289	7681
452.360	7917
452.430	9414
452.500	12986
452.570	21058
452.640	44330
452.710	83656
452.780	85141
452.850	53603
452.920	30314
452.990	20526
453.060	14589
453.129	10339
453.199	9296
453.269	10630
453.339	10106
453.409	9616
453.479	10748
453.549	12387
453.619	9834
453.688	5590
453.758	4766
453.828	4915
453.898	3280
453.968	4221
454.037	3927
454.087	4109
454.107	4174
454.168	3758
454.177	3685
454.247	3644
454.249	3610
454.316	2318
454.330	2653
454.386	3934
454.411	3881
454.456	3709
454.492	3903
454.525	4054
454.574	3856
454.595	3776
454.655	3693
454.665	3658
454.734	4753
454.736	4785
454.804	5322
454.817	5279
454.873	5025
454.898	4708
454.943	4107
454.979	4007
455.013	3900
455.060	3764
455.082	3695
455.141	3932
455.152	3962
455.221	5192
455.222	5212
455.291	5041
455.303	5457
455.360	7187
455.384	7899
455.430	8948
455.465	7387
455.499	5909
455.546	5153
455.569	4827
455.627	4500
455.638	4397
455.707	3902
455.708	3924
455.777	4484
455.789	4473
455.846	4468
455.869	4466
455.916	4323
455.950	4312
455.985	4277
456.031	4166
456.054	4093
456.112	4695
456.124	4813
456.193	5075
456.193	5056
456.262	4987
456.274	5164
456.332	5785
456.355	5413
456.401	4632
456.436	4767
456.470	4879
456.516	4518
456.540	4348
456.597	4899
456.609	5009
456.678	6245
456.678	6228
456.747	5738
456.759	5656
456.817	5237
456.840	5422
456.886	5653
456.920	5761
456.955	5963
457.001	6653
457.024	6927
457.082	6814
457.093	6776
457.162	7436
457.163	7457
457.232	7759
457.243	7741
457.301	7608
457.324	7887
457.370	8602
457.405	9303
457.439	10086
457.485	11009
457.508	11579
457.566	14176
457.577	15262
457.646	22538
457.647	22698
457.715	45144
457.727	51114
457.784	80694
457.808	107240
457.853	145091
457.889	159882
457.922	162672
457.969	120895
457.991	114711
458.050	128027
458.060	130408
458.129	214552
458.130	216328
458.198	222268
458.211	202717
458.267	124142
458.292	95743
458.336	68423
458.372	64554
458.405	75976
458.453	105305
458.474	121428
458.533	200623
458.543	207279
458.611	309820
458.614	309860
458.680	217061
458.694	183748
458.749	94334
458.775	70966
458.818	44684
458.855	34332
458.887	27589
458.936	22903
458.955	21308
459.016	16766
459.024	16291
459.093	14771
459.097	14694
459.162	12409
459.177	12051
459.230	11337
459.257	10922
459.299	10452
459.338	10211
459.368	9847
459.418	9812
459.437	9749
459.499	9383
459.505	9364
459.574	8909
459.579	8922
459.643	8951
459.659	8900
459.711	8885
459.740	9023
459.780	9032
459.820	8690
459.849	8460
459.900	8693
459.917	8738
459.981	8295
459.986	8291
460.054	8428
460.061	8514
460.123	8586
460.141	8594
460.191	9006
460.222	8761
460.260	8421
460.302	8997
460.328	9415
460.382	9783
460.397	9941
460.462	10934
460.465	11392
460.534	21623
460.543	23231
460.602	45537
460.623	55410
460.671	79368
460.703	104566
460.739	99527
460.783	69731
460.808	57786
460.864	19010
460.876	14649
460.944	9748
460.945	9687
461.013	8622
461.024	8434
461.081	8218
461.104	8239
461.150	8264
461.184	8014
461.218	7943
461.264	8611
461.286	8655
461.345	8336
461.355	8296
461.423	7843
461.425	7815
461.491	6910
461.505	7169
461.559	8386
461.585	8269
461.628	8133
461.665	8449
461.696	8550
461.745	8639
461.764	8550
461.825	7893
461.832	7962
461.901	8734
461.905	8811
461.969	8232
461.985	7890
462.037	7985
462.065	8437
462.105	8306
462.145	8124
462.173	8377
462.225	8343
462.241	8293
462.305	8296
462.310	8314
462.378	9223
462.385	9217
462.446	8805
462.465	8866
462.514	8673
462.545	8351
462.582	8182
462.625	8170
462.650	8197
462.705	7979
462.718	7932
462.785	7913
462.786	7917
462.854	7736
462.865	7815
462.922	8159
462.945	8080
462.990	8053
463.025	8174
463.058	8395
463.104	8508
463.126	8533
463.184	8787
463.194	8802
463.262	8528
463.264	8532
463.330	8679
463.344	8619
463.398	9016
463.424	9274
463.466	8583
463.504	7722
463.533	7720
463.583	8286
463.601	8387
463.663	8189
463.669	8167
463.737	7980
463.743	7946
463.805	8958
463.823	9343
463.873	10015
463.903	10314
463.940	9853
463.982	9242
464.008	8970
464.062	8308
464.076	8369
464.142	8875
464.144	8893
464.211	9164
464.221	9191
464.279	8902
464.301	8798
464.347	8847
464.381	8819
464.414	8516
464.461	8130
464.482	8189
464.540	8305
464.550	8314
464.617	8139
464.620	8134
464.685	8728
464.699	8790
464.753	8786
464.779	8812
464.820	8497
464.859	8279
464.888	8297
464.938	8106
464.956	8417
465.018	9682
465.023	9645
465.091	8810
465.098	8725
465.158	9159
465.177	9277
465.226	9293
465.257	9315
465.293	9268
465.336	9100
465.361	9136
465.416	9269
465.428	9314
465.495	9454
465.496	9470
465.563	9885
465.575	9995
465.631	9798
465.654	9674
465.698	9426
465.734	9145
465.765	9596
465.813	10241
465.833	10106
465.893	9733
465.900	9701
465.968	9066
465.972	9030
466.035	8997
466.052	8951
466.102	9645
466.131	9947
466.170	9536
466.210	9091
466.237	9506
466.290	10435
466.304	10360
466.369	9665
466.372	9676
466.439	9772
466.449	9737
466.506	9597
466.528	9578
466.573	10157
466.607	10493
466.641	11324
466.687	12543
466.708	12197
466.766	11085
466.775	11133
466.842	11342
466.845	11334
466.909	10433
466.925	10197
466.977	11291
467.004	11845
467.044	11526
467.083	11165
467.111	11132
467.163	11022
467.178	11249
467.242	12113
467.245	12118
467.312	11823
467.321	11767
467.379	12200
467.400	12323
467.446	12816
467.480	13133
467.559	12728
467.638	12961
467.717	13067
467.796	14798
467.875	14919
467.955	16142
468.034	18658
468.113	22482
468.192	26890
468.271	33449
468.350	43195
468.429	55666
468.508	53924
468.588	35120
468.667	24884
468.746	18833
468.825	16820
468.904	15048
468.983	14273
469.062	13684
469.141	15191
469.220	12721
469.299	12584
469.378	12568
469.456	13552
469.535	13445
469.614	12650
469.693	11564
469.772	13230
469.851	12514
469.930	12912
470.009	11820
470.088	13519
470.166	13699
470.245	16229
470.324	13880
470.403	15432
470.482	12440
470.560	13220
470.639	13425
470.718	13062
470.797	11805
470.875	11801
470.954	11907
471.033	12268
471.111	12036
471.190	10697
471.269	11714
471.347	12604
471.426	11789
471.505	12425
471.583	11971
471.662	12588
471.740	12255
471.819	12147
471.898	11350
471.976	11297
472.055	12606
472.133	14537
472.212	17748
472.290	12420
472.369	11906
472.447	11928
472.526	11426
472.604	12444
472.683	11874
472.761	12071
472.839	11958
472.918	13326
472.996	11521
473.075	12864
473.153	13499
473.231	11829
473.310	13426
473.388	12799
473.466	13147
473.545	13362
473.623	13543
473.701	14214
473.780	14186
473.858	12907
473.936	14542
474.014	13948
474.093	17312
474.171	18744
474.249	15465
474.327	13804
474.405	13961
474.484	14183
474.562	13889
474.640	12846
474.718	12949
474.796	12476
474.874	13454
474.952	12646
475.030	12007
475.108	12580
475.187	12141
475.265	13068
475.343	13527
475.421	13215
475.499	12387
475.577	12606
475.655	13201
475.733	13124
475.811	13286
475.889	13264
475.966	12392
476.044	12332
476.122	12632
476.200	12986
476.278	11532
476.356	12789
476.434	12511
476.512	13043
476.590	13211
476.667	12783
476.745	12446
476.823	12536
476.901	13818
476.979	12241
477.056	13180
477.134	12174
477.212	12136
477.290	12083
477.367	12673
477.445	12455
477.523	11199
477.601	11493
477.678	11533
477.756	12558
477.834	11975
477.911	12580
477.989	11969
478.066	12969
478.144	13108
478.222	13801
478.299	14315
478.377	16574
478.454	17188
478.532	12827
478.609	12990
478.687	13017
478.764	12485
478.842	12568
478.919	13212
478.997	13739
479.074	12472
479.152	13279
479.229	13407
479.307	12546
479.384	12015
479.461	13303
479.539	12877
479.616	12739
479.694	13228
479.771	13566
479.848	13787
479.926	12420
480.003	14207
480.080	14206
480.157	13996
480.235	13814
480.312	13413
480.389	14785
480.467	14589
480.544	15922
480.621	16496
480.698	16176
480.775	15877
480.853	15835
480.930	15439
481.007	16578
481.084	24651
481.161	33614
481.238	21650
481.315	15102
481.392	15454
481.470	16257
481.547	15987
481.624	16184
481.701	15586
481.778	16931
481.855	16717
481.932	17953
482.009	20114
482.086	21419
482.163	23904
482.240	25617
482.317	25456
482.393	22589
482.470	21676
482.547	21255
482.624	19632
482.701	19863
482.778	19741
482.855	19823
482.932	20629
483.009	22839
483.085	28537
483.162	34821
483.239	34626
483.316	27056
483.393	27302
483.469	24886
483.546	21896
483.623	20691
483.699	18704
483.776	18298
483.853	17756
483.930	18285
484.006	18614
484.083	21081
484.160	18884
484.236	21579
484.313	20176
484.389	21637
484.466	26067
484.543	29703
484.619	34811
484.696	36956
484.772	26577
484.849	22098
484.925	19404
485.002	18803
485.078	17862
485.155	16866
485.231	16435
485.308	16487
485.384	16131
485.461	16836
485.537	16932
485.614	17617
485.690	15651
485.766	16139
485.843	14540
485.919	15117
485.995	15548
486.072	15765
486.148	15557
486.224	15363
486.301	14695
486.377	16183
486.453	15399
486.530	16617
486.606	18259
486.682	18106
486.758	19247
486.835	21310
486.911	21731
486.987	23573
487.063	25646
487.139	31561
487.215	40002
487.292	40004
487.368	38778
487.444	48649
487.520	72616
487.596	121590
487.672	280164
487.748	671679
487.824	918731
487.900	425287
487.976	153917
488.052	81170
488.128	52973
488.204	39652
488.280	34035
488.356	28125
488.432	26345
488.508	25529
488.584	20740
488.660	19348
488.736	20011
488.812	18152
488.888	16922
488.964	17920
489.039	18086
489.115	21395
489.191	21217
489.267	18886
489.343	16232
489.418	16423
489.494	16174
489.570	15615
489.646	17055
489.722	16455
489.797	15729
489.873	16877
489.949	19032
490.024	17642
490.100	16162
490.176	17068
490.251	16414
490.327	16903
490.403	15819
490.478	14940
490.554	16031
490.629	16231
490.705	16367
490.781	15825
490.856	15596
490.932	15198
491.007	15544
491.083	14714
491.158	15145
491.234	14755
491.309	16285
491.385	14897
491.460	13925
491.536	15034
491.611	13682
491.686	14663
491.762	14004
491.837	14930
491.913	15897
491.988	16959
492.063	16146
492.139	14440
492.214	14075
492.289	12884
492.365	12950
492.440	12390
492.515	13914
492.590	12697
492.666	13740
492.741	13852
492.816	14602
492.891	13691
492.967	14880
493.042	13930
493.117	13339
493.192	13715
493.267	15512
493.342	20708
493.418	21321
493.493	13814
493.568	13639
493.643	12633
493.718	13011
493.793	12785
493.868	12813
493.943	12654
494.018	12385
494.093	12843
494.168	12155
494.243	12019
494.318	12891
494.393	12388
494.468	11712
494.543	12617
494.618	12163
494.693	12048
494.768	12587
494.842	12675
494.917	12787
494.992	12259
495.067	12779
495.142	12280
495.217	12536
495.292	12506
495.366	11406
495.441	11766
495.516	11899
495.591	13325
495.665	15839
495.740	19236
495.815	15008
495.890	12234
495.964	11687
496.039	15925
496.114	21414
496.188	34924
496.263	26300
496.338	13194
496.412	12925
496.487	13092
496.561	13038
496.636	12542
496.710	14407
496.785	15581
496.860	13732
496.934	12927
497.009	12353
497.083	11304
497.158	12276
497.232	12545
497.307	12876
497.381	12245
497.455	12752
497.530	13605
497.604	12886
497.679	12799
497.753	13005
497.827	13485
497.902	12680
497.976	14532
498.050	18986
498.125	31006
498.199	26971
498.273	14009
498.348	13490
498.422	13055
498.496	12915
498.570	13410
498.645	12529
498.719	12106
498.793	14214
498.867	13858
498.941	14183
499.016	21341
499.090	28942
499.164	16983
499.238	14174
499.312	13283
499.386	14073
499.460	14787
499.534	14338
499.609	14933
499.683	14056
499.757	14942
499.831	16842
499.905	24041
499.979	20351
500.053	13822
500.127	13561
500.201	13060
500.275	14131
500.349	14955
500.422	13559
500.496	14029
500.570	15446
500.644	21861
500.718	24959
500.792	15592
500.866	14482
500.940	14389
501.013	15373
501.087	14863
501.161	15132
501.235	14714
501.309	19912
501.382	23372
501.456	21416
501.530	16077
501.603	15402
501.677	13950
501.751	12555
501.825	15989
501.898	16222
501.972	17284
502.046	15034
502.119	13160
502.193	14818
502.266	16694
502.340	15079
502.413	15270
502.487	16872
502.561	14864
502.634	15438
502.708	14999
502.781	15180
502.855	15667
502.928	14446
503.002	14910
503.075	14091
503.149	15599
503.222	16405
503.295	17132
503.369	19665
503.442	19239
503.516	25691
503.589	30999
503.662	31500
503.736	35544
503.809	45743
503.882	59000
503.956	96724
504.029	196226
504.102	450981
504.175	590527
504.249	295943
504.322	132035
504.395	74265
504.468	50125
504.542	36362
504.615	28200
504.688	26125
504.761	21161
504.834	21498
504.907	18397
504.980	16865
505.053	15528
505.127	13974
505.200	17222
505.273	14580
505.346	14831
505.419	13781
505.492	15370
505.565	13583
505.638	14453
505.711	12148
505.784	12557
505.857	11468
505.930	13578
506.003	10645
506.076	14124
506.149	11374
506.221	10073
506.294	13889
506.367	11083
506.440	14867
506.513	13602
506.586	12063
506.659	11382
506.731	11866
506.804	11127
506.877	10371
506.950	12111
507.022	12166
507.095	9834
507.168	11443
507.241	11682
507.313	10799
507.386	11044
507.459	11622
507.531	10972
507.604	10755
507.677	11508
507.749	9635
507.822	12294
507.894	10130
507.967	11823
508.040	10491
508.112	12175
508.185	10197
508.257	10527
508.330	12153
508.402	10546
508.475	10478
508.547	10849
508.620	10798
508.692	11309
508.765	11813
508.837	10976
508.909	11198
508.982	10555
509.054	11075
509.127	10333
509.199	10648
509.271	10658
509.344	10694
509.416	10319
509.488	10305
509.560	11078
509.633	10744
509.705	9767
509.777	10679
509.849	11466
509.922	8941
509.994	10069
510.066	11862
510.138	10262
510.210	12705
510.283	9957
510.355	11519
510.427	10904
510.499	11550
510.571	10302
510.643	9300
510.715	12241
510.787	9792
510.859	11027
510.931	10636
511.003	11577
511.076	11866
511.148	10214
511.219	9628
511.291	12484
511.363	11626
511.435	10482
511.507	10255
511.579	12016
511.651	11583
511.723	10813
511.795	9645
511.867	10867
511.939	10890
512.010	10287
512.082	10612
512.154	10031
512.226	10957
512.298	12335
512.369	10731
512.441	12271
512.513	11686
512.585	9873
512.656	11886
512.728	10548
512.800	11222
512.871	11862
512.943	11591
513.015	9970
513.086	11144
513.158	11308
513.230	10784
513.301	11790
513.373	12642
513.444	10604
513.516	11654
513.588	11118
513.659	12014
513.731	11811
513.802	10621
513.874	13161
513.945	11905
514.016	10536
514.088	11988
514.159	10276
514.231	11548
514.302	10590
514.374	11438
514.445	9884
514.516	13196
514.588	11078
514.659	10703
514.730	11351
514.802	12435
514.873	9760
514.944	13697
515.016	11616
515.087	10939
515.158	12328
515.229	13873
515.301	11483
515.372	12962
515.443	11405
515.514	11753
515.585	12931
515.656	13432
515.728	13543
515.799	11445
515.870	12930
515.941	12741
516.012	12270
516.083	13047
516.154	12326
516.225	13818
516.296	15131
516.367	13542
516.438	13247
516.509	15093
516.580	18081
516.651	38552
516.722	79743
516.793	39236
516.864	16774
516.935	17445
517.006	18590
517.077	21147
517.148	39191
517.219	127000
517.289	165828
517.360	36265
517.431	20940
517.502	17109
517.573	18681
517.643	18002
517.714	17011
517.785	19235
517.856	19562
517.926	23491
517.997	25557
518.068	26859
518.138	35095
518.209	47922
518.280	127026
518.350	303108
518.421	140320
518.492	70203
518.562	83760
518.633	119164
518.703	199110
518.774	421759
518.845	816975
518.915	700327
518.986	280194
519.056	131028
519.127	81344
519.197	59635
519.268	47460
519.338	36619
519.408	29588
519.479	25089
519.549	22578
519.620	23466
519.690	20286
519.760	19184
519.831	17881
519.901	16520
519.971	16786
520.042	15164
520.112	15664
520.182	15333
520.253	15815
520.323	14502
520.393	14383
520.463	16714
520.534	12753
520.604	18346
520.674	16687
520.744	13942
520.814	14794
520.885	15380
520.955	16691
521.025	18002
521.095	15365
521.165	15411
521.235	13497
521.305	13515
521.375	14293
521.445	14957
521.515	13262
521.585	14728
521.655	12446
521.725	15282
521.795	14531
521.865	13029
521.935	16048
522.005	13314
522.075	14569
522.145	16006
522.215	15553
522.285	15200
522.355	15406
522.424	17100
522.494	16607
522.564	16855
522.634	14855
522.704	17965
522.774	13895
522.843	15913
522.913	16886
522.983	14949
523.053	14173
523.122	16414
523.192	15387
523.262	15855
523.331	14895
523.401	15660
523.471	15342
523.540	15790
523.610	15252
523.680	16531
523.749	17567
523.819	20426
523.888	21348
523.958	18242
524.027	17357
524.097	17502
524.166	17167
524.236	14963
524.305	18184
524.375	15725
524.444	15457
524.514	19275
524.583	17308
524.653	15973
524.722	18512
524.791	17179
524.861	19365
524.930	19028
524.999	18701
525.069	21722
525.138	20816
525.207	21762
525.277	24627
525.346	24239
525.415	27525
525.484	30094
525.554	33855
525.623	43223
525.692	55001
525.761	57497
525.830	67182
525.900	85349
525.969	147696
526.038	294348
526.107	585131
526.176	1242237
526.245	912547
526.314	392274
526.383	731288
526.452	905423
526.522	1121654
526.591	878660
526.660	259046
526.729	147742
526.797	149899
526.867	234268
526.935	609015
527.004	1366609
527.073	865414
527.142	246979
527.211	110127
527.280	72297
527.349	52659
527.418	41381
527.487	37335
527.555	30555
527.624	29190
527.693	25096
527.762	26653
527.831	22446
527.899	24567
527.968	22575
528.037	18968
528.106	21033
528.174	20491
528.243	20619
528.312	19877
528.380	19795
528.449	18159
528.518	19750
528.586	17798
528.655	19339
528.723	18465
528.792	18568
528.861	18024
528.929	16757
528.998	18946
529.066	20097
529.135	23209
529.203	21530
529.272	24574
529.340	26535
529.409	26659
529.477	23547
529.545	23510
529.614	27183
529.682	26214
529.751	28142
529.819	32242
529.887	32385
529.956	31316
530.024	30106
530.092	27549
530.161	28241
530.229	28545
530.297	30435
530.365	30963
530.434	31681
530.502	30488
530.570	29306
530.638	26900
530.707	27483
530.775	28601
530.843	27949
530.911	29579
530.979	29234
531.047	31821
531.115	30633
531.183	28313
531.252	29195
531.320	27725
531.388	27668
531.456	31486
531.524	30015
531.592	33308
531.660	35630
531.728	31123
531.796	31507
531.864	31818
531.932	30739
532.000	31191
532.067	32192
532.135	33193
532.203	37114
532.271	38031
532.339	39324
532.407	38192
532.475	36904
532.542	36556
532.610	36125
532.678	35553
532.746	41647
532.814	46672
532.881	41000
532.949	38689
533.017	36103
533.084	36234
533.152	34865
533.220	32792
533.287	33844
533.355	36230
533.423	36277
533.490	37994
533.558	37285
533.625	36898
533.693	36260
533.761	35467
533.828	36716
533.896	35004
533.963	39114
534.031	39758
534.098	48282
534.166	51095
534.233	48322
534.300	53251
534.368	52390
534.435	50756
534.503	52572
534.570	57368
534.637	62141
534.705	68691
534.772	88001
534.840	187991
534.907	638962
534.974	620342
535.041	130894
535.109	66523
535.176	54031
535.243	50830
535.310	48679
535.378	46294
535.445	46356
535.512	46994
535.579	44699
535.646	43309
535.714	46643
535.781	46471
535.848	48340
535.915	46708
535.982	45242
536.049	45008
536.116	46054
536.183	42599
536.250	42218
536.317	43498
536.384	45970
536.451	45895
536.518	45922
536.585	45023
536.652	48594
536.719	47454
536.786	43487
536.853	43879
536.920	45301
536.987	45937
537.053	42672
537.120	48479
537.187	50102
537.254	48578
537.321	48090
537.388	50905
537.454	47376
537.521	48064
537.588	46877
537.654	46489
537.721	51593
537.788	51308
537.855	47916
537.921	48165
537.988	47513
538.055	44805
538.121	42686
538.188	42188
538.254	41193
538.321	41815
538.388	45648
538.454	52210
538.521	51096
538.587	51262
538.654	49660
538.720	49988
538.787	50044
538.853	49783
538.920	47197
538.986	42496
539.053	43767
539.119	45121
539.185	45140
539.252	48525
539.318	48830
539.385	54730
539.451	49544
539.517	49475
539.583	48478
539.650	49049
539.716	49181
539.782	45529
539.849	45401
539.915	47739
539.981	45502
540.047	45578
540.114	45233
540.180	48312
540.246	50703
540.312	51353
540.378	50596
540.444	50076
540.510	51287
540.576	51884
540.643	48557
540.709	46242
540.775	47924
540.841	46556
540.907	45436
540.973	47131
541.039	47329
541.105	47645
541.171	50923
541.237	53415
541.303	51247
541.369	51424
541.435	52882
541.500	49529
541.566	45323
541.632	46636
541.698	47434
541.764	49870
541.830	48645
541.896	47961
541.961	48317
542.027	47396
542.093	52268
542.159	52791
542.224	48465
542.290	50373
542.356	48017
542.421	47713
542.487	46102
542.553	45687
542.618	47203
542.684	47438
542.750	48547
542.815	49253
542.881	49942
542.947	52664
543.012	50976
543.078	47902
543.143	45750
543.209	47597
543.274	47204
543.340	48107
543.405	50412
543.471	50913
543.536	50944
543.602	50896
543.667	48000
543.732	50827
543.798	50511
543.863	51948
543.928	51236
543.994	50250
544.059	51869
544.124	53530
544.190	53341
544.255	54986
544.320	53881
544.386	54119
544.451	56470
544.516	54730
544.581	54937
544.646	57551
544.712	57993
544.777	58101
544.842	56058
544.907	56657
544.972	57508
545.037	60750
545.102	62074
545.168	61691
545.233	63116
545.298	62348
545.363	63174
545.428	66949
545.493	65876
545.558	67384
545.623	64722
545.688	66687
545.753	70134
545.818	70264
545.883	74777
545.947	76743
546.012	79969
546.077	80441
546.142	87304
546.207	87900
546.272	94376
546.337	94094
546.401	98866
546.466	102332
546.531	106170
546.596	114123
546.661	118331
546.725	122256
546.790	127748
546.855	141215
546.919	153883
546.984	170034
547.049	181486
547.113	204481
547.178	225379
547.243	252394
547.307	289467
547.372	315351
547.436	313656
547.501	331626
547.565	349414
547.630	321263
547.695	314560
547.759	312902
547.823	319585
547.888	325870
547.952	333277
548.017	348483
548.081	363730
548.146	346256
548.210	356598
548.274	381662
548.339	371398
548.403	343766
548.468	325436
548.532	324716
548.596	330070
548.660	335732
548.725	361709
548.789	385526
548.853	368193
548.917	360407
548.982	346418
549.046	316439
549.110	289377
549.174	303254
549.238	349793
549.303	380298
549.367	385528
549.431	362128
549.495	344707
549.559	349197
549.623	395656
549.687	419292
549.751	418291
549.815	485164
549.879	482911
549.943	470980
550.007	489529
550.071	482252
550.135	440412
550.199	429026
550.263	422286
550.327	400528
550.391	417117
550.455	455622
550.519	470459
550.582	497074
550.646	544795
550.710	547609
550.774	543687
550.838	552769
550.901	570824
550.965	599365
551.029	627713
551.093	671475
551.156	730067
551.220	796080
551.284	799854
551.347	671463
551.411	596254
551.475	570687
551.538	584099
551.602	544251
551.666	517813
551.729	493194
551.793	485488
551.856	474220
551.920	470456
551.983	470551
552.047	464196
552.110	471616
552.174	475880
552.237	482352
552.301	450838
552.364	436966
552.428	423881
552.491	439203
552.554	444293
552.618	442079
552.681	445826
552.745	429656
552.808	446289
552.871	462839
552.934	454203
552.998	442183
553.061	432471
553.124	418161
553.187	419900
553.251	430419
553.314	428857
553.377	434633
553.440	459803
553.503	467378
553.567	466406
553.630	458662
553.693	452511
553.756	453756
553.819	443862
553.882	431291
553.945	433202
554.008	434200
554.071	441300
554.134	436057
554.197	416333
554.260	404261
554.323	411524
554.386	419508
554.449	436047
554.512	434860
554.575	418692
554.638	418064
554.701	414825
554.764	409913
554.827	397963
554.889	384145
554.952	366466
555.015	360007
555.078	370286
555.141	373060
555.203	366423
555.266	364866
555.329	363413
555.391	352632
555.454	346514
555.517	337605
555.580	329932
555.642	318719
555.705	313878
555.768	314003
555.830	302525
555.893	293106
555.955	283965
556.018	279499
556.080	283824
556.143	291505
556.206	287100
556.268	280464
556.330	274754
556.393	267226
556.455	261096
556.518	259280
556.580	249019
556.643	242588
556.705	237782
556.767	235719
556.830	233451
556.892	228214
556.955	225911
557.017	220349
557.079	220280
557.142	214081
557.204	213263
557.266	212598
557.328	199927
557.391	187298
557.453	186863
557.515	185326
557.577	188416
557.639	189432
557.701	189232
557.764	185944
557.826	187361
557.888	189804
557.950	196322
558.012	211308
558.074	272649
558.136	549038
558.198	898416
558.260	381552
558.322	212301
558.384	200380
558.446	205751
558.508	214578
558.570	231511
558.632	261894
558.694	337875
558.756	564253
558.818	1231076
558.880	1616273
558.942	1053547
559.003	1029031
559.065	514579
559.127	274614
559.189	245074
559.251	265828
559.312	374055
559.374	788793
559.436	1400937
559.498	784602
559.559	323549
559.621	247975
559.683	272310
559.744	431540
559.806	1011880
559.868	1072491
559.929	397364
559.991	281703
560.052	446530
560.114	914176
560.176	583605
560.237	650182
560.299	772775
560.360	237101
560.422	126721
560.483	108547
560.545	101322
560.606	96289
560.667	91006
560.729	87519
560.790	84531
560.852	81341
560.913	79565
560.974	77175
561.036	76941
561.097	77123
561.158	74256
561.220	73775
561.281	71531
561.342	69227
561.403	69770
561.465	70366
561.526	70275
561.587	69156
561.648	64684
561.709	64358
561.771	64184
561.832	64082
561.893	60710
561.954	61328
562.015	59448
562.076	59797
562.137	58913
562.198	58947
562.259	58927
562.320	59928
562.381	59181
562.442	59448
562.503	57610
562.564	56004
562.625	55381
562.686	55555
562.747	54826
562.808	54573
562.869	53255
562.930	54334
562.991	51573
563.051	50767
563.112	53041
563.173	51948
563.234	50653
563.294	50188
563.355	50557
563.416	48865
563.477	49652
563.537	48145
563.598	48163
563.659	49543
563.720	47743
563.780	48281
563.841	48099
563.901	49319
563.962	47096
564.023	46509
564.083	46125
564.144	46968
564.204	45357
564.265	45816
564.325	46775
564.386	46916
564.446	45882
564.507	44239
564.567	43637
564.628	44037
564.688	43950
564.749	42830
564.809	45103
564.869	44490
564.930	42977
564.990	44039
565.050	43839
565.111	44074
565.171	43439
565.231	42946
565.292	44520
565.352	42314
565.412	43703
565.472	42666
565.532	43125
565.593	42173
565.653	42848
565.713	42533
565.773	43515
565.833	45118
565.893	44906
565.953	41839
566.013	41986
566.074	41183
566.134	40733
566.194	38828
566.254	41016
566.314	40018
566.374	39492
566.434	40509
566.494	40019
566.554	39703
566.614	41641
566.673	42955
566.733	43348
566.793	42932
566.853	43240
566.913	42076
566.973	41697
567.033	42142
567.092	41935
567.152	42244
567.212	43352
567.272	43344
567.331	44397
567.391	44987
567.451	46321
567.511	46596
567.570	45018
567.630	44671
567.690	42955
567.749	41795
567.809	42960
567.868	42091
567.928	41097
567.988	43182
568.047	43296
568.107	43311
568.166	44512
568.226	44224
568.285	46740
568.345	46298
568.404	45556
568.464	44973
568.523	43397
568.582	45725
568.642	44916
568.701	42977
568.761	42610
568.820	45303
568.879	43724
568.939	45382
568.998	44962
569.057	41907
569.116	43418
569.176	42552
569.235	43405
569.294	42150
569.353	41276
569.413	41346
569.472	39981
569.531	39582
569.590	39274
569.649	41032
569.708	38847
569.767	41215
569.827	39834
569.886	39821
569.945	39178
570.004	39810
570.063	39814
570.122	41917
570.181	41956
570.240	42504
570.299	42302
570.358	42421
570.417	42017
570.475	42104
570.534	42635
570.593	43186
570.652	43231
570.711	43129
570.770	42384
570.829	41826
570.887	41237
570.946	43665
571.005	42170
571.064	42485
571.122	42529
571.181	41204
571.240	41252
571.299	40446
571.357	40086
571.416	39771
571.475	40819
571.533	43506
571.592	44604
571.650	43669
571.709	45036
571.768	50318
571.826	52127
571.885	48261
571.943	44452
572.002	42692
572.060	41821
572.119	41081
572.177	41103
572.236	41439
572.294	41625
572.352	43026
572.411	42719
572.469	42396
572.528	41012
572.586	39753
572.644	39205
572.703	38409
572.761	37910
572.819	38964
572.877	38418
572.936	37538
572.994	37111
573.052	36194
573.110	38267
573.169	40143
573.227	39915
573.285	39355
573.343	39263
573.401	38347
573.459	38954
573.517	40620
573.576	41839
573.634	40635
573.692	40467
573.750	41371
573.808	39667
573.866	37464
573.924	38950
573.982	37913
574.040	38574
574.098	38061
574.155	37292
574.213	37314
574.271	38494
574.329	41158
574.387	38322
574.445	35978
574.503	36020
574.560	35424
574.618	35085
574.676	36604
574.734	34836
574.792	34953
574.849	32923
574.907	31415
574.965	30096
575.022	29770
575.080	29775
575.138	29275
575.195	29432
575.253	28824
575.311	27949
575.368	30185
575.426	28656
575.483	29320
575.541	32046
575.598	30102
575.656	28931
575.713	31292
575.771	32175
575.828	30978
575.886	29520
575.943	28864
576.001	28437
576.058	27440
576.115	28046
576.173	29345
576.230	30578
576.287	29891
576.345	29991
576.402	31113
576.459	30417
576.517	28745
576.574	28505
576.631	27799
576.688	27779
576.746	26475
576.803	26346
576.860	26036
576.917	27940
576.974	27752
577.031	28246
577.089	26699
577.146	25885
577.203	25277
577.260	25372
577.317	25572
577.374	25831
577.431	25342
577.488	25319
577.545	26265
577.602	26371
577.659	25511
577.716	26483
577.773	27474
577.830	24997
577.886	25844
577.943	25139
578.000	26030
578.057	24502
578.114	25451
578.171	25232
578.227	25686
578.284	26053
578.341	25599
578.398	25980
578.454	26075
578.511	26138
578.568	27567
578.625	25137
578.681	26304
578.738	25908
578.794	26308
578.851	25846
578.908	26636
578.964	25383
579.021	27053
579.077	26681
579.134	26503
579.190	25916
579.247	25769
579.303	24053
579.360	25188
579.416	25507
579.473	26904
579.529	24845
579.586	25933
579.642	26399
579.698	27290
579.755	26628
579.811	25631
579.867	25571
579.924	25948
579.980	26550
580.036	27669
580.093	27403
580.149	28242
580.205	28986
580.261	28439
580.317	29012
580.374	30032
580.430	28956
580.486	28166
580.542	27669
580.598	28534
580.619	28367
580.654	28111
580.692	28859
580.710	29284
580.765	29958
580.767	30014
580.823	29528
580.838	29664
580.879	30148
580.911	29843
580.935	29680
580.984	28573
580.991	28454
581.047	29861
581.057	29532
581.103	28244
581.130	28338
581.159	28442
581.203	28713
581.215	28835
581.270	28020
581.276	27955
581.326	27592
581.349	27682
581.382	27863
581.422	28312
581.438	28536
581.494	27434
581.494	27411
581.550	27153
581.567	27491
581.606	28276
581.640	27904
581.661	27712
581.713	28355
581.717	28426
581.773	27416
581.786	27702
581.829	28717
581.859	28857
581.885	29035
581.932	28616
581.940	28556
581.996	29498
582.004	29438
582.052	29016
582.077	28742
582.107	28558
582.150	27918
582.163	27728
582.219	27345
582.223	27337
582.274	27425
582.296	27275
582.330	27070
582.368	27731
582.386	28061
582.441	28353
582.441	28362
582.497	27715
582.514	27792
582.552	28180
582.587	28186
582.608	28158
582.659	28615
582.663	28651
582.719	28600
582.732	28531
582.774	28592
582.805	28907
582.830	29018
582.877	29801
582.885	29973
582.941	29714
582.950	29790
582.996	29974
583.023	30798
583.052	31959
583.095	32121
583.107	32079
583.162	31001
583.168	30856
583.218	29439
583.240	29354
583.273	29354
583.313	28881
583.328	28725
583.384	28630
583.385	28612
583.439	27616
583.458	27644
583.494	28131
583.531	28736
583.549	28913
583.603	27618
583.605	27578
583.660	27629
583.676	27838
583.715	28337
583.748	28064
583.770	27950
583.820	28394
583.825	28407
583.881	28682
583.893	28432
583.936	27959
583.965	28237
583.991	28203
584.038	29017
584.046	29227
584.101	28485
584.110	28665
584.156	29258
584.183	29016
584.211	28879
584.255	29807
584.266	30011
584.321	30077
584.328	30100
584.376	30280
584.400	30567
584.431	30854
584.472	31189
584.486	31383
584.541	32166
584.545	32230
584.596	33058
584.617	33135
584.651	33419
584.689	35216
584.706	35922
584.761	35639
584.762	35660
584.816	37416
584.834	37815
584.871	38447
584.906	39344
584.926	40013
584.978	42103
584.980	42181
585.035	45709
585.051	46502
585.090	49175
585.123	52611
585.145	55046
585.195	59600
585.200	60200
585.254	68416
585.267	70810
585.309	79128
585.340	85963
585.364	92730
585.412	109237
585.419	112245
585.473	143332
585.484	152080
585.528	200514
585.556	248555
585.583	327270
585.628	512489
585.637	569853
585.692	1028674
585.700	1080243
585.747	1228854
585.772	1124764
585.801	820491
585.845	435188
585.856	376146
585.910	205915
585.917	189559
585.965	135274
585.989	113787
586.019	99141
586.061	83765
586.074	80682
586.128	69481
586.133	68769
586.183	63951
586.205	62171
586.237	60468
586.277	57461
586.292	56516
586.346	54989
586.349	54856
586.401	52428
586.421	51974
586.455	51934
586.493	51804
586.509	51936
586.564	51681
586.565	51741
586.618	55352
586.637	56968
586.672	63007
586.709	70177
586.727	73376
586.781	81486
586.781	81489
586.835	67904
586.853	64767
586.889	58389
586.925	53366
586.944	52212
586.996	50424
586.998	50377
587.052	49094
587.068	48426
587.106	48037
587.140	48599
587.161	48614
587.212	48534
587.215	48568
587.269	48177
587.284	48542
587.323	49487
587.356	49972
587.377	50437
587.427	51364
587.431	51383
587.485	51639
587.499	51813
587.539	52858
587.571	53808
587.593	54704
587.643	57570
587.648	57738
587.702	57991
587.715	58012
587.755	58160
587.786	58535
587.810	58706
587.858	59112
587.864	59165
587.917	59323
587.930	59399
587.971	59563
588.001	59887
588.025	59758
588.073	59068
588.079	59146
588.133	59964
588.145	60196
588.187	60758
588.217	61279
588.241	62181
588.288	64070
588.295	64267
588.348	66235
588.360	66522
588.402	67775
588.431	68587
588.456	69510
588.503	72278
588.510	72901
588.564	78379
588.575	79564
588.617	84884
588.646	88796
588.671	92457
588.718	101340
588.725	103868
588.778	127842
588.789	134379
588.832	186895
588.861	230163
588.886	306013
588.932	464871
588.939	479229
588.993	540464
589.004	540098
589.047	339385
589.075	217064
589.100	173559
589.147	111199
589.154	108798
589.207	95277
589.218	92948
589.261	92709
589.290	93588
589.314	95847
589.361	102191
589.368	105145
589.421	134159
589.433	142030
589.475	218286
589.504	280759
589.528	353598
589.576	480968
589.582	467403
589.635	281617
589.647	245034
589.689	152268
589.718	96505
589.742	88547
589.790	74754
589.795	74265
589.849	70803
589.861	70146
589.902	68563
589.932	66946
589.955	65655
590.004	63819
590.009	63833
590.062	63567
590.075	63553
590.115	62953
590.146	62349
590.168	61986
590.218	61141
590.222	61205
590.275	62740
590.289	63042
590.328	64062
590.360	64641
590.381	65074
590.431	66412
590.435	66395
590.488	65385
590.503	65210
590.541	66491
590.574	67519
590.594	67954
590.645	69178
590.647	69274
590.700	71287
590.716	71932
590.753	72828
590.787	73611
590.806	74580
590.859	76863
590.859	76887
590.912	76887
590.930	76886
590.965	77973
591.001	79019
591.018	78869
591.071	78291
591.072	78260
591.124	76536
591.143	75982
591.177	76879
591.214	78002
591.230	78208
591.283	78618
591.285	78602
591.336	77937
591.356	77667
591.389	77226
591.427	76560
591.442	76368
591.495	75556
591.498	75487
591.547	77362
591.569	78285
591.600	79017
591.640	79606
591.653	79825
591.706	80694
591.711	80772
591.759	82635
591.782	83636
591.811	85183
591.853	87071
591.864	87035
591.917	86835
591.924	86751
591.969	87168
591.995	87401
592.022	88160
592.066	89426
592.075	89767
592.127	91594
592.137	91905
592.180	92828
592.208	93383
592.233	94507
592.279	96506
592.285	96728
592.338	98295
592.350	98612
592.390	98032
592.421	97506
592.443	98049
592.491	99220
592.495	99442
592.548	102087
592.562	102779
592.600	102220
592.633	101669
592.653	101757
592.704	101329
592.705	101946
592.775	103976
592.846	107138
592.916	108563
592.987	108295
593.058	109302
593.128	111115
593.199	110522
593.270	113111
593.341	114389
593.411	118830
593.482	121508
593.553	125336
593.623	126211
593.694	131223
593.764	133594
593.835	131707
593.906	132070
593.976	137205
594.047	141800
594.117	147143
594.188	149475
594.258	150397
594.329	148498
594.399	151370
594.470	157920
594.540	161665
594.611	165506
594.681	164434
594.751	165171
594.822	170349
594.892	178104
594.963	182020
595.033	185391
595.103	190919
595.174	193297
595.244	200405
595.314	205260
595.384	209204
595.455	214851
595.525	221385
595.595	228929
595.665	229797
595.736	223136
595.806	228111
595.876	231615
595.946	233255
596.016	242239
596.087	252113
596.157	250230
596.227	253048
596.297	265296
596.367	280437
596.437	296150
596.507	294553
596.577	293534
596.647	303423
596.717	317839
596.787	324248
596.857	320917
596.927	324985
596.997	325316
597.067	331235
597.137	333451
597.207	334960
597.277	338341
597.347	323894
597.417	316306
597.487	314401
597.557	322952
597.626	329582
597.696	333221
597.766	332551
597.836	312561
597.906	300153
597.975	293332
598.045	302873
598.115	310935
598.185	333727
598.254	367656
598.324	396814
598.394	405798
598.464	389122
598.533	385224
598.603	364756
598.672	352510
598.742	359684
598.812	361528
598.881	368717
598.951	368770
599.020	374780
599.090	388224
599.159	392214
599.229	376390
599.299	369353
599.368	376455
599.437	375658
599.507	347743
599.576	337456
599.646	330818
599.715	327889
599.785	324491
599.854	315529
599.924	313215
599.993	309158
600.062	320784
600.132	328698
600.201	346320
600.270	395270
600.340	412114
600.409	405061
600.478	399478
600.547	408270
600.617	374125
600.686	303718
600.755	279178
600.824	265177
600.894	261203
600.963	262702
601.032	258222
601.101	250685
601.170	241118
601.239	235144
601.308	234225
601.378	236223
601.447	236886
601.516	238727
601.585	240079
601.654	244993
601.723	243738
601.792	253050
601.861	260594
601.930	268467
601.999	270478
602.068	270832
602.137	271978
602.206	279712
602.275	281572
602.343	284250
602.412	287025
602.481	290422
602.550	289623
602.619	298664
602.688	299236
602.756	302478
602.825	306148
602.894	313591
602.963	318250
603.032	321222
603.100	322500
603.169	323595
603.238	327845
603.307	327303
603.375	330865
603.444	339351
603.513	339908
603.581	344142
603.650	352523
603.719	339348
603.787	348984
603.856	356300
603.924	363603
603.993	376064
604.061	387619
604.130	400803
604.198	411566
604.267	417557
604.335	422540
604.404	428217
604.472	437282
604.541	437908
604.609	442379
604.678	442451
604.746	445013
604.815	457181
604.883	460188
604.951	461808
605.020	469617
605.088	474939
605.156	482522
605.225	488116
605.293	486118
605.361	491373
605.429	493743
605.498	504894
605.566	513129
605.634	537870
605.702	552838
605.771	561566
605.839	564037
605.907	554973
605.975	536131
606.043	529230
606.111	526390
606.180	529477
606.248	520803
606.316	515380
606.384	518611
606.452	514953
606.520	523570
606.588	541331
606.656	541318
606.724	531785
606.792	501237
606.860	460807
606.928	425287
606.996	410258
607.064	404964
607.132	414401
607.200	436830
607.267	450761
607.335	457849
607.403	464825
607.471	449767
607.539	439505
607.607	441331
607.674	395370
607.742	393505
607.810	392270
607.878	392974
607.946	400364
608.013	419406
608.081	425346
608.149	423865
608.216	442719
608.284	451746
608.352	454437
608.419	449214
608.487	442431
608.555	434767
608.622	448798
608.690	473204
608.757	515161
608.825	522784
608.893	509875
608.960	482346
609.028	464606
609.095	464404
609.163	463671
609.230	416800
609.298	389223
609.365	409718
609.432	442037
609.500	476024
609.567	533530
609.635	596273
609.702	616795
609.769	588656
609.837	480290
609.904	431333
609.971	455111
610.039	498596
610.106	618362
610.173	972016
610.241	1698998
610.308	1222696
610.375	623025
610.442	491537
610.509	456330
610.577	445717
610.644	447291
610.711	458590
610.778	467683
610.845	487149
610.912	508945
610.980	527879
611.047	526478
611.114	516062
611.181	504999
611.248	503304
611.315	523891
611.382	540464
611.449	556113
611.516	563788
611.583	559135
611.650	565476
611.717	574288
611.784	589366
611.851	619328
611.918	657117
611.984	754550
612.051	952677
612.118	1411230
612.185	2312478
612.252	1872237
612.319	993790
612.386	802165
612.452	700488
612.519	654943
612.586	629935
612.653	634124
612.719	648434
612.786	625731
612.853	584823
612.919	569223
612.986	577223
613.053	548349
613.120	522203
613.186	502202
613.253	506501
613.319	506272
613.386	508867
613.453	514522
613.519	515180
613.586	506049
613.652	510862
613.719	505276
613.785	516234
613.852	520397
613.918	520070
613.985	523771
614.051	539028
614.118	536504
614.184	516211
614.250	516124
614.317	527921
614.383	521737
614.449	531012
614.516	526706
614.582	527336
614.648	519331
614.715	517700
614.781	509255
614.847	506591
614.914	506153
614.980	491882
615.046	499728
615.112	511470
615.179	510514
615.245	515001
615.311	513381
615.377	518760
615.443	525115
615.509	533541
615.575	553954
615.642	552092
615.708	565924
615.774	597779
615.840	640818
615.906	688812
615.972	803857
616.038	1047637
616.104	1612861
616.170	2479542
616.236	2291334
616.302	1280812
616.368	1025432
616.434	813450
616.500	732443
616.565	771765
616.631	925160
616.697	832390
616.763	821783
616.829	1071207
616.895	1605249
616.961	1584316
617.026	951682
617.092	687231
617.158	602723
617.224	561183
617.289	518754
617.355	491426
617.421	479958
617.487	475765
617.552	452167
617.618	449435
617.684	448986
617.749	449501
617.815	430179
617.880	425100
617.946	422529
618.012	427930
618.077	436003
618.143	417748
618.208	422328
618.274	445258
618.339	445159
618.405	380747
618.470	378010
618.536	378965
618.601	373541
618.667	350043
618.732	336387
618.798	333037
618.863	332737
618.928	329969
618.994	333211
619.059	330139
619.124	335063
619.190	331184
619.255	329534
619.320	328692
619.386	332074
619.451	329199
619.516	316909
619.581	323219
619.647	331326
619.712	331245
619.777	317069
619.842	319161
619.907	323668
619.972	327644
620.038	325828
620.103	318807
620.168	319588
620.233	322142
620.298	325716
620.363	328146
620.428	337600
620.493	342782
620.558	346778
620.623	351349
620.688	349283
620.753	346503
620.818	355044
620.883	354395
620.948	354787
621.013	350747
621.078	345711
621.143	348186
621.207	351896
621.272	348683
621.337	337279
621.402	337365
621.467	331663
621.532	332569
621.596	333680
621.661	325552
621.726	324999
621.791	325094
621.855	326486
621.920	320882
621.985	330000
622.049	333639
622.114	333251
622.179	339685
622.243	345707
622.308	352340
622.373	365046
622.437	355821
622.502	341602
622.566	338687
622.631	337543
622.695	344562
622.760	342119
622.824	341207
622.889	345356
622.953	342948
623.018	360211
623.082	362043
623.147	360604
623.211	349672
623.276	352556
623.340	340097
623.404	330042
623.469	330777
623.533	335289
623.597	327623
623.662	325602
623.726	306945
623.790	290341
623.854	283776
623.919	287204
623.983	292945
624.047	298908
624.111	297718
624.176	302668
624.240	304778
624.304	313022
624.368	303051
624.432	304466
624.496	309515
624.560	322786
624.625	325913
624.689	321803
624.753	334701
624.817	321394
624.881	312049
624.945	290008
625.009	279119
625.073	283939
625.137	293434
625.201	304362
625.265	302808
625.329	294231
625.393	295868
625.456	298316
625.520	303060
625.584	307817
625.648	313192
625.712	320012
625.776	318407
625.839	301462
625.903	264129
625.967	245659
626.031	260157
626.095	299532
626.158	280937
626.222	229081
626.286	215308
626.349	208935
626.413	196401
626.477	194136
626.540	197002
626.604	195653
626.668	194215
626.731	189053
626.795	190006
626.858	189036
626.922	185961
626.986	183561
627.049	184510
627.113	193182
627.176	186560
627.240	181074
627.303	181027
627.366	179308
627.430	181879
627.493	181015
627.557	175496
627.620	178456
627.684	186238
627.747	185394
627.810	173280
627.874	156740
627.937	151011
628.000	157464
628.064	151699
628.127	137713
628.190	137131
628.253	132565
628.317	127144
628.380	122417
628.443	118172
628.506	118545
628.569	114217
628.632	108062
628.696	108305
628.759	107618
628.822	102897
628.885	102258
628.948	99228
629.011	98343
629.074	94967
629.137	93788
629.200	89342
629.263	91138
629.326	88097
629.389	89324
629.452	87359
629.515	86140
629.578	85065
629.641	86168
629.704	85825
629.767	84380
629.830	81687
629.892	81851
629.955	80594
630.018	84212
630.081	81520
630.144	80705
630.207	79195
630.269	81399
630.332	77124
630.395	77764
630.458	75921
630.520	74608
630.583	75021
630.646	76915
630.708	77681
630.771	78212
630.834	81227
630.896	79879
630.959	79095
631.021	78139
631.084	77587
631.146	79417
631.209	79745
631.272	80360
631.334	83934
631.397	85917
631.459	84681
631.522	90571
631.584	93385
631.646	100697
631.709	101581
631.771	102955
631.834	100332
631.896	94408
631.958	88193
632.021	84412
632.083	78177
632.145	78979
632.208	77658
632.270	76182
632.332	75077
632.395	74646
632.457	74762
632.519	73074
632.581	74338
632.643	73369
632.706	73263
632.768	71396
632.830	73127
632.892	74253
632.954	74788
633.016	76538
633.078	73606
633.141	74134
633.203	74757
633.265	75007
633.327	73808
633.389	75784
633.451	77129
633.513	78150
633.575	78452
633.637	78643
633.698	81082
633.760	85564
633.822	89030
633.884	92211
633.946	94932
634.008	99027
634.070	103823
634.132	108152
634.193	118600
634.255	129166
634.317	130018
634.379	127495
634.441	113867
634.502	105634
634.564	96623
634.626	88761
634.687	84602
634.749	80227
634.811	79832
634.873	77540
634.934	79068
634.996	78208
635.057	77480
635.119	79890
635.181	81365
635.242	82977
635.304	80518
635.365	84293
635.427	81356
635.488	82728
635.550	82537
635.611	85945
635.673	85890
635.734	94583
635.796	98315
635.857	109518
635.918	116054
635.980	128094
636.041	136876
636.102	142192
636.164	145547
636.225	139224
636.286	121023
636.348	110176
636.409	99154
636.470	91128
636.531	85689
636.593	81301
636.654	78218
636.715	75774
636.776	74715
636.838	69712
636.899	69574
636.960	68471
637.021	66346
637.082	65144
637.143	64040
637.204	61802
637.265	62465
637.326	63403
637.387	64786
637.448	64150
637.509	63435
637.570	63714
637.631	62645
637.692	59069
637.753	58194
637.814	59317
637.875	57973
637.936	58535
637.997	57674
638.058	57543
638.119	57738
638.179	58572
638.240	56886
638.301	57748
638.362	54692
638.423	55162
638.483	54585
638.544	53080
638.605	54269
638.666	53445
638.726	53728
638.787	54687
638.848	53244
638.908	52906
638.969	49883
639.030	50038
639.090	50332
639.151	51134
639.211	52148
639.272	53105
639.332	54419
639.393	56404
639.453	59863
639.514	62476
639.574	55349
639.635	50022
639.695	49356
639.756	48074
639.816	47757
639.877	49196
639.937	50057
639.997	50170
640.058	48252
640.118	48190
640.178	49615
640.239	49526
640.299	49744
640.359	51412
640.420	56050
640.480	62127
640.540	70114
640.600	73139
640.661	67785
640.721	64834
640.781	69308
640.841	66119
640.901	54309
640.961	53141
641.021	54998
641.082	58079
641.142	52929
641.202	49628
641.262	45629
641.322	48265
641.382	46380
641.442	46813
641.502	46189
641.562	48706
641.622	49160
641.682	54629
641.742	61580
641.802	59227
641.861	51078
641.921	46917
641.981	44512
642.041	44014
642.101	43741
642.161	42272
642.221	43037
642.280	44425
642.340	44157
642.400	44004
642.460	46530
642.519	45880
642.579	44908
642.639	46938
642.698	44688
642.758	51108
642.818	48204
642.877	47090
642.937	46593
642.997	48366
643.056	47218
643.116	47397
643.175	49865
643.235	51181
643.294	53321
643.354	56960
643.414	64112
643.473	75758
643.532	93951
643.592	123218
643.651	174849
643.711	270711
643.770	464511
643.830	907867
643.889	1449604
643.948	655146
644.008	207174
644.067	118424
644.126	85636
644.186	71774
644.245	63075
644.304	56290
644.363	56444
644.423	52138
644.482	54701
644.541	58915
644.600	62890
644.659	76431
644.719	94125
644.778	131769
644.837	199961
644.896	376440
644.955	763899
645.014	335356
645.073	100085
645.132	73186
645.191	65453
645.250	61173
645.309	63877
645.368	70756
645.427	89006
645.486	149394
645.545	259087
645.604	94228
645.663	56460
645.722	56501
645.781	61915
645.840	69717
645.898	84816
645.957	114188
646.016	161358
646.075	252807
646.134	437932
646.192	924853
646.251	1210418
646.310	399975
646.369	143719
646.427	107345
646.486	80499
646.545	60118
646.603	54517
646.662	51385
646.721	49115
646.779	50107
646.838	53779
646.896	66390
646.955	84724
647.014	125476
647.072	225453
647.131	552645
647.189	321999
647.248	68849
647.306	47359
647.365	42021
647.423	35684
647.481	37759
647.540	35077
647.598	35903
647.657	33274
647.715	34131
647.773	31548
647.832	33081
647.890	29082
647.948	30414
648.007	29903
648.065	27970
648.123	27956
648.181	30573
648.240	28273
648.298	28657
648.356	26969
648.414	28253
648.472	26833
648.531	27106
648.589	26958
648.647	27784
648.705	26939
648.763	28614
648.821	30918
648.879	33267
648.937	37781
648.995	46952
649.053	60627
649.111	83757
649.169	124971
649.227	203224
649.285	395594
649.343	902646
649.401	551244
649.459	121536
649.516	63871
649.574	49935
649.632	50644
649.690	56676
649.748	66768
649.806	93211
649.863	165467
649.921	413727
649.979	319835
650.037	59936
650.094	32664
650.152	29210
650.210	26015
650.268	25934
650.325	27054
650.383	31324
650.440	23351
650.498	21679
650.556	21219
650.613	20217
650.671	20600
650.728	21198
650.786	22955
650.843	33611
650.901	27062
650.958	19109
651.016	18305
651.073	18267
651.131	17793
651.188	16155
651.246	16964
651.303	16101
651.360	17127
651.418	16551
651.475	16293
651.532	15564
651.590	16350
651.647	15669
651.704	15935
651.762	15391
651.819	15009
651.876	14906
651.933	14907
651.990	16183
652.048	13714
652.105	13727
652.162	14666
652.219	14654
652.276	13948
652.333	14795
652.390	12944
652.448	14818
652.505	13905
652.562	13978
652.619	13070
652.676	13965
652.733	15196
652.790	13147
652.847	11647
652.904	13354
652.961	11127
653.017	12445
653.074	13756
653.131	13685
653.188	10974
653.245	13398
653.302	12796
653.359	13180
653.415	12895
653.472	12650
653.529	13133
653.586	12117
653.642	12412
653.699	13934
653.756	12104
653.813	13728
653.869	14308
653.926	13714
653.983	12732
654.039	13253
654.096	13126
654.152	12964
654.209	10960
654.266	12866
654.322	11010
654.379	12878
654.435	12627
654.492	13136
654.548	11533
654.605	12644
654.661	13713
654.717	12558
654.774	11959
654.830	12044
654.887	12174
654.943	13159
655.000	15419
655.056	13858
655.112	12306
655.168	12162
655.225	13656
655.281	13595
655.337	12494
655.394	13088
655.450	11823
655.506	11666
655.562	12002
655.618	13158
655.675	11471
655.731	11426
655.787	10577
655.843	12949
655.899	11773
655.955	12345
656.011	12367
656.067	11969
656.123	12624
656.179	13424
656.235	13363
656.291	12694
656.347	13591
656.403	12447
656.459	12472
656.515	12885
656.571	11102
656.627	11918
656.683	11460
656.739	12290
656.795	10982
656.850	11377
656.906	12843
656.962	12884
657.018	14095
657.074	17572
657.129	21433
657.185	32716
657.241	70110
657.297	49532
657.352	14003
657.408	12343
657.464	12326
657.519	10744
657.575	9849
657.630	10646
657.686	10498
657.742	10578
657.797	10281
657.853	11662
657.908	11077
657.964	10554
658.019	10924
658.075	11229
658.130	10685
658.186	9872
658.241	10728
658.297	10159
658.352	10275
658.407	10049
658.463	9184
658.518	11207
658.573	10457
658.629	10155
658.684	9490
658.739	10531
658.795	9224
658.850	10708
658.905	8898
658.960	9619
659.016	9579
659.071	9774
659.126	9791
659.181	10199
659.236	10170
659.291	10190
659.346	8729
659.401	9714
659.457	9737
659.512	9452
659.567	9545
659.622	10487
659.677	8485
659.732	9118
659.787	8626
659.842	9121
659.897	8485
659.952	9190
660.007	9715
660.061	9962
660.116	8171
660.171	8895
660.226	9235
660.281	11178
660.336	8902
660.391	10010
660.445	7668
660.500	9761
660.555	8482
660.610	8002
660.664	9233
660.719	9365
660.774	7997
660.828	9328
660.883	7951
660.938	9207
660.992	7621
661.047	9496
661.101	7717
661.156	9252
661.211	7802
661.265	8665
661.320	8767
661.374	9544
661.429	8425
661.483	10363
661.538	8657
661.592	9191
661.647	10476
661.701	14207
661.755	10708
661.810	8916
661.864	7484
661.919	8229
661.973	9047
662.027	8871
662.081	6856
662.136	8472
662.190	8401
662.244	7967
662.299	8192
662.353	9513
662.407	7890
662.461	8624
662.515	8619
662.569	7206
662.624	7908
662.678	8732
662.732	8035
662.786	8232
662.840	8697
662.894	8284
662.948	8889
663.002	8414
663.056	8331
663.110	7319
663.164	7845
663.218	8965
663.272	8977
663.326	9333
663.380	8372
663.434	10039
663.488	7948
663.542	9140
663.595	8323
663.649	9524
663.703	8460
663.757	9064
663.811	7678
663.864	8013
663.918	7647
663.972	9774
664.026	8209
664.079	8949
664.133	8709
664.187	9971
664.240	9073
664.294	9420
664.348	9347
664.401	8762
664.455	8926
664.508	7890
664.562	8111
664.615	9718
664.669	8131
664.722	8420
664.776	8832
664.829	8804
664.883	8726
664.936	8047
664.990	8104
665.043	8695
665.097	8337
665.150	10128
665.203	8448
665.257	8364
665.310	9895
665.363	9852
665.417	9040
665.470	9903
665.523	9352
665.576	9697
665.630	9724
665.683	9799
665.736	9755
665.789	9774
665.842	8443
665.895	9845
665.949	9528
666.002	9675
666.055	9814
666.108	9465
666.161	8758
666.214	10675
666.267	10356
666.320	11234
666.373	10469
666.426	10187
666.479	10053
666.532	10456
666.585	11208
666.638	11492
666.691	10454
666.744	10603
666.796	9497
666.849	9945
666.902	9876
666.955	10046
667.008	9582
667.060	10312
667.113	9594
667.166	9936
667.219	10041
667.271	11197
667.324	10693
667.377	10251
667.430	9465
667.482	10952
667.535	9560
667.587	10103
667.640	9151
667.693	9641
667.745	9073
667.798	10915
667.850	9918
667.903	9869
667.955	10017
668.008	10347
668.060	10041
668.113	8909
668.165	9411
668.218	9460
668.270	9318
668.322	9582
668.375	7851
668.427	9803
668.479	9317
668.532	10414
668.584	8618
668.636	9427
668.689	9107
668.741	9346
668.793	9177
668.845	9207
668.898	9526
668.950	9030
669.002	8643
669.054	9350
669.106	8596
669.158	8645
669.211	7876
669.263	8776
669.315	9416
669.367	8711
669.419	7821
669.471	9865
669.523	8163
669.575	9235
669.627	8243
669.679	8765
669.731	9391
669.783	8760
669.835	9125
669.886	8874
669.938	8534
669.990	9270
670.042	8572
670.094	8535
670.146	8328
670.197	9604
670.249	9676
670.301	10458
670.353	11442
670.404	13072
670.456	14989
670.508	18799
670.560	24109
670.611	33133
670.663	47592
670.715	97138
670.766	156780
670.818	66404
670.869	19424
670.921	14917
670.972	14344
671.024	12741
671.075	11472
671.127	12963
671.178	13438
671.230	14995
671.281	16656
671.333	20502
671.384	23651
671.436	30784
671.487	41150
671.538	57434
671.590	81295
671.641	121231
671.692	196789
671.744	338938
671.795	311071
671.846	159019
671.897	83325
671.949	52740
672.000	36370
672.051	27429
672.102	20984
672.153	18189
672.204	15647
672.256	14097
672.307	13231
672.358	12391
672.409	11341
672.460	10716
672.511	9724
672.562	9520
672.613	8300
672.664	8857
672.715	8235
672.766	8725
672.817	6637
672.868	8243
672.919	7400
672.970	7526
673.021	7407
673.071	7043
673.122	7523
673.173	6904
673.224	7416
673.275	6935
673.326	6672
673.376	6929
673.427	5964
673.478	6696
673.528	7584
673.579	6935
673.630	7351
673.680	7501
673.731	6460
673.782	7491
673.832	6367
673.883	6959
673.934	6184
673.984	6606
674.035	6063
674.085	8149
674.136	6922
674.186	8083
674.237	7421
674.287	8047
674.338	7131
674.388	8382
674.438	7828
674.489	9055
674.539	8905
674.589	9158
674.640	9019
674.690	7871
674.740	8339
674.791	7461
674.841	7513
674.891	6992
674.942	5984
674.992	5891
675.042	6249
675.092	6649
675.142	5220
675.193	6705
675.243	5696
675.293	7222
675.343	6358
675.393	6539
675.443	6932
675.493	7113
675.543	4991
675.593	6360
675.643	6615
675.693	6352
675.743	5862
675.793	5950
675.843	4771
675.893	4420
675.943	5422
675.993	5643
676.043	5485
676.093	5676
676.142	5273
676.192	5479
676.242	5361
676.292	5872
676.341	4731
676.391	4196
676.441	4407
676.491	4839
676.540	3890
676.590	4807
676.640	5006
676.689	4490
676.739	3952
676.789	4895
676.838	3654
676.888	5015
676.937	3105
676.987	5294
677.037	4860
677.086	4440
677.136	3899
677.185	4426
677.235	4072
677.284	4976
677.333	4215
677.383	4415
677.432	3258
677.482	3631
677.531	2775
677.580	3872
677.630	3990
677.679	4394
677.728	4167
677.778	4592
677.827	3533
677.876	4667
677.925	4960
677.975	5437
678.024	5094
678.073	5122
678.122	4553
678.171	5851
678.220	6529
678.269	6848
678.319	8050
678.368	8805
678.417	5953
678.466	6945
678.515	5552
678.564	4820
678.613	4342
678.662	4464
678.711	3863
678.760	3977
678.809	4685
678.857	5390
678.906	4649
678.955	5246
679.004	5344
679.053	5134
679.102	5293
679.151	5634
679.199	3164
679.248	4165
679.297	3851
679.346	3245
679.394	3651
679.443	3626
679.492	4155
679.540	4657
679.589	3953
679.638	5059
679.686	4691
679.735	4634
679.784	6531
679.832	7593
679.881	5505
679.929	5911
679.978	3926
680.026	4191
680.075	4454
680.123	3947
680.172	3565
680.220	3910
680.268	3824
680.317	4198
680.365	3369
680.414	2819
680.462	3234
680.510	4449
680.559	3352
680.607	4062
680.655	2953
680.703	3444
680.752	3356
680.800	4373
680.848	3050
680.896	2978
680.945	3789
680.993	3520
681.041	2567
681.089	3932
681.137	3083
681.185	3937
681.233	4080
681.258	3664
681.281	3257
681.329	2124
681.377	3800
681.380	3805
681.425	3662
681.473	4008
681.502	3966
681.521	3905
681.569	4857
681.617	4409
681.624	4342
681.665	3801
681.713	3298
681.745	3784
681.761	3996
681.809	3546
681.857	5367
681.867	5042
681.904	3837
681.952	4471
681.989	3986
682.000	3830
682.048	3787
682.096	3591
682.111	3546
682.143	3373
682.191	3811
682.233	4078
682.239	4108
682.286	4304
682.334	4785
682.354	4363
682.382	3756
682.430	4598
682.476	4118
682.477	4094
682.525	4430
682.572	4142
682.598	4405
682.620	4594
682.667	3615
682.715	4429
682.720	4422
682.763	4236
682.810	4736
682.841	4298
682.857	4052
682.905	3681
682.952	4442
682.963	4520
683.000	4766
683.047	4390
683.085	4884
683.095	5001
683.142	4189
683.190	4255
683.206	4214
683.237	4087
683.284	3657
683.328	4271
683.332	4310
683.379	4691
683.426	4173
683.449	4695
683.473	5247
683.521	3617
683.568	5053
683.571	5031
683.615	4473
683.662	4845
683.693	4308
683.709	4007
683.757	3750
683.804	4292
683.814	4331
683.851	4423
683.898	4711
683.936	4342
683.945	4247
683.992	4468
684.039	4350
684.057	4284
684.086	4183
684.133	4518
684.179	3722
684.180	3681
684.227	5181
684.274	4638
684.300	4476
684.321	4400
684.368	4329
684.415	4528
684.422	4445
684.462	3907
684.509	4734
684.543	4743
684.556	4719
684.603	4922
684.649	4610
684.665	4857
684.696	5339
684.743	5574
684.786	5944
684.790	5963
684.837	4638
684.883	5353
684.908	5205
684.930	5139
684.977	5654
685.023	5160
685.029	5268
685.070	5810
685.117	4340
685.150	5590
685.164	6128
685.210	5322
685.257	6296
685.272	6310
685.303	6237
685.350	5645
685.393	5334
685.396	5299
685.443	5091
685.490	5047
685.514	5369
685.536	5694
685.583	4709
685.629	5196
685.636	5173
685.675	4970
685.722	5211
685.757	4821
685.768	4713
685.815	5194
685.861	5206
685.878	5237
685.908	5264
685.954	5095
686.000	5652
686.000	5657
686.047	5304
686.093	5982
686.121	5821
686.139	5714
686.185	6001
686.232	5804
686.242	5942
686.278	6302
686.324	5688
686.363	5697
686.370	5705
686.416	5179
686.463	6003
686.484	5634
686.509	5242
686.555	6214
686.601	5375
686.606	5450
686.647	5998
686.693	5481
686.727	5445
686.739	5461
686.785	4987
686.831	5514
686.848	5588
686.877	5795
686.923	5641
686.969	6122
686.969	6123
687.015	6401
687.061	6136
687.090	7035
687.107	7528
687.153	6839
687.199	6874
687.211	6606
687.245	5801
687.291	6331
687.332	6156
687.336	6170
687.382	7096
687.428	6705
687.453	7051
687.474	7167
687.520	6587
687.565	7208
687.574	7137
687.611	7239
687.657	7960
687.695	8258
687.702	8401
687.748	10597
687.794	12241
687.816	12598
687.839	12006
687.885	8912
687.931	8086
687.937	7878
687.976	7362
688.022	7393
688.058	7231
688.067	7186
688.113	6863
688.158	6669
688.179	6640
688.204	6847
688.249	6870
688.295	7516
688.300	7487
688.340	7185
688.386	7818
688.421	7316
688.431	7164
688.477	7468
688.522	7266
688.542	7429
688.567	7729
688.613	7628
688.658	7959
688.663	7924
688.703	7492
688.749	7540
688.784	7185
688.794	7116
688.839	7684
688.884	7535
688.905	7551
688.930	7496
688.975	7095
689.020	7358
689.026	7279
689.065	7085
689.110	7698
689.146	7706
689.155	7706
689.201	8115
689.246	8401
689.267	8571
689.291	8524
689.336	7564
689.381	7448
689.388	7352
689.426	7255
689.471	7785
689.509	7676
689.516	7616
689.561	8097
689.606	7287
689.630	7323
689.651	7437
689.696	7196
689.741	7460
689.750	7510
689.785	7828
689.830	8049
689.871	7569
689.875	7522
689.920	8066
689.965	7378
689.992	7702
690.010	7866
690.054	7369
690.099	7598
690.112	7483
690.144	7321
690.189	7737
690.233	7272
690.233	7280
690.278	7835
690.323	7857
690.354	8231
690.367	8265
690.412	7821
690.457	7747
690.474	7592
690.501	7440
690.546	7840
690.590	7321
690.595	7338
690.635	7790
690.680	7613
690.716	7687
690.724	7673
690.769	7537
690.813	8319
690.836	7927
690.857	7865
690.902	8884
690.946	9045
690.957	9118
690.991	9550
691.035	10470
691.077	11685
691.080	11708
691.124	10850
691.168	10515
691.198	9858
691.213	9536
691.257	9174
691.301	8437
691.318	8426
691.346	8761
691.390	8103
691.434	8358
691.439	8338
691.478	8298
691.522	8673
691.559	8628
691.567	8634
691.611	8961
691.655	8597
691.680	8863
691.699	9058
691.743	8605
691.787	8905
691.800	8725
691.831	8424
691.875	8564
691.919	8629
691.921	8616
691.964	8572
692.008	8621
692.041	8587
692.052	8589
692.096	8690
692.139	8664
692.162	8495
692.183	8378
692.227	8564
692.271	8267
692.282	8281
692.315	8463
692.359	8527
692.402	8634
692.403	8649
692.447	8660
692.490	8616
692.523	8506
692.534	8571
692.578	8993
692.622	8659
692.643	8949
692.666	9053
692.709	8929
692.753	8487
692.763	8450
692.797	8509
692.840	8290
692.884	8303
692.884	8320
692.928	8531
692.971	8835
693.004	8951
693.015	8905
693.059	8396
693.102	8699
693.124	8511
693.146	8421
693.189	8380
693.233	8368
693.245	8342
693.276	8490
693.320	8691
693.363	8701
693.365	8690
693.407	8752
693.450	8762
693.485	8815
693.493	8861
693.537	9205
693.580	9144
693.605	9381
693.624	9692
693.667	9701
693.710	10541
693.725	10554
693.753	11409
693.797	13341
693.840	15172
693.845	15339
693.883	14654
693.926	13458
693.966	12749
693.970	12674
694.013	11601
694.056	10599
694.086	9691
694.099	9661
694.142	9615
694.185	9878
694.206	9864
694.229	9852
694.272	9736
694.315	9745
694.326	9763
694.358	9791
694.401	9649
694.444	9456
694.446	9424
694.487	9520
694.530	9650
694.566	9857
694.573	9850
694.616	9512
694.659	9439
694.686	9289
694.702	9371
694.745	9583
694.787	9580
694.806	9658
694.830	9721
694.873	9483
694.916	9637
694.926	9607
694.959	9863
695.002	10046
695.044	10458
695.046	10461
695.087	10767
695.130	10541
695.166	10589
695.172	10656
695.215	10741
695.258	11112
695.286	11101
695.301	11138
695.343	11511
695.386	11695
695.406	11770
695.428	12254
695.471	13072
695.514	14237
695.526	14461
695.556	15202
695.599	16498
695.641	17268
695.646	17362
695.684	16637
695.726	15352
695.766	14484
695.769	14491
695.811	13967
695.854	13568
695.886	13122
695.896	13188
695.938	13505
695.981	13812
696.005	13890
696.023	14304
696.065	15357
696.108	16547
696.125	16869
696.150	16916
696.192	17233
696.235	17215
696.245	17284
696.277	17669
696.319	17648
696.361	17788
696.365	17772
696.404	17699
696.446	17480
696.485	17222
696.488	17262
696.530	17345
696.572	17363
696.604	17426
696.614	17436
696.656	17072
696.698	17088
696.724	16911
696.740	17034
696.783	17211
696.825	17543
696.844	17619
696.867	17590
696.909	17341
696.951	17332
696.964	17268
696.992	17738
697.034	18389
697.076	18906
697.083	18971
697.118	19314
697.160	19574
697.202	19940
697.203	19904
697.244	19683
697.286	19485
697.323	19151
697.327	19186
697.369	19196
697.411	19118
697.442	19123
697.453	19194
697.494	19194
697.536	19239
697.562	19215
697.578	19191
697.620	18998
697.661	18855
697.682	18751
697.703	19305
697.744	20301
697.786	21316
697.801	21605
697.828	21345
697.869	20897
697.911	20435
697.921	20281
697.952	20350
697.994	20366
698.035	20403
698.040	20359
698.077	20665
698.118	20956
698.160	21261
698.160	21214
698.201	22074
698.243	22848
698.279	23574
698.284	23664
698.325	23937
698.367	24241
698.399	24366
698.408	24499
698.449	24928
698.491	25322
698.518	25510
698.532	25535
698.573	25448
698.614	25398
698.638	25277
698.656	25274
698.697	25165
698.738	25063
698.757	24959
698.779	24982
698.820	24897
698.862	24828
698.877	24740
698.903	24790
698.944	24795
698.985	24792
698.996	24738
699.026	24844
699.067	24909
699.116	24932
699.235	23873
699.354	24475
699.474	23589
699.593	22302
699.713	22500
699.832	23331
699.951	23568
700.070	25189
700.190	21920
700.309	21226
700.428	21868
700.547	20238
700.667	21097
700.786	20378
700.905	20347
701.024	19926
701.143	19637
701.262	22050
701.381	21972
701.500	22119
701.619	20768
701.738	21871
701.857	20903
701.976	19343
702.095	20294
702.214	21882
702.333	20042
702.452	21861
702.571	21921
702.690	20932
702.809	20616
702.928	19597
703.047	18960
703.165	19893
703.284	19220
703.403	19341
703.522	19088
703.640	18746
703.759	19440
703.878	17842
703.997	17641
704.115	19619
704.234	18703
704.353	19692
704.471	17551
704.590	17984
704.708	17254
704.827	17000
704.946	16734
705.064	17354
705.183	15676
705.301	17299
705.420	16670
705.538	16319
705.656	14839
705.775	14760
705.893	17614
706.012	16342
706.130	15410
706.249	16007
706.367	15610
706.485	15473
706.604	14012
706.722	15266
706.840	19716
706.958	28934
707.077	19557
707.195	15526
707.313	14875
707.431	13464
707.549	13769
707.668	12677
707.786	15541
707.904	13898
708.022	15327
708.140	14384
708.258	13927
708.376	15653
708.494	13480
708.612	16106
708.730	15697
708.848	15094
708.966	14553
709.084	14938
709.202	14284
709.320	12283
709.438	13376
709.556	12527
709.674	12200
709.791	11839
709.909	11752
710.027	12940
710.145	11802
710.263	11859
710.380	12188
710.498	11498
710.616	11693
710.733	11164
710.851	11988
710.969	12237
711.086	10637
711.204	11564
711.322	11697
711.439	11481
711.557	10584
711.674	11282
711.792	11839
711.909	10737
712.027	11465
712.144	10844
712.262	11710
712.379	10548
712.497	10524
712.614	10841
712.732	11886
712.849	11090
712.966	11829
713.084	12961
713.201	9307
713.318	12117
713.436	14093
713.553	12837
713.670	15328
713.787	13717
713.905	14147
714.022	14393
714.139	16479
714.256	23984
714.373	39825
714.490	86056
714.608	250174
714.725	924379
714.842	730098
714.959	83520
715.076	32489
715.193	24016
715.310	19431
715.427	14239
715.544	14029
715.661	13534
715.778	10840
715.895	12333
716.011	12527
716.128	11301
716.245	12308
716.362	10395
716.479	9697
716.596	10412
716.713	11117
716.829	10376
716.946	8793
717.063	9044
717.180	8373
717.296	9460
717.413	9005
717.530	9165
717.646	8328
717.763	8871
717.880	8618
717.996	8417
718.113	6928
718.229	7594
718.346	8232
718.462	7163
718.579	8148
718.695	8312
718.812	8698
718.928	8515
719.045	8085
719.161	8301
719.277	9445
719.394	9794
719.510	9968
719.626	12438
719.743	19152
719.859	36054
719.975	90292
720.092	381237
720.208	637003
720.324	76031
720.440	20440
720.557	13668
720.673	11894
720.789	10945
720.905	9418
721.021	8460
721.137	7519
721.253	8705
721.369	7922
721.486	8752
721.602	7842
721.718	7528
721.834	7085
721.950	7572
722.066	6650
722.181	6460
722.297	7827
722.413	6451
722.529	7837
722.645	7152
722.761	7114
722.877	8054
722.993	10324
723.108	14452
723.224	12254
723.340	7152
723.456	7073
723.571	7275
723.687	6543
723.803	7100
723.918	6373
724.034	5974
724.150	6512
724.265	6417
724.381	5228
724.497	6283
724.612	6291
724.728	6862
724.843	5332
724.959	5920
725.074	6944
725.190	6646
725.305	5748
725.421	5148
725.536	6135
725.651	6531
725.767	6217
725.882	6829
725.997	6266
726.113	6436
726.228	5866
726.343	5852
726.459	5663
726.574	7076
726.689	5297
726.804	5931
726.920	5965
727.035	6326
727.150	5759
727.265	5727
727.380	6250
727.495	5646
727.610	6121
727.725	6163
727.841	5935
727.956	6789
728.071	6456
728.186	5896
728.301	5734
728.416	6793
728.531	5746
728.645	5332
728.760	5444
728.875	6971
728.990	5732
729.105	5457
729.220	5786
729.335	5739
729.449	6318
729.564	5636
729.679	5259
729.794	6737
729.908	6179
730.023	6810
730.138	6317
730.253	6588
730.367	6176
730.482	7123
730.596	7276
730.711	8720
730.826	13890
730.940	13224
731.055	9017
731.169	9059
731.284	9506
731.398	9762
731.513	11557
731.627	13382
731.742	16782
731.856	21136
731.970	24390
732.085	34023
732.199	56061
732.313	111374
732.428	296106
732.542	693574
732.656	328641
732.771	73038
732.885	39593
732.999	31211
733.113	27911
733.227	25887
733.342	22662
733.456	22735
733.570	20894
733.684	20274
733.798	18553
733.912	19716
734.026	19031
734.140	18321
734.254	17207
734.368	18282
734.482	17955
734.596	18192
734.710	17032
734.824	16581
734.938	16684
735.052	16942
735.166	17312
735.280	16325
735.393	15860
735.507	16601
735.621	15642
735.735	15311
735.849	16444
735.962	14687
736.076	16162
736.190	14797
736.303	14915
736.417	15161
736.531	14114
736.644	14417
736.758	14456
736.872	14618
736.985	13309
737.099	13658
737.212	13429
737.326	13339
737.439	14023
737.553	13299
737.666	13828
737.780	12946
737.893	13485
738.007	13588
738.120	13694
738.233	12266
738.347	12982
738.460	12218
738.573	13800
738.687	12918
738.800	13041
738.913	12834
739.026	12046
739.140	12673
739.253	12336
739.366	11599
739.479	12247
739.592	12225
739.705	10964
739.818	13831
739.932	11816
740.045	12851
740.158	11378
740.271	11754
740.384	11611
740.497	10103
740.610	12821
740.723	11416
740.836	11491
740.949	11777
741.062	12123
741.174	10931
741.287	10990
741.400	11313
741.513	9503
741.626	11397
741.739	10171
741.851	11450
741.964	11643
742.077	10830
742.189	9844
742.302	11881
742.415	10476
742.527	9972
742.640	10274
742.753	8823
742.865	10687
742.978	10122
743.090	10138
743.203	10316
743.316	9197
743.428	10099
743.541	9788
743.653	8901
743.766	9580
743.878	10283
743.990	8263
744.103	11242
744.215	10563
744.327	8856
744.440	11667
744.552	8942
744.664	8581
744.777	10437
744.889	8239
745.001	9229
745.113	9566
745.226	8796
745.338	8492
745.450	10735
745.562	9090
745.674	8370
745.786	10270
745.898	8416
746.010	8291
746.122	9391
746.234	8548
746.347	9696
746.459	9099
746.570	7741
746.682	9633
746.794	12164
746.906	7098
747.018	7936
747.130	9040
747.242	7311
747.354	7654
747.466	8655
747.577	7296
747.689	8872
747.801	8446
747.913	6782
748.024	7363
748.136	8101
748.248	7030
748.359	7191
748.471	8954
748.583	6816
748.694	6841
748.806	8204
748.918	6993
749.029	6840
749.141	7288
749.252	8462
749.364	5952
749.475	6748
749.587	6435
749.698	6486
749.809	7217
749.921	7024
750.032	7438
750.144	5831
750.255	6458
750.366	7407
750.478	6484
750.589	6760
750.700	6727
750.811	6357
750.923	6424
751.034	6243
751.145	8051
751.256	6307
751.367	6378
751.479	6382
751.590	5449
751.701	6712
751.812	5417
751.923	5633
752.034	7924
752.145	7307
752.256	7122
752.367	6062
752.478	6231
752.589	6705
752.700	6159
752.811	6012
752.922	6342
753.032	8229
753.143	6631
753.254	5952
753.365	8131
753.476	8223
753.586	6441
753.697	6730
753.808	5756
753.919	5700
754.029	6215
754.140	4925
754.251	5714
754.361	5789
754.472	7071
754.582	5239
754.693	6694
754.804	7363
754.914	6203
755.025	5680
755.135	5926
755.246	6606
755.356	5116
755.466	5149
755.577	5602
755.687	6029
755.798	5903
755.908	5715
756.018	5910
756.129	6454
756.239	6176
756.349	7408
756.460	7216
756.570	8474
756.680	5285
756.790	6003
756.900	5583
757.011	5132
757.121	4638
757.231	5831
757.341	5639
757.451	4473
757.561	4770
757.671	4880
757.781	5329
757.891	5260
758.001	5323
758.111	7714
758.221	6969
758.331	8056
758.441	7176
758.551	6138
758.661	8254
758.771	8545
758.880	7111
758.990	6983
759.100	6932
759.210	6826
759.320	7922
759.429	7298
759.539	8664
759.649	10593
759.758	11872
759.868	13006
759.978	11732
760.087	14070
760.197	14057
760.307	12761
760.416	11322
760.526	10306
760.635	11328
760.745	13122
760.854	13679
760.964	16348
761.073	15727
761.182	15532
761.292	12082
761.401	9784
761.511	8710
761.620	7728
761.729	7160
761.839	6971
761.948	5907
762.057	6168
762.166	6067
762.276	5377
762.385	6868
762.494	6477
762.603	5832
762.712	6330
762.822	5461
762.931	5126
763.040	4412
763.149	4497
763.258	4788
763.367	4607
763.476	5108
763.585	5118
763.694	5635
763.803	5254
763.912	5273
764.021	5263
764.130	5535
764.238	6100
764.347	6726
764.456	7435
764.565	6351
764.674	6195
764.783	5543
764.891	6581
765.000	7198
765.109	6783
765.217	6069
765.326	7025
765.435	8221
765.543	8969
765.652	10827
765.761	13450
765.869	17234
765.978	24089
766.086	39211
766.195	68941
766.303	146522
766.412	324449
766.520	253206
766.629	91436
766.737	43362
766.846	28381
766.954	19690
767.062	16016
767.171	12369
767.279	10785
767.387	9214
767.496	8477
767.604	6521
767.712	6032
767.820	6501
767.928	6237
768.037	4809
768.145	6616
768.253	6250
768.361	5747
768.469	5526
768.577	5676
768.685	5984
768.793	6501
768.901	5762
769.009	7301
769.117	7596
769.225	9066
769.333	12723
769.441	17543
769.549	29925
769.657	60756
769.765	157753
769.873	265449
769.981	105279
770.088	36271
770.196	19653
770.304	15365
770.412	11702
770.519	10516
770.627	8670
770.735	7589
770.842	7385
770.950	7435
771.058	7728
771.165	8872
771.273	8773
771.380	9700
771.488	13940
771.595	14559
771.703	12407
771.810	11788
771.918	12106
772.025	14656
772.133	16443
772.240	15275
772.348	17482
772.455	16163
772.562	14543
772.670	14407
772.777	15154
772.884	14670
772.991	13854
773.099	14908
773.206	13192
773.313	13962
773.420	14088
773.528	13200
773.635	13033
773.742	13753
773.849	12943
773.956	13789
774.063	13408
774.170	12737
774.277	12988
774.384	12324
774.491	11858
774.598	12970
774.705	12239
774.812	12777
774.919	12319
775.026	11974
775.133	12396
775.239	12334
775.346	10816
775.453	12571
775.560	10901
775.667	12031
775.773	11097
775.880	11279
775.987	11428
776.093	11328
776.200	12092
776.307	8915
776.413	10068
776.520	12619
776.627	10658
776.733	10417
776.840	9180
776.946	14005
777.053	11952
777.159	14152
777.266	9832
777.372	13358
777.478	13088
777.585	11678
777.691	8291
777.798	11756
777.904	9306
778.010	9314
778.117	9845
778.223	8887
778.329	8968
778.435	7688
778.542	10762
778.648	9070
778.754	8365
778.860	9300
778.966	9348
779.072	8886
779.178	8564
779.284	7642
779.391	8804
779.497	8801
779.603	9854
779.708	7133
779.815	9101
779.920	14915
780.026	16036
780.132	9003
780.238	7195
780.344	7972
780.450	10900
780.556	6142
780.661	7659
780.767	9694
780.873	5122
780.979	7001
781.085	8932
781.190	7917
781.296	7089
781.402	7546
781.507	7673
781.613	5937
781.719	7957
781.824	9038
781.930	8077
782.035	7820
782.141	8567
782.246	5416
782.352	6952
782.457	7687
782.563	7067
782.668	7215
782.773	6132
782.879	6458
782.984	7070
783.090	7149
783.195	6689
783.300	7757
783.405	7101
783.511	6266
783.616	6053
783.721	6967
783.826	5751
783.932	5693
784.037	6270
784.142	6634
784.247	5917
784.352	7124
784.457	4520
784.562	7450
784.667	7223
784.772	5145
784.877	3906
784.982	7532
785.087	6414
785.192	6040
785.297	6044
785.402	6736
785.507	6072
785.611	5522
785.716	4373
785.821	5970
785.926	5807
786.031	6125
786.135	5412
786.240	5047
786.345	3260
786.450	5242
786.554	4643
786.659	4453
786.763	5077
786.868	4924
786.973	5260
787.077	4666
787.182	3837
787.286	5896
787.391	5808
787.495	3399
787.600	3555
787.704	4999
787.809	5371
787.913	5605
788.017	4916
788.122	5761
788.226	4240
788.330	3463
788.435	3949
788.539	5213
788.643	4582
788.747	3321
788.852	4845
788.956	3906
789.060	4764
789.164	4946
789.268	2884
789.372	4530
789.476	4282
789.580	3541
789.684	3063
789.788	5361
789.892	4052
789.996	4130
790.100	3243
790.204	5011
790.308	4528
790.412	3767
790.516	2252
790.620	3690
790.724	5321
790.828	4364
790.931	1578
791.035	4549
791.139	3621
791.242	3447
791.346	4640
791.450	4704
791.554	3189
791.657	2759
791.761	4603
791.864	4904
791.968	5176
792.072	4182
792.175	3614
792.279	3302
792.382	3651
792.486	3072
792.589	2977
792.693	4225
792.796	2490
792.899	4363
793.003	4045
793.106	2909
793.209	4077
793.313	3961
793.416	882
793.519	3804
793.623	4778
793.726	3224
793.829	2289
793.932	2128
794.035	2114
794.138	5266
794.242	4394
794.345	2268
794.448	3247
794.551	2063
794.654	7108
794.757	8145
794.860	3492
794.963	3815
795.066	2757
795.169	3787
795.272	2747
795.375	3812
795.477	2285
795.580	3313
795.683	2306
795.786	3966
795.889	1512
795.991	4199
796.094	3746
796.197	1887
796.300	4789
796.402	3556
796.505	1797
796.608	3087
796.710	3700
796.813	4400
796.915	4743
797.018	4213
797.120	4522
797.223	2908
797.326	4021
797.428	2344
797.530	2781
797.633	2734
797.735	4773
797.838	3409
797.940	4725
798.042	2214
798.145	2744
798.247	2966
798.349	1461
798.452	3344
798.554	4745
798.656	3785
798.758	5103
798.860	3351
798.962	2445
799.065	2108
799.167	2335
799.269	3770
799.371	5471
799.473	6758
799.575	4231
799.677	3489
799.779	4180
799.881	1824
799.983	3030
800.085	2639
800.187	3138
800.289	2160
800.390	2730
800.492	4242
800.594	2766
800.696	1821
800.798	1680
800.899	2385
801.001	2470
801.103	3025
801.205	3301
801.306	3220
801.408	2309
801.509	3064
801.611	2428
801.713	3494
801.814	1966
801.916	1653
802.017	1783
802.119	1908
802.220	2246
802.322	1250
802.423	2663
802.525	1421
802.626	2250
802.727	3607
802.829	2641
802.930	188
803.031	3273
803.133	2164
803.234	2170
803.335	2874
803.436	1659
803.538	1663
803.639	577
803.740	2376
803.841	1703
803.942	2712
804.043	2229
804.144	2290
804.245	2656
804.346	1973
804.447	1720
804.548	2164
804.649	3520
804.750	1876
804.851	1775
804.952	941
805.053	3231
805.154	991
805.255	2241
805.355	1850
805.456	1321
805.557	1132
805.658	852
805.758	2130
805.859	1798
805.960	1950
806.061	1691
806.161	1160
806.262	1390
806.362	1320
806.463	1425
806.564	3311
806.664	2529
806.765	1555
806.865	1272
806.966	1405
807.066	1394
807.166	2066
807.267	2238
807.367	1451
807.468	2387
807.568	202
807.668	1731
807.769	2606
807.869	933
807.969	1966
808.069	1947
808.170	2293
808.270	648
808.370	1947
808.470	1663
808.570	1120
808.670	2006
808.770	2380
808.870	1500
808.970	1691
809.070	1126
809.170	1411
809.271	2934
809.370	1451
809.470	2312
809.570	880
809.670	1012
809.770	1191
809.870	2007
809.970	1814
810.070	1778
810.169	1412
810.269	392
810.369	2241
810.469	2071
810.568	1045
810.668	1425
810.768	1531
810.867	666
810.967	936
811.066	2249
811.166	1344
811.265	2073
811.365	260
811.464	976
811.564	750
811.663	1762
811.763	-529
811.862	1888
811.962	2398
812.061	768
812.160	1645
812.260	1622
812.359	1958
812.458	1177
812.557	3484
812.657	1260
812.756	1518
812.855	1311
812.954	2101
813.053	1284
813.153	1676
813.252	507
813.351	1885
813.450	1992
813.549	1102
813.648	1905
813.747	992
813.846	1907
813.945	1516
814.044	1399
814.143	1803
814.242	2304
814.341	1330
814.439	2187
814.538	2251
814.637	2725
814.736	2695
814.835	3373
814.933	3126
815.032	4422
815.131	5028
815.229	9973
815.328	13526
815.427	9345
815.525	9102
815.624	8045
815.722	7402
815.821	7901
815.919	9017
816.018	7354
816.116	8774
816.215	8072
816.313	9725
816.412	11253
816.510	11202
816.609	12469
816.707	12626
816.805	10910
816.904	11379
817.002	11055
817.100	12128
817.198	12974
817.296	10796
817.395	12960
817.493	11941
817.591	10296
817.689	10412
817.787	10722
817.885	11284
817.983	10486
818.081	11423
818.179	14433
818.277	24816
818.375	21352
818.473	12808
818.571	9130
818.669	10827
818.767	11289
818.865	9224
818.963	7615
819.061	10949
819.158	11438
819.256	16451
819.354	21318
819.452	36396
819.549	25419
819.647	15024
819.745	9155
819.842	9393
819.940	9884
820.038	8509
820.135	8257
820.233	9382
820.330	8838
820.428	7423
820.525	8770
820.623	8198
820.720	7031
820.818	8228
820.915	8670
821.012	7495
821.110	6559
821.207	8625
821.304	6417
821.402	7971
821.499	8482
821.596	7651
821.693	8555
821.791	8151
821.888	7742
821.985	8429
822.082	5931
822.179	7659
822.276	7957
822.373	6353
822.470	6800
822.567	7337
822.664	5871
822.761	7965
822.858	6993
822.955	6661
823.052	6351
823.149	7563
823.246	7492
823.343	4808
823.440	6795
823.536	7451
823.633	7234
823.730	6397
823.827	7047
823.923	6090
824.020	7030
824.117	6687
824.213	7091
824.310	4780
824.407	4747
824.503	6437
824.600	5558
824.696	5649
824.793	8531
824.889	6860
824.986	5407
825.082	4871
825.179	4937
825.275	7571
825.371	6990
825.468	5226
825.564	3505
825.660	6942
825.757	7201
825.853	5583
825.949	4661
826.045	4751
826.142	6356
826.238	6809
826.334	6036
826.430	4059
826.526	3403
826.622	3299
826.718	6757
826.814	6437
826.910	6125
827.006	2905
827.102	3549
827.198	6095
827.294	5982
827.390	6277
827.486	4964
827.582	3028
827.678	3775
827.774	7031
827.869	3132
827.965	4701
828.061	2978
828.157	6325
828.252	5538
828.348	4349
828.444	4586
828.539	4080
828.635	4781
828.731	5876
828.826	3649
828.922	6051
829.017	5727
829.113	6047
829.208	4855
829.304	5155
829.399	7860
829.495	5455
829.590	5410
829.685	4923
829.781	6025
829.876	5402
829.971	2427
830.066	2715
830.162	4866
830.257	6704
830.352	5176
830.447	3316
830.543	4312
830.638	5117
830.733	5945
830.828	4449
830.923	5304
831.018	4337
831.113	5744
831.208	3537
831.303	2421
831.398	3483
831.493	5554
831.588	7231
831.683	2462
831.778	2460
831.873	3193
831.967	5515
832.062	5491
832.157	3375
832.252	4685
832.346	4074
832.441	5792
832.536	4973
832.631	4383
832.725	3400
832.820	4730
832.914	3910
833.009	2868
833.104	2601
833.198	3580
833.293	3906
833.387	5215
833.482	4900
833.576	4064
833.670	5873
833.765	4708
833.859	4955
833.954	4723
834.048	4248
834.142	3248
834.237	2833
834.331	3509
834.425	3912
834.519	3050
834.613	3199
834.708	2936
834.802	3025
834.896	3176
834.990	3812
835.084	2731
835.178	2610
835.272	3179
835.366	3989
835.460	4947
835.554	3059
835.648	3409
835.742	1541
835.836	2575
835.930	1814
836.024	3235
836.117	3419
836.211	3048
836.305	2721
836.399	2548
836.493	1835
836.586	3490
836.680	3161
836.774	2855
836.867	3658
836.961	2000
837.055	2125
837.148	2731
837.242	3033
837.335	3466
837.429	2429
837.522	1382
837.616	1851
837.709	3161
837.803	2383
837.896	3013
837.989	3348
838.083	1429
838.176	1521
838.269	1145
838.363	3771
838.456	2508
838.549	2958
838.642	1920
838.735	2660
838.829	2445
838.922	2069
839.015	2386
839.108	1451
839.201	2576
839.294	2744
839.387	2204
839.480	1385
839.573	1418
839.666	1494
839.759	2467
839.852	2134
839.945	3411
840.038	1736
840.131	1013
840.223	2053
840.316	2688
840.409	2945
840.502	3362
840.594	3372
840.687	320
840.780	1551
840.873	530
840.965	1904
841.058	2795
841.150	3047
841.243	958
841.336	2183
841.428	2004
841.521	2552
841.613	2419
841.706	2155
841.798	1055
841.890	1623
841.983	978
842.075	1482
842.167	1238
842.260	1377
842.352	3217
842.444	2201
842.537	1182
842.629	1459
842.721	1316
842.813	1948
842.905	1219
842.997	2385
843.090	2111
843.182	1898
843.274	-293
843.366	2177
843.458	2174
843.550	2995
843.642	2147
843.734	2362
843.826	416
843.918	1465
844.009	1730
844.101	1534
844.193	2028
844.285	2854
844.377	2464
844.469	2150
844.560	1334
844.652	1225
844.744	1816
844.835	1539
844.927	2109
845.019	2180
845.110	2078
845.202	3018
845.293	1065
845.385	947
845.476	1671
845.568	2781
845.659	783
845.751	1767
845.842	926
845.934	975
846.025	1011
846.116	2473
846.208	1102
846.299	1091
846.390	1317
846.482	1787
846.573	2801
846.664	1926
846.755	1239
846.846	1858
846.937	-25
847.029	1907
847.120	1378
847.211	1224
847.302	2496
847.393	1170
847.484	2098
847.575	1001
847.666	801
847.757	1085
847.847	2128
847.938	2419
848.029	1955
848.120	682
848.211	1410
848.302	673
848.392	1103
848.483	1588
848.574	1615
848.664	2216
848.755	2141
848.846	1524
848.936	1646
849.027	2179
849.118	2383
849.208	3660
849.299	6402
849.389	12139
849.480	23141
849.570	44336
849.661	83258
849.751	109650
849.841	36820
849.932	7579
850.022	3771
850.112	3523
850.203	2710
850.293	2273
850.383	2074
850.474	2295
850.564	1475
850.654	1456
850.744	1326
850.834	1336
850.924	2473
851.014	2133
851.104	1866
851.194	1241
851.284	1232
851.374	2111
851.464	720
851.554	2463
851.644	1092
851.734	2404
851.824	2153
851.914	1406
852.004	2298
852.094	816
852.183	1562
852.273	1941
852.363	1506
852.452	1978
852.542	787
852.632	1665
852.721	1710
852.811	3052
852.901	3062
852.990	3454
853.080	4083
853.169	3401
853.259	4642
853.348	4768
853.438	7432
853.527	10306
853.617	15796
853.706	27311
853.795	49129
853.885	90103
853.974	152005
854.063	250506
854.152	289415
854.242	129024
854.331	43919
854.420	22099
854.509	13809
854.598	10092
854.687	7673
854.777	7178
854.866	4662
854.955	5023
855.044	2980
855.133	3236
855.222	2855
855.311	2722
855.400	2722
855.488	1667
855.577	1331
855.666	2016
855.755	2264
855.844	2588
855.933	1865
856.021	2392
856.110	1163
856.199	732
856.288	1316
856.376	999
856.465	1484
856.554	2276
856.642	1587
856.731	2524
856.819	1997
856.908	777
856.996	1889
857.085	805
857.173	1097
857.262	625
857.350	1285
857.438	1005
857.527	1186
857.615	831
857.703	1972
857.792	1324
857.880	520
857.968	1345
858.056	778
858.145	1144
858.233	1403
858.321	933
858.409	1317
858.497	717
858.585	503
858.673	739
858.761	844
858.849	1237
858.937	1370
859.025	697
859.113	1893
859.201	1479
859.289	2477
859.377	1263
859.465	1102
859.552	2159
859.640	410
859.728	1613
859.816	-76
859.903	1920
859.991	911
860.079	2249
860.166	901
860.254	1098
860.342	556
860.429	1073
860.517	355
860.604	2071
860.692	700
860.779	477
860.867	1230
860.954	758
861.042	1675
861.129	1352
861.216	1393
861.304	2115
861.391	1746
861.478	963
861.565	1082
861.653	1768
861.740	1092
861.827	181
861.914	1163
862.001	1042
862.089	1856
862.176	1534
862.263	1746
862.350	1247
862.437	1016
862.524	986
862.611	1244
862.698	2269
862.785	2342
862.871	2123
862.958	1245
863.045	1983
863.132	2246
863.219	1503
863.306	1787
863.392	2091
863.479	1692
863.566	1411
863.652	2516
863.739	1998
863.826	2008
863.912	1783
863.999	1202
864.086	2480
864.172	1819
864.259	3210
864.345	2953
864.432	3207
864.518	2496
864.604	2238
864.691	2535
864.777	2968
864.863	5387
864.950	6698
865.036	9532
865.122	16537
865.209	17155
865.295	14480
865.381	14920
865.467	15603
865.553	18962
865.639	22383
865.726	34024
865.812	57360
865.898	90761
865.984	127085
866.070	207835
866.156	183985
866.242	69688
866.328	29935
866.414	20105
866.499	17288
866.585	14987
866.671	13809
866.757	13306
866.843	12282
866.928	11425
867.014	10963
867.100	10468
867.186	11117
867.271	9590
867.357	11067
867.442	9749
867.528	9538
867.614	9560
867.699	9969
867.785	10411
867.870	10226
867.956	10220
868.041	11365
868.127	10016
868.212	9255
868.297	9033
868.383	9415
868.468	9623
868.553	10331
868.639	8783
868.724	9406
868.809	8877
868.894	8790
868.979	8465
869.065	8987
869.150	7578
869.235	9176
869.320	8505
869.405	7165
869.490	8714
869.575	8225
869.660	6812
869.745	9441
869.830	9164
869.915	7567
870.000	8381
870.085	8016
870.169	10465
870.254	9588
870.339	5515
870.424	6557
870.509	9021
870.593	9850
870.678	8635
870.763	7604
870.847	6422
870.932	9193
871.016	7903
871.101	6240
871.186	8823
871.270	9680
871.355	6591
871.439	7131
871.523	8218
871.608	5876
871.692	7162
871.777	8784
871.861	8133
871.945	7003
872.030	7019
872.114	7480
872.198	5830
872.282	7305
872.367	5996
872.451	6662
872.535	7101
872.619	6126
872.703	6817
872.787	7959
872.871	7260
872.955	4983
873.039	4763
873.123	6818
873.207	6728
873.291	4051
873.375	6277
873.459	6658
873.543	6304
873.627	6615
873.711	5380
873.794	7296
873.878	5500
873.962	5208
874.045	5528
874.129	5655
874.137	5777
874.213	6993
874.245	6332
874.296	5263
874.352	4853
874.380	4647
874.460	5870
874.464	5918
874.547	5486
874.568	5838
874.631	6858
874.676	6405
874.714	5975
874.784	6893
874.798	7090
874.881	5524
874.892	5481
874.965	5233
874.999	5751
875.048	6335
875.107	6311
875.131	6324
875.215	5295
875.215	5296
875.298	4827
875.323	5472
875.381	6981
875.430	8030
875.465	8600
875.538	6917
875.548	6686
875.631	4471
875.646	4370
875.714	4200
875.753	5047
875.798	6019
875.861	7109
875.881	7361
875.964	5674
875.968	5649
876.047	5559
876.076	5954
876.130	6674
876.183	7035
876.213	7252
876.291	7709
876.296	7703
876.379	6104
876.398	5904
876.462	5487
876.506	5374
876.545	5425
876.613	6154
876.628	6351
876.711	7447
876.721	7558
876.794	8299
876.828	8373
876.877	7940
876.935	6327
876.960	5927
877.043	6333
877.043	6337
877.125	8532
877.150	8946
877.208	8951
877.258	7389
877.291	6495
877.365	6046
877.374	6014
877.456	6232
877.472	6173
877.539	6579
877.579	7736
877.622	8716
877.687	8417
877.704	8319
877.787	8417
877.794	8449
877.869	8989
877.901	8910
877.952	7877
878.008	6587
878.034	6497
878.115	6857
878.117	6880
878.199	8232
878.222	8403
878.282	9103
878.329	10274
878.364	10611
878.437	9681
878.447	9472
878.529	7800
878.544	7529
878.611	7307
878.651	7979
878.694	9211
878.758	9888
878.776	9910
878.858	10701
878.865	10653
878.941	8457
878.972	7215
879.023	6778
879.078	8224
879.105	9070
879.185	10891
879.187	10930
879.269	10889
879.292	11081
879.351	10405
879.399	9290
879.433	9072
879.506	9227
879.516	9253
879.598	9399
879.613	9296
879.680	9279
879.720	9789
879.762	10050
879.827	9037
879.844	8851
879.926	9661
879.933	9663
880.007	9660
880.040	9206
880.089	9048
880.147	10178
880.171	10718
880.253	12124
880.254	12102
880.335	10814
880.360	10986
880.417	12621
880.467	13267
880.499	13081
880.574	13052
880.580	13101
880.662	12928
880.680	12666
880.744	10299
880.787	9238
880.825	9704
880.893	10379
880.907	10284
880.989	9988
881.000	9940
881.070	12028
881.106	12679
881.152	11406
881.213	10013
881.233	10121
881.315	10142
881.319	10162
881.396	11309
881.426	11452
881.478	12446
881.532	13867
881.559	13804
881.639	12618
881.641	12600
881.722	10899
881.745	10492
881.803	12136
881.852	12865
881.885	11846
881.958	10098
881.966	10244
882.047	11749
882.064	11946
882.129	10223
882.171	9148
882.210	8888
882.277	8018
882.291	8478
882.372	12384
882.383	12791
882.454	14619
882.489	15270
882.535	15293
882.596	15595
882.616	15558
882.697	14326
882.702	14212
882.778	10601
882.808	9478
882.859	9997
882.914	10132
882.940	10417
883.020	11520
883.021	11571
883.102	13849
883.127	14651
883.183	16545
883.233	17139
883.264	14963
883.339	10477
883.345	10415
883.426	8516
883.445	8325
883.507	10170
883.551	11313
883.587	12928
883.657	16036
883.668	16280
883.749	17090
883.763	17166
883.830	13009
883.869	10501
883.910	10336
883.975	10467
883.991	10879
884.072	12834
884.081	12973
884.152	16413
884.187	18262
884.233	19014
884.292	18884
884.314	17125
884.394	10191
884.398	9851
884.475	8721
884.504	8250
884.555	9427
884.610	10695
884.636	11408
884.716	13589
884.716	13662
884.797	18906
884.821	20154
884.877	17623
884.927	15382
884.958	14480
885.033	12448
885.038	12357
885.118	10049
885.139	9505
885.199	11072
885.244	12243
885.279	13647
885.350	16159
885.359	16762
885.439	21942
885.456	22781
885.520	17248
885.561	13825
885.600	13624
885.667	13539
885.680	13841
885.760	14586
885.773	14698
885.840	12172
885.878	10960
885.920	12107
885.984	13386
886.000	13762
886.080	15535
886.089	15680
886.160	17606
886.195	18337
886.240	17112
886.300	15703
886.320	15960
886.400	16476
886.406	16444
886.480	13561
886.511	12495
886.560	13062
886.616	13487
886.640	13495
886.720	13493
886.722	13448
886.800	14683
886.827	15087
886.879	15833
886.932	16496
886.959	17265
887.038	19294
887.039	19325
887.119	16835
887.143	16106
887.198	16245
887.248	16213
887.278	16091
887.354	15694
887.358	15761
887.437	15950
887.459	16014
887.517	17373
887.564	18188
887.596	16411
887.669	12357
887.676	12319
887.755	11494
887.774	11205
887.835	11707
887.880	12184
887.914	13998
887.985	17371
887.994	17887
888.073	22259
888.090	22998
888.153	24255
888.195	25055
888.232	21359
888.300	14416
888.311	14462
888.391	14397
888.405	14354
888.470	13778
888.510	13301
888.549	13827
888.615	14715
888.628	15636
888.708	20806
888.720	21546
888.787	19426
888.825	18092
888.866	15350
888.930	11000
888.945	11880
889.024	16394
889.035	16937
889.103	18147
889.140	18726
889.182	17484
889.245	15511
889.261	16016
889.340	18183
889.349	18375
889.419	16858
889.454	16017
889.498	15545
889.559	14790
889.577	15828
889.656	20171
889.664	20540
889.735	18582
889.768	17562
889.814	18364
889.873	19281
889.978	15492
890.083	16820
890.187	18819
890.292	20147
890.397	16818
890.501	14884
890.606	13545
890.710	17745
890.815	21433
890.919	17877
891.024	17540
891.128	13363
891.233	14537
891.337	21907
891.442	19385
891.546	17849
891.650	14224
891.755	13999
891.859	18487
891.963	21716
892.068	17993
892.172	15047
892.276	11796
892.380	16083
892.484	21847
892.589	21107
892.693	16533
892.797	12183
892.901	11979
893.005	14973
893.109	23762
893.213	20540
893.317	14952
893.421	11758
893.525	10537
893.629	14893
893.733	19913
893.837	16516
893.941	15010
894.045	11606
894.148	11337
894.252	13528
894.356	22545
894.460	22160
894.564	15963
894.667	14518
894.771	10849
894.875	12295
894.978	14683
895.082	19662
895.186	18265
895.289	14380
895.393	12962
895.496	21009
895.600	12276
895.703	11976
895.807	14804
895.910	15903
896.014	15724
896.117	13149
896.221	17384
896.324	16365
896.427	10640
896.531	13152
896.634	15198
896.737	14129
896.840	17128
896.944	18837
897.047	19216
897.150	15462
897.253	10930
897.356	11109
897.460	10665
897.563	13113
897.666	19333
897.769	17532
897.872	9965
897.975	13630
898.078	13184
898.181	12021
898.284	14431
898.387	19069
898.490	17066
898.593	12835
898.695	11100
898.798	13618
898.901	12084
899.004	14191
899.107	12753
899.209	15471
899.312	20312
899.415	12002
899.518	8920
899.620	9451
899.723	11358
899.826	13905
899.928	11805
900.031	15021
900.133	18231
900.236	12525
900.338	9931
900.441	11876
900.543	13404
900.646	13529
900.748	12870
900.851	17192
900.953	10390
901.055	10334
901.158	12592
901.260	10605
901.362	9772
901.465	11801
901.567	15966
901.669	15717
901.771	12582
901.873	14059
901.976	13075
902.078	13395
902.180	10175
902.282	11789
902.384	14147
902.486	19454
902.588	13941
902.690	10321
902.792	9916
902.894	14196
902.996	15997
903.098	14868
903.200	9956
903.302	10614
903.404	10917
903.505	11057
903.607	11875
903.709	19365
903.811	15724
903.913	12439
904.014	8976
904.116	9697
904.218	10569
904.319	13419
904.421	19273
904.523	14252
904.624	11685
904.726	10431
904.827	9643
904.929	10594
905.030	12243
905.132	19479
905.233	13527
905.335	10990
905.436	10443
905.537	10215
905.639	10872
905.740	13839
905.841	16398
905.943	12326
906.044	12564
906.145	10094
906.247	9488
906.348	12145
906.449	13577
906.550	15521
906.651	10523
906.752	11107
906.854	9497
906.955	11304
907.056	12206
907.157	17761
907.258	14007
907.359	9826
907.460	9468
907.561	9275
907.662	9767
907.762	12614
907.863	15337
907.964	14314
908.065	12260
908.166	11592
908.267	10880
908.367	9876
908.468	9973
908.569	13251
908.670	14202
908.770	12109
908.871	12257
908.971	14124
909.072	10809
909.173	11277
909.273	11788
909.374	16682
909.474	11920
909.575	11158
909.675	12190
909.776	12640
909.876	11152
909.977	11228
910.077	13057
910.177	16905
910.278	11017
910.378	10797
910.478	11135
910.579	15086
910.679	13246
910.779	14085
910.879	13129
910.980	14566
911.080	13969
911.180	10412
911.280	9919
911.380	10790
911.480	9683
911.580	12829
911.680	11654
911.780	14100
911.880	13331
911.980	9640
912.080	12279
912.180	12474
912.280	11632
912.380	11295
912.480	8946
912.580	10080
912.679	12437
912.779	15005
912.879	11900
912.979	11914
913.078	9452
913.178	9248
913.278	9633
913.377	9895
913.477	9748
913.577	11627
913.676	14716
913.776	15320
913.875	11329
913.975	11399
914.074	13109
914.174	13202
914.273	10130
914.373	12105
914.472	9927
914.572	9838
914.671	10483
914.770	10652
914.870	9695
914.969	10665
915.068	14255
915.167	13057
915.267	10736
915.366	12168
915.465	11522
915.564	12489
915.663	11653
915.763	14126
915.862	13932
915.961	14090
916.060	9709
916.159	10705
916.258	10252
916.357	11625
916.456	12348
916.555	13100
916.654	12158
916.752	15334
916.851	13627
916.950	10245
917.049	10364
917.148	11018
917.247	10884
917.345	10288
917.444	10112
917.543	11499
917.642	12170
917.740	15129
917.839	19302
917.937	18138
918.036	14208
918.135	11455
918.233	10754
918.332	11397
918.430	10927
918.529	11064
918.627	12624
918.726	15124
918.824	12314
918.923	11710
919.021	11082
919.119	11417
919.218	11123
919.316	13015
919.414	13892
919.512	15822
919.611	14821
919.709	13593
919.807	17521
919.905	17669
920.003	17326
920.102	17062
920.200	16206
920.298	19069
920.396	17115
920.494	17133
920.592	14675
920.690	15878
920.788	15922
920.886	17967
920.984	17911
921.082	19674
921.180	19273
921.277	21141
921.375	24732
921.473	31905
921.571	27888
921.669	26803
921.766	24787
921.864	27167
921.962	25556
922.060	25918
922.157	26706
922.255	26975
922.352	26792
922.450	28209
922.548	30034
922.645	35085
922.743	44127
922.840	67483
922.938	66624
923.035	60764
923.133	61430
923.230	71796
923.327	78333
923.425	72316
923.522	73275
923.619	66636
923.717	61810
923.814	61823
923.911	60751
924.008	64303
924.106	57830
924.203	59799
924.300	62262
924.397	59429
924.494	58843
924.591	57131
924.688	57890
924.786	58649
924.883	59055
924.979	60893
925.077	56252
925.173	57925
925.270	56674
925.367	58004
925.464	60040
925.561	64038
925.658	59510
925.755	54699
925.852	61155
925.948	56828
926.045	54552
926.142	60739
926.239	55920
926.335	48082
926.432	56642
926.529	59377
926.625	59863
926.722	48207
926.818	53928
926.915	57926
927.011	53083
927.108	53947
927.204	53702
927.301	48100
927.397	58682
927.494	57902
927.590	39644
927.687	51332
927.783	59785
927.879	56715
927.976	46528
928.072	47600
928.168	54924
928.264	50146
928.361	51409
928.457	55224
928.553	44178
928.649	51369
928.745	48460
928.841	46169
928.937	50324
929.033	48115
929.129	50323
929.225	55867
929.321	43385
929.417	46773
929.513	50934
929.609	43698
929.705	46395
929.801	49884
929.897	43450
929.993	44717
930.089	45301
930.184	42273
930.280	49428
930.376	54146
930.471	39672
930.567	39504
930.663	43057
930.758	40046
930.854	42575
930.950	43781
931.045	38236
931.141	44017
931.236	51871
931.332	38575
931.427	40097
931.523	50610
931.618	40992
931.714	32683
931.809	41229
931.905	44900
932.000	30313
932.095	36776
932.191	48942
932.286	51675
932.381	38092
932.476	37045
932.572	39212
932.667	33712
932.762	36882
932.857	43596
932.952	46718
933.047	35874
933.142	33345
933.237	42908
933.332	41721
933.427	44367
933.522	35201
933.617	34671
933.712	36582
933.807	47228
933.902	46402
933.997	43676
934.092	31187
934.187	40151
934.282	37627
934.376	42634
934.471	39261
934.566	33157
934.661	35052
934.755	41748
934.850	39592
934.945	33682
935.039	30651
935.134	28590
935.228	40494
935.323	47206
935.417	27588
935.512	25158
935.606	30520
935.701	40226
935.795	41368
935.890	33513
935.984	27776
936.079	28656
936.173	33684
936.267	30609
936.362	27658
936.456	37203
936.550	43297
936.644	32346
936.738	27869
936.833	26845
936.927	24604
937.021	33008
937.115	34620
937.209	35442
937.303	28491
937.397	27423
937.491	33481
937.585	37140
937.679	30415
937.773	27898
937.867	22825
937.961	30547
938.055	40099
938.149	28760
938.243	22722
938.337	23479
938.430	31059
938.524	37075
938.618	26139
938.712	26750
938.805	28363
938.899	37076
938.993	35823
939.086	22949
939.180	19244
939.274	28290
939.367	35216
939.461	33157
939.554	25376
939.648	25513
939.741	25619
939.835	33987
939.928	37370
940.022	31462
940.115	28826
940.208	33881
940.302	37348
940.395	34606
940.488	24760
940.582	25567
940.675	22129
940.768	26891
940.861	34665
940.954	29301
941.048	19700
941.141	21514
941.234	25423
941.327	27059
941.420	30452
941.513	29589
941.606	23119
941.699	26381
941.792	31567
941.885	26485
941.978	28456
942.071	26397
942.164	19964
942.257	22347
942.349	27079
942.442	26596
942.535	19682
942.628	21897
942.721	24540
942.813	24907
942.906	25951
942.999	22860
943.091	21064
943.184	24325
943.277	22593
943.369	17877
943.462	18281
943.554	24278
943.647	23667
943.739	31593
943.832	24277
943.924	15810
944.017	18722
944.109	20306
944.201	21006
944.294	21917
944.386	22771
944.478	20526
944.571	19292
944.663	21014
944.755	23499
944.847	25531
944.940	21219
945.032	15842
945.124	17604
945.216	23176
945.308	23904
945.400	20603
945.492	21425
945.584	28201
945.676	25993
945.768	23520
945.860	26450
945.952	26117
946.044	20504
946.136	20673
946.228	19855
946.320	21519
946.412	23256
946.503	27662
946.595	21378
946.687	18429
946.779	15120
946.870	18821
946.962	17494
947.054	19123
947.145	22250
947.237	18547
947.329	20581
947.420	21741
947.512	17542
947.603	15829
947.695	17601
947.786	17575
947.878	19372
947.969	21792
948.061	22847
948.152	17963
948.243	13587
948.335	14133
948.426	16816
948.517	22399
948.609	20374
948.700	20815
948.791	16449
948.882	14313
948.973	16528
949.065	20455
949.156	16096
949.247	15577
949.338	15665
949.429	13731
949.520	15964
949.611	20644
949.702	19003
949.793	16577
949.884	17544
949.975	14967
950.066	12723
950.157	14861
950.247	15192
950.338	13322
950.429	16106
950.520	15108
950.611	13920
950.701	20077
950.792	21537
950.883	18939
950.973	16424
951.064	20558
951.155	19592
951.245	19367
951.336	20039
951.427	21543
951.517	22082
951.608	19695
951.698	14783
951.788	13067
951.879	13503
951.969	15442
952.060	15019
952.150	18805
952.240	21546
952.331	19429
952.421	16802
952.511	12382
952.602	11149
952.692	12459
952.782	12780
952.872	17183
952.962	17156
953.052	15285
953.143	13644
953.233	14603
953.323	16072
953.413	19307
953.503	16960
953.593	16966
953.683	14037
953.773	11551
953.863	11733
953.953	12929
954.042	16311
954.132	18262
954.222	16009
954.312	13130
954.402	14298
954.492	14572
954.581	15933
954.671	14603
954.761	14739
954.850	13012
954.940	8362
955.030	10875
955.119	11658
955.209	13149
955.298	15358
955.388	17271
955.477	14338
955.567	11524
955.656	12051
955.746	13521
955.835	11636
955.925	13912
956.014	16599
956.103	19893
956.193	20203
956.282	16253
956.371	13447
956.461	16053
956.550	13774
956.639	13291
956.728	13628
956.817	13879
956.906	15452
956.995	15562
957.085	13485
957.174	13983
957.263	11416
957.352	13723
957.441	13812
957.530	13888
957.619	11093
957.708	13945
957.796	11999
957.885	13129
957.974	11851
958.063	12847
958.152	9622
958.241	9708
958.329	10307
958.418	12930
958.507	14090
958.596	14922
958.684	11798
958.773	13133
958.861	9318
958.950	10570
959.039	9749
959.127	11883
959.216	12597
959.304	11122
959.393	13744
959.481	11728
959.570	8967
959.658	8959
959.746	8520
959.835	11386
959.923	10685
960.011	11036
960.100	13066
960.188	14121
960.276	10597
960.365	10234
960.453	9237
960.541	9845
960.629	10211
960.717	7981
960.805	8341
960.893	11594
960.981	13751
961.069	17503
961.158	18018
961.245	18341
961.333	14330
961.421	11971
961.509	12824
961.597	12605
961.685	10683
961.773	13089
961.861	12737
961.949	14346
962.036	9155
962.124	9604
962.212	10202
962.299	9694
962.387	8857
962.475	10730
962.562	11374
962.650	12274
962.738	9589
962.825	8713
962.913	8771
963.000	11104
963.088	13123
963.175	11362
963.263	9642
963.350	11155
963.438	9694
963.525	9641
963.612	9935
963.700	10709
963.787	11683
963.874	10681
963.962	8755
964.049	8651
964.136	8693
964.223	9173
964.310	8512
964.398	10114
964.485	10167
964.572	11993
964.659	10030
964.746	8485
964.833	7928
964.920	10265
965.007	8955
965.094	9559
965.181	11019
965.268	11178
965.355	10161
965.441	10415
965.528	9795
965.615	11735
965.702	9645
965.789	10364
965.875	12077
965.962	11796
966.049	12053
966.136	13604
966.222	12632
966.309	14185
966.395	12095
966.482	12975
966.569	11265
966.655	13242
966.742	10058
966.828	9829
966.915	8497
967.001	8771
967.087	7489
967.174	9195
967.260	9215
967.347	11184
967.433	10016
967.519	11230
967.605	9431
967.692	10545
967.778	8945
967.864	9943
967.950	10104
968.036	9353
968.123	10943
968.209	9266
968.295	7120
968.381	9709
968.467	7565
968.553	7997
968.639	10972
968.725	12416
968.811	12252
968.897	12109
968.983	8837
969.069	8450
969.154	6851
969.240	8521
969.326	6900
969.412	9101
969.497	7076
969.583	8327
969.669	11744
969.755	11124
969.840	12618
969.926	19050
970.012	21193
970.097	24366
970.183	16008
970.268	12794
970.354	11046
970.439	9097
970.525	9578
970.610	9915
970.696	9432
970.781	8127
970.866	7128
970.952	9814
971.037	9389
971.122	10526
971.208	9035
971.293	9812
971.378	8092
971.463	8283
971.549	7482
971.634	8736
971.719	8890
971.804	8400
971.889	8902
971.974	8904
972.059	9133
972.144	9505
972.229	8247
972.314	8471
972.399	7781
972.484	7455
972.569	7924
972.654	7421
972.739	8526
972.824	8522
972.908	7097
972.993	7822
973.078	7958
973.163	8477
973.247	8931
973.332	8088
973.417	9547
973.501	8486
973.586	9084
973.671	9570
973.755	8717
973.840	10494
973.924	11140
974.009	15139
974.093	13534
974.178	12416
974.262	9391
974.346	10172
974.431	9352
974.515	10736
974.600	9178
974.684	9518
974.768	8181
974.852	10810
974.937	8859
975.021	10308
975.105	8156
975.189	9102
975.273	7799
975.358	7507
975.442	7627
975.526	8981
975.610	8284
975.694	8924
975.778	8339
975.862	8290
975.946	7151
976.030	9978
976.114	7931
976.198	8656
976.281	8561
976.365	9265
976.449	7811
976.533	8304
976.617	6558
976.700	7646
976.784	7356
976.868	7087
976.951	8015
977.035	7131
977.119	7850
977.202	10127
977.286	10282
977.369	15040
977.453	18180
977.536	15453
977.620	12297
977.703	11872
977.787	9770
977.870	11515
977.953	9978
978.037	8945
978.120	9198
978.203	10334
978.287	9450
978.370	10457
978.453	7982
978.536	8989
978.620	9847
978.703	9337
978.786	7804
978.869	8507
978.952	7600
979.035	11396
979.118	9242
979.201	8756
979.284	9718
979.367	9001
979.450	9022
979.533	7762
979.616	8306
979.699	8434
979.782	8575
979.865	8607
979.948	8158
980.030	7974
980.113	8546
980.196	7879
980.279	9345
980.361	8181
980.444	9869
980.526	12909
980.609	17144
980.692	17954
980.774	14486
980.857	12266
980.939	13484
981.022	10554
981.104	11331
981.187	10293
981.269	11167
981.352	10136
981.434	10588
981.516	9832
981.599	10458
981.681	10479
981.763	8983
981.846	10249
981.928	9506
982.010	9867
982.092	9776
982.174	10971
982.256	9433
982.339	10416
982.421	8794
982.503	9457
982.585	8018
982.667	9970
982.749	9389
982.831	9868
982.913	9740
982.995	9965
983.077	10130
983.158	12243
983.240	10466
983.322	17127
983.404	18293
983.486	16431
983.568	15078
983.649	13597
983.731	14044
983.813	12442
983.894	13068
983.976	12923
984.058	12485
984.139	12270
984.221	10650
984.302	12792
984.384	11461
984.465	12508
984.547	12163
984.628	12592
984.710	12489
984.791	13254
984.872	11411
984.954	12277
985.035	12516
985.116	12059
985.198	10369
985.279	14381
985.360	11894
985.441	11518
985.522	12020
985.604	13262
985.685	11056
985.766	13149
985.847	13924
985.928	11812
986.009	11550
986.090	12355
986.171	12108
986.252	12500
986.333	11494
986.414	12843
986.495	13184
986.576	13593
986.656	12812
986.737	14580
986.818	14539
986.899	13630
986.980	12467
987.060	15481
987.141	15036
987.222	16205
987.302	18092
987.383	17496
987.464	16461
987.544	16919
987.625	15823
987.705	17968
987.786	17456
987.866	16277
987.947	16709
988.027	16574
988.108	14806
988.188	15479
988.268	15203
988.349	16159
988.429	14184
988.509	14164
988.589	14989
988.670	12710
988.750	15618
988.830	14588
988.910	15865
988.990	14516
989.070	13248
989.151	14106
989.231	12945
989.311	13899
989.391	12994
989.471	14281
989.551	13080
989.631	12994
989.711	14762
989.791	13818
989.870	11872
989.950	14318
990.030	13066
990.110	12173
990.190	11228
990.269	11559
990.349	12359
990.429	12342
990.509	11571
990.588	10621
990.668	11896
990.747	11962
990.827	10583
990.907	12701
990.986	12904
991.066	11137
991.145	11221
991.225	12792
991.304	10884
991.383	12398
991.463	10804
991.542	10760
991.622	9807
991.701	11418
991.780	9521
991.859	9849
991.939	10331
992.018	12251
992.097	10205
992.176	8238
992.256	9929
992.335	10838
992.414	9499
992.493	8827
992.572	8541
992.651	11717
992.730	9271
992.809	9570
992.888	9495
992.967	9922
993.046	9248
993.125	8221
993.203	9105
993.282	9642
993.361	8952
993.440	9546
993.519	8294
993.597	8704
993.676	8156
993.755	10306
993.834	8269
993.912	7047
993.991	8691
994.069	8805
994.148	7446
994.226	7148
994.305	7312
994.384	8600
994.462	9355
994.540	7535
994.619	5843
994.697	9465
994.776	8081
994.854	8780
994.932	5954
995.011	7658
995.089	6408
995.167	7049
995.245	7075
995.324	7562
995.402	7853
995.480	6244
995.558	6770
995.636	7149
995.714	6730
995.792	8966
995.870	4864
995.948	6145
996.026	7416
996.104	5962
996.182	7218
996.260	5577
996.338	5738
996.416	6998
996.494	6409
996.572	7253
996.649	4944
996.727	5927
996.805	7283
996.883	6465
996.960	5572
997.038	7444
997.116	6669
997.193	5195
997.271	4203
997.348	5034
997.426	5521
997.504	6774
997.581	6010
997.658	4591
997.736	2869
997.813	4712
997.891	6214
997.968	5279
998.046	4483
998.123	5922
998.200	6589
998.277	5569
998.355	4793
998.432	3922
998.509	3653
998.586	6315
998.663	5394
998.741	4781
998.818	4337
998.895	5211
998.972	5180
999.049	6293
999.126	3531
999.203	5113
999.280	4697
999.357	5242
999.434	4506
999.511	5444
999.587	3720
999.664	3374
999.741	4228
999.818	5668
999.895	4535
999.971	4012
1000.048	3756
1000.125	4279
1000.202	3461
1000.278	4510
1000.355	4699
1000.431	2824
1000.508	2853
1000.584	3759
1000.661	3430
1000.738	3854
1000.814	3135
1000.890	4753
1000.967	3969
1001.043	4239
1001.120	2736
1001.196	4127
1001.272	1851
1001.349	3898
1001.425	4763
1001.501	3666
1001.577	3150
1001.654	3386
1001.730	2909
1001.806	3716
1001.882	3924
1001.958	5426
1002.034	3951
1002.110	2727
1002.186	1788
1002.262	3702
1002.338	2263
1002.414	3651
1002.490	2709
1002.566	3059
1002.642	1700
1002.718	4128
1002.794	2506
1002.870	2840
1002.945	2341
1003.021	2738
1003.097	2207
1003.173	3445
1003.248	2575
1003.324	3453
1003.400	2226
1003.475	1554
1003.551	1857
1003.626	2901
1003.702	1760
1003.777	2413
1003.853	1725
1003.928	2497
1004.004	2265
1004.079	3687
1004.155	2932
1004.230	1708
1004.305	2466
1004.381	2053
1004.456	1068
1004.531	2456
1004.607	2158
1004.682	1838
1004.757	2466
1004.832	2664
1004.907	2240
1004.982	2710
1005.057	2474
1005.133	2153
1005.208	849
1005.283	1309
1005.358	1759
1005.433	638
1005.508	1477
1005.583	1941
1005.657	1933
1005.732	2818
1005.807	1546
1005.882	1749
1005.957	1064
1006.032	2327
1006.106	1689
1006.181	1918
1006.256	2858
1006.331	2076
1006.405	823
1006.480	1320
1006.554	541
1006.629	2142
1006.704	495
1006.778	1201
1006.853	1766
1006.927	1323
1007.002	695
1007.076	989
1007.150	77
1007.225	990
1007.299	2266
1007.373	1307
1007.448	512
1007.522	1222
1007.596	375
1007.671	1329
1007.745	1517
1007.819	1458
1007.893	1322
1007.967	1825
1008.041	886
1008.115	1540
1008.190	498
1008.264	1863
1008.338	-184
1008.412	246
1008.486	1697
1008.560	1326
1008.633	677
1008.707	1639
1008.781	885
1008.855	1501
1008.929	246
1009.003	-6
1009.076	755
1009.150	1142
1009.224	1387
1009.298	1373
1009.371	-208
1009.445	655
1009.519	586
1009.592	962
1009.666	165
1009.739	824
1009.813	468
1009.886	1635
1009.960	77
1010.033	1104
1010.107	645
1010.180	-296
1010.253	-516
1010.327	338
1010.400	-554
1010.473	836
1010.547	1572
1010.620	541
1010.693	235
1010.766	-310
1010.840	-94
1010.913	762
1010.986	-1321
1011.059	232
1011.132	-162
1011.205	1274
1011.278	-263
1011.351	28
1011.424	-201
1011.497	54
1011.570	250
1011.643	-72
1011.716	-1291
1011.789	-427
1011.862	-559
1011.934	975
1012.007	-1297
1012.080	-106
1012.153	-471
1012.225	107
1012.298	-990
1012.371	-444
1012.443	182
1012.516	-135
1012.588	-42
1012.661	80
1012.733	-413
1012.806	1065
1012.879	-1206
1012.951	156
1013.023	-430
1013.096	-209
1013.168	-685
1013.241	705
1013.313	-330
1013.385	-139
1013.458	-1204
1013.530	848
1013.602	-1075
1013.674	185
1013.746	-1847
1013.819	-1204
1013.891	445
1013.963	665
1014.035	-350
1014.107	547
1014.179	-725
1014.251	-596
1014.323	-567
1014.395	-439
1014.467	-1241
1014.539	79
1014.611	-1912
1014.683	-1125
1014.754	676
1014.826	-991
1014.898	-1022
1014.970	-1006
1015.042	-444
1015.113	784
1015.185	-807
1015.257	-393
1015.328	-68
1015.400	-737
1015.471	-435
1015.543	182
1015.615	-751
1015.686	278
1015.757	-1119
1015.829	-406
1015.901	-711
1015.972	-862
1016.043	-1710
1016.115	-958
1016.186	-794
1016.257	-262
1016.328	-900
1016.400	-333
1016.471	-1116
1016.542	-384
1016.613	-792
1016.685	-342
1016.756	424
1016.827	-1185
1016.898	-1925
1016.969	-814
1017.040	-1225
1017.111	-978
1017.182	-2099
1017.253	-1237
1017.324	-1410
1017.395	-421
1017.466	-1416
1017.537	-967
1017.608	-1765
1017.678	-1195
1017.749	-1461
1017.820	-504
1017.891	-2587
1017.961	-1263
1018.032	-1373
1018.103	-1006
1018.173	-1868
1018.244	-648
1018.315	-1545
1018.385	-419
1018.456	-1456
1018.526	-652
1018.597	-1987
1018.667	123
1018.738	-1348
1018.808	-690
1018.878	-1597
1018.949	-1156
1019.019	-1990
1019.089	-1493
1019.160	-1107
1019.230	-1069
1019.300	-1177
1019.371	-955
1019.441	-1661
1019.511	-1042
1019.581	-1524
1019.651	-969
1019.721	-932
1019.791	-921
1019.861	-1014
1019.931	-1095
1020.001	-1561
1020.071	-629
1020.141	-1285
1020.211	-1543
1020.281	-1703
1020.351	-1723
1020.421	-1207
1020.491	-170
1020.560	-1507
1020.630	-1024
1020.700	-1534
1020.770	-865
1020.839	-1361
1020.909	-1158
1020.979	-1969
1021.048	-1753
1021.118	-2388
1021.187	-1034
1021.257	-1529
1021.326	-675
1021.396	-1634
1021.465	-1747
1021.535	-1943
1021.604	-1651
1021.674	-1653
1021.743	-1176
1021.812	-1829
1021.882	-924
1021.951	-1583
1022.020	-831
1022.089	-585
1022.159	-1155
1022.228	-1425
1022.297	-1592
1022.366	-2374
1022.435	-1526
1022.504	-1445
1022.573	-488
1022.642	-1173
1022.711	-1609
1022.781	-1953
1022.849	-731
1022.918	-1949
1022.987	-1300
1023.056	-1895
1023.125	-1495
1023.194	-2347
1023.263	-749
1023.331	-1235
1023.400	-1859
1023.469	-1770
1023.538	-84
1023.606	-2408
1023.675	-1256
1023.744	-2305
1023.812	-1153
1023.881	-2200
1023.949	-1857
1024.018	-1754
1024.086	-1096
1024.155	-1794
1024.223	-1544
1024.292	-2646
1024.360	-902
1024.429	-2443
1024.497	-1773
1024.565	-1973
1024.634	-1668
1024.702	-1746
1024.770	-646
1024.838	-2389
1024.907	-2118
1024.975	-2268
1025.043	-835
1025.111	-2502
1025.179	-760
1025.247	-1796
1025.315	-1681
1025.383	-2333
1025.451	-1316
1025.519	-1714
1025.587	-2070
1025.655	-2362
1025.723	-1394
1025.791	-2493
1025.859	-1282
1025.927	-1336
1025.995	-1765
1026.062	-1122
1026.130	-1609
1026.198	-1594
1026.266	-2119
1026.333	-2042
1026.401	-614
1026.469	-2359
1026.536	-2242
1026.604	-2165
1026.671	-2212
1026.739	-1966
1026.806	-1671
1026.874	-2004
1026.941	-1598
1027.009	-1710
1027.076	-2307
1027.144	-1995
1027.211	-2420
1027.278	-2268
1027.345	-1680
1027.413	-1797
1027.480	-1208
1027.547	-2121
1027.614	-1019
1027.682	-1820
1027.749	-1435
1027.816	-2088
1027.883	-1210
1027.950	-1619
1028.017	-1878
1028.084	-1880
1028.151	-1647
1028.218	-2531
1028.285	-878
1028.352	-2409
1028.419	-2520
1028.486	-1740
1028.553	-2259
1028.619	-1638
1028.686	-1770
1028.753	-2106
1028.820	-1537
1028.886	-2008
1028.953	-1420
1029.020	-2514
1029.086	-1094
1029.153	-2975
1029.220	-1852
1029.286	-1870
1029.353	-2304
1029.419	-2831
1029.486	-1580
1029.552	-2041
1029.619	-1804
1029.685	-2942
1029.751	-2158
1029.818	-1487
1029.884	-1617
1029.951	-1425
1030.017	-1870
1030.083	-2009
1030.149	-1284
1030.216	-1914
1030.282	-1033
1030.348	-2853
1030.414	-1392
1030.480	-2204
1030.546	-1574
1030.612	-2064
1030.678	-1268
1030.744	-2195
1030.810	-1617
1030.876	-2428
1030.942	-1922
1031.008	-1690
1031.074	-1495
1031.140	-2623
1031.206	-1241
1031.272	-1854
1031.337	-1405
1031.403	-2218
1031.469	-2253
1031.534	-2585
1031.600	-1119
1031.666	-2107
1031.731	-1740
1031.797	-2796
1031.863	-1548
1031.928	-2572
1031.994	-2433
1032.059	-1867
1032.125	-1526
1032.190	-2654
1032.256	-1109
1032.321	-3033
1032.386	-2337
1032.452	-1692
1032.517	-1001
1032.582	-2338
1032.647	-1567
1032.713	-2250
1032.778	-1700
1032.843	-2314
1032.908	-1939
1032.974	-1895
1033.039	-1775
1033.104	-2227
1033.169	-1911
1033.234	-1852
1033.299	-1013
1033.364	-2343
1033.429	-1645
1033.494	-1114
1033.559	-2014
1033.624	-966
1033.688	-928
1033.753	-1394
1033.818	-365
1033.883	180
1033.948	306
1034.013	-98
1034.077	2099
1034.142	3248
1034.207	5418
1034.271	6622
1034.336	8639
1034.400	3682
1034.465	1671
1034.530	-815
1034.594	-1166
1034.658	-1892
1034.723	-1294
1034.787	-2221
1034.852	-1977
1034.916	-2020
1034.981	-1317
1035.045	-2566
1035.109	-1468
1035.173	-2099
1035.238	-1995
1035.302	-1701
1035.366	-1828
1035.430	-2544
1035.495	-1685
1035.559	-1707
1035.623	-1792
1035.687	-2068
1035.751	-1911
1035.815	-2575
1035.879	-1821
1035.943	-1623
1036.007	-1540
1036.071	-2030
1036.135	-1897
1036.198	-1746
1036.262	-2539
1036.326	-2163
1036.390	-1342
1036.454	-1318
1036.517	-1132
1036.581	-2199
1036.645	-1269
1036.709	-1954
1036.772	-2093
1036.836	-1852
1036.900	-1374
1036.963	-1948
1037.026	-1868
1037.090	-3012
1037.154	-2032
1037.217	-2282
1037.280	-1779
1037.344	-3065
1037.407	-911
1037.471	-1234
1037.534	-1086
1037.597	-2329
1037.661	-1647
1037.724	-1867
1037.787	-926
1037.850	-2188
1037.913	-1623
1037.977	-1580
1038.040	-1679
1038.103	-2257
1038.166	-2172
1038.229	-2326
1038.292	-2434
1038.355	-2462
1038.418	-2496
1038.481	-2255
1038.544	-1884
1038.607	-2091
1038.670	-1723
1038.732	-2560
1038.795	-2019
1038.858	-2422
1038.921	-1931
1038.984	-1833
1039.046	-2113
1039.109	-2446
1039.172	-2373
1039.234	-1288
1039.297	-1858
1039.360	-1889
1039.422	-2527
1039.485	-2405
1039.547	-2722
1039.610	-2504
1039.672	-1345
1039.734	-2005
1039.797	-1276
1039.859	-2292
1039.922	-1888
1039.984	-2246
1040.046	-2580
1040.109	-2435
1040.171	-1972
1040.233	-2784
1040.295	-1887
1040.358	-2577
1040.420	-2073
1040.482	-2504
1040.544	-1790
1040.606	-2282
1040.668	-1414
1040.730	-2431
1040.792	-2313
1040.854	-2224
1040.916	-2121
1040.978	-2734
1041.040	-1494
1041.102	-2228
1041.164	-2844
1041.225	-2520
1041.287	-2327
1041.349	-1913
1041.411	-2544
1041.472	-2006
1041.534	-1966
1041.596	-2357
1041.657	-1588
1041.719	-2408
1041.781	-2345
1041.842	-2218
1041.904	-1853
1041.965	-2854
1042.027	-3032
1042.088	-1746
1042.150	-1827
1042.211	-2729
1042.272	-1052
1042.334	-2204
1042.395	-2458
1042.456	-2060
1042.518	-1882
1042.579	-2409
1042.640	-2367
1042.701	-2640
1042.763	-2114
1042.824	-1894
1042.885	-1791
1042.946	-3238
1043.007	-2258
1043.068	-2471
1043.129	-2308
1043.190	-2777
1043.251	-1839
1043.312	-2634
1043.373	-1718
1043.434	-2844
1043.495	-1345
1043.556	-2196
1043.616	-998
1043.677	-2256
1043.738	-1351
1043.799	-2485
1043.859	-2224
1043.920	-2932
1043.981	-795
1044.041	-2343
1044.102	-1439
1044.162	-2010
1044.223	-2137
1044.284	-2173
1044.344	-1808
1044.405	-2481
1044.465	-1102
1044.525	-2148
1044.586	-1022
1044.646	-2117
1044.707	-1243
1044.767	-2674
1044.827	-1791
1044.887	-2245
1044.948	-1548
1045.008	-2086
1045.068	-1701
1045.128	-1598
1045.188	-1428
1045.249	-2144
1045.309	-1506
1045.369	-1626
1045.429	-2291
1045.489	-2298
1045.549	-2000
1045.609	-1683
1045.669	-1732
1045.729	-2487
1045.789	-1469
1045.848	-2041
1045.908	-971
1045.968	-2110
1046.028	-1547
1046.088	-1303
1046.147	-1196
1046.207	-2051
1046.267	-1666
1046.326	-2148
1046.386	-650
1046.446	-1071
1046.505	-1406
1046.565	-1150
1046.624	-704
1046.684	-1573
1046.743	-1321
1046.803	-1417
1046.862	-746
1046.922	0
