'Start Wavelength	183.907
'End Wavelength	1046.922
'Gate Delay	5.000
'Gate Width (ms)	1.050
'Laser Output Level	0.000
'X Position	0.000
'Y Position	0.000
'Z Position	0.000
'Grid Point Number	1.000
'Shot Number	100.000
183.907	-513.000
183.977	-242.000
184.047	-960
184.116	171
184.186	472
184.256	599
184.325	-194
184.395	-298
184.465	752
184.534	37
184.604	-282
184.674	80
184.743	-336
184.813	381
184.883	172
184.952	-601
185.022	297
185.092	702
185.161	-645
185.231	-41
185.301	-344
185.370	921
185.440	73
185.509	215
185.579	305
185.649	546
185.718	-715
185.788	441
185.857	-212
185.927	300
185.996	554
186.066	-293
186.136	-747
186.205	428
186.275	-188
186.344	677
186.414	-79
186.483	-389
186.553	475
186.622	724
186.692	-825
186.761	-392
186.831	-77
186.900	472
186.970	119
187.039	743
187.109	543
187.178	1081
187.248	231
187.317	834
187.387	-441
187.456	811
187.526	-196
187.595	607
187.664	-274
187.734	526
187.803	-752
187.873	420
187.942	306
188.012	137
188.081	-909
188.150	515
188.220	405
188.289	83
188.358	-572
188.428	-125
188.497	-568
188.567	346
188.636	-804
188.705	560
188.775	-129
188.844	-549
188.913	383
188.983	380
189.052	-915
189.121	278
189.191	-144
189.260	180
189.329	-124
189.399	322
189.468	345
189.537	537
189.606	544
189.676	1011
189.745	93
189.814	506
189.883	-486
189.953	-424
190.022	-156
190.091	1776
190.161	1230
190.230	-32
190.299	-548
190.368	917
190.437	-890
190.507	791
190.576	-69
190.645	319
190.714	-359
190.783	23
190.853	329
190.922	840
190.991	-282
191.060	185
191.129	-1163
191.198	320
191.268	-509
191.337	-22
191.406	230
191.475	689
191.544	-247
191.613	8
191.682	-1291
191.752	310
191.821	217
191.890	153
191.959	-591
192.028	169
192.097	105
192.166	289
192.235	-811
192.304	1008
192.373	-243
192.442	199
192.511	142
192.580	98
192.650	18
192.719	-8
192.788	-239
192.857	951
192.926	-165
192.995	586
193.064	586
193.133	786
193.202	897
193.271	1163
193.340	860
193.409	1332
193.478	150
193.547	1716
193.615	581
193.684	732
193.753	-407
193.822	743
193.891	-577
193.960	402
194.029	-635
194.098	143
194.167	-374
194.236	642
194.305	-54
194.374	879
194.443	98
194.512	1449
194.580	350
194.649	877
194.718	-280
194.787	729
194.856	-525
194.925	567
194.994	-456
195.062	646
195.131	-28
195.200	462
195.269	108
195.338	672
195.407	-680
195.475	141
195.544	213
195.613	350
195.682	89
195.751	541
195.819	-368
195.888	613
195.957	1027
196.026	989
196.094	130
196.163	775
196.232	956
196.301	1069
196.369	127
196.438	517
196.507	-218
196.576	155
196.644	-556
196.713	176
196.782	-553
196.850	488
196.919	-295
196.988	757
197.056	-228
197.125	334
197.194	263
197.262	188
197.331	-347
197.400	44
197.468	105
197.537	-403
197.606	14
197.674	610
197.743	1282
197.812	1017
197.880	877
197.949	1369
198.017	1014
198.086	696
198.155	170
198.223	1568
198.292	1649
198.360	682
198.429	450
198.497	332
198.566	1573
198.635	1983
198.703	593
198.772	984
198.840	2026
198.909	2755
198.977	-576
199.046	450
199.114	91
199.183	629
199.251	-298
199.320	319
199.388	-386
199.457	579
199.525	166
199.594	423
199.662	176
199.731	690
199.799	-758
199.867	748
199.936	-463
200.004	1361
200.073	-312
200.141	-51
200.210	-756
200.278	95
200.346	496
200.415	730
200.483	491
200.552	682
200.620	-287
200.688	1071
200.757	-411
200.825	1170
200.893	-710
200.962	525
201.030	-364
201.098	661
201.167	582
201.235	380
201.303	674
201.372	808
201.440	-302
201.508	449
201.577	-189
201.645	1036
201.713	-234
201.781	-261
201.850	640
201.918	466
201.986	367
202.055	774
202.123	304
202.191	816
202.259	744
202.327	409
202.396	284
202.464	380
202.532	-825
202.600	1323
202.669	304
202.737	128
202.805	-102
202.873	462
202.941	-135
203.009	561
203.078	-176
203.146	80
203.214	150
203.282	-264
203.350	473
203.418	316
203.487	-351
203.555	714
203.623	-145
203.691	797
203.759	-41
203.827	93
203.895	-113
203.963	624
204.031	-57
204.099	771
204.168	89
204.236	1447
204.304	-216
204.372	950
204.440	84
204.508	293
204.576	-177
204.644	485
204.712	360
204.780	610
204.848	-94
204.916	300
204.984	4
205.052	481
205.120	64
205.188	638
205.256	-140
205.324	990
205.392	-101
205.460	1121
205.528	-19
205.596	1192
205.664	188
205.732	-136
205.799	1994
205.867	3963
205.935	736
206.003	1665
206.071	58
206.139	649
206.207	-118
206.275	719
206.343	-106
206.411	1100
206.478	365
206.546	15
206.614	-135
206.682	536
206.750	446
206.818	1428
206.885	1174
206.953	-3
207.021	1518
207.089	1067
207.157	-154
207.225	947
207.292	-19
207.360	365
207.428	147
207.496	-83
207.563	690
207.631	613
207.699	-420
207.767	-71
207.834	-94
207.902	600
207.970	163
208.038	111
208.105	734
208.173	1113
208.241	290
208.309	1641
208.376	1003
208.444	2437
208.512	673
208.579	29
208.647	344
208.715	2165
208.782	555
208.850	333
208.918	305
208.985	544
209.053	1002
209.120	1346
209.188	226
209.256	475
209.323	-268
209.391	1000
209.459	1775
209.526	275
209.594	651
209.661	864
209.729	510
209.796	1365
209.864	853
209.932	-621
209.999	1135
210.067	1676
210.134	1028
210.202	410
210.269	1949
210.337	1273
210.404	373
210.472	1559
210.539	-130
210.607	1727
210.674	707
210.742	2015
210.809	1025
210.877	1198
210.944	1773
211.012	405
211.079	1690
211.146	863
211.214	754
211.281	2160
211.349	1660
211.416	1109
211.484	979
211.551	841
211.618	1330
211.686	1807
211.753	578
211.821	1247
211.888	528
211.955	1728
212.023	508
212.090	1544
212.157	1113
212.225	2395
212.292	2821
212.359	5031
212.427	13591
212.494	6270
212.561	2183
212.629	3028
212.696	1008
212.763	1762
212.831	120
212.898	2303
212.965	298
213.032	2357
213.100	1634
213.167	1638
213.234	1296
213.301	1909
213.369	1792
213.436	1490
213.503	542
213.570	2144
213.638	1810
213.705	841
213.772	1196
213.839	1690
213.906	1999
213.973	2025
214.041	189
214.108	2337
214.175	1339
214.242	1221
214.309	715
214.376	2451
214.444	1277
214.511	1867
214.578	998
214.645	2278
214.712	2432
214.779	1557
214.846	417
214.913	2296
214.980	1240
215.048	1842
215.115	1713
215.182	2513
215.249	1481
215.316	1080
215.383	1695
215.450	1043
215.517	1442
215.584	1568
215.651	613
215.718	1238
215.785	1617
215.852	1288
215.919	1711
215.986	1464
216.053	342
216.120	1545
216.187	1670
216.254	1659
216.321	1256
216.388	1654
216.455	1432
216.522	2139
216.589	1924
216.656	3541
216.722	2528
216.789	2877
216.856	2033
216.923	2850
216.990	2539
217.057	2461
217.124	2305
217.191	2882
217.258	3070
217.324	3631
217.391	3770
217.458	3717
217.525	1957
217.592	2814
217.659	9
217.725	2301
217.792	2226
217.859	2874
217.926	930
217.993	1807
218.059	1969
218.126	1221
218.193	2038
218.260	963
218.327	-179
218.393	2244
218.460	1133
218.527	1202
218.594	1042
218.660	2375
218.727	1990
218.794	910
218.860	1583
218.927	1409
218.994	269
219.061	1210
219.127	827
219.194	2258
219.261	791
219.327	1515
219.394	904
219.461	755
219.527	448
219.594	2085
219.661	1332
219.727	738
219.794	317
219.860	1018
219.927	1867
219.994	2243
220.060	3055
220.127	2114
220.193	3247
220.260	2470
220.326	2325
220.393	5581
220.460	5984
220.526	5007
220.593	2891
220.659	4617
220.726	2670
220.792	8206
220.859	7327
220.925	8888
220.992	10208
221.058	9783
221.125	9796
221.191	8870
221.258	3421
221.324	3272
221.391	2676
221.457	1600
221.524	1746
221.590	3267
221.657	8783
221.723	7843
221.789	5118
221.856	5236
221.922	2917
221.989	2294
222.055	991
222.121	1495
222.188	3366
222.254	2177
222.321	805
222.387	1060
222.453	1075
222.520	794
222.586	735
222.652	1824
222.719	87
222.785	1988
222.851	525
222.918	1181
222.984	883
223.050	937
223.116	-344
223.183	1179
223.249	620
223.315	1227
223.382	365
223.448	756
223.514	178
223.580	976
223.647	-307
223.713	874
223.779	101
223.845	912
223.911	583
223.978	243
224.044	1008
224.110	595
224.176	1000
224.242	879
224.309	-86
224.375	986
224.441	176
224.507	626
224.573	-482
224.639	1996
224.705	-290
224.772	113
224.838	271
224.904	1808
224.970	686
225.036	1173
225.102	-90
225.168	1658
225.234	592
225.300	425
225.366	450
225.432	770
225.499	1505
225.565	988
225.631	656
225.697	1567
225.763	1962
225.829	3062
225.895	2106
225.961	3542
226.027	3319
226.093	2658
226.159	4257
226.225	6111
226.291	11446
226.357	16888
226.423	9602
226.489	7206
226.554	4607
226.620	4384
226.686	6150
226.752	7937
226.818	11141
226.884	22118
226.950	18507
227.016	8996
227.082	5911
227.148	3840
227.214	3975
227.279	3818
227.345	2332
227.411	2908
227.477	2312
227.543	4254
227.609	3532
227.674	3020
227.740	1583
227.806	2971
227.872	1356
227.938	2174
228.003	2626
228.069	1848
228.135	675
228.201	1806
228.267	904
228.332	2138
228.398	709
228.464	1639
228.530	708
228.595	1229
228.661	-608
228.727	2415
228.792	3425
228.858	877
228.924	245
228.990	3338
229.055	225
229.121	2360
229.187	296
229.252	2121
229.318	609
229.384	1123
229.449	1690
229.515	-720
229.581	302
229.646	2870
229.712	615
229.777	2953
229.843	2720
229.909	3313
229.974	2105
230.040	2998
230.105	1374
230.171	1657
230.236	3747
230.302	4797
230.368	2739
230.433	2407
230.499	1723
230.564	3085
230.630	1785
230.695	2562
230.761	2302
230.826	423
230.892	2206
230.957	1025
231.023	1796
231.088	1540
231.154	1454
231.219	1601
231.284	1903
231.350	2608
231.415	835
231.481	2198
231.546	882
231.612	2010
231.677	466
231.742	363
231.808	2397
231.873	1166
231.939	-231
232.004	3814
232.069	1895
232.135	2175
232.200	602
232.265	1638
232.331	1127
232.396	793
232.461	882
232.527	612
232.592	736
232.657	931
232.723	1660
232.788	1896
232.853	1065
232.918	1969
232.984	703
233.049	1709
233.114	2207
233.179	2725
233.245	3750
233.310	4854
233.375	929
233.440	2409
233.506	794
233.571	976
233.636	1401
233.701	1365
233.766	2659
233.832	4239
233.897	1609
233.962	747
234.027	2546
234.092	2843
234.157	1245
234.222	2892
234.288	1969
234.353	9781
234.418	8300
234.483	4934
234.548	3609
234.613	3046
234.678	2856
234.743	2879
234.808	9929
234.873	6487
234.938	2743
235.004	2063
235.069	1861
235.134	2845
235.199	3006
235.264	2562
235.329	969
235.394	2316
235.459	3508
235.524	3210
235.589	3415
235.654	1740
235.719	1101
235.784	2608
235.849	1845
235.913	5863
235.978	5061
236.043	6214
236.108	3059
236.173	2786
236.238	2398
236.303	3215
236.368	2909
236.433	5134
236.498	7937
236.563	6848
236.627	10440
236.692	30847
236.757	26395
236.822	11610
236.887	7983
236.952	7033
237.017	5032
237.081	7798
237.146	7364
237.211	17973
237.276	31400
237.341	45254
237.405	24582
237.470	11651
237.535	8233
237.600	5835
237.664	5749
237.729	3030
237.794	4154
237.859	11694
237.923	6201
237.988	4623
238.053	5257
238.118	5198
238.182	13536
238.247	12946
238.312	4411
238.376	4624
238.441	2039
238.506	4051
238.570	900
238.635	3769
238.700	1913
238.764	2790
238.829	5228
238.893	7459
238.958	4254
239.023	3319
239.087	1823
239.152	3419
239.216	1372
239.281	3053
239.346	2874
239.410	2675
239.475	2660
239.539	14037
239.604	9548
239.668	4463
239.733	2082
239.797	4330
239.862	8166
239.926	11622
239.991	4861
240.055	3736
240.120	1777
240.184	3312
240.249	1074
240.313	2088
240.378	1655
240.442	8031
240.507	12093
240.571	3747
240.635	4374
240.700	7704
240.764	2246
240.829	2535
240.893	762
240.957	2573
241.022	7428
241.086	12359
241.151	4376
241.215	1882
241.279	2646
241.344	6166
241.408	3506
241.472	2768
241.537	3780
241.601	3581
241.665	1915
241.730	2623
241.794	3588
241.858	2421
241.922	3258
241.987	3518
242.051	2236
242.115	2463
242.179	2568
242.244	2269
242.308	2781
242.372	3529
242.436	3566
242.501	3651
242.565	2438
242.629	2954
242.693	2950
242.757	2184
242.822	2045
242.886	3590
242.950	2903
243.014	1935
243.078	3182
243.142	3691
243.206	2662
243.271	4384
243.335	3972
243.399	6164
243.463	16610
243.527	47179
243.591	13937
243.655	6715
243.719	3373
243.783	5347
243.847	7084
243.911	8776
243.975	9106
244.040	6262
244.104	4432
244.168	4038
244.232	4580
244.296	7058
244.360	7286
244.424	3964
244.488	2427
244.552	4242
244.615	1496
244.679	3218
244.743	2034
244.807	3488
244.871	1601
244.935	2101
244.999	1130
245.063	2647
245.127	3533
245.191	5254
245.255	4098
245.319	3851
245.383	1980
245.446	3984
245.510	1519
245.574	3008
245.638	3137
245.702	1762
245.766	6507
245.829	4426
245.893	2702
245.957	3502
246.021	3697
246.085	4207
246.149	4501
246.212	10124
246.276	13716
246.340	5929
246.404	4191
246.467	4644
246.531	5153
246.595	5858
246.659	5048
246.722	3436
246.786	5119
246.850	6006
246.913	6323
246.977	2850
247.041	3268
247.104	4225
247.168	3850
247.232	8589
247.295	18531
247.359	9539
247.423	5070
247.486	8375
247.550	5200
247.614	4031
247.677	4860
247.741	4500
247.804	2534
247.868	5672
247.932	7549
247.995	19147
248.059	6813
248.122	3771
248.186	6540
248.249	10266
248.313	29742
248.376	30967
248.440	20103
248.503	7496
248.567	7673
248.630	8505
248.694	11589
248.757	16661
248.821	32764
248.884	20654
248.948	17970
249.011	25677
249.075	37104
249.138	29924
249.202	12558
249.265	9184
249.328	11758
249.392	8465
249.455	7126
249.519	6170
249.582	6746
249.645	11405
249.709	8682
249.772	8517
249.835	6702
249.899	6128
249.962	6073
250.025	5560
250.089	12306
250.152	16794
250.215	8504
250.279	6591
250.342	8166
250.405	8265
250.468	7327
250.532	9328
250.595	13508
250.658	45914
250.721	73635
250.785	25757
250.848	15501
250.911	8912
250.974	8206
251.038	11395
251.101	21661
251.164	12713
251.227	12374
251.290	12904
251.354	18793
251.417	64594
251.480	63905
251.543	44615
251.606	115919
251.669	86371
251.732	33227
251.795	31137
251.859	32043
251.922	72800
251.985	41510
252.048	18261
252.111	13288
252.174	13493
252.237	20472
252.300	41313
252.363	44524
252.426	89882
252.489	37212
252.552	19483
252.615	13380
252.678	15255
252.741	31571
252.804	43476
252.867	93076
252.930	51030
252.993	26590
253.056	16910
253.119	11651
253.182	9986
253.245	15253
253.308	13853
253.371	11696
253.434	11132
253.497	10383
253.559	18237
253.622	12492
253.685	15943
253.748	14696
253.811	8838
253.874	10330
253.937	9833
254.000	7685
254.062	12935
254.125	18217
254.188	17682
254.251	14342
254.314	6899
254.376	11567
254.439	14562
254.502	11048
254.565	12516
254.628	22418
254.690	12366
254.753	6501
254.816	5117
254.878	7385
254.941	13861
255.004	12665
255.067	6026
255.129	6162
255.192	4276
255.255	3078
255.317	4249
255.380	3484
255.443	647
255.505	1751
255.568	2155
255.631	2472
255.693	4474
255.756	2492
255.819	3954
255.881	2682
255.944	3147
256.006	2011
256.069	2854
256.132	2736
256.194	5029
256.257	11230
256.319	8026
256.382	7307
256.444	6045
256.507	3602
256.569	4517
256.632	4777
256.694	7795
256.757	19879
256.819	55019
256.882	24265
256.944	10659
257.007	8180
257.069	8165
257.132	5134
257.194	6500
257.257	5469
257.319	5841
257.381	6934
257.444	17110
257.506	59982
257.569	66416
257.631	32941
257.693	17222
257.756	8239
257.818	6429
257.880	5177
257.943	5062
258.005	3579
258.067	4327
258.130	3935
258.192	4738
258.254	8519
258.317	5962
258.379	4234
258.441	11054
258.503	9666
258.566	14518
258.628	16927
258.690	4353
258.753	5963
258.815	9563
258.877	4722
258.939	4710
259.001	4170
259.064	3694
259.126	4694
259.188	7208
259.250	4660
259.312	6271
259.375	13743
259.437	8538
259.499	4400
259.561	4319
259.623	4115
259.685	3763
259.747	3831
259.809	14481
259.872	23237
259.934	37092
259.996	31794
260.058	9105
260.120	3998
260.182	3540
260.244	2616
260.306	2787
260.368	3714
260.430	3074
260.492	7641
260.554	14838
260.616	9903
260.678	18031
260.740	21924
260.802	5866
260.864	5418
260.926	3586
260.988	5172
261.050	4523
261.112	10351
261.174	28194
261.236	19529
261.298	6993
261.359	10474
261.421	14980
261.483	4487
261.545	5284
261.607	2272
261.669	3527
261.731	6533
261.793	15706
261.854	5911
261.916	5802
261.978	3974
262.040	5084
262.102	3187
262.164	5451
262.225	4168
262.287	4180
262.349	8043
262.411	6231
262.472	3986
262.534	6982
262.596	13637
262.658	5638
262.719	1883
262.781	5241
262.843	13009
262.904	6542
262.966	5291
263.028	7168
263.090	27878
263.151	68036
263.213	22337
263.275	11965
263.336	4767
263.398	4261
263.459	2204
263.521	3051
263.583	7751
263.644	5585
263.706	1545
263.767	2049
263.829	1895
263.891	2525
263.952	1881
264.014	2732
264.075	3398
264.137	11982
264.198	5610
264.260	2321
264.321	1817
264.383	6331
264.444	16843
264.506	5761
264.567	3134
264.629	7523
264.690	13542
264.752	6018
264.813	3498
264.875	2738
264.936	3533
264.998	2775
265.059	2541
265.120	4376
265.182	5815
265.243	29294
265.305	28693
265.366	8755
265.427	3464
265.489	3753
265.550	1519
265.611	3399
265.673	2438
265.734	3499
265.795	2547
265.857	3252
265.918	3244
265.979	9106
266.040	44222
266.102	37910
266.163	11276
266.224	8434
266.286	3718
266.347	2335
266.408	2450
266.469	4015
266.530	2525
266.592	2097
266.653	5258
266.714	8816
266.775	2573
266.836	2130
266.898	1053
266.959	4735
267.020	1898
267.081	3594
267.142	1685
267.203	2536
267.264	1878
267.326	3721
267.387	1287
267.448	1478
267.509	2675
267.570	2438
267.631	1143
267.692	2181
267.753	2293
267.814	1175
267.875	5131
267.936	11477
267.997	6022
268.058	6431
268.119	2951
268.180	3990
268.241	2226
268.302	2810
268.363	2039
268.424	3293
268.485	2375
268.546	1710
268.607	929
268.668	1504
268.729	886
268.790	2150
268.851	1951
268.912	6433
268.972	7532
269.033	4466
269.094	1450
269.155	2570
269.216	1345
269.277	2980
269.338	1860
269.398	2246
269.459	1953
269.520	4520
269.581	5270
269.642	5869
269.702	3862
269.763	4009
269.824	2738
269.885	3683
269.945	5365
270.006	3117
270.067	1589
270.128	2043
270.188	1312
270.249	2459
270.310	1345
270.370	2651
270.431	1540
270.492	1688
270.553	2326
270.613	5852
270.674	10127
270.734	4685
270.795	2764
270.856	4740
270.916	2949
270.977	3174
271.038	2917
271.098	3323
271.159	4500
271.219	5987
271.280	2377
271.340	3281
271.401	3181
271.462	7922
271.522	4162
271.583	3640
271.643	2791
271.704	3851
271.764	4216
271.825	8873
271.885	29216
271.946	37224
272.006	12496
272.066	17511
272.127	28069
272.187	10115
272.248	5635
272.308	4972
272.369	18592
272.429	10696
272.489	8677
272.550	8182
272.610	9103
272.671	6539
272.731	5901
272.791	9223
272.852	4918
272.912	5107
272.972	2920
273.033	3089
273.093	5271
273.153	5508
273.214	2332
273.274	4262
273.334	14280
273.394	27215
273.455	10622
273.515	10987
273.575	22493
273.635	9659
273.696	13380
273.756	26081
273.816	11754
273.876	7548
273.936	13914
273.997	24250
274.057	7568
274.117	5812
274.177	7572
274.237	33582
274.297	27678
274.358	19715
274.418	20295
274.478	16602
274.538	6040
274.598	5347
274.658	19157
274.718	22969
274.778	9797
274.838	6291
274.898	11533
274.958	31859
275.018	28044
275.078	18066
275.138	7234
275.198	5162
275.258	3010
275.318	5012
275.378	9393
275.438	9612
275.498	6797
275.558	16372
275.618	29531
275.678	18227
275.738	11990
275.798	9376
275.858	4390
275.918	3224
275.978	4378
276.038	5117
276.098	2355
276.157	7362
276.217	18309
276.277	8526
276.337	5776
276.397	3879
276.457	4650
276.517	3788
276.576	3199
276.636	3186
276.696	4554
276.756	11994
276.815	7980
276.875	4803
276.935	4610
276.995	4674
277.055	2591
277.114	2427
277.174	4544
277.234	13388
277.293	6911
277.353	4031
277.413	2656
277.472	4370
277.532	3417
277.592	4921
277.651	11263
277.711	18886
277.771	6869
277.830	24164
277.890	17811
277.950	14604
278.009	38857
278.069	14407
278.128	14143
278.188	18769
278.248	8947
278.307	20790
278.367	12655
278.426	6033
278.486	4465
278.545	3813
278.605	3273
278.664	3549
278.724	3663
278.783	11859
278.843	26085
278.902	9065
278.962	5716
279.021	6645
279.081	8031
279.140	7971
279.199	7906
279.259	7575
279.318	7506
279.378	10044
279.437	16390
279.496	49206
279.556	129701
279.615	93137
279.675	25315
279.734	17100
279.793	24212
279.853	38164
279.912	16737
279.971	10640
280.031	9623
280.090	16810
280.149	27135
280.208	20904
280.268	85982
280.327	81098
280.386	20187
280.445	16151
280.505	13840
280.564	7898
280.623	5808
280.682	8914
280.742	13362
280.801	6444
280.860	4360
280.919	3261
280.978	2870
281.037	3591
281.097	1912
281.156	3987
281.215	2942
281.274	3678
281.333	17168
281.392	12671
281.451	2948
281.510	3315
281.569	2019
281.628	2329
281.688	2056
281.747	2951
281.806	2605
281.865	3243
281.924	2196
281.983	2304
282.042	1653
282.101	2680
282.160	2401
282.219	2227
282.278	1707
282.337	9137
282.396	5852
282.454	3023
282.513	3294
282.572	14052
282.631	8422
282.690	3739
282.749	1527
282.808	3999
282.867	2809
282.926	4079
282.985	2106
283.043	2554
283.102	1307
283.161	3279
283.220	7486
283.279	15625
283.338	5983
283.396	3444
283.455	3294
283.514	3670
283.573	5824
283.631	4920
283.690	2338
283.749	3244
283.808	6288
283.866	8076
283.925	1930
283.984	2625
284.043	4026
284.101	4071
284.160	2833
284.219	5704
284.277	3606
284.336	5927
284.395	19463
284.453	15807
284.512	4979
284.570	8368
284.629	6909
284.688	6032
284.746	6012
284.805	7371
284.863	9093
284.922	12214
284.981	14483
285.039	20974
285.098	33849
285.156	72622
285.215	135279
285.273	129685
285.332	77413
285.390	43749
285.449	25829
285.507	19408
285.566	12968
285.624	10752
285.683	9548
285.741	8793
285.799	5997
285.858	6341
285.916	4771
285.975	4841
286.033	3469
286.091	3350
286.150	2518
286.208	3762
286.267	3249
286.325	4065
286.383	6272
286.442	5707
286.500	2676
286.558	3426
286.616	2228
286.675	4862
286.733	3033
286.791	3881
286.850	3852
286.908	5309
286.966	7979
287.024	3933
287.083	2510
287.141	2293
287.199	3153
287.257	5272
287.315	3491
287.374	3825
287.432	8652
287.490	6735
287.548	4614
287.606	4133
287.664	3603
287.723	5136
287.781	6202
287.839	5440
287.897	5850
287.955	9160
288.013	12698
288.071	24117
288.129	85687
288.187	205350
288.245	103109
288.303	34849
288.361	19280
288.419	12930
288.477	9485
288.535	7422
288.593	5815
288.651	4970
288.709	3745
288.767	4168
288.825	3026
288.883	3865
288.941	2447
288.999	2930
289.057	1980
289.115	2269
289.173	1453
289.231	2582
289.289	2129
289.346	2837
289.404	3632
289.462	5502
289.520	5179
289.578	3190
289.636	1955
289.694	2587
289.751	1659
289.809	2474
289.867	2404
289.925	3523
289.983	3578
290.040	2343
290.098	1859
290.156	2062
290.214	3594
290.271	2590
290.329	1520
290.387	2140
290.444	1768
290.502	1192
290.560	1829
290.617	2442
290.675	1207
290.733	2527
290.790	2311
290.848	2384
290.906	1612
290.963	2626
291.021	2278
291.078	3045
291.136	2302
291.194	8374
291.251	16305
291.309	5599
291.366	1555
291.424	2510
291.481	1636
291.539	2525
291.596	1939
291.654	1678
291.711	1657
291.769	2540
291.826	4970
291.884	3866
291.941	1650
291.999	2180
292.056	2056
292.114	3257
292.171	1780
292.228	3159
292.286	1875
292.343	5157
292.401	6423
292.458	4186
292.515	2305
292.573	4355
292.630	3392
292.687	4771
292.745	2802
292.802	4212
292.859	9688
292.917	17444
292.974	9487
293.031	3967
293.089	2477
293.146	2299
293.203	1279
293.260	2502
293.318	3191
293.375	5341
293.432	3245
293.489	3101
293.546	2699
293.604	4485
293.661	11073
293.718	28627
293.775	14317
293.832	7958
293.889	5001
293.947	6410
294.004	4930
294.061	4452
294.118	8660
294.175	16742
294.232	21812
294.289	9923
294.346	6510
294.403	7098
294.460	4317
294.517	3835
294.574	3069
294.631	3156
294.688	4144
294.745	9714
294.802	33163
294.859	36406
294.916	15391
294.973	8906
295.030	6751
295.087	5505
295.144	4163
295.201	4135
295.258	3745
295.315	5401
295.372	13107
295.429	24132
295.486	10745
295.542	6627
295.599	15587
295.656	26866
295.713	17227
295.770	21495
295.827	9386
295.883	5469
295.940	4624
295.997	7329
296.054	6776
296.111	4764
296.167	3032
296.224	2937
296.281	1722
296.338	3478
296.394	3128
296.451	4534
296.508	9875
296.564	18958
296.621	13551
296.678	27415
296.734	39205
296.791	16146
296.848	7942
296.904	8641
296.961	16809
297.018	27160
297.074	19837
297.131	9030
297.187	6630
297.244	9045
297.301	24556
297.357	43180
297.414	16786
297.470	8117
297.527	4377
297.583	4550
297.640	4484
297.696	3210
297.753	2578
297.809	3050
297.866	2042
297.922	3916
297.979	2642
298.035	4217
298.092	5734
298.148	15082
298.204	14378
298.261	8532
298.317	13447
298.374	32567
298.430	20413
298.486	10356
298.543	7993
298.599	6620
298.656	7420
298.712	12231
298.768	27904
298.824	20780
298.881	7636
298.937	5065
298.993	5019
299.050	5874
299.106	5217
299.162	5714
299.218	4941
299.275	4607
299.331	3727
299.387	8250
299.443	27610
299.500	29756
299.556	12236
299.612	7259
299.668	5792
299.724	7243
299.780	7123
299.837	5665
299.893	7871
299.949	23034
300.005	27039
300.061	24180
300.117	38802
300.173	20027
300.229	8784
300.285	10996
300.341	12347
300.397	7031
300.453	3980
300.510	4312
300.566	4310
300.622	5941
300.678	12924
300.734	24929
300.790	23189
300.845	27955
300.901	17085
300.957	23783
301.013	18557
301.069	7539
301.125	6535
301.181	6283
301.237	5095
301.293	3579
301.349	3381
301.405	2708
301.461	3483
301.516	6400
301.572	4883
301.628	9197
301.684	8227
301.740	11085
301.796	16930
301.851	12421
301.907	19605
301.963	19305
302.019	28549
302.074	73069
302.130	76177
302.186	38710
302.242	16453
302.297	11456
302.353	9847
302.409	17214
302.464	14801
302.520	12420
302.576	28271
302.631	32861
302.687	19877
302.743	10665
302.798	6716
302.854	5380
302.910	5778
302.965	6644
303.021	10998
303.076	10488
303.132	12151
303.187	15329
303.243	8241
303.299	5638
303.354	3993
303.410	5413
303.465	4101
303.521	4165
303.576	3922
303.632	6303
303.687	8216
303.743	25479
303.798	23050
303.853	11532
303.909	6100
303.964	5894
304.020	7370
304.075	12509
304.130	9918
304.186	18798
304.241	19245
304.297	15634
304.352	8006
304.358	7755
304.407	5725
304.449	6087
304.463	6212
304.518	6218
304.539	5839
304.573	5231
304.629	6283
304.630	6316
304.684	8325
304.720	16468
304.739	20367
304.794	28870
304.811	25140
304.850	16341
304.902	8386
304.905	7884
304.960	6747
304.992	5822
305.015	5093
305.071	6977
305.083	6450
305.126	4573
305.173	3848
305.181	3753
305.236	3772
305.264	4177
305.292	4570
305.347	4522
305.354	4714
305.402	6006
305.445	6646
305.457	6782
305.512	8634
305.535	8044
305.567	7337
305.622	7909
305.626	8140
305.678	14516
305.716	26369
305.733	29966
305.788	32556
305.807	27998
305.843	21427
305.897	27296
305.898	27325
305.953	27702
305.988	18844
306.008	14433
306.063	9308
306.078	8267
306.118	5963
306.168	4591
306.173	4467
306.228	4118
306.259	4219
306.283	4425
306.338	3887
306.349	4187
306.393	5384
306.440	5281
306.448	5263
306.503	6587
306.530	6275
306.558	7321
306.613	14842
306.620	15813
306.668	21807
306.711	28932
306.723	29284
306.778	21714
306.801	16760
306.833	12255
306.888	6488
306.892	6358
306.943	5635
306.982	4815
306.997	4567
307.052	5134
307.072	4809
307.107	4849
307.162	7220
307.163	7234
307.217	9194
307.253	11236
307.272	11544
307.327	10819
307.343	10294
307.381	9985
307.434	9195
307.436	9445
307.491	18573
307.524	26443
307.546	27449
307.600	25487
307.614	22772
307.655	15379
307.704	9662
307.710	9625
307.765	11275
307.795	13989
307.819	16040
307.874	22976
307.885	23218
307.929	20720
307.975	18276
307.984	19356
308.038	29517
308.065	36332
308.093	62144
308.148	124742
308.156	137373
308.202	181268
308.246	204059
308.257	197693
308.312	118638
308.336	84971
308.366	64556
308.421	38303
308.426	36070
308.475	24263
308.517	17599
308.530	16246
308.585	14601
308.607	13653
308.639	13677
308.694	14795
308.697	14930
308.748	23559
308.787	32769
308.803	32248
308.857	24405
308.877	21057
308.912	20236
308.967	21311
308.967	21350
309.021	30586
309.058	37286
309.076	48278
309.130	86170
309.148	100587
309.185	166690
309.238	276822
309.239	277255
309.293	267083
309.328	238036
309.348	209187
309.402	111170
309.418	85824
309.457	62277
309.508	38536
309.511	37816
309.566	30957
309.598	27764
309.620	28350
309.674	32219
309.688	33453
309.729	31341
309.778	26499
309.783	26162
309.837	21991
309.868	20263
309.892	26077
309.946	40689
309.959	44985
310.001	52138
310.049	57498
310.055	55440
310.109	32044
310.139	18782
310.163	15224
310.218	10166
310.229	9215
310.272	7983
310.319	7545
310.326	7425
310.381	6109
310.409	5924
310.435	6098
310.489	5788
310.499	5829
310.543	6100
310.589	5972
310.598	5907
310.652	6021
310.679	5837
310.706	5151
310.760	4111
310.769	3887
310.814	3849
310.859	4080
310.868	4070
310.923	3813
310.948	3765
310.977	4419
311.031	5663
311.038	5848
311.085	5334
311.128	4570
311.139	4654
311.193	5301
311.218	5485
311.247	5161
311.301	4768
311.308	4679
311.356	4434
311.398	4418
311.410	4404
311.464	4133
311.488	4035
311.518	4231
311.572	4554
311.578	4602
311.626	5987
311.668	7149
311.680	7218
311.734	7378
311.758	7426
311.788	6967
311.842	6208
311.847	6118
311.896	8871
311.937	11276
311.950	10881
312.004	9034
312.027	8201
312.058	7183
312.112	5363
312.117	5177
312.165	5418
312.207	5617
312.297	7809
312.386	5897
312.476	7092
312.566	11632
312.656	5677
312.745	4110
312.835	4732
312.925	6087
313.015	6021
313.104	4738
313.194	4275
313.284	5178
313.374	7232
313.463	5476
313.553	4547
313.643	4252
313.732	4397
313.822	3816
313.912	5069
314.001	5242
314.091	6741
314.180	7207
314.270	8288
314.360	8050
314.449	6383
314.539	4669
314.628	4740
314.718	5284
314.808	6548
314.897	4606
314.987	4605
315.076	6532
315.166	7538
315.255	6345
315.345	6920
315.434	6219
315.524	6269
315.613	7368
315.703	9477
315.792	12195
315.881	27233
315.971	10415
316.060	14013
316.150	18444
316.239	16630
316.328	5743
316.418	4526
316.507	4707
316.597	7652
316.686	6523
316.775	10811
316.865	17206
316.954	4667
317.043	3886
317.133	5304
317.222	3644
317.311	4176
317.400	3309
317.490	8018
317.579	6740
317.668	5056
317.757	8446
317.847	20235
317.936	46552
318.025	22746
318.114	12661
318.203	9231
318.293	14234
318.382	22534
318.471	18445
318.560	30071
318.649	52885
318.738	9884
318.828	9164
318.917	9156
319.006	9939
319.095	29458
319.184	72323
319.273	34138
319.362	16875
319.451	6806
319.540	6942
319.629	18761
319.718	23360
319.807	10989
319.896	29956
319.985	87018
320.074	24668
320.163	8243
320.252	12480
320.341	11799
320.430	9828
320.519	13635
320.608	6881
320.697	7239
320.786	5589
320.875	8823
320.964	11503
321.053	17288
321.142	26083
321.230	23105
321.319	21703
321.408	43873
321.497	16970
321.586	18380
321.675	21574
321.764	17997
321.852	14009
321.941	27408
322.030	15113
322.119	22575
322.207	45252
322.296	27277
322.385	14197
322.474	19989
322.562	57234
322.651	23005
322.740	22130
322.829	28954
322.917	24914
323.006	16037
323.095	13930
323.183	10916
323.272	17905
323.361	34216
323.449	77113
323.538	24559
323.626	59035
323.715	28099
323.804	17023
323.892	51762
323.981	22392
324.069	10344
324.158	29928
324.246	20576
324.335	12254
324.424	15851
324.512	7001
324.601	7886
324.689	12183
324.778	18588
324.866	18381
324.954	5969
325.043	6642
325.131	12886
325.220	20232
325.308	21236
325.397	17769
325.485	8834
325.574	4111
325.662	5006
325.750	5214
325.839	4973
325.927	4063
326.015	6895
326.104	9906
326.192	10332
326.280	4858
326.369	5009
326.457	8233
326.545	14284
326.634	4786
326.722	3347
326.810	4077
326.898	4562
326.987	5956
327.075	12581
327.163	11615
327.251	5678
327.340	7099
327.428	8224
327.516	3825
327.604	3971
327.692	3568
327.781	6520
327.869	9115
327.957	6489
328.045	5323
328.133	3685
328.221	4811
328.309	4731
328.397	4021
328.485	6596
328.574	9589
328.662	30604
328.750	13153
328.838	5196
328.926	3909
329.014	4152
329.102	7775
329.190	18688
329.278	8946
329.366	3949
329.454	3501
329.542	4594
329.630	3458
329.718	5339
329.806	7058
329.893	8655
329.981	9847
330.069	20840
330.157	82090
330.245	168442
330.333	78940
330.421	17955
330.509	14698
330.597	38991
330.684	21365
330.772	9735
330.860	11725
330.948	15497
331.036	6503
331.123	2277
331.211	3528
331.299	5770
331.387	15195
331.475	20092
331.562	5559
331.650	3892
331.738	5604
331.825	5511
331.913	3036
332.001	3484
332.089	5909
332.176	11613
332.264	27064
332.352	16107
332.439	6174
332.527	5515
332.614	5248
332.702	5241
332.790	4506
332.877	14434
332.965	20022
333.052	5556
333.140	6713
333.228	12413
333.315	4592
333.403	5600
333.490	15189
333.578	11763
333.665	13778
333.753	8642
333.840	4274
333.928	7076
334.015	16518
334.103	33771
334.190	83922
334.278	16476
334.365	8471
334.452	6433
334.540	5339
334.627	7047
334.715	9495
334.802	22314
334.889	103281
334.977	72076
335.064	9909
335.151	6685
335.239	6970
335.326	11139
335.413	52064
335.501	49829
335.588	7492
335.675	5393
335.762	8619
335.850	13254
335.937	10096
336.024	31119
336.111	98826
336.199	30654
336.286	7488
336.373	5081
336.460	2911
336.547	4674
336.635	5792
336.722	5061
336.809	5104
336.896	9145
336.983	30931
337.070	70532
337.157	85082
337.245	65544
337.332	32545
337.419	6237
337.506	4979
337.593	6887
337.680	26476
337.767	58002
337.854	16491
337.941	18778
338.028	20408
338.115	7042
338.202	10165
338.289	22509
338.376	57483
338.463	17458
338.550	41137
338.637	31778
338.724	14298
338.811	15569
338.898	3626
338.984	3900
339.071	5459
339.158	7507
339.245	17507
339.332	10285
339.419	13459
339.506	10448
339.593	2179
339.679	3995
339.766	4018
339.853	6178
339.940	11852
340.027	4169
340.113	5177
340.200	6849
340.287	4697
340.374	7039
340.460	10420
340.547	4577
340.634	11480
340.720	36784
340.807	16458
340.894	3558
340.980	3880
341.067	4335
341.154	5213
341.240	9302
341.327	15716
341.414	6363
341.500	4930
341.587	4884
341.674	4450
341.760	11507
341.847	11939
341.933	3671
342.020	1657
342.106	2629
342.193	5368
342.279	8848
342.366	7637
342.452	11332
342.539	6905
342.625	18044
342.712	35705
342.798	13816
342.885	5872
342.971	2255
343.058	1915
343.144	2880
343.230	3351
343.317	4676
343.403	3140
343.490	3178
343.576	2907
343.662	4213
343.749	4529
343.835	6347
343.921	13246
344.008	81802
344.094	128887
344.180	24617
344.267	13646
344.353	44660
344.439	35515
344.525	17953
344.612	12945
344.698	12361
344.784	5938
344.870	4400
344.957	4193
345.043	6862
345.129	5880
345.215	11223
345.301	5518
345.387	3277
345.474	2669
345.560	2527
345.646	3573
345.732	3710
345.818	4193
345.904	4247
345.990	5276
346.076	5691
346.162	7636
346.249	4907
346.335	2796
346.421	5381
346.507	21461
346.593	50950
346.679	9825
346.765	5105
346.851	3304
346.937	3360
347.023	4882
347.108	4822
347.194	3442
347.280	4243
347.366	5128
347.452	21605
347.538	66378
347.624	48619
347.710	33244
347.796	5750
347.882	4174
347.967	3714
348.053	5391
348.139	3835
348.225	3377
348.311	2807
348.397	2944
348.482	5438
348.568	5438
348.654	2802
348.740	4286
348.825	4153
348.911	9429
348.997	37870
349.083	52036
349.168	7825
349.254	4540
349.340	4481
349.425	3455
349.511	6185
349.597	7207
349.682	15234
349.768	40669
349.854	14836
349.939	4309
350.025	3959
350.110	4355
350.196	3792
350.282	2101
350.367	3517
350.453	6231
350.538	5698
350.624	5294
350.709	5533
350.795	3023
350.880	3298
350.966	5039
351.051	6714
351.137	4848
351.222	4537
351.308	16792
351.393	33625
351.479	7770
351.564	2879
351.649	3720
351.735	2821
351.820	2639
351.906	3552
351.991	6759
352.076	27403
352.162	30382
352.247	6368
352.332	5315
352.418	10461
352.503	15349
352.588	55576
352.673	35611
352.759	8832
352.844	4276
352.929	5981
353.014	7730
353.100	6356
353.185	11966
353.270	15877
353.355	11901
353.441	4421
353.526	5489
353.611	12839
353.696	12184
353.781	8654
353.866	2992
353.952	5596
354.037	12966
354.122	26421
354.207	23608
354.292	9061
354.377	5011
354.462	4131
354.547	5242
354.632	5881
354.717	10190
354.802	11820
354.887	5042
354.972	4028
355.057	2729
355.142	3303
355.227	5007
355.312	8521
355.397	20832
355.482	43312
355.567	17523
355.652	15451
355.737	17533
355.822	52142
355.907	31846
355.991	6431
356.076	4144
356.161	4379
356.246	3296
356.331	4425
356.416	15361
356.501	85556
356.585	65779
356.670	11580
356.755	8835
356.840	14310
356.924	75043
357.009	178497
357.094	56217
357.179	15626
357.263	9255
357.348	10793
357.433	10226
357.517	9309
357.602	7067
357.687	7147
357.771	16123
357.856	38098
357.941	21444
358.025	59571
358.110	180535
358.195	68857
358.279	12384
358.364	12234
358.448	41542
358.533	91401
358.617	63463
358.702	60835
358.787	20269
358.871	13992
358.956	9477
359.040	4505
359.125	3076
359.209	5436
359.294	20054
359.378	27480
359.462	10740
359.547	6421
359.631	3912
359.716	2307
359.800	4725
359.885	8576
359.969	4893
360.053	5053
360.138	4883
360.222	7643
360.306	13035
360.391	10853
360.475	24479
360.559	42741
360.644	37510
360.728	25087
360.812	54634
360.896	108154
360.981	45122
361.065	21979
361.149	7673
361.233	7682
361.318	5084
361.402	6369
361.486	5572
361.570	4783
361.654	6944
361.739	21416
361.823	86288
361.907	99282
361.991	18027
362.075	14236
362.159	25604
362.243	17890
362.327	15532
362.411	15684
362.495	8975
362.580	6050
362.664	5383
362.748	4812
362.832	6899
362.916	11879
363.000	34145
363.084	94794
363.168	116827
363.252	27116
363.336	12316
363.420	19995
363.503	68939
363.587	63926
363.671	11699
363.755	10076
363.839	12611
363.923	6136
364.007	15912
364.091	16803
364.175	31904
364.258	101556
364.342	57869
364.426	45560
364.510	23251
364.594	18037
364.677	31093
364.761	102178
364.845	59589
364.929	23927
365.013	17748
365.096	17303
365.180	18386
365.264	36274
365.347	98093
365.431	35200
365.515	9176
365.598	5227
365.682	5655
365.766	11059
365.849	11294
365.933	7370
366.017	9668
366.100	6762
366.184	2910
366.267	4682
366.351	3669
366.435	3176
366.518	2209
366.602	3319
366.685	4074
366.769	5108
366.852	10004
366.936	16636
367.019	8377
367.103	7952
367.186	13550
367.270	4710
367.353	2110
367.436	4394
367.520	3119
367.603	5863
367.687	8975
367.770	15315
367.853	10059
367.937	33980
368.020	40754
368.104	10836
368.187	13123
368.270	17804
368.353	14267
368.437	21918
368.520	38386
368.603	23635
368.687	40929
368.770	58954
368.853	14939
368.936	16706
369.020	13950
369.103	6115
369.186	3858
369.269	4392
369.352	11633
369.436	14393
369.519	7959
369.602	3276
369.685	6160
369.768	5569
369.851	5385
369.934	3465
370.018	6873
370.101	12854
370.184	11121
370.267	8793
370.350	12716
370.433	21558
370.516	54631
370.599	51714
370.682	18998
370.765	37751
370.848	48362
370.931	74976
371.014	25226
371.097	6182
371.180	5482
371.263	3229
371.346	2255
371.429	4287
371.511	3509
371.594	8894
371.677	14937
371.760	16707
371.843	17444
371.926	81483
372.009	135968
372.091	41044
372.174	35724
372.257	67307
372.340	24536
372.423	22564
372.505	23848
372.588	10580
372.671	31884
372.754	76074
372.836	33489
372.919	34824
373.002	53100
373.085	15723
373.167	15367
373.250	38771
373.332	73724
373.415	115879
373.498	186882
373.580	69428
373.663	103820
373.746	111306
373.828	25633
373.911	13328
373.993	18013
374.076	60295
374.159	46420
374.241	27648
374.324	67323
374.406	42450
374.489	71844
374.571	150386
374.654	53165
374.736	38812
374.819	101672
374.901	147124
374.983	125801
375.066	21823
375.148	13439
375.231	54050
375.313	79975
375.395	26776
375.478	6669
375.560	6072
375.643	9249
375.725	40792
375.807	126941
375.890	85846
375.972	34032
376.054	23735
376.136	29886
376.219	15240
376.301	47444
376.383	99871
376.465	34763
376.548	27524
376.630	38990
376.712	89297
376.794	33717
376.877	5965
376.959	4061
377.041	6359
377.123	12516
377.205	12525
377.287	2815
377.369	3585
377.452	3549
377.534	3623
377.616	4149
377.698	3453
377.780	2614
377.862	3694
377.944	4614
378.026	1762
378.108	2963
378.190	3077
378.272	2789
378.354	2492
378.436	2717
378.518	8774
378.600	24971
378.682	23357
378.764	48544
378.846	32578
378.928	11453
379.010	14434
379.091	7684
379.173	3991
379.255	3230
379.337	7260
379.419	28932
379.501	63944
379.583	22385
379.664	7761
379.746	20353
379.828	50966
379.910	63423
379.991	47335
380.073	8491
380.155	6801
380.237	4820
380.318	3931
380.400	4959
380.482	11862
380.564	15190
380.645	17697
380.727	13892
380.809	8924
380.890	5978
380.972	4096
381.053	4734
381.135	7164
381.217	19769
381.298	47636
381.380	21207
381.461	27203
381.543	101119
381.624	99679
381.706	17938
381.787	10264
381.869	13563
381.951	54614
382.032	148149
382.113	80860
382.195	17670
382.276	16478
382.358	37147
382.439	79870
382.521	97226
382.602	128232
382.684	65845
382.765	117036
382.846	105890
382.928	106630
383.009	56721
383.090	61292
383.172	188883
383.253	224004
383.334	98417
383.416	118602
383.497	54613
383.578	27909
383.659	57044
383.741	192788
383.822	366095
383.903	168357
383.984	94556
384.066	151781
384.147	83165
384.228	18608
384.309	14876
384.390	10475
384.471	8091
384.553	9400
384.634	12728
384.715	12043
384.796	6673
384.877	12356
384.958	46191
385.039	47995
385.120	16521
385.201	8743
385.282	10751
385.363	10594
385.444	8920
385.525	22379
385.606	63114
385.687	45103
385.768	12948
385.849	22618
385.930	82364
386.011	111696
386.092	27095
386.173	8020
386.254	6945
386.335	7876
386.416	9865
386.496	31808
386.577	44139
386.658	15078
386.739	9272
386.820	10424
386.901	7713
386.981	6740
387.062	5736
387.143	14947
387.224	47915
387.304	38566
387.385	13548
387.466	9287
387.547	11331
387.627	8178
387.708	23929
387.789	84856
387.869	83473
387.950	21292
388.031	5491
388.111	6077
388.192	16253
388.273	21185
388.353	12777
388.434	8215
388.514	22018
388.595	78473
388.676	88507
388.756	44850
388.837	43712
388.917	23782
388.998	4925
389.078	6640
389.159	4999
389.239	4526
389.320	9595
389.400	6990
389.480	22080
389.561	45511
389.641	19803
389.722	10377
389.802	14017
389.883	25566
389.963	53733
390.043	29598
390.124	11064
390.204	22602
390.284	53393
390.365	34714
390.445	52872
390.525	120244
390.605	92333
390.686	26267
390.766	9327
390.846	6728
390.927	4417
391.007	4773
391.087	7055
391.167	6427
391.247	4696
391.328	9830
391.408	13173
391.488	10893
391.568	3168
391.648	7367
391.728	9824
391.808	10577
391.888	11728
391.969	30621
392.049	39199
392.129	19104
392.209	25486
392.289	52031
392.369	27809
392.449	24335
392.529	14671
392.609	13357
392.689	21292
392.769	53268
392.849	39787
392.929	36478
393.009	73861
393.089	49769
393.169	49140
393.248	188601
393.328	589848
393.408	526478
393.488	122843
393.568	36913
393.648	19457
393.728	13181
393.807	10834
393.887	11418
393.967	10709
394.047	13550
394.127	17715
394.206	37113
394.286	146994
394.366	439330
394.446	398857
394.525	107181
394.605	31230
394.685	24818
394.764	43509
394.844	62514
394.924	39706
395.003	14672
395.083	9967
395.163	9770
395.242	10194
395.322	9621
395.402	6741
395.481	13056
395.561	33197
395.640	69299
395.720	56542
395.799	81916
395.879	61693
395.958	58960
396.038	213916
396.117	563283
396.197	527386
396.276	181525
396.356	64716
396.435	42119
396.515	28098
396.594	29162
396.673	51818
396.753	210191
396.832	524461
396.912	337050
396.991	74042
397.070	22922
397.150	12237
397.229	10464
397.308	12484
397.388	17324
397.467	9552
397.546	7151
397.625	4478
397.705	9078
397.784	7588
397.863	4754
397.942	4090
398.022	6149
398.101	27889
398.180	62127
398.259	28721
398.338	9528
398.417	5971
398.497	5191
398.576	4995
398.655	2752
398.734	2953
398.813	5613
398.892	27393
398.971	67482
399.050	28568
399.129	4455
399.208	3246
399.287	4301
399.366	3184
399.445	2762
399.524	4021
399.603	3200
399.682	9060
399.761	29285
399.840	75957
399.919	49475
399.998	6672
400.077	2885
400.156	2134
400.235	5312
400.313	3665
400.392	7047
400.471	29640
400.550	36716
400.629	9151
400.708	6083
400.786	6111
400.865	15850
400.944	14744
401.023	8739
401.102	1927
401.180	2582
401.259	3252
401.338	4676
401.416	5218
401.495	4354
401.574	4661
401.652	3259
401.731	6045
401.810	4526
401.888	2753
401.967	1876
402.046	2068
402.124	5857
402.203	6160
402.281	4769
402.360	7154
402.438	19743
402.517	11269
402.596	5161
402.674	3467
402.753	3924
402.831	3293
402.910	6680
402.988	26873
403.066	64365
403.145	32626
403.223	27674
403.302	56271
403.380	42027
403.459	38965
403.537	14841
403.615	6422
403.694	2033
403.772	2994
403.850	2032
403.929	1538
404.007	2993
404.085	10459
404.164	10233
404.242	7634
404.320	24103
404.398	60882
404.477	73583
404.555	130500
404.633	99661
404.711	45285
404.789	26472
404.868	7964
404.946	3887
405.024	2732
405.102	1921
405.180	2331
405.258	1726
405.336	2647
405.415	2910
405.493	8095
405.571	7724
405.649	2305
405.727	1907
405.805	5899
405.883	5267
405.961	5709
406.039	5916
406.117	3225
406.195	8689
406.273	37875
406.351	101017
406.429	51414
406.507	9540
406.585	4113
406.663	4918
406.740	5888
406.818	4145
406.896	3604
406.974	4880
407.052	13748
407.130	67241
407.208	76125
407.285	15007
407.363	3131
407.441	3548
407.519	3405
407.596	5690
407.674	17396
407.752	46255
407.830	36996
407.907	12358
407.985	4329
408.063	3850
408.141	1665
408.218	6515
408.296	6054
408.373	4076
408.451	4746
408.529	4252
408.606	2152
408.684	1908
408.762	1593
408.839	1059
408.917	1395
408.994	2051
409.072	762
409.149	1647
409.227	3774
409.304	4423
409.382	3602
409.459	3428
409.537	5030
409.614	5164
409.692	3706
409.769	3874
409.846	4885
409.924	6790
410.001	4320
410.079	4105
410.156	4129
410.233	3716
410.311	2680
410.388	2378
410.465	3539
410.543	3507
410.620	2571
410.697	3496
410.775	4313
410.852	1320
410.929	4229
411.006	4375
411.083	3051
411.161	7682
411.238	7721
411.315	4452
411.392	2344
411.469	4710
411.547	4861
411.624	1156
411.701	1560
411.778	4288
411.855	8601
411.932	4356
412.009	1519
412.086	3067
412.163	3833
412.240	3673
412.317	4829
412.394	4209
412.471	2230
412.548	1611
412.625	2015
412.702	4664
412.779	7705
412.856	5139
412.933	1374
413.010	3219
413.087	7134
413.164	26117
413.241	30351
413.318	7530
413.395	5950
413.471	7023
413.548	3475
413.625	3704
413.702	2819
413.779	2126
413.855	1461
413.932	1600
414.009	1168
414.086	1826
414.162	2595
414.239	6056
414.316	27780
414.393	52074
414.469	15284
414.546	2172
414.623	1764
414.699	2648
414.776	2965
414.853	2209
414.929	1842
415.006	2614
415.082	3211
415.159	2486
415.236	2101
415.312	3486
415.389	6054
415.465	6487
415.542	2983
415.618	1981
415.695	5858
415.771	3559
415.848	3115
415.924	3416
416.000	1560
416.077	1997
416.153	662
416.230	-64
416.306	464
416.383	1934
416.459	1723
416.535	1055
416.612	1602
416.688	873
416.764	1128
416.841	1490
416.917	1091
416.993	1817
417.069	3288
417.146	5462
417.222	7709
417.298	3625
417.374	2473
417.451	2974
417.527	3326
417.603	3756
417.679	2233
417.755	1960
417.831	608
417.908	1572
417.984	1303
418.060	1272
418.136	6369
418.212	7915
418.288	3258
418.364	2500
418.440	1343
418.516	4278
418.592	6684
418.668	12157
418.744	15894
418.820	10685
418.896	3176
418.972	1679
419.048	2795
419.124	7493
419.200	4107
419.276	2381
419.352	401
419.428	1358
419.504	2430
419.579	3379
419.655	2309
419.731	4128
419.807	11717
419.883	19498
419.959	12148
420.034	4699
420.110	11430
420.186	33808
420.262	21992
420.337	5134
420.413	2964
420.489	1959
420.565	2123
420.640	1749
420.716	2254
420.792	1157
420.867	2868
420.943	2010
421.019	5928
421.094	3715
421.170	2919
421.245	1942
421.321	2365
421.397	3418
421.472	10722
421.548	23815
421.623	13914
421.699	5262
421.774	5164
421.850	3810
421.925	7301
422.001	6496
422.076	5120
422.152	7003
422.227	10175
422.302	13127
422.378	17537
422.453	34692
422.529	91027
422.604	258728
422.679	382003
422.755	221463
422.830	71325
422.905	28780
422.981	15854
423.056	9903
423.131	8138
423.207	6072
423.282	8440
423.357	11832
423.432	7603
423.508	9202
423.583	17507
423.658	11852
423.733	5110
423.808	5838
423.883	6457
423.959	4811
424.034	3140
424.109	3841
424.184	1646
424.259	1633
424.334	1777
424.409	1624
424.484	2263
424.559	3129
424.634	2547
424.709	3452
424.784	4364
424.859	3554
424.934	6769
425.009	25714
425.084	35887
425.159	12346
425.234	3031
425.309	3517
425.384	11890
425.459	15833
425.534	5121
425.609	2047
425.683	1702
425.758	2328
425.833	2447
425.908	4471
425.983	17462
426.058	37940
426.132	14236
426.207	3402
426.282	5877
426.357	4415
426.431	2033
426.506	2485
426.581	2297
426.655	3052
426.730	1665
426.805	1665
426.879	2789
426.954	2686
427.029	9734
427.103	44886
427.178	86222
427.253	32587
427.327	4663
427.402	9095
427.476	17758
427.551	9249
427.625	3484
427.700	3279
427.774	2435
427.849	3408
427.923	1163
427.998	2017
428.072	2831
428.147	8506
428.221	31884
428.296	69961
428.370	29752
428.444	6396
428.519	8641
428.593	14165
428.667	12733
428.742	15387
428.816	17142
428.890	53407
428.965	67713
429.039	23587
429.113	15627
429.188	5918
429.262	2213
429.336	7471
429.410	17862
429.485	11840
429.559	12560
429.633	8922
429.707	3351
429.781	15063
429.855	58607
429.930	70818
430.004	46748
430.078	66734
430.152	64022
430.226	106159
430.300	87215
430.374	14172
430.448	7921
430.522	28792
430.596	63414
430.670	43693
430.744	94488
430.818	109367
430.892	21716
430.966	4636
431.040	2860
431.114	1437
431.188	1481
431.262	1926
431.336	2173
431.410	9073
431.484	18645
431.557	10319
431.631	2309
431.705	3189
431.779	19294
431.853	61333
431.927	34673
432.000	5566
432.074	2458
432.148	3541
432.222	3196
432.295	1934
432.369	2636
432.443	7331
432.516	44289
432.590	84762
432.664	26815
432.737	3887
432.811	1877
432.885	1934
432.958	1832
433.032	1792
433.106	913
433.179	866
433.253	1642
433.326	1294
433.400	677
433.473	1146
433.547	472
433.620	2664
433.694	4087
433.767	4486
433.841	1522
433.914	1468
433.988	1359
434.061	2103
434.134	933
434.208	1042
434.281	504
434.355	1554
434.428	1551
434.501	1185
434.575	535
434.648	1433
434.721	811
434.795	438
434.868	-642
434.941	1285
435.014	361
435.088	2044
435.161	2456
435.234	4529
435.307	4671
435.381	2220
435.454	1932
435.527	2675
435.600	2177
435.673	2427
435.746	1381
435.819	1859
435.892	1815
435.966	2259
436.039	1439
436.112	2483
436.185	525
436.258	1684
436.331	-22
436.404	1477
436.477	271
436.550	1242
436.623	819
436.696	1008
436.769	1591
436.842	1962
436.915	707
436.987	2368
437.060	1017
437.133	858
437.206	815
437.279	2013
437.352	780
437.425	1338
437.498	2864
437.570	5592
437.643	5148
437.716	1412
437.789	1296
437.861	5257
437.934	8927
438.007	3960
438.080	1915
438.152	2780
438.225	9372
438.298	58639
438.370	113209
438.443	40473
438.516	8585
438.588	3271
438.661	1509
438.734	2023
438.806	2037
438.879	2520
438.951	4318
439.024	4883
439.096	2201
439.169	1152
439.241	714
439.314	1768
439.386	2886
439.459	4607
439.531	6323
439.604	2960
439.676	1838
439.749	1381
439.821	478
439.893	1896
439.966	1135
440.038	2039
440.110	2716
440.183	1944
440.255	2186
440.327	5064
440.400	25976
440.472	77995
440.544	40055
440.617	5728
440.689	4911
440.761	6384
440.833	7587
440.905	5371
440.978	1378
441.050	863
441.122	2005
441.194	1396
441.266	1497
441.338	1468
441.411	6144
441.483	28256
441.555	31532
441.627	6963
441.699	4880
441.771	4409
441.843	1437
441.915	2122
441.987	1298
442.059	1753
442.131	3025
442.203	3926
442.275	4552
442.347	4629
442.419	7369
442.491	31014
442.563	54224
442.635	25130
442.706	19014
442.778	13046
442.850	3074
442.922	1985
442.994	2798
443.066	4695
443.137	4464
443.209	3393
443.281	4864
443.353	12225
443.425	46160
443.496	118156
443.568	93591
443.640	30638
443.711	8157
443.783	3998
443.855	2967
443.926	2054
443.998	2777
444.070	3704
444.141	3641
444.213	5251
444.285	6168
444.356	4372
444.428	4064
444.499	2333
444.571	932
444.642	2243
444.714	2519
444.785	4975
444.857	6553
444.928	11749
445.000	7721
445.071	8880
445.143	10446
445.214	6802
445.285	12169
445.357	33835
445.428	103033
445.500	183037
445.571	102165
445.642	45823
445.714	23409
445.785	21264
445.856	6762
445.928	7111
445.999	5111
446.070	4489
446.141	5392
446.213	5591
446.284	3940
446.355	3315
446.426	2904
446.497	2694
446.569	4638
446.640	6695
446.711	5007
446.782	2477
446.853	2701
446.924	4071
446.995	2923
447.066	3336
447.138	4550
447.209	3132
447.280	1640
447.351	1813
447.422	1243
447.493	3050
447.564	3729
447.635	4257
447.706	2545
447.777	894
447.847	1497
447.918	2109
447.989	2287
448.060	4408
448.131	8975
448.202	7817
448.273	5581
448.344	2757
448.414	2332
448.485	1798
448.556	1658
448.627	2011
448.698	2907
448.768	1459
448.839	1322
448.910	5329
448.981	4259
449.051	2808
449.122	1584
449.193	998
449.263	1455
449.334	2229
449.405	3550
449.475	7706
449.546	4917
449.616	6483
449.687	4062
449.758	2480
449.828	2431
449.899	1730
449.969	1677
450.040	1625
450.110	2459
450.181	2873
450.251	2329
450.322	2485
450.392	2283
450.463	1972
450.533	1244
450.604	2698
450.674	1375
450.744	2377
450.815	1597
450.885	1899
450.955	1676
451.026	1239
451.096	1722
451.166	3211
451.237	6794
451.307	13423
451.377	4654
451.447	2248
451.518	993
451.588	1670
451.658	2287
451.728	5308
451.799	15416
451.869	14446
451.939	3970
452.009	1527
452.079	1605
452.149	2505
452.219	6281
452.289	17615
452.360	10377
452.430	2858
452.500	3429
452.570	4398
452.640	5615
452.710	12567
452.780	16475
452.850	13019
452.920	10545
452.990	4700
453.060	2578
453.129	5278
453.199	5567
453.269	26101
453.339	41492
453.409	56939
453.479	64366
453.549	87417
453.619	83359
453.688	28305
453.758	5470
453.828	3374
453.898	3088
453.968	1987
454.037	2142
454.087	2483
454.107	2612
454.168	2551
454.177	2524
454.247	2168
454.249	2147
454.316	1161
454.330	1736
454.386	3689
454.411	5901
454.456	9316
454.492	10390
454.525	11400
454.574	6682
454.595	4667
454.655	3203
454.665	2987
454.734	3820
454.736	3952
454.804	6381
454.817	8409
454.873	15871
454.898	15825
454.943	15662
454.979	10527
455.013	6155
455.060	4582
455.082	4053
455.141	5589
455.152	5923
455.221	15994
455.222	16270
455.291	26138
455.303	28151
455.360	34923
455.384	43709
455.430	55408
455.465	39859
455.499	26671
455.546	19614
455.569	16224
455.627	10111
455.638	9118
455.707	3827
455.708	3839
455.777	2921
455.789	2950
455.846	2875
455.869	2668
455.916	2365
455.950	2540
455.985	2594
456.031	2706
456.054	2725
456.112	1994
456.124	1880
456.193	2973
456.193	2955
456.262	2654
456.274	2961
456.332	4193
456.355	3942
456.401	3294
456.436	3020
456.470	2662
456.516	2401
456.540	2399
456.597	1760
456.609	1592
456.678	2331
456.678	2320
456.747	2253
456.759	2244
456.817	2296
456.840	2234
456.886	1875
456.920	1822
456.955	1914
457.001	2553
457.024	2971
457.082	3416
457.093	3485
457.162	5190
457.163	5214
457.232	4826
457.243	4667
457.301	3854
457.324	3398
457.370	2815
457.405	3047
457.439	3304
457.485	3212
457.508	3181
457.566	3618
457.577	3704
457.646	3739
457.647	3764
457.715	5706
457.727	6093
457.784	8001
457.808	9618
457.853	11693
457.889	12506
457.922	12322
457.969	10387
457.991	10561
458.050	11755
458.060	11967
458.129	17609
458.130	17761
458.198	15835
458.211	14390
458.267	9180
458.292	7334
458.336	6410
458.372	6460
458.405	7919
458.453	10634
458.474	12196
458.533	18207
458.543	18568
458.611	25805
458.614	25919
458.680	17308
458.694	14242
458.749	7705
458.775	6276
458.818	5088
458.855	4832
458.887	4715
458.936	4316
458.955	4154
459.016	4071
459.024	4088
459.093	4677
459.097	4686
459.162	4425
459.177	4533
459.230	5345
459.257	5559
459.299	5235
459.338	5183
459.368	5483
459.418	5953
459.437	5760
459.499	5252
459.505	5278
459.574	4493
459.579	4510
459.643	4263
459.659	4258
459.711	4677
459.740	4676
459.780	4865
459.820	5071
459.849	4964
459.900	5633
459.917	5831
459.981	6031
459.986	6010
460.054	5411
460.061	5411
460.123	6500
460.141	6748
460.191	7154
460.222	7382
460.260	7622
460.302	8547
460.328	8278
460.382	7082
460.397	7277
460.462	7736
460.465	8051
460.534	15947
460.543	17028
460.602	36200
460.623	43792
460.671	64184
460.703	83725
460.739	71782
460.783	46451
460.808	39121
460.864	12038
460.876	9422
460.944	6413
460.945	6378
461.013	5664
461.024	5614
461.081	5807
461.104	5981
461.150	5753
461.184	5407
461.218	5047
461.264	4955
461.286	5327
461.345	5975
461.355	5886
461.423	5170
461.425	5154
461.491	5960
461.505	6208
461.559	11349
461.585	13727
461.628	18755
461.665	24216
461.696	25242
461.745	28217
461.764	25143
461.825	8682
461.832	8347
461.901	6652
461.905	6683
461.969	5976
461.985	5670
462.037	5515
462.065	5664
462.105	6862
462.145	8111
462.173	10184
462.225	14070
462.241	15098
462.305	20755
462.310	20226
462.378	10813
462.385	9435
462.446	6484
462.465	6140
462.514	6363
462.545	6563
462.582	6321
462.625	6111
462.650	5999
462.705	5552
462.718	5817
462.785	7294
462.786	7327
462.854	9289
462.865	9629
462.922	10747
462.945	11301
462.990	8996
463.025	6518
463.058	6277
463.104	6010
463.126	5799
463.184	6010
463.194	6148
463.262	6468
463.264	6498
463.330	6831
463.344	6835
463.398	7370
463.424	7552
463.466	6905
463.504	6415
463.533	6580
463.583	6971
463.601	7329
463.663	8005
463.669	8122
463.737	9921
463.743	10102
463.805	16694
463.823	18549
463.873	24882
463.903	28981
463.940	28619
463.982	28621
464.008	23574
464.062	10557
464.076	9806
464.142	6616
464.144	6605
464.211	6661
464.221	6705
464.279	7175
464.301	7362
464.347	8197
464.381	8909
464.414	9315
464.461	9831
464.482	10156
464.540	11086
464.550	10959
464.617	9514
464.620	9464
464.685	11139
464.699	11454
464.753	12911
464.779	13702
464.820	14694
464.859	15648
464.888	15143
464.938	14119
464.956	14192
465.018	14223
465.023	14099
465.091	12374
465.098	12171
465.158	12077
465.177	12039
465.226	11929
465.257	11843
465.293	12475
465.336	13263
465.361	14150
465.416	15860
465.428	16849
465.495	22617
465.496	22705
465.563	30893
465.575	32402
465.631	35832
465.654	37309
465.698	24875
465.734	13758
465.765	12958
465.813	11873
465.833	12024
465.893	12965
465.900	12938
465.968	12553
465.972	12498
466.035	12345
466.052	12313
466.102	12839
466.131	13126
466.170	13267
466.210	13332
466.237	13510
466.290	13890
466.304	14162
466.369	15107
466.372	15136
466.439	15439
466.449	15443
466.506	18110
466.528	19142
466.573	25566
466.607	30225
466.641	37567
466.687	47794
466.708	50431
466.766	57663
466.775	53719
466.842	23034
466.845	21541
466.909	18636
466.925	17992
466.977	17908
467.004	17847
467.044	19173
467.083	20454
467.111	22098
467.163	25080
467.178	25303
467.242	26023
467.245	25889
467.312	22166
467.321	21636
467.379	21649
467.400	21592
467.446	22707
467.480	23444
467.559	20761
467.638	19333
467.717	18391
467.796	20374
467.875	21256
467.955	20205
468.034	32160
468.113	55449
468.192	68652
468.271	21350
468.350	17636
468.429	18766
468.508	16775
468.588	16116
468.667	16689
468.746	17949
468.825	16317
468.904	15931
468.983	19426
469.062	24422
469.141	26655
469.220	14597
469.299	15702
469.378	16539
469.456	21115
469.535	17973
469.614	16107
469.693	18344
469.772	22604
469.851	26833
469.930	18043
470.009	16598
470.088	15399
470.166	17192
470.245	18485
470.324	20626
470.403	17723
470.482	16266
470.560	14643
470.639	16520
470.718	17787
470.797	16029
470.875	18250
470.954	22651
471.033	22860
471.111	12168
471.190	12562
471.269	12429
471.347	12522
471.426	14359
471.505	16009
471.583	16666
471.662	15395
471.740	14736
471.819	14738
471.898	13163
471.976	13547
472.055	14123
472.133	16011
472.212	19083
472.290	18081
472.369	12801
472.447	13031
472.526	11774
472.604	14516
472.683	13474
472.761	15163
472.839	13298
472.918	13179
472.996	13033
473.075	14064
473.153	14609
473.231	12478
473.310	14452
473.388	14426
473.466	14647
473.545	16370
473.623	20914
473.701	18061
473.780	14035
473.858	12724
473.936	15936
474.014	13086
474.093	16076
474.171	20634
474.249	26151
474.327	17123
474.405	11733
474.484	11633
474.562	12602
474.640	13335
474.718	13094
474.796	13764
474.874	13850
474.952	13023
475.030	13276
475.108	14541
475.187	16631
475.265	18558
475.343	23158
475.421	23630
475.499	14347
475.577	14674
475.655	20219
475.733	32157
475.811	49968
475.889	42838
475.966	26235
476.044	13347
476.122	18191
476.200	20960
476.278	16173
476.356	12092
476.434	13629
476.512	16286
476.590	21075
476.667	16991
476.745	11296
476.823	12503
476.901	11640
476.979	12370
477.056	12179
477.134	13423
477.212	12709
477.290	11698
477.367	11461
477.445	11464
477.523	11838
477.601	10875
477.678	11346
477.756	13935
477.834	14165
477.911	11653
477.989	11296
478.066	12141
478.144	13745
478.222	17311
478.299	25027
478.377	21594
478.454	11266
478.532	11746
478.609	12115
478.687	12986
478.764	10702
478.842	12065
478.919	12483
478.997	11707
479.074	11378
479.152	12087
479.229	15280
479.307	10452
479.384	9758
479.461	9431
479.539	10634
479.616	11791
479.694	10847
479.771	12578
479.848	12870
479.926	14501
480.003	16404
480.080	10495
480.157	9555
480.235	9683
480.312	9639
480.389	11504
480.467	16706
480.544	20214
480.621	11383
480.698	10997
480.775	12303
480.853	12560
480.930	10145
481.007	12172
481.084	14159
481.161	16601
481.238	13132
481.315	9529
481.392	9612
481.470	10028
481.547	11385
481.624	9546
481.701	9732
481.778	10651
481.855	12564
481.932	18785
482.009	27416
482.086	17419
482.163	12029
482.240	18799
482.317	30323
482.393	20357
482.470	11337
482.547	11205
482.624	10772
482.701	11151
482.778	10041
482.855	8970
482.932	8780
483.009	8956
483.085	10969
483.162	13886
483.239	12606
483.316	10072
483.393	9950
483.469	10108
483.546	11556
483.623	11937
483.699	10935
483.776	10229
483.853	12524
483.930	20841
484.006	46232
484.083	70298
484.160	42686
484.236	62882
484.313	46221
484.389	34984
484.466	32536
484.543	30390
484.619	29763
484.696	32239
484.772	32755
484.849	34098
484.925	29336
485.002	29733
485.078	30076
485.155	29798
485.231	27748
485.308	26829
485.384	29957
485.461	36815
485.537	51023
485.614	52396
485.690	28049
485.766	26176
485.843	29761
485.919	36232
485.995	36057
486.072	24440
486.148	24260
486.224	24781
486.301	25979
486.377	29407
486.453	29405
486.530	29649
486.606	39181
486.682	43258
486.758	47664
486.835	50566
486.911	44665
486.987	64487
487.063	66687
487.139	79171
487.215	55646
487.292	33029
487.368	29132
487.444	31213
487.520	35677
487.596	35537
487.672	48893
487.748	86565
487.824	109316
487.900	51562
487.976	32425
488.052	32069
488.128	35230
488.204	28460
488.280	26062
488.356	33455
488.432	59217
488.508	76539
488.584	29355
488.660	25673
488.736	25829
488.812	26090
488.888	31949
488.964	43700
489.039	82239
489.115	108609
489.191	60954
489.267	25271
489.343	25194
489.418	21116
489.494	21621
489.570	19821
489.646	23324
489.722	21201
489.797	23192
489.873	36093
489.949	63541
490.024	47395
490.100	20843
490.176	21823
490.251	25690
490.327	30478
490.403	20240
490.478	19623
490.554	17384
490.629	17889
490.705	17965
490.781	21154
490.856	19032
490.932	22564
491.007	21053
491.083	20820
491.158	19256
491.234	28043
491.309	49370
491.385	44170
491.460	20717
491.536	22753
491.611	19554
491.686	21397
491.762	27994
491.837	53068
491.913	84411
491.988	113251
492.063	124501
492.139	39101
492.214	24736
492.289	16903
492.365	16782
492.440	20512
492.515	18827
492.590	18647
492.666	16171
492.741	23160
492.816	28856
492.891	18626
492.967	17848
493.042	15614
493.117	16954
493.192	21567
493.267	52112
493.342	144852
493.418	161623
493.493	24598
493.568	15822
493.643	15385
493.718	19917
493.793	26230
493.868	27413
493.943	18438
494.018	16823
494.093	14156
494.168	14504
494.243	13605
494.318	13205
494.393	13731
494.468	13325
494.543	14435
494.618	15722
494.693	13784
494.768	14744
494.842	14391
494.917	13602
494.992	14928
495.067	14284
495.142	13382
495.217	15428
495.292	14186
495.366	17659
495.441	19086
495.516	23262
495.591	38821
495.665	119079
495.740	222441
495.815	80040
495.890	21982
495.964	17569
496.039	20583
496.114	18478
496.188	22638
496.263	20483
496.338	17913
496.412	20299
496.487	23457
496.561	24686
496.636	25108
496.710	21403
496.785	23880
496.860	24930
496.934	21428
497.009	22819
497.083	22728
497.158	25286
497.232	28350
497.307	31825
497.381	29003
497.455	34699
497.530	41011
497.604	33862
497.679	37811
497.753	52486
497.827	59739
497.902	56540
497.976	69227
498.050	161829
498.125	433596
498.199	347773
498.273	78485
498.348	67940
498.422	61776
498.496	57828
498.570	51345
498.645	43233
498.719	40572
498.793	43336
498.867	52897
498.941	73987
499.016	209009
499.090	412543
499.164	115048
499.238	28893
499.312	26806
499.386	29897
499.460	25707
499.534	24001
499.609	27923
499.683	35504
499.757	36550
499.831	99928
499.905	295808
499.979	216684
500.053	42217
500.127	41463
500.201	30277
500.275	22255
500.349	20526
500.422	22901
500.496	34378
500.570	74473
500.644	179729
500.718	266468
500.792	49111
500.866	21952
500.940	25859
501.013	21825
501.087	21784
501.161	34969
501.235	45036
501.309	110651
501.382	260131
501.456	182043
501.530	52422
501.603	77104
501.677	27255
501.751	15351
501.825	22027
501.898	43778
501.972	100415
502.046	51762
502.119	20553
502.193	55431
502.266	103458
502.340	45766
502.413	54320
502.487	88459
502.561	45739
502.634	18816
502.708	16736
502.781	14856
502.855	13107
502.928	11197
503.002	12216
503.075	11477
503.149	13093
503.222	13135
503.295	13706
503.369	16135
503.442	25939
503.516	87715
503.589	182676
503.662	103109
503.736	41695
503.809	86672
503.882	70352
503.956	105483
504.029	82273
504.102	54855
504.175	57051
504.249	25380
504.322	20309
504.395	17141
504.468	13337
504.542	12085
504.615	9652
504.688	11082
504.761	9346
504.834	14377
504.907	17403
504.980	23422
505.053	14130
505.127	16147
505.200	20263
505.273	16922
505.346	11502
505.419	9704
505.492	10291
505.565	9354
505.638	9357
505.711	8109
505.784	7972
505.857	8689
505.930	11024
506.003	8522
506.076	12033
506.149	13286
506.221	13953
506.294	17499
506.367	51491
506.440	135215
506.513	57969
506.586	16838
506.659	10521
506.731	10272
506.804	13631
506.877	16702
506.950	11803
507.022	9949
507.095	11545
507.168	15004
507.241	10589
507.313	9482
507.386	10848
507.459	15074
507.531	10811
507.604	8188
507.677	9294
507.749	7722
507.822	14177
507.894	26538
507.967	29523
508.040	16870
508.112	16070
508.185	14295
508.257	13994
508.330	19347
508.402	14503
508.475	14369
508.547	14723
508.620	14978
508.692	21627
508.765	13921
508.837	11818
508.909	12699
508.982	12422
509.054	13645
509.127	11857
509.199	12016
509.271	10152
509.344	10499
509.416	10983
509.488	11106
509.560	12369
509.633	13297
509.705	15274
509.777	15614
509.849	20096
509.922	14875
509.994	13982
510.066	15239
510.138	15786
510.210	29285
510.283	23170
510.355	20110
510.427	17806
510.499	16286
510.571	16177
510.643	16671
510.715	24836
510.787	20776
510.859	17397
510.931	18712
511.003	23729
511.076	20536
511.148	14480
511.219	17066
511.291	25164
511.363	25109
511.435	16307
511.507	13319
511.579	15236
511.651	15533
511.723	13923
511.795	12589
511.867	13835
511.939	18798
512.010	29621
512.082	21644
512.154	13585
512.226	15261
512.298	24004
512.369	30201
512.441	23888
512.513	21944
512.585	17471
512.656	18817
512.728	19872
512.800	15967
512.871	15400
512.943	16491
513.015	14469
513.086	15177
513.158	17281
513.230	16690
513.301	23116
513.373	23037
513.444	16408
513.516	13903
513.588	15390
513.659	16025
513.731	18593
513.802	16526
513.874	35694
513.945	49208
514.016	18917
514.088	14130
514.159	15760
514.231	21997
514.302	27458
514.374	21610
514.445	20889
514.516	36765
514.588	24402
514.659	20595
514.730	32226
514.802	26525
514.873	23611
514.944	27702
515.016	24096
515.087	23707
515.158	28239
515.229	33319
515.301	28480
515.372	36340
515.443	28113
515.514	22357
515.585	16559
515.656	17056
515.728	15114
515.799	15184
515.870	16346
515.941	16312
516.012	16740
516.083	22519
516.154	22354
516.225	25816
516.296	23773
516.367	21585
516.438	22408
516.509	26316
516.580	39029
516.651	118814
516.722	310565
516.793	121217
516.864	36519
516.935	32847
517.006	34612
517.077	49335
517.148	121211
517.219	369429
517.289	441067
517.360	166507
517.431	52078
517.502	22284
517.573	20804
517.643	23073
517.714	24440
517.785	24380
517.856	24514
517.926	27801
517.997	28884
518.068	31145
518.138	39540
518.209	70250
518.280	287725
518.350	741692
518.421	234533
518.492	40410
518.562	28991
518.633	29462
518.703	27694
518.774	44449
518.845	75334
518.915	60720
518.986	31451
519.056	30853
519.127	49401
519.197	78661
519.268	157942
519.338	77782
519.408	27185
519.479	31053
519.549	22304
519.620	18505
519.690	13857
519.760	15344
519.831	16674
519.901	15002
519.971	13353
520.042	15499
520.112	16937
520.182	19711
520.253	20402
520.323	16528
520.393	25292
520.463	33900
520.534	26782
520.604	44855
520.674	22313
520.744	24090
520.814	53879
520.885	43111
520.955	66670
521.025	173581
521.095	53172
521.165	16152
521.235	15246
521.305	12820
521.375	13457
521.445	15325
521.515	18485
521.585	22411
521.655	18283
521.725	17406
521.795	16297
521.865	12507
521.935	21045
522.005	15774
522.075	12220
522.145	14049
522.215	15975
522.285	21636
522.355	28732
522.424	48644
522.494	37350
522.564	23354
522.634	50783
522.704	114686
522.774	36471
522.843	15036
522.913	15333
522.983	18171
523.053	13523
523.122	14296
523.192	21588
523.262	68963
523.331	51730
523.401	15928
523.471	12283
523.540	12583
523.610	9143
523.680	9976
523.749	11777
523.819	15300
523.888	12099
523.958	10287
524.027	11992
524.097	11966
524.166	11513
524.236	12514
524.305	13683
524.375	10451
524.444	9969
524.514	12530
524.583	12407
524.653	14263
524.722	15621
524.791	11034
524.861	12284
524.930	10388
524.999	11904
525.069	15113
525.138	13033
525.207	15377
525.277	11692
525.346	11541
525.415	11953
525.484	13060
525.554	13632
525.623	14819
525.692	13756
525.761	14558
525.830	14681
525.900	15458
525.969	23281
526.038	31341
526.107	64662
526.176	150126
526.245	105671
526.314	50541
526.383	92157
526.452	106299
526.522	198284
526.591	163795
526.660	65753
526.729	33131
526.797	38921
526.867	103880
526.935	368760
527.004	462212
527.073	188991
527.142	27262
527.211	17416
527.280	18340
527.349	16044
527.418	10518
527.487	11695
527.555	9216
527.624	9244
527.693	8359
527.762	11184
527.831	7735
527.899	9377
527.968	8974
528.037	8175
528.106	14166
528.174	20874
528.243	18337
528.312	26270
528.380	28413
528.449	10209
528.518	10769
528.586	7033
528.655	9114
528.723	6500
528.792	8809
528.861	8958
528.929	8088
528.998	9319
529.066	8232
529.135	10748
529.203	9818
529.272	10690
529.340	13189
529.409	14250
529.477	13540
529.545	14422
529.614	17611
529.682	18180
529.751	18832
529.819	21746
529.887	17731
529.956	14144
530.024	15363
530.092	12632
530.161	17049
530.229	21569
530.297	15426
530.365	14924
530.434	15176
530.502	13696
530.570	14076
530.638	11068
530.707	13315
530.775	14166
530.843	12839
530.911	13088
530.979	13582
531.047	14353
531.115	14461
531.183	13878
531.252	13488
531.320	13693
531.388	12897
531.456	13466
531.524	13653
531.592	16065
531.660	17845
531.728	13682
531.796	14384
531.864	13967
531.932	14297
532.000	14594
532.067	15984
532.135	17674
532.203	20053
532.271	20536
532.339	34203
532.407	60247
532.475	35144
532.542	22748
532.610	22973
532.678	33202
532.746	125603
532.814	210042
532.881	50893
532.949	20844
533.017	17758
533.084	16204
533.152	15739
533.220	16075
533.287	17263
533.355	16444
533.423	15285
533.490	15640
533.558	16389
533.625	18113
533.693	17531
533.761	16692
533.828	17613
533.896	18956
533.963	30774
534.031	37157
534.098	43388
534.166	23190
534.233	19045
534.300	20717
534.368	20639
534.435	17527
534.503	19182
534.570	19493
534.637	16165
534.705	17979
534.772	18889
534.840	28995
534.907	88440
534.974	77701
535.041	19973
535.109	19214
535.176	15079
535.243	14797
535.310	15002
535.378	14173
535.445	12442
535.512	12466
535.579	14014
535.646	12318
535.714	13556
535.781	17375
535.848	17359
535.915	18452
535.982	21217
536.049	19630
536.116	19302
536.183	16919
536.250	16514
536.317	15028
536.384	17615
536.451	22510
536.518	22308
536.585	17814
536.652	22288
536.719	26248
536.786	19520
536.853	18166
536.920	26177
536.987	33800
537.053	37723
537.120	133176
537.187	79222
537.254	14457
537.321	13599
537.388	14364
537.454	11762
537.521	11463
537.588	12096
537.654	14802
537.721	15656
537.788	15030
537.855	12382
537.921	13180
537.988	13236
538.055	13251
538.121	12866
538.188	14148
538.254	23218
538.321	33812
538.388	20029
538.454	13450
538.521	13047
538.587	11629
538.654	12622
538.720	12170
538.787	12177
538.853	12974
538.920	15351
538.986	15818
539.053	13548
539.119	14430
539.185	13449
539.252	17406
539.318	20578
539.385	19380
539.451	15894
539.517	16435
539.583	19364
539.650	45918
539.716	85785
539.782	22766
539.849	12337
539.915	13792
539.981	14765
540.047	15352
540.114	15250
540.180	16333
540.246	15202
540.312	20954
540.378	34639
540.444	30873
540.510	48662
540.576	96599
540.643	27189
540.709	12500
540.775	13166
540.841	13845
540.907	19746
540.973	26963
541.039	22496
541.105	21664
541.171	15278
541.237	13046
541.303	15249
541.369	17189
541.435	22077
541.500	29893
541.566	17094
541.632	12170
541.698	10784
541.764	13552
541.830	12824
541.896	11385
541.961	13500
542.027	12780
542.093	13298
542.159	14578
542.224	16309
542.290	23282
542.356	31068
542.421	30053
542.487	17147
542.553	16042
542.618	16015
542.684	13826
542.750	12665
542.815	16993
542.881	32129
542.947	96552
543.012	50609
543.078	14075
543.143	11687
543.209	14348
543.274	14030
543.340	17407
543.405	41036
543.471	47960
543.536	14447
543.602	13700
543.667	12431
543.732	13338
543.798	12410
543.863	13318
543.928	12003
543.994	11106
544.059	12418
544.124	12707
544.190	12357
544.255	13348
544.320	14593
544.386	13705
544.451	18802
544.516	18904
544.581	22943
544.646	66485
544.712	74947
544.777	19550
544.842	16752
544.907	17168
544.972	15438
545.037	15336
545.102	17417
545.168	15839
545.233	17278
545.298	17539
545.363	21241
545.428	22444
545.493	41520
545.558	70508
545.623	26645
545.688	15974
545.753	16252
545.818	14886
545.883	17664
545.947	16113
546.012	17032
546.077	16147
546.142	16853
546.207	17431
546.272	22293
546.337	20797
546.401	18346
546.466	18442
546.531	17311
546.596	17833
546.661	18298
546.725	17434
546.790	16684
546.855	17264
546.919	17533
546.984	19777
547.049	20171
547.113	22360
547.178	21252
547.243	23925
547.307	26620
547.372	29059
547.436	30522
547.501	26901
547.565	27992
547.630	30699
547.695	30002
547.759	31272
547.823	27471
547.888	26873
547.952	25718
548.017	28549
548.081	33854
548.146	36467
548.210	31781
548.274	28116
548.339	27075
548.403	26043
548.468	24707
548.532	24643
548.596	25897
548.660	26694
548.725	28554
548.789	32775
548.853	32569
548.917	29757
548.982	35507
549.046	31305
549.110	24187
549.174	24654
549.238	26662
549.303	27385
549.367	29220
549.431	26732
549.495	26479
549.559	25687
549.623	30604
549.687	35060
549.751	39218
549.815	36146
549.879	34683
549.943	32534
550.007	36106
550.071	36223
550.135	38681
550.199	33186
550.263	31871
550.327	33995
550.391	39636
550.455	35562
550.519	33624
550.582	38555
550.646	48515
550.710	46868
550.774	39828
550.838	39706
550.901	41218
550.965	42747
551.029	45250
551.093	48981
551.156	59887
551.220	86552
551.284	78737
551.347	56788
551.411	89634
551.475	75908
551.538	43831
551.602	39214
551.666	38690
551.729	35814
551.793	36080
551.856	36453
551.920	36161
551.983	36351
552.047	33765
552.110	34720
552.174	36147
552.237	35001
552.301	32862
552.364	31579
552.428	31584
552.491	33447
552.554	33892
552.618	34486
552.681	35186
552.745	35129
552.808	44138
552.871	48485
552.934	39861
552.998	36272
553.061	37548
553.124	34979
553.187	35876
553.251	36659
553.314	38145
553.377	42105
553.440	65576
553.503	181359
553.567	206798
553.630	50282
553.693	37268
553.756	35992
553.819	34411
553.882	33055
553.945	34491
554.008	33502
554.071	32075
554.134	33069
554.197	31322
554.260	31595
554.323	34246
554.386	32850
554.449	33507
554.512	33250
554.575	32050
554.638	32133
554.701	31128
554.764	30469
554.827	30745
554.889	28940
554.952	27277
555.015	28746
555.078	28159
555.141	29060
555.203	28017
555.266	28927
555.329	29229
555.391	27057
555.454	27960
555.517	27280
555.580	26532
555.642	25010
555.705	25147
555.768	26772
555.830	25386
555.893	23456
555.955	23528
556.018	23874
556.080	23748
556.143	22991
556.206	23436
556.268	25426
556.330	24582
556.393	24049
556.455	24813
556.518	32427
556.580	29505
556.643	21904
556.705	21047
556.767	21080
556.830	22043
556.892	24375
556.955	31051
557.017	24764
557.079	20547
557.142	21068
557.204	25950
557.266	39793
557.328	30254
557.391	20052
557.453	19596
557.515	19383
557.577	23860
557.639	22294
557.701	18857
557.764	18289
557.826	18551
557.888	21611
557.950	22078
558.012	22469
558.074	30052
558.136	65059
558.198	110337
558.260	40762
558.322	25887
558.384	26177
558.446	28434
558.508	30937
558.570	38012
558.632	58828
558.694	74644
558.756	98842
558.818	313465
558.880	538429
558.942	148366
559.003	123270
559.065	53174
559.127	31511
559.189	29807
559.251	35480
559.312	54319
559.374	146474
559.436	361521
559.498	129059
559.559	33542
559.621	30154
559.683	36764
559.744	66876
559.806	198694
559.868	204030
559.929	43319
559.991	34244
560.052	54985
560.114	115312
560.176	65561
560.237	80661
560.299	95824
560.360	26683
560.422	18495
560.483	18875
560.545	17607
560.606	16954
560.667	17100
560.729	16827
560.790	16469
560.852	16364
560.913	16466
560.974	15953
561.036	16897
561.097	16228
561.158	16338
561.220	17876
561.281	15663
561.342	18098
561.403	21511
561.465	25957
561.526	53461
561.587	52734
561.648	20696
561.709	17738
561.771	17390
561.832	16399
561.893	16538
561.954	15893
562.015	16673
562.076	17336
562.137	16923
562.198	17196
562.259	17111
562.320	16658
562.381	17877
562.442	23730
562.503	19711
562.564	15819
562.625	16345
562.686	16758
562.747	18497
562.808	18412
562.869	16351
562.930	19995
562.991	19205
563.051	16885
563.112	17336
563.173	17167
563.234	16064
563.294	16823
563.355	15880
563.416	18002
563.477	17248
563.537	17747
563.598	17459
563.659	17375
563.720	17609
563.780	17659
563.841	18057
563.901	17878
563.962	16985
564.023	17539
564.083	17144
564.144	18239
564.204	17067
564.265	18284
564.325	21511
564.386	34382
564.446	27199
564.507	17650
564.567	17821
564.628	17063
564.688	17205
564.749	18114
564.809	20207
564.869	21877
564.930	18233
564.990	19187
565.050	18900
565.111	18248
565.171	18322
565.231	18403
565.292	19600
565.352	18552
565.412	18450
565.472	20236
565.532	20546
565.593	18808
565.653	19154
565.713	20079
565.773	21279
565.833	24181
565.893	27129
565.953	20604
566.013	21645
566.074	22617
566.134	27980
566.194	36262
566.254	35065
566.314	27556
566.374	24359
566.434	25745
566.494	26391
566.554	26221
566.614	28050
566.673	28668
566.733	31067
566.793	31938
566.853	31920
566.913	34120
566.973	34510
567.033	33399
567.092	33951
567.152	32787
567.212	34650
567.272	35387
567.331	36806
567.391	38478
567.451	42348
567.511	46075
567.570	41964
567.630	36718
567.690	35107
567.749	36670
567.809	38555
567.868	42456
567.928	46927
567.988	53471
568.047	61402
568.107	75522
568.166	100112
568.226	144693
568.285	178802
568.345	169503
568.404	150947
568.464	136709
568.523	126697
568.582	126906
568.642	139013
568.701	167364
568.761	226063
568.820	301005
568.879	303144
568.939	258606
568.998	208796
569.057	169804
569.116	139537
569.176	116641
569.235	100049
569.294	86870
569.353	75406
569.413	67171
569.472	58923
569.531	53103
569.590	49096
569.649	45447
569.708	42200
569.767	40915
569.827	39188
569.886	35229
569.945	32370
570.004	31643
570.063	28745
570.122	31086
570.181	28766
570.240	29161
570.299	29031
570.358	28424
570.417	24415
570.475	23153
570.534	23845
570.593	23103
570.652	23143
570.711	22694
570.770	21795
570.829	22849
570.887	22867
570.946	23106
571.005	18849
571.064	19595
571.122	20875
571.181	21519
571.240	18941
571.299	18307
571.357	19030
571.416	18788
571.475	20171
571.533	21270
571.592	18515
571.650	18034
571.709	17414
571.768	17232
571.826	16721
571.885	15896
571.943	16324
572.002	16623
572.060	16560
572.119	15600
572.177	15837
572.236	15377
572.294	15264
572.352	15974
572.411	14919
572.469	14726
572.528	15294
572.586	15332
572.644	16685
572.703	18617
572.761	15446
572.819	15086
572.877	15589
572.936	14225
572.994	14654
573.052	13851
573.110	14365
573.169	15406
573.227	13952
573.285	13966
573.343	14466
573.401	14138
573.459	14946
573.517	13995
573.576	14006
573.634	15029
573.692	14046
573.750	13702
573.808	13790
573.866	15659
573.924	18053
573.982	16563
574.040	13854
574.098	13771
574.155	13204
574.213	13829
574.271	13398
574.329	13442
574.387	13712
574.445	11760
574.503	13191
574.560	11297
574.618	12648
574.676	12444
574.734	12588
574.792	13417
574.849	13548
574.907	12911
574.965	12545
575.022	12030
575.080	12377
575.138	12475
575.195	13187
575.253	12553
575.311	13749
575.368	13280
575.426	13383
575.483	13517
575.541	13245
575.598	12484
575.656	13313
575.713	12862
575.771	12827
575.828	12635
575.886	12998
575.943	13853
576.001	14059
576.058	13079
576.115	14606
576.173	15335
576.230	16182
576.287	17254
576.345	14874
576.402	13448
576.459	13867
576.517	14136
576.574	14888
576.631	15685
576.688	14058
576.746	14042
576.803	13931
576.860	13813
576.917	12828
576.974	13553
577.031	13665
577.089	13842
577.146	15016
577.203	14560
577.260	15286
577.317	14917
577.374	16235
577.431	15178
577.488	14585
577.545	13208
577.602	15611
577.659	14990
577.716	16701
577.773	16698
577.830	15560
577.886	14970
577.943	14506
578.000	15032
578.057	16550
578.114	17665
578.171	20638
578.227	26076
578.284	23940
578.341	21580
578.398	19391
578.454	18587
578.511	18844
578.568	17723
578.625	15501
578.681	15080
578.738	14658
578.794	14715
578.851	14619
578.908	14741
578.964	17295
579.021	16705
579.077	15726
579.134	14807
579.190	14982
579.247	15754
579.303	14418
579.360	14789
579.416	14380
579.473	14356
579.529	14813
579.586	15210
579.642	15271
579.698	15899
579.755	15124
579.811	16124
579.867	16556
579.924	17814
579.980	18061
580.036	21666
580.093	25673
580.149	36409
580.205	37376
580.261	30594
580.317	26325
580.374	23098
580.430	23735
580.486	20962
580.542	18671
580.598	18309
580.619	18394
580.654	18562
580.692	17454
580.710	16940
580.765	17639
580.767	17682
580.823	17590
580.838	17460
580.879	17178
580.911	17481
580.935	17752
580.984	16448
580.991	16292
581.047	17708
581.057	17815
581.103	18381
581.130	19287
581.159	20299
581.203	21185
581.215	21428
581.270	21057
581.276	20926
581.326	19867
581.349	19277
581.382	18428
581.422	18445
581.438	18508
581.494	18383
581.494	18359
581.550	17269
581.567	17515
581.606	18105
581.640	18141
581.661	18191
581.713	17395
581.717	17354
581.773	16749
581.786	17071
581.829	18014
581.859	17712
581.885	17570
581.932	18094
581.940	18172
581.996	17685
582.004	17571
582.052	17080
582.077	17212
582.107	17396
582.150	17913
582.163	18089
582.219	17932
582.223	17908
582.274	17615
582.296	17843
582.330	18295
582.368	18628
582.386	18799
582.441	18170
582.441	18175
582.497	19510
582.514	19721
582.552	20339
582.587	21143
582.608	21569
582.659	20000
582.663	19877
582.719	19673
582.732	19451
582.774	19008
582.805	19435
582.830	19650
582.877	19945
582.885	20016
582.941	20751
582.950	21046
582.996	22522
583.023	23015
583.052	23827
583.095	24738
583.107	24910
583.162	27577
583.168	27764
583.218	29544
583.240	28313
583.273	26212
583.313	24924
583.328	24465
583.384	23977
583.385	23918
583.439	22215
583.458	22130
583.494	22248
583.531	21462
583.549	20961
583.603	21056
583.605	21063
583.660	21527
583.676	21482
583.715	21092
583.748	21045
583.770	21202
583.820	21696
583.825	21713
583.881	21150
583.893	21037
583.936	20798
583.965	21212
583.991	21499
584.038	21091
584.046	21005
584.101	21218
584.110	21232
584.156	21419
584.183	21744
584.211	22009
584.255	21533
584.266	21440
584.321	21972
584.328	21994
584.376	22322
584.400	22855
584.431	22964
584.472	22301
584.486	22326
584.541	23556
584.545	23572
584.596	23041
584.617	22646
584.651	22742
584.689	24480
584.706	24848
584.761	24051
584.762	24067
584.816	25219
584.834	25226
584.871	24920
584.906	25081
584.926	25316
584.978	26337
584.980	26367
585.035	26850
585.051	27041
585.090	27475
585.123	28320
585.145	28750
585.195	28954
585.200	29063
585.254	31629
585.267	32631
585.309	35852
585.340	37649
585.364	38156
585.412	35465
585.419	35053
585.473	35622
585.484	36086
585.528	39849
585.556	43971
585.583	50008
585.628	65931
585.637	71286
585.692	123743
585.700	130228
585.747	152827
585.772	131819
585.801	90561
585.845	52214
585.856	47322
585.910	39232
585.917	38496
585.965	36813
585.989	36592
586.019	36275
586.061	35556
586.074	35504
586.128	36733
586.133	36809
586.183	37361
586.205	37831
586.237	38348
586.277	38358
586.292	38319
586.346	38869
586.349	38955
586.401	39748
586.421	40117
586.455	41072
586.493	43285
586.509	45035
586.564	50454
586.565	50742
586.618	63306
586.637	63055
586.672	55332
586.709	49640
586.727	48192
586.781	47588
586.781	47548
586.835	48149
586.853	48650
586.889	49241
586.925	49321
586.944	49680
586.996	52138
586.998	52138
587.052	53604
587.068	54145
587.106	55478
587.140	56761
587.161	57374
587.212	59727
587.215	59808
587.269	62454
587.284	63477
587.323	65536
587.356	67378
587.377	68655
587.427	71323
587.431	71413
587.485	75432
587.499	76464
587.539	79798
587.571	83413
587.593	85484
587.643	89413
587.648	89774
587.702	95975
587.715	97780
587.755	102745
587.786	106942
587.810	110055
587.858	118009
587.864	118842
587.917	129522
587.930	132159
587.971	141823
588.001	149968
588.025	155709
588.073	168725
588.079	170505
588.133	189751
588.145	194925
588.187	212731
588.217	225726
588.241	237432
588.288	264069
588.295	267700
588.348	304862
588.360	313629
588.402	349477
588.431	378312
588.456	404415
588.503	460495
588.510	469967
588.564	558845
588.575	579880
588.617	675017
588.646	746913
588.671	828066
588.718	991609
588.725	1024868
588.778	1290719
588.789	1340846
588.832	1545528
588.861	1659451
588.886	1655541
588.932	1576869
588.939	1556013
588.993	1456133
589.004	1457156
589.047	1647060
589.075	1722147
589.100	1620241
589.147	1381916
589.154	1350614
589.207	1104092
589.218	1056757
589.261	979931
589.290	942821
589.314	961443
589.361	1017031
589.368	1040408
589.421	1257430
589.433	1301759
589.475	1497024
589.504	1598911
589.528	1566479
589.576	1487152
589.582	1484360
589.635	1542949
589.647	1537421
589.689	1296252
589.718	1102135
589.742	964174
589.790	694758
589.795	676565
589.849	524354
589.861	492106
589.902	419966
589.932	370341
589.955	340970
590.004	285420
590.009	280908
590.062	241193
590.075	232725
590.115	210467
590.146	194731
590.168	185861
590.218	168609
590.222	166975
590.275	150890
590.289	147281
590.328	138254
590.360	131784
590.381	126912
590.431	116434
590.435	115661
590.488	107391
590.503	105329
590.541	100499
590.574	97062
590.594	94518
590.645	88786
590.647	88408
590.700	83239
590.716	81996
590.753	78547
590.787	75469
590.806	74045
590.859	71367
590.859	71167
590.912	67175
590.930	66006
590.965	64758
591.001	64062
591.018	63013
591.071	59855
591.072	59937
591.124	58646
591.143	58264
591.177	56537
591.214	55072
591.230	54793
591.283	54230
591.285	54290
591.336	52352
591.356	51792
591.389	51199
591.427	50607
591.442	49661
591.495	46350
591.498	46195
591.547	44863
591.569	44381
591.600	43641
591.640	42861
591.653	42697
591.706	42397
591.711	42438
591.759	42058
591.782	41991
591.811	42171
591.853	42428
591.864	41835
591.917	39213
591.924	38898
591.969	38217
591.995	38000
592.022	37830
592.066	37629
592.075	37850
592.127	39633
592.137	40038
592.180	40849
592.208	41309
592.233	39169
592.279	35327
592.285	35155
592.338	34221
592.350	34050
592.390	33366
592.421	32998
592.443	32794
592.491	32492
592.495	32446
592.548	32589
592.562	32680
592.600	31719
592.633	30995
592.653	30943
592.704	30788
592.705	30947
592.775	30189
592.846	29931
592.916	29746
592.987	32388
593.058	29437
593.128	27275
593.199	27561
593.270	27622
593.341	26921
593.411	27635
593.482	26647
593.553	27488
593.623	26349
593.694	26676
593.764	27105
593.835	27360
593.906	24956
593.976	25204
594.047	26262
594.117	29184
594.188	28059
594.258	25237
594.329	24620
594.399	24728
594.470	24817
594.540	23786
594.611	24209
594.681	24404
594.751	23876
594.822	25850
594.892	26689
594.963	26553
595.033	23778
595.103	25012
595.174	26095
595.244	35644
595.314	38854
595.384	25262
595.455	23605
595.525	25904
595.595	24703
595.665	24927
595.736	24336
595.806	25222
595.876	24653
595.946	24416
596.016	23869
596.087	25355
596.157	24214
596.227	24832
596.297	25471
596.367	27082
596.437	28668
596.507	33886
596.577	39247
596.647	28628
596.717	26331
596.787	27389
596.857	26765
596.927	27658
596.997	26594
597.067	28139
597.137	31424
597.207	29285
597.277	27507
597.347	27192
597.417	26941
597.487	28573
597.557	27754
597.626	28567
597.696	28807
597.766	32462
597.836	37239
597.906	27413
597.975	25765
598.045	26186
598.115	26172
598.185	27789
598.254	28878
598.324	31301
598.394	31048
598.464	30438
598.533	29194
598.603	28491
598.672	28215
598.742	29076
598.812	28565
598.881	30021
598.951	28391
599.020	28105
599.090	28563
599.159	29409
599.229	27199
599.299	28041
599.368	28207
599.437	28363
599.507	27414
599.576	27956
599.646	30500
599.715	30553
599.785	27573
599.854	27822
599.924	29706
599.993	27527
600.062	26520
600.132	28336
600.201	28260
600.270	33617
600.340	30383
600.409	31583
600.478	30436
600.547	31405
600.617	29781
600.686	28017
600.755	27547
600.824	28439
600.894	25851
600.963	26283
601.032	25774
601.101	26782
601.170	25106
601.239	26402
601.308	27826
601.378	28019
601.447	26950
601.516	27297
601.585	27773
601.654	30845
601.723	28278
601.792	28656
601.861	30184
601.930	35670
601.999	32692
602.068	31161
602.137	32713
602.206	33374
602.275	31235
602.343	34903
602.412	34009
602.481	30793
602.550	29482
602.619	30782
602.688	31412
602.756	31211
602.825	30813
602.894	31066
602.963	30593
603.032	31556
603.100	30253
603.169	31872
603.238	31204
603.307	31740
603.375	30720
603.444	32285
603.513	30359
603.581	32504
603.650	32220
603.719	30785
603.787	28119
603.856	30239
603.924	30596
603.993	31023
604.061	31076
604.130	32244
604.198	32690
604.267	33698
604.335	33030
604.404	32533
604.472	33197
604.541	33992
604.609	33654
604.678	34414
604.746	34753
604.815	36726
604.883	36299
604.951	35092
605.020	35902
605.088	34859
605.156	33518
605.225	33619
605.293	33988
605.361	36350
605.429	34056
605.498	35727
605.566	36080
605.634	36723
605.702	35850
605.771	37965
605.839	37721
605.907	35764
605.975	36204
606.043	35539
606.111	34936
606.180	38210
606.248	38660
606.316	39801
606.384	35530
606.452	37188
606.520	36981
606.588	32869
606.656	29337
606.724	30124
606.792	28404
606.860	27181
606.928	23992
606.996	24846
607.064	23601
607.132	24512
607.200	25240
607.267	25884
607.335	25427
607.403	27449
607.471	26666
607.539	25691
607.607	24785
607.674	23675
607.742	25064
607.810	25304
607.878	24207
607.946	24079
608.013	24619
608.081	25718
608.149	24418
608.216	24782
608.284	26352
608.352	26299
608.419	25837
608.487	31245
608.555	26161
608.622	25235
608.690	26303
608.757	28534
608.825	28898
608.893	28512
608.960	29473
609.028	29835
609.095	32789
609.163	26886
609.230	24640
609.298	24668
609.365	22985
609.432	25728
609.500	26432
609.567	30256
609.635	32174
609.702	34060
609.769	34269
609.837	30988
609.904	27690
609.971	27960
610.039	35709
610.106	51533
610.173	99049
610.241	229158
610.308	204260
610.375	103870
610.442	40482
610.509	29662
610.577	27554
610.644	26330
610.711	26792
610.778	26974
610.845	27190
610.912	30321
610.980	33147
611.047	42028
611.114	34209
611.181	29101
611.248	26366
611.315	29699
611.382	28597
611.449	30124
611.516	31054
611.583	29508
611.650	30016
611.717	31742
611.784	31680
611.851	34840
611.918	40327
611.984	49291
612.051	76853
612.118	170629
612.185	431707
612.252	267163
612.319	56707
612.386	42052
612.452	37364
612.519	36731
612.586	40995
612.653	38121
612.719	33867
612.786	32733
612.853	31283
612.919	29659
612.986	31138
613.053	29020
613.120	26699
613.186	26413
613.253	28323
613.319	27283
613.386	26840
613.453	28490
613.519	30592
613.586	35257
613.652	43263
613.719	38035
613.785	34319
613.852	30214
613.918	29544
613.985	35311
614.051	48338
614.118	91370
614.184	83121
614.250	32701
614.317	28509
614.383	28505
614.449	27834
614.516	27466
614.582	29303
614.648	28000
614.715	27588
614.781	27999
614.847	27336
614.914	28714
614.980	27630
615.046	28648
615.112	28452
615.179	29816
615.245	31371
615.311	40610
615.377	58022
615.443	66319
615.509	43623
615.575	35527
615.642	33683
615.708	36182
615.774	38382
615.840	45019
615.906	56608
615.972	86352
616.038	164641
616.104	291441
616.170	596077
616.236	489577
616.302	99817
616.368	62421
616.434	44880
616.500	41841
616.565	42931
616.631	53383
616.697	43578
616.763	45479
616.829	65747
616.895	116467
616.961	112930
617.026	51896
617.092	34695
617.158	32382
617.224	29404
617.289	27803
617.355	27577
617.421	27377
617.487	27301
617.552	25942
617.618	24864
617.684	24261
617.749	27333
617.815	24847
617.880	24200
617.946	24283
618.012	24197
618.077	25694
618.143	24702
618.208	25821
618.274	25657
618.339	26774
618.405	22352
618.470	23254
618.536	23097
618.601	24751
618.667	22875
618.732	22819
618.798	22394
618.863	21656
618.928	20675
618.994	24462
619.059	25686
619.124	32795
619.190	24964
619.255	21002
619.320	20934
619.386	21405
619.451	19563
619.516	20953
619.581	21778
619.647	21087
619.712	21058
619.777	21491
619.842	21058
619.907	21294
619.972	21322
620.038	21314
620.103	20770
620.168	19843
620.233	19956
620.298	19856
620.363	20713
620.428	22235
620.493	21625
620.558	22151
620.623	21639
620.688	21881
620.753	21052
620.818	21302
620.883	21532
620.948	22132
621.013	20776
621.078	21931
621.143	20492
621.207	25166
621.272	23226
621.337	23989
621.402	23602
621.467	28425
621.532	28911
621.596	24598
621.661	23811
621.726	22965
621.791	21965
621.855	23906
621.920	24616
621.985	25257
622.049	27379
622.114	26173
622.179	24854
622.243	24314
622.308	24466
622.373	26705
622.437	24787
622.502	24176
622.566	23647
622.631	22679
622.695	24918
622.760	24146
622.824	24177
622.889	24560
622.953	27135
623.018	37275
623.082	33891
623.147	25785
623.211	24196
623.276	24676
623.340	22652
623.404	22439
623.469	21952
623.533	23998
623.597	21706
623.662	22524
623.726	20914
623.790	21596
623.854	19678
623.919	21821
623.983	19671
624.047	21855
624.111	19913
624.176	22276
624.240	21803
624.304	24375
624.368	21720
624.432	20975
624.496	21608
624.560	24257
624.625	25696
624.689	23218
624.753	22148
624.817	21764
624.881	20529
624.945	20203
625.009	19732
625.073	20939
625.137	20307
625.201	27049
625.265	25887
625.329	21210
625.393	21814
625.456	22376
625.520	22135
625.584	23462
625.648	28141
625.712	38331
625.776	75115
625.839	82469
625.903	34842
625.967	23372
626.031	34308
626.095	49145
626.158	21604
626.222	16479
626.286	17500
626.349	16296
626.413	14877
626.477	17703
626.540	15179
626.604	15066
626.668	15495
626.731	15158
626.795	15092
626.858	15510
626.922	14000
626.986	15795
627.049	13050
627.113	15909
627.176	15206
627.240	14925
627.303	13614
627.366	14688
627.430	14902
627.493	15484
627.557	12573
627.620	16168
627.684	14452
627.747	14845
627.810	12935
627.874	14428
627.937	11832
628.000	15042
628.064	13691
628.127	11568
628.190	12671
628.253	13500
628.317	11131
628.380	12580
628.443	11401
628.506	11944
628.569	11320
628.632	10546
628.696	10888
628.759	10173
628.822	10204
628.885	9765
628.948	9916
629.011	12209
629.074	10643
629.137	10529
629.200	9568
629.263	12189
629.326	9380
629.389	9154
629.452	10122
629.515	10227
629.578	11214
629.641	10832
629.704	10718
629.767	11518
629.830	9888
629.892	10122
629.955	9033
630.018	14052
630.081	11695
630.144	15664
630.207	10531
630.269	12496
630.332	11354
630.395	11274
630.458	8487
630.520	8918
630.583	10316
630.646	9861
630.708	8838
630.771	8721
630.834	8958
630.896	8762
630.959	9147
631.021	9305
631.084	8644
631.146	10239
631.209	12287
631.272	9099
631.334	8786
631.397	10011
631.459	8170
631.522	10260
631.584	9398
631.646	10208
631.709	10789
631.771	14014
631.834	10970
631.896	10183
631.958	7965
632.021	9499
632.083	7615
632.145	8898
632.208	8176
632.270	9789
632.332	7845
632.395	8480
632.457	8405
632.519	7777
632.581	9073
632.643	7826
632.706	8452
632.768	7723
632.830	7412
632.892	8545
632.954	7510
633.016	9165
633.078	7632
633.141	8095
633.203	7277
633.265	9077
633.327	7528
633.389	8382
633.451	9823
633.513	11800
633.575	10506
633.637	10295
633.698	8612
633.760	9353
633.822	9029
633.884	8635
633.946	8000
634.008	9136
634.070	10206
634.132	12831
634.193	10875
634.255	10072
634.317	9906
634.379	11440
634.441	8782
634.502	8946
634.564	9149
634.626	8802
634.687	9290
634.749	8604
634.811	7951
634.873	7497
634.934	7739
634.996	8221
635.057	7489
635.119	6792
635.181	7209
635.242	8858
635.304	5210
635.365	9732
635.427	7414
635.488	8338
635.550	7178
635.611	8811
635.673	6296
635.734	9356
635.796	8083
635.857	10247
635.918	8168
635.980	11375
636.041	10163
636.102	11016
636.164	10334
636.225	10536
636.286	6954
636.348	8653
636.409	8105
636.470	7970
636.531	7375
636.593	8862
636.654	8645
636.715	7622
636.776	6851
636.838	6553
636.899	7097
636.960	6080
637.021	5271
637.082	6603
637.143	7115
637.204	6028
637.265	5721
637.326	7051
637.387	6003
637.448	5601
637.509	7174
637.570	6220
637.631	7177
637.692	5472
637.753	4664
637.814	6887
637.875	5389
637.936	6882
637.997	5738
638.058	7012
638.119	6568
638.179	7023
638.240	4536
638.301	5390
638.362	4569
638.423	6647
638.483	6650
638.544	4684
638.605	5753
638.666	4599
638.726	5666
638.787	7265
638.848	5108
638.908	5394
638.969	5305
639.030	6547
639.090	4697
639.151	5841
639.211	6510
639.272	8095
639.332	13676
639.393	9466
639.453	5263
639.514	6706
639.574	5785
639.635	5829
639.695	6545
639.756	5030
639.816	5985
639.877	7202
639.937	13291
639.997	17648
640.058	5861
640.118	5269
640.178	5994
640.239	5339
640.299	4191
640.359	5974
640.420	4942
640.480	7219
640.540	6052
640.600	6461
640.661	6100
640.721	5871
640.781	9175
640.841	7365
640.901	6558
640.961	6865
641.021	6236
641.082	6816
641.142	9975
641.202	7840
641.262	3950
641.322	5596
641.382	4012
641.442	6181
641.502	5469
641.562	5419
641.622	4017
641.682	6013
641.742	5396
641.802	6351
641.861	6641
641.921	6234
641.981	7018
642.041	7126
642.101	7843
642.161	4706
642.221	4468
642.280	4729
642.340	3922
642.400	4269
642.460	5721
642.519	5161
642.579	4211
642.639	6414
642.698	2289
642.758	6748
642.818	4978
642.877	4460
642.937	5447
642.997	7109
643.056	9506
643.116	4989
643.175	6795
643.235	4945
643.294	4774
643.354	7116
643.414	6532
643.473	8669
643.532	9069
643.592	13423
643.651	21933
643.711	39680
643.770	76235
643.830	184636
643.889	395277
643.948	87676
644.008	14929
644.067	9734
644.126	6385
644.186	7176
644.245	6018
644.304	5120
644.363	6963
644.423	4249
644.482	5011
644.541	6228
644.600	3200
644.659	7550
644.719	7250
644.778	11024
644.837	16102
644.896	34362
644.955	75497
645.014	26650
645.073	9093
645.132	6124
645.191	6256
645.250	5262
645.309	6232
645.368	6024
645.427	6404
645.486	9170
645.545	15927
645.604	6774
645.663	5058
645.722	5024
645.781	5414
645.840	7276
645.898	7914
645.957	13162
646.016	17949
646.075	34015
646.134	65539
646.192	178507
646.251	258884
646.310	36133
646.369	10020
646.427	8548
646.486	5419
646.545	6568
646.603	4433
646.662	5791
646.721	5545
646.779	5085
646.838	3786
646.896	7101
646.955	7285
647.014	10768
647.072	17313
647.131	46423
647.189	22389
647.248	4957
647.306	4648
647.365	5398
647.423	2150
647.481	5751
647.540	1828
647.598	3753
647.657	3194
647.715	4161
647.773	2799
647.832	4855
647.890	2212
647.948	3759
648.007	4100
648.065	3535
648.123	3744
648.181	5909
648.240	6109
648.298	5975
648.356	3065
648.414	4543
648.472	3444
648.531	4547
648.589	3898
648.647	3654
648.705	3884
648.763	4420
648.821	3715
648.879	3948
648.937	5266
648.995	4816
649.053	5851
649.111	10138
649.169	14470
649.227	25421
649.285	50440
649.343	144796
649.401	71686
649.459	24762
649.516	17091
649.574	14232
649.632	31127
649.690	38263
649.748	14218
649.806	14993
649.863	25220
649.921	34281
649.979	21014
650.037	5419
650.094	2422
650.152	5203
650.210	2629
650.268	4614
650.325	3840
650.383	4617
650.440	2069
650.498	3875
650.556	2695
650.613	2731
650.671	2706
650.728	3127
650.786	3608
650.843	3907
650.901	876
650.958	3633
651.016	2161
651.073	3023
651.131	2144
651.188	2368
651.246	2838
651.303	2636
651.360	2694
651.418	3056
651.475	2487
651.532	2407
651.590	2402
651.647	1805
651.704	1654
651.762	2074
651.819	3053
651.876	2475
651.933	2236
651.990	3443
652.048	1214
652.105	2428
652.162	2234
652.219	2694
652.276	2711
652.333	3120
652.390	1400
652.448	3392
652.505	2710
652.562	3007
652.619	3679
652.676	7337
652.733	7606
652.790	2880
652.847	1447
652.904	3337
652.961	1244
653.017	2451
653.074	2041
653.131	2006
653.188	1131
653.245	2519
653.302	1192
653.359	2279
653.415	2358
653.472	3197
653.529	3016
653.586	1861
653.642	1939
653.699	3402
653.756	969
653.813	1684
653.869	1902
653.926	2098
653.983	1202
654.039	3116
654.096	1995
654.152	3312
654.209	563
654.266	2117
654.322	1313
654.379	3277
654.435	3673
654.492	3513
654.548	4329
654.605	7653
654.661	4536
654.717	2988
654.774	2282
654.830	2149
654.887	2025
654.943	3089
655.000	3079
655.056	3442
655.112	2911
655.168	1592
655.225	1873
655.281	3201
655.337	3764
655.394	7089
655.450	4534
655.506	3917
655.562	6368
655.618	6717
655.675	1451
655.731	3117
655.787	1989
655.843	4017
655.899	1790
655.955	4144
656.011	3110
656.067	3015
656.123	4100
656.179	4242
656.235	5232
656.291	3596
656.347	4189
656.403	3106
656.459	3052
656.515	3919
656.571	3357
656.627	3353
656.683	2552
656.739	3660
656.795	2152
656.850	3160
656.906	3047
656.962	4256
657.018	2063
657.074	2241
657.129	2994
657.185	4044
657.241	4318
657.297	2622
657.352	1819
657.408	2225
657.464	2836
657.519	2875
657.575	1050
657.630	1977
657.686	1745
657.742	2261
657.797	880
657.853	2424
657.908	2752
657.964	1590
658.019	1352
658.075	2353
658.130	2586
658.186	1781
658.241	1940
658.297	1617
658.352	1137
658.407	2040
658.463	1002
658.518	2307
658.573	2084
658.629	1622
658.684	1045
658.739	2603
658.795	1072
658.850	3026
658.905	647
658.960	2020
659.016	1228
659.071	2866
659.126	1904
659.181	2763
659.236	5395
659.291	6078
659.346	2403
659.401	3548
659.457	4826
659.512	6472
659.567	3527
659.622	2179
659.677	1902
659.732	1691
659.787	1581
659.842	3017
659.897	4009
659.952	3464
660.007	1703
660.061	2706
660.116	1173
660.171	1507
660.226	1917
660.281	2718
660.336	543
660.391	1934
660.445	1012
660.500	2015
660.555	1151
660.610	1700
660.664	1975
660.719	1524
660.774	1540
660.828	2758
660.883	711
660.938	2987
660.992	1587
661.047	1730
661.101	1425
661.156	1728
661.211	193
661.265	1876
661.320	1732
661.374	2073
661.429	1476
661.483	1900
661.538	515
661.592	1588
661.647	1425
661.701	2781
661.755	1638
661.810	2301
661.864	823
661.919	1184
661.973	1585
662.027	2022
662.081	1134
662.136	1872
662.190	1422
662.244	2268
662.299	1335
662.353	2308
662.407	1088
662.461	1786
662.515	1657
662.569	1553
662.624	1885
662.678	1443
662.732	1679
662.786	1493
662.840	1326
662.894	1595
662.948	1467
663.002	1399
663.056	1105
663.110	1549
663.164	1477
663.218	2016
663.272	1923
663.326	2178
663.380	1871
663.434	2223
663.488	968
663.542	2597
663.595	1153
663.649	1832
663.703	2682
663.757	1424
663.811	794
663.864	1111
663.918	915
663.972	1927
664.026	1230
664.079	1875
664.133	1795
664.187	2228
664.240	1059
664.294	1393
664.348	2345
664.401	2684
664.455	1513
664.508	712
664.562	1290
664.615	2021
664.669	835
664.722	1917
664.776	1391
664.829	1549
664.883	1998
664.936	1664
664.990	1693
665.043	2546
665.097	1676
665.150	2742
665.203	2078
665.257	2533
665.310	1907
665.363	2133
665.417	2241
665.470	2181
665.523	1390
665.576	2576
665.630	1745
665.683	1878
665.736	1257
665.789	2841
665.842	2206
665.895	1606
665.949	1861
666.002	2773
666.055	1248
666.108	2862
666.161	2035
666.214	2635
666.267	2195
666.320	3488
666.373	1291
666.426	2752
666.479	1820
666.532	2062
666.585	2695
666.638	3477
666.691	1838
666.744	3416
666.796	2591
666.849	2397
666.902	1748
666.955	2377
667.008	735
667.060	1830
667.113	1451
667.166	2140
667.219	1567
667.271	1944
667.324	1247
667.377	2470
667.430	2058
667.482	3460
667.535	3251
667.587	2742
667.640	2005
667.693	3574
667.745	4996
667.798	5502
667.850	2099
667.903	2156
667.955	1797
668.008	1848
668.060	1295
668.113	2369
668.165	2437
668.218	2945
668.270	1847
668.322	2870
668.375	2008
668.427	2454
668.479	1770
668.532	2204
668.584	1909
668.636	2384
668.689	1450
668.741	1903
668.793	2026
668.845	1646
668.898	2487
668.950	2704
669.002	2540
669.054	2989
669.106	1492
669.158	2412
669.211	3110
669.263	2397
669.315	3298
669.367	5079
669.419	2583
669.471	4678
669.523	4714
669.575	6546
669.627	3489
669.679	3851
669.731	3016
669.783	3431
669.835	4035
669.886	4199
669.938	3235
669.990	3241
670.042	2305
670.094	4351
670.146	3501
670.197	5119
670.249	6363
670.301	9103
670.353	11948
670.404	17796
670.456	25475
670.508	40340
670.560	62723
670.611	102765
670.663	175774
670.715	394254
670.766	590694
670.818	229176
670.869	44997
670.921	21745
670.972	14247
671.024	10200
671.075	7675
671.127	6909
671.178	5091
671.230	4807
671.281	4215
671.333	3623
671.384	3437
671.436	4303
671.487	4142
671.538	4134
671.590	5895
671.641	8965
671.692	12644
671.744	21453
671.795	16045
671.846	7524
671.897	3950
671.949	3379
672.000	3202
672.051	2434
672.102	2208
672.153	2072
672.204	2791
672.256	3001
672.307	2242
672.358	2853
672.409	2509
672.460	3603
672.511	1269
672.562	3015
672.613	1542
672.664	2512
672.715	2625
672.766	2290
672.817	1727
672.868	1331
672.919	1479
672.970	2891
673.021	1162
673.071	1771
673.122	1337
673.173	2715
673.224	808
673.275	1977
673.326	1140
673.376	2368
673.427	131
673.478	1947
673.528	2255
673.579	2882
673.630	1121
673.680	3019
673.731	1426
673.782	1652
673.832	1325
673.883	2461
673.934	1090
673.984	1593
674.035	1292
674.085	2155
674.136	2158
674.186	2775
674.237	2483
674.287	4350
674.338	2262
674.388	2193
674.438	356
674.489	2147
674.539	1853
674.589	2142
674.640	1502
674.690	1540
674.740	747
674.791	2281
674.841	1295
674.891	2262
674.942	1737
674.992	2094
675.042	1099
675.092	1867
675.142	816
675.193	1474
675.243	1752
675.293	2420
675.343	1075
675.393	1537
675.443	1424
675.493	1457
675.543	519
675.593	1904
675.643	1269
675.693	1707
675.743	1378
675.793	2320
675.843	574
675.893	1340
675.943	2154
675.993	1614
676.043	857
676.093	1516
676.142	1054
676.192	2127
676.242	943
676.292	2188
676.341	672
676.391	1151
676.441	720
676.491	1286
676.540	245
676.590	1919
676.640	617
676.689	1241
676.739	383
676.789	1217
676.838	181
676.888	1444
676.937	710
676.987	1235
677.037	83
677.086	527
677.136	1682
677.185	1155
677.235	535
677.284	295
677.333	-162
677.383	531
677.432	522
677.482	925
677.531	733
677.580	1335
677.630	1531
677.679	1080
677.728	724
677.778	2015
677.827	357
677.876	857
677.925	309
677.975	256
678.024	856
678.073	699
678.122	404
678.171	488
678.220	1382
678.269	1521
678.319	715
678.368	1652
678.417	262
678.466	1143
678.515	1916
678.564	938
678.613	1513
678.662	726
678.711	495
678.760	1106
678.809	600
678.857	607
678.906	478
678.955	1194
679.004	1105
679.053	1600
679.102	168
679.151	699
679.199	513
679.248	1753
679.297	1314
679.346	1672
679.394	520
679.443	861
679.492	256
679.540	1895
679.589	365
679.638	1167
679.686	539
679.735	1023
679.784	222
679.832	924
679.881	1333
679.929	1713
679.978	325
680.026	659
680.075	-51
680.123	751
680.172	-535
680.220	769
680.268	852
680.317	722
680.365	-456
680.414	576
680.462	1006
680.510	1006
680.559	217
680.607	644
680.655	651
680.703	1278
680.752	129
680.800	35
680.848	486
680.896	944
680.945	-225
680.993	640
681.041	344
681.089	1547
681.137	-107
681.185	953
681.233	731
681.258	875
681.281	994
681.329	631
681.377	244
681.380	309
681.425	1192
681.473	1584
681.502	913
681.521	424
681.569	1020
681.617	460
681.624	641
681.665	1678
681.713	1040
681.745	1267
681.761	1346
681.809	899
681.857	2137
681.867	1767
681.904	426
681.952	989
681.989	1299
682.000	1372
682.048	1334
682.096	961
682.111	839
682.143	494
682.191	792
682.233	1902
682.239	2061
682.286	1010
682.334	1918
682.354	1723
682.382	1380
682.430	1770
682.476	1098
682.477	1071
682.525	1774
682.572	1050
682.598	1192
682.620	1300
682.667	1496
682.715	1715
682.720	1742
682.763	1805
682.810	1866
682.841	1531
682.857	1342
682.905	1603
682.952	2164
682.963	2063
683.000	1652
683.047	1561
683.085	2705
683.095	2995
683.142	939
683.190	1768
683.206	1648
683.237	1433
683.284	2236
683.328	2174
683.332	2149
683.379	1928
683.426	2213
683.449	2034
683.473	1871
683.521	1689
683.568	2889
683.571	2855
683.615	2175
683.662	2923
683.693	1946
683.709	1404
683.757	1940
683.804	2451
683.814	2318
683.851	1813
683.898	2424
683.936	2256
683.945	2209
683.992	2551
684.039	2932
684.057	2867
684.086	2699
684.133	2663
684.179	2083
684.180	2052
684.227	2895
684.274	2967
684.300	2927
684.321	2899
684.368	1712
684.415	3171
684.422	3039
684.462	2200
684.509	2372
684.543	2646
684.556	2716
684.603	3389
684.649	2547
684.665	2612
684.696	2776
684.743	3031
684.786	3104
684.790	3107
684.837	2470
684.883	2908
684.908	3119
684.930	3276
684.977	3078
685.023	2875
685.029	2969
685.070	3392
685.117	2290
685.150	3659
685.164	4292
685.210	2995
685.257	3658
685.272	3711
685.303	3629
685.350	3794
685.393	2795
685.396	2719
685.443	3753
685.490	3949
685.514	4009
685.536	3956
685.583	3569
685.629	3273
685.636	3251
685.675	3197
685.722	3892
685.757	3764
685.768	3715
685.815	4349
685.861	3735
685.878	3820
685.908	3999
685.954	3539
686.000	4225
686.000	4232
686.047	4649
686.093	4749
686.121	4795
686.139	4698
686.185	4080
686.232	4034
686.242	4108
686.278	4377
686.324	3750
686.363	3996
686.370	4078
686.416	3392
686.463	4882
686.484	4562
686.509	4089
686.555	4440
686.601	3844
686.606	3885
686.647	4366
686.693	3630
686.727	3945
686.739	4003
686.785	4150
686.831	4023
686.848	3943
686.877	3976
686.923	3985
686.969	4211
686.969	4211
687.015	4659
687.061	4636
687.090	4692
687.107	4709
687.153	4332
687.199	4497
687.211	4430
687.245	4305
687.291	4651
687.332	4549
687.336	4546
687.382	5284
687.428	4549
687.453	4463
687.474	4289
687.520	4512
687.565	4593
687.574	4474
687.611	4308
687.657	4925
687.695	4530
687.702	4470
687.748	5542
687.794	6539
687.816	6599
687.839	6307
687.885	4688
687.931	4774
687.937	4642
687.976	4213
688.022	4782
688.058	4692
688.067	4683
688.113	4837
688.158	4076
688.179	4314
688.204	4692
688.249	4889
688.295	5442
688.300	5392
688.340	4910
688.386	5515
688.421	4991
688.431	4826
688.477	5615
688.522	4911
688.542	5061
688.567	5380
688.613	5122
688.658	5340
688.663	5337
688.703	5134
688.749	5128
688.784	4859
688.794	4857
688.839	5437
688.884	5376
688.905	5706
688.930	5890
688.975	5098
689.020	5394
689.026	5291
689.065	4979
689.110	5241
689.146	5570
689.155	5612
689.201	5550
689.246	5355
689.267	5518
689.291	5754
689.336	5525
689.381	5891
689.388	5737
689.426	4854
689.471	5421
689.509	5166
689.516	5142
689.561	5558
689.606	5384
689.630	5414
689.651	5493
689.696	5512
689.741	5904
689.750	5754
689.785	5207
689.830	5908
689.871	5348
689.875	5288
689.920	5863
689.965	5391
689.992	5571
690.010	5805
690.054	5722
690.099	5784
690.112	5808
690.144	5783
690.189	5633
690.233	5372
690.233	5382
690.278	6225
690.323	6365
690.354	6520
690.367	6530
690.412	6045
690.457	6243
690.474	6379
690.501	6772
690.546	6915
690.590	7176
690.595	7183
690.635	7460
690.680	7667
690.716	7868
690.724	8041
690.769	9471
690.813	11196
690.836	11292
690.857	12159
690.902	15378
690.946	17667
690.957	18547
690.991	26229
691.035	36405
691.077	46615
691.080	46642
691.124	42580
691.168	38190
691.198	35642
691.213	32861
691.257	25060
691.301	17240
691.318	14282
691.346	13267
691.390	10983
691.434	9677
691.439	9433
691.478	8774
691.522	8673
691.559	7718
691.567	7585
691.611	8194
691.655	7705
691.680	7629
691.699	7582
691.743	7275
691.787	7103
691.800	6818
691.831	6430
691.875	7029
691.919	6897
691.921	6899
691.964	7220
692.008	6876
692.041	6697
692.052	6727
692.096	6640
692.139	7158
692.162	7143
692.183	7110
692.227	7615
692.271	7317
692.282	7373
692.315	7505
692.359	7339
692.402	7297
692.403	7313
692.447	7003
692.490	7437
692.523	7163
692.534	7068
692.578	7718
692.622	7307
692.643	7393
692.666	7481
692.709	7214
692.753	7366
692.763	7259
692.797	7271
692.840	7879
692.884	7972
692.884	7989
692.928	7941
692.971	7956
693.004	7998
693.015	8057
693.059	8000
693.102	8401
693.124	8280
693.146	8156
693.189	8409
693.233	8321
693.245	8334
693.276	9037
693.320	9920
693.363	10706
693.365	10705
693.407	11408
693.450	12976
693.485	13384
693.493	13772
693.537	16461
693.580	18545
693.605	19931
693.624	23006
693.667	30388
693.710	38037
693.725	40674
693.753	54138
693.797	76013
693.840	97892
693.845	100144
693.883	93679
693.926	84107
693.966	76958
693.970	75355
694.013	56793
694.056	39171
694.086	26675
694.099	25294
694.142	21093
694.185	17004
694.206	14974
694.229	14380
694.272	13048
694.315	11901
694.326	11552
694.358	11278
694.401	10903
694.444	10451
694.446	10425
694.487	10559
694.530	9840
694.566	9835
694.573	9814
694.616	8966
694.659	8974
694.686	8318
694.702	8108
694.745	8219
694.787	7808
694.806	7736
694.830	7899
694.873	8086
694.916	8406
694.926	8352
694.959	8154
695.002	8441
695.044	8310
695.046	8297
695.087	8326
695.130	7863
695.166	7846
695.172	7916
695.215	8018
695.258	8272
695.286	8219
695.301	8114
695.343	8259
695.386	7976
695.406	7847
695.428	7747
695.471	7567
695.514	7552
695.526	7369
695.556	7331
695.599	7830
695.641	7968
695.646	8001
695.684	7910
695.726	7413
695.766	7118
695.769	7158
695.811	7313
695.854	7552
695.886	7833
695.896	7878
695.938	7871
695.981	7590
696.005	7652
696.023	7928
696.065	8299
696.108	8807
696.125	8927
696.150	8745
696.192	8624
696.235	8134
696.245	8051
696.277	8269
696.319	8473
696.361	8881
696.365	8858
696.404	8715
696.446	8937
696.485	8944
696.488	8992
696.530	9161
696.572	9447
696.604	9737
696.614	9618
696.656	8892
696.698	8251
696.724	7738
696.740	7854
696.783	8229
696.825	8504
696.844	8687
696.867	8627
696.909	8301
696.951	8024
696.964	7892
696.992	7830
697.034	7745
697.076	7679
697.083	7647
697.118	7890
697.160	8104
697.202	8394
697.203	8378
697.244	8561
697.286	8677
697.323	8739
697.327	8762
697.369	8754
697.411	8744
697.442	8726
697.453	8711
697.494	8546
697.536	8294
697.562	8185
697.578	8307
697.620	8534
697.661	8673
697.682	8767
697.703	8867
697.744	8920
697.786	9218
697.801	9204
697.828	9409
697.869	9776
697.911	10073
697.921	10155
697.952	9867
697.994	9334
698.035	8810
698.040	8721
698.077	8663
698.118	8630
698.160	8502
698.160	8476
698.201	8475
698.243	8421
698.279	8369
698.284	8404
698.325	8485
698.367	8614
698.399	8611
698.408	8653
698.449	8784
698.491	8910
698.518	8984
698.532	8999
698.573	8932
698.614	8888
698.638	8833
698.656	8987
698.697	9296
698.738	9582
698.757	9703
698.779	9665
698.820	9517
698.862	9389
698.877	9309
698.903	9488
698.944	9749
698.985	9992
698.996	10036
699.026	9750
699.067	9311
699.116	8765
699.235	8362
699.354	9163
699.474	9326
699.593	9507
699.713	10322
699.832	9930
699.951	9739
700.070	9657
700.190	8698
700.309	8925
700.428	8933
700.547	8587
700.667	8841
700.786	9506
700.905	8983
701.024	8478
701.143	9507
701.262	8650
701.381	8719
701.500	8968
701.619	8588
701.738	8217
701.857	8272
701.976	8795
702.095	7911
702.214	9576
702.333	9289
702.452	8705
702.571	7872
702.690	7434
702.809	7536
702.928	7459
703.047	8554
703.165	8084
703.284	7748
703.403	8072
703.522	8818
703.640	8472
703.759	9983
703.878	12408
703.997	8157
704.115	7776
704.234	7968
704.353	7689
704.471	7388
704.590	6666
704.708	8332
704.827	7863
704.946	8352
705.064	8279
705.183	7710
705.301	8824
705.420	11843
705.538	10384
705.656	10186
705.775	11901
705.893	22849
706.012	26551
706.130	9914
706.249	9163
706.367	9639
706.485	9673
706.604	9347
706.722	10012
706.840	12594
706.958	13685
707.077	10274
707.195	8169
707.313	9061
707.431	9256
707.549	8658
707.668	8346
707.786	8511
707.904	8683
708.022	8920
708.140	7899
708.258	8532
708.376	8215
708.494	8125
708.612	8274
708.730	12147
708.848	11559
708.966	11286
709.084	10482
709.202	10328
709.320	9552
709.438	9925
709.556	9589
709.674	10082
709.791	10420
709.909	9196
710.027	10581
710.145	8633
710.263	10422
710.380	10087
710.498	10138
710.616	8892
710.733	9399
710.851	10451
710.969	10016
711.086	8826
711.204	9647
711.322	9058
711.439	8927
711.557	9968
711.674	9648
711.792	9667
711.909	11717
712.027	12101
712.144	8218
712.262	8640
712.379	10198
712.497	12971
712.614	13122
712.732	11085
712.849	10587
712.966	11616
713.084	12704
713.201	11206
713.318	11873
713.436	9867
713.553	11741
713.670	11017
713.787	11759
713.905	12520
714.022	10270
714.139	10587
714.256	11971
714.373	13892
714.490	20730
714.608	42837
714.725	171016
714.842	165065
714.959	16622
715.076	12009
715.193	11115
715.310	10407
715.427	9551
715.544	9262
715.661	9748
715.778	9739
715.895	10596
716.011	10971
716.128	9460
716.245	10022
716.362	11191
716.479	11203
716.596	9680
716.713	9716
716.829	8564
716.946	9046
717.063	8568
717.180	8858
717.296	7203
717.413	8471
717.530	8528
717.646	8339
717.763	9215
717.880	8479
717.996	7761
718.113	8485
718.229	7638
718.346	7886
718.462	8189
718.579	9617
718.695	15006
718.812	11738
718.928	10201
719.045	9023
719.161	7537
719.277	8119
719.394	8456
719.510	8546
719.626	8183
719.743	9604
719.859	10378
719.975	15405
720.092	45807
720.208	94062
720.324	15723
720.440	9349
720.557	8741
720.673	12764
720.789	15770
720.905	30581
721.021	11387
721.137	7973
721.253	8565
721.369	8329
721.486	8011
721.602	10433
721.718	7786
721.834	7026
721.950	6778
722.066	6991
722.181	6259
722.297	7760
722.413	6781
722.529	6562
722.645	6504
722.761	6300
722.877	7217
722.993	5746
723.108	7088
723.224	6295
723.340	7044
723.456	6662
723.571	6826
723.687	5955
723.803	6217
723.918	5530
724.034	6473
724.150	6150
724.265	7592
724.381	12465
724.497	15106
724.612	6301
724.728	6418
724.843	6014
724.959	6573
725.074	12883
725.190	13243
725.305	6811
725.421	6332
725.536	5754
725.651	5729
725.767	5562
725.882	5103
725.997	6456
726.113	6520
726.228	6055
726.343	4950
726.459	5316
726.574	5635
726.689	5421
726.804	5943
726.920	5682
727.035	5971
727.150	5901
727.265	5276
727.380	5564
727.495	5743
727.610	4739
727.725	5782
727.841	6904
727.956	15510
728.071	10161
728.186	5221
728.301	5212
728.416	5452
728.531	5337
728.645	5111
728.760	5870
728.875	6015
728.990	4974
729.105	5501
729.220	6167
729.335	5138
729.449	5049
729.564	4181
729.679	4112
729.794	4505
729.908	6167
730.023	4947
730.138	5081
730.253	4683
730.367	4457
730.482	4466
730.596	5567
730.711	4746
730.826	5408
730.940	4886
731.055	5120
731.169	4742
731.284	4364
731.398	4325
731.513	5251
731.627	4634
731.742	5718
731.856	5805
731.970	5158
732.085	4605
732.199	7364
732.313	8391
732.428	17944
732.542	46882
732.656	26314
732.771	7051
732.885	5776
732.999	4818
733.113	5890
733.227	5368
733.342	5452
733.456	4514
733.570	4580
733.684	4669
733.798	4654
733.912	3846
734.026	4219
734.140	4571
734.254	5447
734.368	7917
734.482	8878
734.596	4566
734.710	4697
734.824	4322
734.938	3971
735.052	4425
735.166	5353
735.280	4784
735.393	4050
735.507	4045
735.621	5665
735.735	8439
735.849	5406
735.962	4229
736.076	4500
736.190	3946
736.303	6414
736.417	7063
736.531	3852
736.644	4158
736.758	4153
736.872	3475
736.985	4609
737.099	3742
737.212	2884
737.326	4085
737.439	3853
737.553	3339
737.666	4021
737.780	3294
737.893	3739
738.007	3965
738.120	4145
738.233	4530
738.347	4349
738.460	4053
738.573	4697
738.687	3425
738.800	4849
738.913	5386
739.026	4084
739.140	5131
739.253	4348
739.366	4304
739.479	3371
739.592	3828
739.705	3757
739.818	4381
739.932	3989
740.045	3588
740.158	3890
740.271	4860
740.384	3796
740.497	3277
740.610	4543
740.723	4064
740.836	4898
740.949	4579
741.062	5597
741.174	4875
741.287	3952
741.400	4084
741.513	4665
741.626	4377
741.739	4622
741.851	3931
741.964	4258
742.077	4823
742.189	4597
742.302	6223
742.415	5307
742.527	4058
742.640	4325
742.753	3716
742.865	3298
742.978	2766
743.090	3159
743.203	3767
743.316	3823
743.428	3783
743.541	4391
743.653	3514
743.766	3159
743.878	3806
743.990	5134
744.103	6002
744.215	5866
744.327	3675
744.440	5529
744.552	6058
744.664	4536
744.777	3890
744.889	2782
745.001	3642
745.113	3406
745.226	2526
745.338	3874
745.450	3522
745.562	4263
745.674	3058
745.786	3603
745.898	3429
746.010	3406
746.122	3550
746.234	3436
746.347	2636
746.459	3948
746.570	3734
746.682	4868
746.794	7348
746.906	4077
747.018	3493
747.130	2991
747.242	2992
747.354	3136
747.466	3705
747.577	3586
747.689	3443
747.801	3732
747.913	3121
748.024	3351
748.136	3557
748.248	3611
748.359	3095
748.471	3914
748.583	2980
748.694	4059
748.806	4313
748.918	4142
749.029	3219
749.141	3438
749.252	4291
749.364	3965
749.475	7178
749.587	4809
749.698	3130
749.809	3959
749.921	3499
750.032	3928
750.144	3346
750.255	2989
750.366	2258
750.478	3228
750.589	2668
750.700	3852
750.811	3115
750.923	4513
751.034	7104
751.145	7522
751.256	3618
751.367	3250
751.479	3591
751.590	3501
751.701	3704
751.812	3272
751.923	3541
752.034	3584
752.145	2836
752.256	3695
752.367	3179
752.478	2984
752.589	3604
752.700	3856
752.811	2673
752.922	3122
753.032	2974
753.143	4006
753.254	2206
753.365	2899
753.476	2799
753.586	3089
753.697	3554
753.808	3066
753.919	2542
754.029	3313
754.140	3793
754.251	3245
754.361	3163
754.472	3508
754.582	3231
754.693	3796
754.804	3372
754.914	3738
755.025	3364
755.135	2785
755.246	3992
755.356	3360
755.466	3635
755.577	4677
755.687	3325
755.798	3883
755.908	3346
756.018	3387
756.129	2984
756.239	4083
756.349	3322
756.460	3357
756.570	3526
756.680	3029
756.790	3225
756.900	4447
757.011	3207
757.121	4673
757.231	3469
757.341	3585
757.451	3913
757.561	3585
757.671	3931
757.781	3108
757.891	4777
758.001	4597
758.111	3982
758.221	5170
758.331	4962
758.441	5828
758.551	4712
758.661	4949
758.771	4236
758.880	4951
758.990	3610
759.100	4571
759.210	4449
759.320	4157
759.429	4931
759.539	5182
759.649	3587
759.758	5348
759.868	4793
759.978	4570
760.087	5335
760.197	5283
760.307	4747
760.416	5512
760.526	4897
760.635	6601
760.745	6346
760.854	5938
760.964	6337
761.073	5235
761.182	6045
761.292	7159
761.401	7756
761.511	6737
761.620	6505
761.729	6777
761.839	6667
761.948	7839
762.057	6629
762.166	7323
762.276	6550
762.385	7919
762.494	7274
762.603	8818
762.712	8244
762.822	7961
762.931	9109
763.040	10346
763.149	8833
763.258	9311
763.367	10675
763.476	11601
763.585	11024
763.694	11970
763.803	12674
763.912	15024
764.021	14463
764.130	15601
764.238	16381
764.347	18152
764.456	18643
764.565	20124
764.674	22378
764.783	23348
764.891	26066
765.000	30376
765.109	34582
765.217	39611
765.326	46090
765.435	56028
765.543	66867
765.652	85140
765.761	111270
765.869	150738
765.978	221202
766.086	333431
766.195	531590
766.303	788634
766.412	746844
766.520	736119
766.629	683302
766.737	445911
766.846	285571
766.954	194125
767.062	140613
767.171	108381
767.279	83789
767.387	65942
767.496	56143
767.604	48407
767.712	41699
767.820	37566
767.928	34935
768.037	30816
768.145	29883
768.253	29977
768.361	27335
768.469	27417
768.577	27241
768.685	29596
768.793	31674
768.901	34391
769.009	40777
769.117	50199
769.225	64617
769.333	89835
769.441	137741
769.549	231404
769.657	427943
769.765	699069
769.873	672813
769.981	601314
770.088	349052
770.196	194263
770.304	124509
770.412	88219
770.519	66144
770.627	52790
770.735	42086
770.842	36306
770.950	31373
771.058	27097
771.165	24762
771.273	20976
771.380	20488
771.488	19071
771.595	15557
771.703	15224
771.810	14829
771.918	13467
772.025	12021
772.133	12002
772.240	11600
772.348	11565
772.455	9702
772.562	10364
772.670	9568
772.777	9703
772.884	7890
772.991	8581
773.099	8544
773.206	7440
773.313	8878
773.420	7415
773.528	5457
773.635	6383
773.742	7244
773.849	7039
773.956	7554
774.063	6606
774.170	6155
774.277	6966
774.384	5990
774.491	5567
774.598	5966
774.705	5864
774.812	6175
774.919	6906
775.026	5288
775.133	5073
775.239	5191
775.346	5739
775.453	5550
775.560	5104
775.667	5084
775.773	4503
775.880	4888
775.987	4437
776.093	4890
776.200	4070
776.307	4698
776.413	5312
776.520	4029
776.627	4470
776.733	5095
776.840	3574
776.946	6265
777.053	8194
777.159	12571
777.266	6998
777.372	11611
777.478	9442
777.585	5940
777.691	4049
777.798	3768
777.904	4593
778.010	5860
778.117	4991
778.223	3735
778.329	3577
778.435	4182
778.542	3450
778.648	3234
778.754	3156
778.860	3594
778.966	3898
779.072	3248
779.178	4007
779.284	3234
779.391	3895
779.497	4004
779.603	7833
779.708	9812
779.815	27259
779.920	97427
780.026	150460
780.132	22613
780.238	5287
780.344	4452
780.450	4627
780.556	2903
780.661	3069
780.767	3104
780.873	2507
780.979	3618
781.085	2458
781.190	2251
781.296	3126
781.402	2291
781.507	2857
781.613	2183
781.719	2535
781.824	2950
781.930	3445
782.035	2476
782.141	3049
782.246	2595
782.352	2720
782.457	2513
782.563	2552
782.668	1925
782.773	2226
782.879	1281
782.984	2409
783.090	3542
783.195	4204
783.300	3282
783.405	2064
783.511	2473
783.616	2838
783.721	2398
783.826	3552
783.932	2952
784.037	2906
784.142	2320
784.247	2110
784.352	1946
784.457	2613
784.562	2021
784.667	2094
784.772	1733
784.877	1925
784.982	2804
785.087	1841
785.192	1926
785.297	2148
785.402	2073
785.507	2009
785.611	1934
785.716	2250
785.821	1494
785.926	1446
786.031	1819
786.135	1747
786.240	1529
786.345	1004
786.450	2621
786.554	2156
786.659	1159
786.763	349
786.868	2016
786.973	2876
787.077	1603
787.182	1242
787.286	1935
787.391	2132
787.495	908
787.600	1266
787.704	711
787.809	1845
787.913	1117
788.017	1445
788.122	1782
788.226	1360
788.330	1204
788.435	1469
788.539	1250
788.643	833
788.747	789
788.852	999
788.956	830
789.060	2530
789.164	1911
789.268	1247
789.372	1621
789.476	732
789.580	526
789.684	1127
789.788	1719
789.892	1385
789.996	1632
790.100	2021
790.204	1258
790.308	1278
790.412	760
790.516	2359
790.620	1422
790.724	2455
790.828	897
790.931	913
791.035	2605
791.139	1511
791.242	1084
791.346	2361
791.450	719
791.554	643
791.657	556
791.761	2781
791.864	2208
791.968	1810
792.072	2910
792.175	795
792.279	1024
792.382	1108
792.486	950
792.589	1532
792.693	1986
792.796	701
792.899	2571
793.003	1389
793.106	-79
793.209	1385
793.313	2047
793.416	464
793.519	3166
793.623	2770
793.726	3703
793.829	813
793.932	1408
794.035	1054
794.138	2820
794.242	2508
794.345	3170
794.448	5757
794.551	15087
794.654	55012
794.757	91872
794.860	15278
794.963	3381
795.066	2471
795.169	2696
795.272	767
795.375	2003
795.477	492
795.580	1337
795.683	355
795.786	794
795.889	655
795.991	2172
796.094	2151
796.197	-371
796.300	2233
796.402	332
796.505	1202
796.608	383
796.710	2417
796.813	598
796.915	612
797.018	1834
797.120	1079
797.223	64
797.326	1963
797.428	799
797.530	774
797.633	1271
797.735	2540
797.838	1847
797.940	2864
798.042	609
798.145	288
798.247	1054
798.349	-789
798.452	1367
798.554	635
798.656	-334
798.758	2245
798.860	1009
798.962	1171
799.065	365
799.167	-15
799.269	942
799.371	1023
799.473	1861
799.575	723
799.677	1525
799.779	2352
799.881	145
799.983	1301
800.085	1804
800.187	1115
800.289	-118
800.390	109
800.492	337
800.594	1440
800.696	468
800.798	1233
800.899	320
801.001	646
801.103	-1165
801.205	841
801.306	735
801.408	-166
801.509	148
801.611	1060
801.713	659
801.814	-263
801.916	639
802.017	339
802.119	-813
802.220	290
802.322	-1013
802.423	3450
802.525	-144
802.626	1077
802.727	601
802.829	1244
802.930	-1558
803.031	2268
803.133	565
803.234	250
803.335	817
803.436	45
803.538	460
803.639	-405
803.740	1044
803.841	559
803.942	402
804.043	1327
804.144	-166
804.245	-310
804.346	231
804.447	243
804.548	519
804.649	2173
804.750	-105
804.851	308
804.952	472
805.053	344
805.154	-382
805.255	1011
805.355	616
805.456	-164
805.557	-374
805.658	-838
805.758	951
805.859	474
805.960	288
806.061	-411
806.161	50
806.262	1063
806.362	-496
806.463	876
806.564	1051
806.664	723
806.765	970
806.865	838
806.966	395
807.066	189
807.166	1304
807.267	-103
807.367	-625
807.468	997
807.568	-545
807.668	1320
807.769	960
807.869	-626
807.969	344
808.069	394
808.170	3
808.270	1274
808.370	657
808.470	771
808.570	-486
808.670	-454
808.770	523
808.870	-337
808.970	1239
809.070	-201
809.170	-629
809.271	439
809.370	373
809.470	476
809.570	295
809.670	-311
809.770	559
809.870	631
809.970	266
810.070	227
810.169	131
810.269	-868
810.369	914
810.469	-216
810.568	-320
810.668	-1018
810.768	593
810.867	469
810.967	-297
811.066	567
811.166	-346
811.265	1370
811.365	-297
811.464	816
811.564	493
811.663	729
811.763	-1145
811.862	716
811.962	922
812.061	-288
812.160	76
812.260	268
812.359	283
812.458	1724
812.557	5244
812.657	7107
812.756	2175
812.855	-218
812.954	658
813.053	699
813.153	572
813.252	-70
813.351	20
813.450	-305
813.549	137
813.648	698
813.747	134
813.846	290
813.945	-524
814.044	659
814.143	952
814.242	721
814.341	-1
814.439	342
814.538	1176
814.637	718
814.736	417
814.835	848
814.933	294
815.032	872
815.131	910
815.229	1102
815.328	1397
815.427	852
815.525	842
815.624	1365
815.722	620
815.821	1162
815.919	1192
816.018	47
816.116	2587
816.215	959
816.313	1407
816.412	1261
816.510	1109
816.609	3114
816.707	2008
816.805	1627
816.904	1648
817.002	2518
817.100	3073
817.198	3641
817.296	3357
817.395	3768
817.493	5514
817.591	5498
817.689	9723
817.787	11902
817.885	21899
817.983	39630
818.081	83176
818.179	191787
818.277	420596
818.375	341169
818.473	116171
818.571	48886
818.669	30451
818.767	25681
818.865	26386
818.963	31208
819.061	45297
819.158	76810
819.256	158745
819.354	340081
819.452	587286
819.549	395819
819.647	154704
819.745	67371
819.842	40516
819.940	26608
820.038	18338
820.135	14617
820.233	12049
820.330	8606
820.428	6779
820.525	7347
820.623	5865
820.720	4270
820.818	4517
820.915	4344
821.012	3955
821.110	2665
821.207	3451
821.304	2688
821.402	2948
821.499	3414
821.596	5577
821.693	2650
821.791	2832
821.888	3177
821.985	4282
822.082	2110
822.179	2320
822.276	2123
822.373	1480
822.470	858
822.567	1301
822.664	456
822.761	1656
822.858	111
822.955	573
823.052	1133
823.149	92
823.246	830
823.343	186
823.440	1401
823.536	554
823.633	1049
823.730	302
823.827	648
823.923	-563
824.020	1910
824.117	515
824.213	1234
824.310	458
824.407	1045
824.503	277
824.600	1222
824.696	-129
824.793	1020
824.889	-247
824.986	646
825.082	-890
825.179	1011
825.275	-76
825.371	-225
825.468	1296
825.564	-1171
825.660	571
825.757	85
825.853	416
825.949	-690
826.045	171
826.142	-192
826.238	-468
826.334	335
826.430	-87
826.526	242
826.622	24
826.718	150
826.814	-449
826.910	163
827.006	84
827.102	-977
827.198	891
827.294	-714
827.390	751
827.486	1103
827.582	-824
827.678	-1037
827.774	1103
827.869	-649
827.965	1182
828.061	-277
828.157	-339
828.252	708
828.348	-545
828.444	1104
828.539	-958
828.635	-88
828.731	664
828.826	-1369
828.922	-466
829.017	-281
829.113	211
829.208	-592
829.304	-1073
829.399	788
829.495	-761
829.590	868
829.685	-699
829.781	-132
829.876	-505
829.971	-291
830.066	-562
830.162	-886
830.257	-835
830.352	-910
830.447	327
830.543	131
830.638	-1197
830.733	111
830.828	-457
830.923	9
831.018	-1171
831.113	-221
831.208	-1255
831.303	-176
831.398	-867
831.493	-945
831.588	-144
831.683	-971
831.778	214
831.873	-529
831.967	268
832.062	-98
832.157	-659
832.252	411
832.346	-1245
832.441	792
832.536	734
832.631	2528
832.725	1276
832.820	-308
832.914	-735
833.009	-668
833.104	-687
833.198	-154
833.293	-381
833.387	299
833.482	-35
833.576	-728
833.670	403
833.765	180
833.859	-634
833.954	13
834.048	-666
834.142	114
834.237	-1551
834.331	-715
834.425	-1008
834.519	-751
834.613	236
834.708	-445
834.802	-673
834.896	-804
834.990	-774
835.084	362
835.178	90
835.272	-541
835.366	-312
835.460	626
835.554	-700
835.648	-97
835.742	-347
835.836	-373
835.930	-1629
836.024	80
836.117	885
836.211	-372
836.305	-315
836.399	875
836.493	-1769
836.586	380
836.680	-1046
836.774	-767
836.867	79
836.961	-560
837.055	-1278
837.148	307
837.242	-1189
837.335	-419
837.429	-239
837.522	-12
837.616	-352
837.709	1837
837.803	-88
837.896	709
837.989	-1543
838.083	23
838.176	935
838.269	-281
838.363	470
838.456	-404
838.549	158
838.642	1599
838.735	2638
838.829	1216
838.922	-1128
839.015	112
839.108	-1114
839.201	-222
839.294	56
839.387	-579
839.480	-1271
839.573	785
839.666	440
839.759	-664
839.852	-931
839.945	-503
840.038	-1139
840.131	-205
840.223	-479
840.316	-540
840.409	-1410
840.502	-701
840.594	-172
840.687	-1333
840.780	-553
840.873	-944
840.965	-858
841.058	446
841.150	437
841.243	-510
841.336	115
841.428	-85
841.521	-1214
841.613	-463
841.706	-24
841.798	-897
841.890	-1045
841.983	-645
842.075	76
842.167	-368
842.260	-583
842.352	33
842.444	148
842.537	1678
842.629	2761
842.721	-13
842.813	-957
842.905	-1796
842.997	-310
843.090	-163
843.182	668
843.274	758
843.366	4680
843.458	8536
843.550	4477
843.642	-516
843.734	-590
843.826	487
843.918	-777
844.009	139
844.101	-918
844.193	-233
844.285	-997
844.377	969
844.469	961
844.560	1225
844.652	743
844.744	489
844.835	-1126
844.927	-521
845.019	-290
845.110	-304
845.202	-785
845.293	-682
845.385	-694
845.476	-154
845.568	-250
845.659	-500
845.751	-555
845.842	-870
845.934	-1198
846.025	-965
846.116	-438
846.208	-932
846.299	-1379
846.390	-685
846.482	-583
846.573	96
846.664	-327
846.755	322
846.846	318
846.937	-1018
847.029	-716
847.120	-636
847.211	-155
847.302	132
847.393	-1693
847.484	-283
847.575	-81
847.666	-772
847.757	-1164
847.847	-460
847.938	315
848.029	-456
848.120	-1443
848.211	-232
848.302	-1637
848.392	-871
848.483	-736
848.574	-683
848.664	-1477
848.755	3
848.846	-69
848.936	-1215
849.027	-871
849.118	-782
849.208	-1942
849.299	-88
849.389	-750
849.480	860
849.570	2710
849.661	6665
849.751	10330
849.841	3113
849.932	-498
850.022	-898
850.112	-936
850.203	-913
850.293	-882
850.383	-1652
850.474	-1241
850.564	-642
850.654	-243
850.744	-163
850.834	-249
850.924	-1388
851.014	-867
851.104	-665
851.194	-912
851.284	-547
851.374	-57
851.464	-512
851.554	-963
851.644	63
851.734	401
851.824	295
851.914	-1172
852.004	3030
852.094	1368
852.183	-499
852.273	87
852.363	-632
852.452	-443
852.542	-532
852.632	-1458
852.721	232
852.811	-484
852.901	-717
852.990	-1091
853.080	-378
853.169	-755
853.259	-634
853.348	-647
853.438	-576
853.527	-247
853.617	-138
853.706	1770
853.795	4562
853.885	13858
853.974	27317
854.063	52436
854.152	77671
854.242	24462
854.331	2828
854.420	69
854.509	755
854.598	-315
854.687	191
854.777	269
854.866	-213
854.955	290
855.044	-154
855.133	-843
855.222	-969
855.311	-964
855.400	-217
855.488	-694
855.577	-1209
855.666	-125
855.755	-107
855.844	103
855.933	471
856.021	-1079
856.110	-35
856.199	-954
856.288	166
856.376	-553
856.465	-1341
856.554	-622
856.642	-668
856.731	-789
856.819	-68
856.908	-1202
856.996	-195
857.085	-1109
857.173	-1005
857.262	-631
857.350	-930
857.438	-1624
857.527	-629
857.615	-1219
857.703	-657
857.792	-255
857.880	-450
857.968	-1467
858.056	-984
858.145	-1004
858.233	-823
858.321	-999
858.409	-157
858.497	-1345
858.585	-1525
858.673	-503
858.761	-1650
858.849	-1615
858.937	-1710
859.025	-624
859.113	-231
859.201	-1485
859.289	-299
859.377	-1014
859.465	-940
859.552	-1140
859.640	-477
859.728	-1559
859.816	-631
859.903	-985
859.991	-1387
860.079	-823
860.166	-1316
860.254	-1254
860.342	-615
860.429	-1537
860.517	-1338
860.604	-723
860.692	-379
860.779	-1173
860.867	-1603
860.954	-1361
861.042	402
861.129	-904
861.216	-1121
861.304	-1408
861.391	-525
861.478	-634
861.565	-733
861.653	-134
861.740	-1749
861.827	-1221
861.914	-1620
862.001	-1725
862.089	-701
862.176	-862
862.263	-952
862.350	-554
862.437	-974
862.524	-843
862.611	-548
862.698	-482
862.785	-30
862.871	47
862.958	-1155
863.045	-1302
863.132	-304
863.219	-255
863.306	-2079
863.392	-564
863.479	-273
863.566	-1636
863.652	-107
863.739	-1277
863.826	-458
863.912	-669
863.999	-1570
864.086	-1661
864.172	-899
864.259	-1206
864.345	-1188
864.432	-1030
864.518	-1238
864.604	-865
864.691	-1221
864.777	-806
864.863	-791
864.950	-151
865.036	-289
865.122	173
865.209	103
865.295	-929
865.381	152
865.467	76
865.553	127
865.639	453
865.726	2062
865.812	5459
865.898	12451
865.984	18198
866.070	36438
866.156	36021
866.242	7531
866.328	488
866.414	-152
866.499	-108
866.585	215
866.671	-1377
866.757	-1214
866.843	-373
866.928	-1001
867.014	-807
867.100	142
867.186	-747
867.271	-327
867.357	214
867.442	-360
867.528	68
867.614	-576
867.699	85
867.785	1696
867.870	537
867.956	1557
868.041	353
868.127	697
868.212	619
868.297	585
868.383	-432
868.468	-5
868.553	786
868.639	1254
868.724	2631
868.809	1842
868.894	-288
868.979	-1071
869.065	-811
869.150	-1172
869.235	-533
869.320	-599
869.405	-592
869.490	-1184
869.575	-1250
869.660	-1250
869.745	-928
869.830	-780
869.915	-1118
870.000	-534
870.085	-1519
870.169	112
870.254	-166
870.339	-942
870.424	-1752
870.509	-484
870.593	-585
870.678	-932
870.763	-1175
870.847	-698
870.932	-2010
871.016	482
871.101	-917
871.186	-890
871.270	-969
871.355	-1231
871.439	-1144
871.523	-926
871.608	-609
871.692	-724
871.777	-1113
871.861	-896
871.945	-1046
872.030	-792
872.114	-1039
872.198	-1773
872.282	-1055
872.367	-1556
872.451	-1582
872.535	-958
872.619	-494
872.703	-877
872.787	-1005
872.871	-1845
872.955	-1628
873.039	-846
873.123	-528
873.207	-594
873.291	-1113
873.375	-1265
873.459	-1293
873.543	-1124
873.627	-632
873.711	-637
873.794	-1355
873.878	-1081
873.962	-1402
874.045	-1285
874.129	-1628
874.137	-1561
874.213	-891
874.245	-871
874.296	-841
874.352	-1323
874.380	-1561
874.460	-1063
874.464	-1043
874.547	-923
874.568	-961
874.631	-1100
874.676	-921
874.714	-765
874.784	-759
874.798	-759
874.881	680
874.892	433
874.965	-1244
874.999	-985
875.048	-671
875.107	-1031
875.131	-1160
875.215	-444
875.215	-444
875.298	-964
875.323	-1174
875.381	-1582
875.430	-816
875.465	-312
875.538	-1327
875.548	-1459
875.631	-786
875.646	-819
875.714	-1044
875.753	-684
875.798	-243
875.861	-235
875.881	-247
875.964	-636
875.968	-635
876.047	-586
876.076	-689
876.130	-920
876.183	-150
876.213	354
876.291	-202
876.296	-250
876.379	-702
876.398	-678
876.462	-516
876.506	-156
876.545	51
876.613	-886
876.628	-1043
876.711	-594
876.721	-627
876.794	-968
876.828	-825
876.877	-631
876.935	-457
876.960	-329
877.043	-304
877.043	-300
877.125	482
877.150	464
877.208	486
877.258	39
877.291	-270
877.365	-361
877.374	-376
877.456	-341
877.472	-276
877.539	-23
877.579	-169
877.622	-279
877.687	121
877.704	242
877.787	-391
877.794	-346
877.869	164
877.901	56
877.952	-265
878.008	-141
878.034	-0
878.115	-519
878.117	-527
878.199	-234
878.222	-94
878.282	130
878.329	310
878.364	586
878.437	600
878.447	543
878.529	-1140
878.544	-1022
878.611	-35
878.651	-17
878.694	-160
878.758	-233
878.776	-227
878.858	155
878.865	87
878.941	-873
878.972	-767
879.023	-507
879.078	-561
879.105	-494
879.185	59
879.187	71
879.269	91
879.292	161
879.351	114
879.399	-182
879.433	-305
879.506	-1
879.516	48
879.598	-844
879.613	-836
879.680	-762
879.720	-567
879.762	-340
879.827	-174
879.844	-172
879.926	-220
879.933	-215
880.007	-60
880.040	-212
880.089	-366
880.147	48
880.171	229
880.253	443
880.254	444
880.335	1524
880.360	1689
880.417	2146
880.467	3564
880.499	4548
880.574	4863
880.580	4693
880.662	1276
880.680	704
880.744	22
880.787	48
880.825	-26
880.893	-329
880.907	-327
880.989	-23
881.000	-18
881.070	54
881.106	138
881.152	174
881.213	-61
881.233	-134
881.315	20
881.319	7
881.396	206
881.426	354
881.478	259
881.532	27
881.559	172
881.639	734
881.641	728
881.722	254
881.745	57
881.803	385
881.852	501
881.885	173
881.958	-134
881.966	-71
882.047	454
882.064	551
882.129	793
882.171	981
882.210	1378
882.277	2065
882.291	1960
882.372	744
882.383	631
882.454	576
882.489	518
882.535	215
882.596	-2
882.616	175
882.697	350
882.702	363
882.778	38
882.808	-97
882.859	105
882.914	880
882.940	1055
883.020	374
883.021	375
883.102	65
883.127	5
883.183	128
883.233	424
883.264	466
883.339	-132
883.345	-132
883.426	589
883.445	552
883.507	241
883.551	460
883.587	521
883.657	199
883.668	254
883.749	623
883.763	708
883.830	833
883.869	830
883.910	889
883.975	932
883.991	871
884.072	646
884.081	604
884.152	609
884.187	666
884.233	654
884.292	545
884.314	590
884.394	502
884.398	517
884.475	330
884.504	140
884.555	492
884.610	698
884.636	572
884.716	482
884.716	490
884.797	442
884.821	534
884.877	924
884.927	895
884.958	913
885.033	1151
885.038	1119
885.118	477
885.139	300
885.199	739
885.244	1005
885.279	936
885.350	956
885.359	993
885.439	1150
885.456	1117
885.520	470
885.561	362
885.600	799
885.667	883
885.680	777
885.760	815
885.773	753
885.840	1183
885.878	1463
885.920	1237
885.984	792
886.000	853
886.080	1056
886.089	1078
886.160	940
886.195	844
886.240	1105
886.300	1610
886.320	1557
886.400	1120
886.406	1078
886.480	1282
886.511	1399
886.560	1324
886.616	1190
886.640	1379
886.720	2064
886.722	2066
886.800	1283
886.827	1030
886.879	1372
886.932	1636
886.959	1618
887.038	1768
887.039	1770
887.119	902
887.143	698
887.198	1327
887.248	1645
887.278	1364
887.354	904
887.358	924
887.437	1196
887.459	1193
887.517	1475
887.564	1833
887.596	1772
887.669	1413
887.676	1398
887.755	1315
887.774	1207
887.835	1395
887.880	1693
887.914	1774
887.985	1690
887.994	1695
888.073	1811
888.090	1783
888.153	2230
888.195	2662
888.232	2144
888.300	923
888.311	1015
888.391	1770
888.405	1885
888.470	1462
888.510	1192
888.549	1224
888.615	1218
888.628	1203
888.708	1139
888.720	1116
888.787	1863
888.825	2257
888.866	1766
888.930	1023
888.945	1226
889.024	2254
889.035	2383
889.103	1955
889.140	1697
889.182	1778
889.245	1891
889.261	1872
889.340	1764
889.349	1740
889.419	2201
889.454	2428
889.498	2172
889.559	1799
889.577	1872
889.656	2160
889.664	2182
889.735	2287
889.768	2324
889.814	2392
889.873	2464
889.978	1852
890.083	2069
890.187	2054
890.292	1581
890.397	2401
890.501	2848
890.606	1779
890.710	2401
890.815	2011
890.919	1741
891.024	1729
891.128	2734
891.233	1775
891.337	2424
891.442	2215
891.546	1761
891.650	1332
891.755	2342
891.859	3140
891.963	2613
892.068	1619
892.172	1926
892.276	1531
892.380	2662
892.484	1415
892.589	1808
892.693	1953
892.797	1927
892.901	1269
893.005	1695
893.109	1172
893.213	2685
893.317	799
893.421	2200
893.525	1411
893.629	1322
893.733	1116
893.837	2063
893.941	2515
894.045	3088
894.148	2156
894.252	7288
894.356	4186
894.460	2921
894.564	1537
894.667	1618
894.771	1898
894.875	1466
894.978	1954
895.082	1479
895.186	1716
895.289	1695
895.393	772
895.496	1967
895.600	253
895.703	917
895.807	867
895.910	1474
896.014	1099
896.117	1721
896.221	1192
896.324	1473
896.427	864
896.531	1554
896.634	599
896.737	2240
896.840	854
896.944	1555
897.047	1250
897.150	1838
897.253	857
897.356	2050
897.460	1257
897.563	1140
897.666	590
897.769	1500
897.872	1759
897.975	1048
898.078	1663
898.181	1278
898.284	1199
898.387	1579
898.490	945
898.593	1471
898.695	1148
898.798	2529
898.901	1039
899.004	1027
899.107	241
899.209	1029
899.312	1387
899.415	1793
899.518	1303
899.620	1337
899.723	1114
899.826	1998
899.928	3147
900.031	1468
900.133	834
900.236	1531
900.338	572
900.441	1032
900.543	662
900.646	2203
900.748	1316
900.851	1153
900.953	1656
901.055	1949
901.158	505
901.260	1766
901.362	1779
901.465	1229
901.567	781
901.669	2333
901.771	1219
901.873	1779
901.976	2006
902.078	2006
902.180	771
902.282	1621
902.384	1029
902.486	1001
902.588	1333
902.690	1387
902.792	1278
902.894	1664
902.996	1679
903.098	1496
903.200	946
903.302	2296
903.404	655
903.505	1139
903.607	1273
903.709	1615
903.811	934
903.913	1983
904.014	1175
904.116	845
904.218	1914
904.319	2114
904.421	2145
904.523	2082
904.624	1978
904.726	1785
904.827	1375
904.929	2373
905.030	956
905.132	1866
905.233	1213
905.335	1011
905.436	693
905.537	1214
905.639	790
905.740	2238
905.841	134
905.943	2013
906.044	1876
906.145	1991
906.247	755
906.348	2028
906.449	1102
906.550	1640
906.651	1595
906.752	1503
906.854	761
906.955	1523
907.056	1204
907.157	1588
907.258	1654
907.359	1826
907.460	133
907.561	952
907.662	1426
907.762	1632
907.863	966
907.964	1558
908.065	1731
908.166	1480
908.267	483
908.367	1210
908.468	1059
908.569	1411
908.670	1192
908.770	2914
908.871	1878
908.971	1492
909.072	2354
909.173	1331
909.273	280
909.374	1712
909.474	1246
909.575	1591
909.675	1322
909.776	1621
909.876	1037
909.977	894
910.077	1535
910.177	1473
910.278	1008
910.378	1367
910.478	1088
910.579	826
910.679	848
910.779	1087
910.879	913
910.980	768
911.080	1084
911.180	1575
911.280	877
911.380	1632
911.480	463
911.580	1281
911.680	1144
911.780	1940
911.880	437
911.980	1120
912.080	911
912.180	1757
912.280	1847
912.380	1765
912.480	1151
912.580	1327
912.679	158
912.779	2157
912.879	1368
912.979	890
913.078	1318
913.178	1481
913.278	1132
913.377	1525
913.477	1400
913.577	1025
913.676	1867
913.776	2127
913.875	1643
913.975	1358
914.074	541
914.174	1157
914.273	226
914.373	1617
914.472	746
914.572	831
914.671	923
914.770	1485
914.870	1534
914.969	1363
915.068	1280
915.167	1585
915.267	1722
915.366	1204
915.465	481
915.564	1018
915.663	1238
915.763	1116
915.862	2033
915.961	1972
916.060	849
916.159	1484
916.258	487
916.357	2181
916.456	1461
916.555	1331
916.654	1136
916.752	2120
916.851	933
916.950	1728
917.049	1160
917.148	1217
917.247	1348
917.345	1326
917.444	438
917.543	1141
917.642	1029
917.740	709
917.839	609
917.937	1312
918.036	970
918.135	1429
918.233	1490
918.332	1618
918.430	1050
918.529	1565
918.627	1428
918.726	619
918.824	1026
918.923	1526
919.021	891
919.119	831
919.218	1073
919.316	1455
919.414	363
919.512	913
919.611	946
919.709	870
919.807	1480
919.905	2402
920.003	871
920.102	1630
920.200	1968
920.298	1157
920.396	1431
920.494	1365
920.592	1376
920.690	1396
920.788	1697
920.886	602
920.984	2152
921.082	921
921.180	1047
921.277	1562
921.375	1020
921.473	2169
921.571	1153
921.669	1783
921.766	1462
921.864	1844
921.962	1348
922.060	1355
922.157	1038
922.255	1657
922.352	987
922.450	1825
922.548	534
922.645	1760
922.743	2060
922.840	2958
922.938	2719
923.035	2973
923.133	2037
923.230	3015
923.327	3710
923.425	2889
923.522	2328
923.619	2517
923.717	1842
923.814	2500
923.911	2014
924.008	3362
924.106	2522
924.203	2750
924.300	2001
924.397	2078
924.494	1567
924.591	1892
924.688	1852
924.786	2788
924.883	2030
924.979	2089
925.077	1794
925.173	3034
925.270	1850
925.367	2801
925.464	2936
925.561	3485
925.658	2792
925.755	2558
925.852	2026
925.948	3251
926.045	3198
926.142	2975
926.239	3657
926.335	3357
926.432	2808
926.529	3319
926.625	3392
926.722	2950
926.818	1959
926.915	2884
927.011	1813
927.108	2260
927.204	1923
927.301	2895
927.397	1338
927.494	2456
927.590	1291
927.687	1818
927.783	2072
927.879	2009
927.976	1302
928.072	2166
928.168	2113
928.264	2290
928.361	1265
928.457	2838
928.553	1580
928.649	1975
928.745	1818
928.841	1951
928.937	1599
929.033	2175
929.129	1982
929.225	1100
929.321	1138
929.417	2133
929.513	1273
929.609	1778
929.705	1571
929.801	1585
929.897	665
929.993	2205
930.089	1865
930.184	1073
930.280	1345
930.376	2135
930.471	802
930.567	2238
930.663	1145
930.758	2119
930.854	755
930.950	1912
931.045	1539
931.141	2128
931.236	1836
931.332	1462
931.427	1980
931.523	1994
931.618	1980
931.714	1185
931.809	1857
931.905	2035
932.000	446
932.095	1503
932.191	1757
932.286	1777
932.381	1729
932.476	1377
932.572	1442
932.667	2192
932.762	1287
932.857	1638
932.952	1246
933.047	1708
933.142	1565
933.237	1564
933.332	1059
933.427	1796
933.522	1641
933.617	2271
933.712	701
933.807	2266
933.902	1688
933.997	1716
934.092	1414
934.187	2039
934.282	1579
934.376	1444
934.471	1239
934.566	1161
934.661	1256
934.755	1864
934.850	905
934.945	2115
935.039	1863
935.134	1268
935.228	1614
935.323	1887
935.417	720
935.512	1062
935.606	636
935.701	1717
935.795	2130
935.890	1956
935.984	874
936.079	586
936.173	1563
936.267	1830
936.362	990
936.456	1515
936.550	1401
936.644	1367
936.738	991
936.833	1856
936.927	2483
937.021	1358
937.115	1568
937.209	862
937.303	1374
937.397	1349
937.491	1151
937.585	1831
937.679	970
937.773	2072
937.867	63
937.961	1275
938.055	976
938.149	2337
938.243	1936
938.337	1487
938.430	1039
938.524	2753
938.618	2010
938.712	2926
938.805	1573
938.899	1234
938.993	993
939.086	2302
939.180	3185
939.274	3032
939.367	2141
939.461	1360
939.554	848
939.648	912
939.741	1058
939.835	1616
939.928	829
940.022	1298
940.115	1369
940.208	2441
940.302	2002
940.395	1564
940.488	423
940.582	2014
940.675	416
940.768	510
940.861	1215
940.954	1923
941.048	638
941.141	1090
941.234	1804
941.327	2060
941.420	2340
941.513	2162
941.606	1081
941.699	1852
941.792	1117
941.885	1677
941.978	466
942.071	795
942.164	382
942.257	999
942.349	393
942.442	1400
942.535	929
942.628	2223
942.721	1503
942.813	222
942.906	1490
942.999	1558
943.091	477
943.184	1306
943.277	196
943.369	957
943.462	515
943.554	1489
943.647	314
943.739	1025
943.832	746
943.924	371
944.017	1537
944.109	403
944.201	426
944.294	2038
944.386	999
944.478	195
944.571	933
944.663	485
944.755	462
944.847	2412
944.940	402
945.032	448
945.124	292
945.216	1813
945.308	535
945.400	935
945.492	1390
945.584	1534
945.676	1174
945.768	1227
945.860	1202
945.952	1460
946.044	1403
946.136	1744
946.228	460
946.320	1238
946.412	843
946.503	1708
946.595	1488
946.687	899
946.779	-88
946.870	1072
946.962	480
947.054	757
947.145	549
947.237	1332
947.329	866
947.420	1622
947.512	-56
947.603	896
947.695	876
947.786	796
947.878	-109
947.969	1287
948.061	385
948.152	801
948.243	719
948.335	762
948.426	112
948.517	717
948.609	203
948.700	877
948.791	719
948.882	1029
948.973	198
949.065	716
949.156	624
949.247	-149
949.338	742
949.429	650
949.520	27
949.611	269
949.702	905
949.793	425
949.884	958
949.975	350
950.066	62
950.157	707
950.247	253
950.338	486
950.429	40
950.520	1163
950.611	360
950.701	854
950.792	145
950.883	1429
950.973	672
951.064	1032
951.155	768
951.245	1644
951.336	221
951.427	97
951.517	1487
951.608	330
951.698	42
951.788	527
951.879	-52
951.969	24
952.060	564
952.150	938
952.240	866
952.331	-717
952.421	876
952.511	1525
952.602	-269
952.692	443
952.782	535
952.872	166
952.962	543
953.052	588
953.143	-438
953.233	563
953.323	432
953.413	536
953.503	654
953.593	1624
953.683	722
953.773	89
953.863	1003
953.953	347
954.042	902
954.132	1027
954.222	1097
954.312	1348
954.402	597
954.492	1838
954.581	2155
954.671	902
954.761	739
954.850	1306
954.940	-223
955.030	842
955.119	227
955.209	765
955.298	-863
955.388	689
955.477	754
955.567	283
955.656	539
955.746	956
955.835	920
955.925	554
956.014	352
956.103	535
956.193	771
956.282	1069
956.371	767
956.461	1024
956.550	228
956.639	1212
956.728	746
956.817	1724
956.906	44
956.995	1420
957.085	-360
957.174	625
957.263	322
957.352	233
957.441	274
957.530	499
957.619	795
957.708	855
957.796	-54
957.885	538
957.974	-361
958.063	1128
958.152	-160
958.241	1342
958.329	655
958.418	494
958.507	706
958.596	1476
958.684	897
958.773	1667
958.861	987
958.950	1513
959.039	1501
959.127	1416
959.216	1437
959.304	1818
959.393	1166
959.481	1392
959.570	1873
959.658	1080
959.746	1390
959.835	1814
959.923	2983
960.011	913
960.100	1747
960.188	1208
960.276	178
960.365	1561
960.453	1183
960.541	1020
960.629	722
960.717	1278
960.805	142
960.893	651
960.981	-443
961.069	2094
961.158	209
961.245	808
961.333	333
961.421	380
961.509	356
961.597	687
961.685	365
961.773	-276
961.861	192
961.949	1160
962.036	-182
962.124	1028
962.212	1072
962.299	487
962.387	-602
962.475	519
962.562	-164
962.650	1154
962.738	657
962.825	690
962.913	94
963.000	249
963.088	211
963.175	534
963.263	606
963.350	-118
963.438	1229
963.525	463
963.612	1602
963.700	5527
963.787	7248
963.874	3582
963.962	311
964.049	1167
964.136	-117
964.223	582
964.310	71
964.398	784
964.485	452
964.572	653
964.659	929
964.746	1317
964.833	-471
964.920	255
965.007	-352
965.094	-73
965.181	-164
965.268	294
965.355	-166
965.441	68
965.528	-767
965.615	283
965.702	-442
965.789	111
965.875	-595
965.962	328
966.049	-332
966.136	428
966.222	99
966.309	644
966.395	-435
966.482	715
966.569	-34
966.655	-208
966.742	-569
966.828	405
966.915	-158
967.001	377
967.087	-1346
967.174	29
967.260	-154
967.347	941
967.433	2694
967.519	4828
967.605	1317
967.692	265
967.778	-707
967.864	317
967.950	10
968.036	-124
968.123	-170
968.209	-39
968.295	-1050
968.381	263
968.467	-11
968.553	-1052
968.639	283
968.725	86
968.811	873
968.897	671
968.983	-118
969.069	-442
969.154	-290
969.240	1258
969.326	-264
969.412	-477
969.497	-275
969.583	-582
969.669	288
969.755	-369
969.840	-764
969.926	188
970.012	-78
970.097	1012
970.183	-135
970.268	36
970.354	499
970.439	907
970.525	2721
970.610	194
970.696	1782
970.781	-267
970.866	-535
970.952	468
971.037	-1096
971.122	699
971.208	-105
971.293	150
971.378	-1536
971.463	167
971.549	-170
971.634	-305
971.719	-885
971.804	973
971.889	-208
971.974	-415
972.059	-822
972.144	-725
972.229	-666
972.314	-35
972.399	606
972.484	-200
972.569	698
972.654	-503
972.739	2174
972.824	1265
972.908	-40
972.993	-471
973.078	-306
973.163	399
973.247	-212
973.332	-1437
973.417	791
973.501	-460
973.586	-471
973.671	-250
973.755	-458
973.840	1187
973.924	-166
974.009	658
974.093	-204
974.178	792
974.262	1060
974.346	217
974.431	-122
974.515	-872
974.600	-205
974.684	-286
974.768	-64
974.852	-10
974.937	-1644
975.021	728
975.105	-1192
975.189	8
975.273	211
975.358	-701
975.442	-1363
975.526	4
975.610	-1655
975.694	-495
975.778	307
975.862	-351
975.946	-2356
976.030	1137
976.114	-825
976.198	-130
976.281	-507
976.365	181
976.449	-1277
976.533	399
976.617	-677
976.700	-96
976.784	-299
976.868	-25
976.951	257
977.035	385
977.119	-288
977.202	104
977.286	430
977.369	1020
977.453	-97
977.536	55
977.620	-476
977.703	383
977.787	-1142
977.870	1259
977.953	449
978.037	-587
978.120	299
978.203	437
978.287	710
978.370	787
978.453	-599
978.536	-174
978.620	265
978.703	979
978.786	-652
978.869	505
978.952	-624
979.035	946
979.118	86
979.201	-425
979.284	-412
979.367	-922
979.450	-71
979.533	-1359
979.616	-356
979.699	-424
979.782	-159
979.865	20
979.948	-1059
980.030	-1107
980.113	-494
980.196	-885
980.279	-11
980.361	-297
980.444	-1243
980.526	881
980.609	3
980.692	25
980.774	88
980.857	-1165
980.939	740
981.022	-632
981.104	-411
981.187	-773
981.269	379
981.352	-278
981.434	-1109
981.516	-476
981.599	-425
981.681	-337
981.763	-398
981.846	761
981.928	-1079
982.010	-997
982.092	-1369
982.174	24
982.256	-1265
982.339	-541
982.421	-355
982.503	249
982.585	-1470
982.667	257
982.749	-1108
982.831	47
982.913	-913
982.995	590
983.077	-704
983.158	1046
983.240	-1953
983.322	-614
983.404	-1158
983.486	-1115
983.568	569
983.649	-175
983.731	-323
983.813	-1396
983.894	-533
983.976	-800
984.058	-443
984.139	369
984.221	-1474
984.302	-97
984.384	-128
984.465	-805
984.547	-396
984.628	-776
984.710	253
984.791	-805
984.872	-400
984.954	-282
985.035	146
985.116	-1
985.198	-681
985.279	471
985.360	-1226
985.441	-118
985.522	-209
985.604	-462
985.685	-2351
985.766	1098
985.847	398
985.928	-379
986.009	-1213
986.090	-857
986.171	-98
986.252	-916
986.333	64
986.414	-889
986.495	-765
986.576	-356
986.656	-613
986.737	36
986.818	-792
986.899	-586
986.980	-482
987.060	828
987.141	-950
987.222	-270
987.302	-177
987.383	-69
987.464	-930
987.544	-642
987.625	-981
987.705	1117
987.786	152
987.866	-256
987.947	-956
988.027	314
988.108	-624
988.188	-358
988.268	-164
988.349	99
988.429	-937
988.509	-460
988.589	-681
988.670	-1120
988.750	803
988.830	-629
988.910	-11
988.990	-449
989.070	-974
989.151	-296
989.231	-1857
989.311	-166
989.391	-871
989.471	-690
989.551	135
989.631	-256
989.711	-186
989.791	-1123
989.870	-897
989.950	529
990.030	-1223
990.110	-106
990.190	-916
990.269	-799
990.349	-679
990.429	-306
990.509	-346
990.588	-1053
990.668	-810
990.747	-897
990.827	-960
990.907	-448
990.986	-1205
991.066	-105
991.145	-574
991.225	142
991.304	-194
991.383	-394
991.463	-1241
991.542	-489
991.622	-1064
991.701	-530
991.780	-905
991.859	-1398
991.939	-1390
992.018	-993
992.097	-272
992.176	-627
992.256	-916
992.335	-959
992.414	-283
992.493	-1278
992.572	-584
992.651	1473
992.730	-719
992.809	-334
992.888	-1927
992.967	-278
993.046	-782
993.125	-1197
993.203	-942
993.282	-1468
993.361	-1031
993.440	-100
993.519	-1937
993.597	-329
993.676	-767
993.755	65
993.834	-713
993.912	-1360
993.991	550
994.069	-970
994.148	-1181
994.226	-993
994.305	-770
994.384	-989
994.462	-382
994.540	-1949
994.619	-1241
994.697	-612
994.776	-1227
994.854	-575
994.932	-1997
995.011	-717
995.089	-805
995.167	-401
995.245	-526
995.324	-655
995.402	-538
995.480	-835
995.558	-925
995.636	-1592
995.714	-1604
995.792	322
995.870	-1900
995.948	-698
996.026	-711
996.104	-1643
996.182	-918
996.260	-1520
996.338	-1017
996.416	-1729
996.494	-979
996.572	653
996.649	-1388
996.727	-1059
996.805	-1081
996.883	-479
996.960	-1664
997.038	-707
997.116	-392
997.193	-1194
997.271	-1243
997.348	-413
997.426	-328
997.504	-1026
997.581	-1185
997.658	-427
997.736	-2258
997.813	-1096
997.891	-83
997.968	-1630
998.046	-1923
998.123	-1324
998.200	-570
998.277	-1625
998.355	-1112
998.432	-1797
998.509	-981
998.586	50
998.663	-510
998.741	-205
998.818	-1580
998.895	-1413
998.972	-1079
999.049	-526
999.126	-1223
999.203	-254
999.280	-997
999.357	-1086
999.434	-1385
999.511	-756
999.587	-147
999.664	-1569
999.741	-1242
999.818	-970
999.895	-2299
999.971	-1043
1000.048	-1017
1000.125	368
1000.202	-2665
1000.278	-525
1000.355	-598
1000.431	-821
1000.508	-1875
1000.584	-410
1000.661	-475
1000.738	-1365
1000.814	-1563
1000.890	-364
1000.967	-1426
1001.043	-1032
1001.120	-2544
1001.196	-798
1001.272	-1494
1001.349	-1069
1001.425	-943
1001.501	-910
1001.577	-1373
1001.654	-806
1001.730	-1382
1001.806	-594
1001.882	-1893
1001.958	-481
1002.034	-1227
1002.110	-353
1002.186	-1689
1002.262	-463
1002.338	-2571
1002.414	-1543
1002.490	-1156
1002.566	-1224
1002.642	-2200
1002.718	-980
1002.794	-1399
1002.870	-609
1002.945	-1537
1003.021	-908
1003.097	-1620
1003.173	-489
1003.248	-1789
1003.324	-872
1003.400	-1155
1003.475	-1266
1003.551	-1750
1003.626	-640
1003.702	-1726
1003.777	-529
1003.853	-1721
1003.928	-2347
1004.004	-1367
1004.079	-1065
1004.155	-670
1004.230	-1642
1004.305	-514
1004.381	-1095
1004.456	-1542
1004.531	-1716
1004.607	-1132
1004.682	-924
1004.757	-2330
1004.832	-839
1004.907	-2266
1004.982	-939
1005.057	-1239
1005.133	-1472
1005.208	-1353
1005.283	-1628
1005.358	-745
1005.433	-1920
1005.508	-1024
1005.583	-1662
1005.657	-1969
1005.732	-623
1005.807	-1518
1005.882	-1020
1005.957	-1964
1006.032	-280
1006.106	-1407
1006.181	-781
1006.256	-1458
1006.331	-1937
1006.405	-1993
1006.480	-1146
1006.554	-1923
1006.629	-998
1006.704	-765
1006.778	-935
1006.853	-553
1006.927	-1330
1007.002	-1500
1007.076	-1422
1007.150	-1051
1007.225	-1116
1007.299	-1626
1007.373	-1282
1007.448	-1157
1007.522	-550
1007.596	-1184
1007.671	-1245
1007.745	-1090
1007.819	-1884
1007.893	-775
1007.967	-1367
1008.041	-2401
1008.115	-1113
1008.190	-1695
1008.264	-1000
1008.338	-2574
1008.412	-1373
1008.486	-1394
1008.560	-1464
1008.633	-2468
1008.707	-722
1008.781	-1142
1008.855	-1349
1008.929	-1713
1009.003	-2168
1009.076	-2202
1009.150	-913
1009.224	-2065
1009.298	-1255
1009.371	-2607
1009.445	-1293
1009.519	-1493
1009.592	-1644
1009.666	-1406
1009.739	-1111
1009.813	-2177
1009.886	-142
1009.960	-2538
1010.033	-1109
1010.107	-1707
1010.180	-1943
1010.253	-1136
1010.327	-1137
1010.400	-1389
1010.473	-934
1010.547	-826
1010.620	-1655
1010.693	-1238
1010.766	-1309
1010.840	-1870
1010.913	-1326
1010.986	-1659
1011.059	-765
1011.132	-1113
1011.205	-466
1011.278	-1466
1011.351	-813
1011.424	-1936
1011.497	-797
1011.570	-2104
1011.643	-1077
1011.716	-2014
1011.789	-1182
1011.862	-1658
1011.934	-431
1012.007	-3133
1012.080	-601
1012.153	-1464
1012.225	-451
1012.298	-1651
1012.371	-1794
1012.443	-1590
1012.516	-2509
1012.588	-1723
1012.661	-180
1012.733	-2518
1012.806	-428
1012.879	-1262
1012.951	-1621
1013.023	-1783
1013.096	-800
1013.168	-1872
1013.241	-866
1013.313	-1816
1013.385	-1199
1013.458	-1866
1013.530	-1076
1013.602	-2246
1013.674	-1420
1013.746	-2330
1013.819	-1959
1013.891	-1059
1013.963	-1595
1014.035	-1126
1014.107	-289
1014.179	-1360
1014.251	-2215
1014.323	-1906
1014.395	-938
1014.467	-1747
1014.539	-1328
1014.611	-1674
1014.683	-1223
1014.754	-950
1014.826	-2162
1014.898	-2075
1014.970	-2502
1015.042	-977
1015.113	-1031
1015.185	-1468
1015.257	-2527
1015.328	-995
1015.400	-1304
1015.471	-1836
1015.543	-2064
1015.615	-2192
1015.686	-1983
1015.757	-1250
1015.829	-1566
1015.901	-2632
1015.972	-961
1016.043	-1993
1016.115	-1163
1016.186	-1705
1016.257	-2263
1016.328	-1281
1016.400	-1037
1016.471	-2209
1016.542	-1235
1016.613	-2186
1016.685	-1767
1016.756	-1999
1016.827	-1677
1016.898	-2185
1016.969	-961
1017.040	-2376
1017.111	-2158
1017.182	-1795
1017.253	-1530
1017.324	-2453
1017.395	-1551
1017.466	-1272
1017.537	-1072
1017.608	-2522
1017.678	-1276
1017.749	-2637
1017.820	-1049
1017.891	-2445
1017.961	-955
1018.032	-1511
1018.103	-1387
1018.173	-2192
1018.244	-1313
1018.315	-1543
1018.385	-1218
1018.456	-1893
1018.526	-1833
1018.597	-2162
1018.667	-1378
1018.738	-1725
1018.808	-1543
1018.878	-1418
1018.949	-793
1019.019	-1621
1019.089	-2404
1019.160	-1038
1019.230	-2503
1019.300	-1942
1019.371	-1654
1019.441	-1314
1019.511	-1791
1019.581	-2185
1019.651	-1713
1019.721	-1590
1019.791	-879
1019.861	-1611
1019.931	-523
1020.001	-1661
1020.071	-2605
1020.141	-2057
1020.211	-1550
1020.281	-2773
1020.351	-2120
1020.421	-1405
1020.491	-401
1020.560	-2777
1020.630	-1143
1020.700	-1520
1020.770	-2143
1020.839	-2467
1020.909	-2027
1020.979	-2248
1021.048	-1740
1021.118	-2120
1021.187	-1520
1021.257	-1808
1021.326	-1569
1021.396	-2023
1021.465	-1898
1021.535	-1909
1021.604	-2235
1021.674	-1519
1021.743	-1886
1021.812	-1871
1021.882	-1648
1021.951	-2120
1022.020	-2043
1022.089	-1938
1022.159	-2411
1022.228	-1484
1022.297	-1749
1022.366	-1811
1022.435	-1238
1022.504	-2230
1022.573	-1828
1022.642	-1554
1022.711	-1757
1022.781	-2093
1022.849	-1564
1022.918	-3092
1022.987	-2037
1023.056	-1973
1023.125	-1301
1023.194	-1418
1023.263	-1382
1023.331	-1959
1023.400	-1806
1023.469	-2503
1023.538	-1093
1023.606	-2211
1023.675	-1070
1023.744	-2782
1023.812	-1406
1023.881	-1449
1023.949	-1959
1024.018	-2870
1024.086	-1862
1024.155	-1695
1024.223	-2360
1024.292	-1948
1024.360	-1461
1024.429	-1938
1024.497	-1327
1024.565	-2098
1024.634	-1606
1024.702	-1266
1024.770	-1348
1024.838	-2287
1024.907	-1167
1024.975	-3534
1025.043	-1015
1025.111	-2514
1025.179	-1660
1025.247	-1652
1025.315	-1344
1025.383	-2798
1025.451	-1768
1025.519	-2233
1025.587	-1974
1025.655	-2367
1025.723	-1893
1025.791	-1847
1025.859	-1923
1025.927	-2261
1025.995	-1986
1026.062	-1802
1026.130	-1999
1026.198	-2604
1026.266	-2135
1026.333	-1382
1026.401	-1968
1026.469	-2051
1026.536	-2097
1026.604	-2882
1026.671	-1955
1026.739	-2410
1026.806	-2113
1026.874	-1857
1026.941	-1907
1027.009	-2238
1027.076	-1741
1027.144	-1972
1027.211	-2303
1027.278	-2302
1027.345	-1639
1027.413	-2325
1027.480	-2088
1027.547	-2046
1027.614	-2579
1027.682	-2301
1027.749	-1342
1027.816	-2518
1027.883	-955
1027.950	-1869
1028.017	-1508
1028.084	-1893
1028.151	-2113
1028.218	-1562
1028.285	-1720
1028.352	-2021
1028.419	-2716
1028.486	-1728
1028.553	-1751
1028.619	-2382
1028.686	-2392
1028.753	-2154
1028.820	-2208
1028.886	-2193
1028.953	-1093
1029.020	-2264
1029.086	-1795
1029.153	-1792
1029.220	-1827
1029.286	-2158
1029.353	-2031
1029.419	-1418
1029.486	-1193
1029.552	-2465
1029.619	-1969
1029.685	-3075
1029.751	-1496
1029.818	-1511
1029.884	-1863
1029.951	-841
1030.017	-1875
1030.083	-2499
1030.149	-1961
1030.216	-3066
1030.282	-1111
1030.348	-2260
1030.414	-1826
1030.480	-1911
1030.546	-1011
1030.612	-2026
1030.678	-1798
1030.744	-2072
1030.810	-1698
1030.876	-2096
1030.942	-1522
1031.008	-2223
1031.074	-1456
1031.140	-1589
1031.206	-1730
1031.272	-2619
1031.337	-1933
1031.403	-1972
1031.469	-2179
1031.534	-1991
1031.600	-1983
1031.666	-2756
1031.731	-2239
1031.797	-1426
1031.863	-1129
1031.928	-3129
1031.994	-2762
1032.059	-2581
1032.125	-2212
1032.190	-2018
1032.256	-2485
1032.321	-2707
1032.386	-2329
1032.452	-1618
1032.517	-1277
1032.582	-2258
1032.647	-1150
1032.713	-2624
1032.778	-1307
1032.843	-3149
1032.908	-1825
1032.974	-1741
1033.039	-2248
1033.104	-1764
1033.169	-1789
1033.234	-1796
1033.299	-850
1033.364	-2015
1033.429	-1745
1033.494	-2147
1033.559	-2402
1033.624	-1721
1033.688	-2095
1033.753	-2836
1033.818	-2378
1033.883	-1604
1033.948	-2139
1034.013	-1634
1034.077	-1983
1034.142	-1848
1034.207	-1456
1034.271	-1898
1034.336	-32
1034.400	-1361
1034.465	-1728
1034.530	-2010
1034.594	-1105
1034.658	-1787
1034.723	-2261
1034.787	-2643
1034.852	-2604
1034.916	-2796
1034.981	-3082
1035.045	-1739
1035.109	-2159
1035.173	-1325
1035.238	-2168
1035.302	-2674
1035.366	-2134
1035.430	-3053
1035.495	-1478
1035.559	-2884
1035.623	-1625
1035.687	-2004
1035.751	-2101
1035.815	-2344
1035.879	-1859
1035.943	-2639
1036.007	-2497
1036.071	-2624
1036.135	-1918
1036.198	-2965
1036.262	-1644
1036.326	-2294
1036.390	-1250
1036.454	-2250
1036.517	-2136
1036.581	-2442
1036.645	-1360
1036.709	-2374
1036.772	-2294
1036.836	-1692
1036.900	-1987
1036.963	-2859
1037.026	-2453
1037.090	-2517
1037.154	-2158
1037.217	-2964
1037.280	-2514
1037.344	-2165
1037.407	-2320
1037.471	-1956
1037.534	-1740
1037.597	-2549
1037.661	-1593
1037.724	-2545
1037.787	-1898
1037.850	-2213
1037.913	-1649
1037.977	-1663
1038.040	-2019
1038.103	-1695
1038.166	-1931
1038.229	-2337
1038.292	-1654
1038.355	-1722
1038.418	-2382
1038.481	-1305
1038.544	-2386
1038.607	-2204
1038.670	-2200
1038.732	-2228
1038.795	-2165
1038.858	-2145
1038.921	-1844
1038.984	-1742
1039.046	-2066
1039.109	-2120
1039.172	-1816
1039.234	-1615
1039.297	-2323
1039.360	-2376
1039.422	-1513
1039.485	-2337
1039.547	-1463
1039.610	-2225
1039.672	-1226
1039.734	-3548
1039.797	-1828
1039.859	-2334
1039.922	-2153
1039.984	-1931
1040.046	-1582
1040.109	-2573
1040.171	-2288
1040.233	-1794
1040.295	-1621
1040.358	-2576
1040.420	-1894
1040.482	-3019
1040.544	-2059
1040.606	-2282
1040.668	-1960
1040.730	-2107
1040.792	-1527
1040.854	-2355
1040.916	-2692
1040.978	-3071
1041.040	-1452
1041.102	-1992
1041.164	-2088
1041.225	-2587
1041.287	-1962
1041.349	-1994
1041.411	-1841
1041.472	-2905
1041.534	-2758
1041.596	-2247
1041.657	-1863
1041.719	-2643
1041.781	-1293
1041.842	-1829
1041.904	-1450
1041.965	-2593
1042.027	-2108
1042.088	-2409
1042.150	-2102
1042.211	-3094
1042.272	-1324
1042.334	-2335
1042.395	-1816
1042.456	-1235
1042.518	-2584
1042.579	-1834
1042.640	-1257
1042.701	-2615
1042.763	-1997
1042.824	-1868
1042.885	-2461
1042.946	-2293
1043.007	-2449
1043.068	-2892
1043.129	-2117
1043.190	-2039
1043.251	-1666
1043.312	-2281
1043.373	-1386
1043.434	-2764
1043.495	-2540
1043.556	-2445
1043.616	-2020
1043.677	-2512
1043.738	-2643
1043.799	-3130
1043.859	-2432
1043.920	-2349
1043.981	-2995
1044.041	-2226
1044.102	-1932
1044.162	-2700
1044.223	-2357
1044.284	-2197
1044.344	-2010
1044.405	-2574
1044.465	-2209
1044.525	-2193
1044.586	-1837
1044.646	-2459
1044.707	-1724
1044.767	-2569
1044.827	-2738
1044.887	-2016
1044.948	-1843
1045.008	-1879
1045.068	-1945
1045.128	-1525
1045.188	-1015
1045.249	-1839
1045.309	-1664
1045.369	-2825
1045.429	-1472
1045.489	-1860
1045.549	-2092
1045.609	-2432
1045.669	-2173
1045.729	-3524
1045.789	-2473
1045.848	-1582
1045.908	-1792
1045.968	-1773
1046.028	-1390
1046.088	-2391
1046.147	-1242
1046.207	-1373
1046.267	-945
1046.326	-1838
1046.386	-2698
1046.446	-1521
1046.505	-639
1046.565	-1851
1046.624	-860
1046.684	-1963
1046.743	-446
1046.803	-1031
1046.862	-182
1046.922	0
