'Start Wavelength	183.907
'End Wavelength	1046.922
'Gate Delay	5.000
'Gate Width (ms)	1.050
'Laser Output Level	0.000
'X Position	0.000
'Y Position	0.000
'Z Position	0.000
'Grid Point Number	1.000
'Shot Number	100.000
183.907	132.000
183.977	-68.000
184.047	-59
184.116	697
184.186	-184
184.256	170
184.325	-114
184.395	90
184.465	127
184.534	174
184.604	-360
184.674	309
184.743	-183
184.813	447
184.883	-111
184.952	19
185.022	-298
185.092	41
185.161	-23
185.231	587
185.301	280
185.370	686
185.440	962
185.509	482
185.579	-37
185.649	165
185.718	99
185.788	-227
185.857	54
185.927	1118
185.996	-186
186.066	138
186.136	-495
186.205	444
186.275	-50
186.344	753
186.414	853
186.483	126
186.553	620
186.622	406
186.692	329
186.761	541
186.831	186
186.900	773
186.970	822
187.039	1040
187.109	10
187.178	971
187.248	116
187.317	648
187.387	480
187.456	405
187.526	44
187.595	434
187.664	-390
187.734	486
187.803	547
187.873	420
187.942	672
188.012	350
188.081	8
188.150	243
188.220	624
188.289	861
188.358	-189
188.428	-52
188.497	594
188.567	650
188.636	160
188.705	283
188.775	345
188.844	858
188.913	468
188.983	309
189.052	599
189.121	630
189.191	-116
189.260	712
189.329	322
189.399	312
189.468	619
189.537	927
189.606	151
189.676	823
189.745	621
189.814	845
189.883	335
189.953	542
190.022	1074
190.091	1723
190.161	1881
190.230	743
190.299	452
190.368	586
190.437	288
190.507	368
190.576	602
190.645	1260
190.714	-168
190.783	481
190.853	383
190.922	904
190.991	828
191.060	561
191.129	-312
191.198	602
191.268	-243
191.337	206
191.406	727
191.475	445
191.544	-164
191.613	258
191.682	-52
191.752	659
191.821	232
191.890	695
191.959	580
192.028	530
192.097	885
192.166	104
192.235	147
192.304	477
192.373	536
192.442	210
192.511	570
192.580	1214
192.650	601
192.719	484
192.788	1067
192.857	8
192.926	662
192.995	-120
193.064	953
193.133	2243
193.202	1588
193.271	1729
193.340	1095
193.409	1145
193.478	1140
193.547	1836
193.615	1867
193.684	1290
193.753	926
193.822	1676
193.891	283
193.960	831
194.029	554
194.098	874
194.167	778
194.236	1336
194.305	224
194.374	93
194.443	655
194.512	663
194.580	1056
194.649	1303
194.718	1039
194.787	532
194.856	275
194.925	1197
194.994	140
195.062	399
195.131	467
195.200	1848
195.269	711
195.338	591
195.407	204
195.475	1225
195.544	1377
195.613	1377
195.682	1212
195.751	1380
195.819	1035
195.888	1151
195.957	2224
196.026	1547
196.094	2026
196.163	1038
196.232	939
196.301	1712
196.369	1229
196.438	1540
196.507	953
196.576	870
196.644	221
196.713	1120
196.782	341
196.850	986
196.919	369
196.988	796
197.056	841
197.125	631
197.194	470
197.262	1257
197.331	5
197.400	359
197.468	667
197.537	1102
197.606	820
197.674	726
197.743	1825
197.812	1834
197.880	1478
197.949	1115
198.017	2644
198.086	1169
198.155	988
198.223	1801
198.292	2834
198.360	1091
198.429	1612
198.497	1705
198.566	1928
198.635	1502
198.703	1433
198.772	1764
198.840	2681
198.909	2403
198.977	1533
199.046	1425
199.114	814
199.183	1453
199.251	1350
199.320	1250
199.388	1117
199.457	1674
199.525	1179
199.594	1303
199.662	610
199.731	783
199.799	1012
199.867	1021
199.936	506
200.004	1441
200.073	1422
200.141	1932
200.210	433
200.278	742
200.346	1016
200.415	1340
200.483	1548
200.552	1230
200.620	448
200.688	412
200.757	504
200.825	974
200.893	1417
200.962	760
201.030	998
201.098	1830
201.167	743
201.235	1370
201.303	1172
201.372	1637
201.440	1348
201.508	1249
201.577	1208
201.645	962
201.713	1637
201.781	1836
201.850	1149
201.918	1797
201.986	1185
202.055	1518
202.123	763
202.191	1164
202.259	1593
202.327	1490
202.396	420
202.464	1218
202.532	1633
202.600	3527
202.669	1660
202.737	842
202.805	1283
202.873	1560
202.941	1287
203.009	1011
203.078	862
203.146	924
203.214	529
203.282	814
203.350	1276
203.418	1574
203.487	1384
203.555	969
203.623	1597
203.691	1311
203.759	1610
203.827	1345
203.895	1321
203.963	1509
204.031	1520
204.099	1229
204.168	1531
204.236	2029
204.304	2315
204.372	1580
204.440	1406
204.508	1138
204.576	987
204.644	1207
204.712	1567
204.780	1142
204.848	1393
204.916	1635
204.984	1295
205.052	1411
205.120	1192
205.188	1211
205.256	1624
205.324	2070
205.392	701
205.460	1475
205.528	1276
205.596	930
205.664	1035
205.732	1085
205.799	3383
205.867	4371
205.935	1760
206.003	1771
206.071	1104
206.139	1323
206.207	964
206.275	897
206.343	1263
206.411	1750
206.478	988
206.546	1760
206.614	1036
206.682	1894
206.750	1118
206.818	1886
206.885	1395
206.953	1263
207.021	1559
207.089	1407
207.157	1043
207.225	1527
207.292	1062
207.360	1654
207.428	1952
207.496	2324
207.563	1450
207.631	2315
207.699	1490
207.767	1603
207.834	1501
207.902	1986
207.970	1576
208.038	1733
208.105	1855
208.173	2086
208.241	2509
208.309	2840
208.376	2996
208.444	3411
208.512	1874
208.579	2162
208.647	1707
208.715	1212
208.782	1932
208.850	2203
208.918	2002
208.985	2136
209.053	1789
209.120	2441
209.188	2245
209.256	2149
209.323	2679
209.391	3398
209.459	2674
209.526	1286
209.594	1818
209.661	1832
209.729	1447
209.796	1963
209.864	2031
209.932	2392
209.999	2587
210.067	2410
210.134	2209
210.202	1834
210.269	2693
210.337	2342
210.404	1955
210.472	2110
210.539	1881
210.607	2235
210.674	2410
210.742	1632
210.809	2685
210.877	2909
210.944	2568
211.012	1859
211.079	2803
211.146	2698
211.214	2162
211.281	2531
211.349	2140
211.416	1991
211.484	2355
211.551	2455
211.618	1764
211.686	2625
211.753	1684
211.821	2393
211.888	2268
211.955	2363
212.023	2362
212.090	2544
212.157	2439
212.225	2523
212.292	3907
212.359	6411
212.427	10737
212.494	5648
212.561	3385
212.629	3282
212.696	2448
212.763	3108
212.831	2619
212.898	2649
212.965	2475
213.032	2683
213.100	2332
213.167	3224
213.234	2872
213.301	3243
213.369	2786
213.436	2253
213.503	2492
213.570	2880
213.638	2699
213.705	2605
213.772	2060
213.839	2870
213.906	1827
213.973	2973
214.041	2661
214.108	3275
214.175	2749
214.242	3321
214.309	2610
214.376	3029
214.444	2814
214.511	2434
214.578	2136
214.645	2713
214.712	3506
214.779	3495
214.846	3579
214.913	3185
214.980	3698
215.048	3874
215.115	3441
215.182	3387
215.249	2643
215.316	3281
215.383	2991
215.450	2997
215.517	2542
215.584	2136
215.651	2623
215.718	2984
215.785	3156
215.852	3846
215.919	3226
215.986	3412
216.053	2804
216.120	2967
216.187	2881
216.254	3777
216.321	2757
216.388	2543
216.455	3108
216.522	3533
216.589	3475
216.656	4501
216.722	4502
216.789	3934
216.856	3727
216.923	3990
216.990	3446
217.057	3327
217.124	3647
217.191	4346
217.258	4191
217.324	4499
217.391	4697
217.458	4080
217.525	3049
217.592	3673
217.659	2674
217.725	3753
217.792	3823
217.859	3888
217.926	2816
217.993	3794
218.059	3129
218.126	2913
218.193	2956
218.260	3311
218.327	2397
218.393	3052
218.460	2777
218.527	2974
218.594	2900
218.660	3962
218.727	3409
218.794	2990
218.860	2670
218.927	2755
218.994	2305
219.061	2462
219.127	2697
219.194	4060
219.261	2495
219.327	3280
219.394	2276
219.461	2569
219.527	3210
219.594	3281
219.661	2037
219.727	2386
219.794	3643
219.860	2828
219.927	2727
219.994	4443
220.060	4893
220.127	3899
220.193	3790
220.260	4060
220.326	5247
220.393	6098
220.460	7318
220.526	5700
220.593	4443
220.659	5071
220.726	5814
220.792	7951
220.859	7549
220.925	9992
220.992	10127
221.058	10333
221.125	9061
221.191	7102
221.258	4029
221.324	3641
221.391	2462
221.457	3436
221.524	3044
221.590	4774
221.657	7790
221.723	5263
221.789	6711
221.856	5294
221.922	4017
221.989	3685
222.055	3590
222.121	3349
222.188	2927
222.254	3508
222.321	2725
222.387	2424
222.453	2567
222.520	2148
222.586	2202
222.652	2329
222.719	2831
222.785	2136
222.851	2897
222.918	2819
222.984	1998
223.050	2746
223.116	2217
223.183	2549
223.249	2318
223.315	2352
223.382	2305
223.448	3136
223.514	2275
223.580	2758
223.647	2261
223.713	2812
223.779	1805
223.845	2617
223.911	2140
223.978	2825
224.044	2963
224.110	2444
224.176	2172
224.242	2540
224.309	2173
224.375	2734
224.441	2241
224.507	2315
224.573	2149
224.639	2247
224.705	1815
224.772	2481
224.838	1545
224.904	2400
224.970	2142
225.036	1869
225.102	2834
225.168	2741
225.234	2652
225.300	2206
225.366	2127
225.432	2518
225.499	2513
225.565	3154
225.631	2902
225.697	2947
225.763	4278
225.829	4232
225.895	4078
225.961	5304
226.027	4492
226.093	4706
226.159	6009
226.225	8550
226.291	14073
226.357	16253
226.423	10010
226.489	7002
226.554	6095
226.620	6001
226.686	6892
226.752	9614
226.818	13587
226.884	19616
226.950	16226
227.016	9105
227.082	6207
227.148	6486
227.214	5499
227.279	4932
227.345	3964
227.411	4824
227.477	3307
227.543	4902
227.609	5032
227.674	3726
227.740	3810
227.806	4106
227.872	2689
227.938	3557
228.003	4513
228.069	2983
228.135	2549
228.201	3091
228.267	3243
228.332	3602
228.398	3887
228.464	3112
228.530	2448
228.595	2700
228.661	2345
228.727	4743
228.792	3253
228.858	2803
228.924	2930
228.990	4354
229.055	3293
229.121	3643
229.187	2917
229.252	2972
229.318	2394
229.384	2781
229.449	2522
229.515	1868
229.581	1821
229.646	4070
229.712	3499
229.777	5609
229.843	5277
229.909	4593
229.974	5535
230.040	5351
230.105	4298
230.171	4293
230.236	5282
230.302	6620
230.368	4896
230.433	3931
230.499	3967
230.564	4723
230.630	3324
230.695	3443
230.761	3106
230.826	3570
230.892	4565
230.957	3128
231.023	3219
231.088	3268
231.154	3016
231.219	3376
231.284	3984
231.350	3940
231.415	2913
231.481	3336
231.546	3060
231.612	2792
231.677	2160
231.742	2534
231.808	2848
231.873	2703
231.939	2014
232.004	4937
232.069	3546
232.135	3696
232.200	2966
232.265	3070
232.331	1967
232.396	2686
232.461	2326
232.527	2955
232.592	3009
232.657	3073
232.723	3609
232.788	3756
232.853	3174
232.918	2390
232.984	2437
233.049	2887
233.114	3207
233.179	3660
233.245	5491
233.310	4109
233.375	2163
233.440	2689
233.506	2506
233.571	2958
233.636	1814
233.701	2894
233.766	4490
233.832	4072
233.897	3309
233.962	2898
234.027	3600
234.092	3545
234.157	2693
234.222	4005
234.288	5102
234.353	8723
234.418	8104
234.483	6173
234.548	5412
234.613	4981
234.678	3935
234.743	5180
234.808	10670
234.873	6274
234.938	4860
235.004	4397
235.069	4566
235.134	3822
235.199	4007
235.264	3466
235.329	3372
235.394	3870
235.459	4523
235.524	3938
235.589	4140
235.654	3391
235.719	3004
235.784	4738
235.849	4116
235.913	6283
235.978	6900
236.043	6679
236.108	4055
236.173	4322
236.238	5024
236.303	3613
236.368	4107
236.433	7151
236.498	7645
236.563	7980
236.627	15063
236.692	28804
236.757	22169
236.822	12049
236.887	9680
236.952	8214
237.017	7689
237.081	7894
237.146	10625
237.211	18832
237.276	30276
237.341	34755
237.405	20547
237.470	11697
237.535	8897
237.600	7186
237.664	5870
237.729	5822
237.794	7072
237.859	10905
237.923	6859
237.988	5165
238.053	6947
238.118	6261
238.182	12472
238.247	9586
238.312	6733
238.376	5733
238.441	5029
238.506	4906
238.570	3886
238.635	3851
238.700	3425
238.764	3604
238.829	7334
238.893	7053
238.958	4975
239.023	5631
239.087	4234
239.152	4333
239.216	3939
239.281	4649
239.346	3574
239.410	4153
239.475	4045
239.539	11658
239.604	6962
239.668	4429
239.733	4075
239.797	4443
239.862	5276
239.926	8103
239.991	4278
240.055	3030
240.120	3762
240.184	3846
240.249	2942
240.313	3656
240.378	3408
240.442	8423
240.507	8342
240.571	4390
240.635	6139
240.700	6549
240.764	3470
240.829	4648
240.893	3037
240.957	3542
241.022	8438
241.086	9090
241.151	5268
241.215	2937
241.279	4778
241.344	6374
241.408	5310
241.472	5182
241.537	4678
241.601	4870
241.665	4571
241.730	5256
241.794	5467
241.858	4691
241.922	5027
241.987	4686
242.051	4409
242.115	4593
242.179	4261
242.244	3959
242.308	5107
242.372	5244
242.436	5319
242.501	4979
242.565	4373
242.629	4759
242.693	4433
242.757	3982
242.822	4610
242.886	4604
242.950	3989
243.014	4842
243.078	4970
243.142	5486
243.206	3964
243.271	4560
243.335	4484
243.399	7101
243.463	20617
243.527	31214
243.591	10356
243.655	6990
243.719	4521
243.783	6267
243.847	7987
243.911	9754
243.975	10656
244.040	6392
244.104	4999
244.168	4291
244.232	6862
244.296	7453
244.360	8108
244.424	4802
244.488	5373
244.552	4613
244.615	3743
244.679	3738
244.743	4995
244.807	4919
244.871	3216
244.935	3836
244.999	3344
245.063	4215
245.127	4410
245.191	7059
245.255	5192
245.319	5715
245.383	4112
245.446	5225
245.510	3042
245.574	4281
245.638	3653
245.702	5054
245.766	8780
245.829	5354
245.893	4907
245.957	4535
246.021	3824
246.085	5235
246.149	6085
246.212	13328
246.276	14597
246.340	8175
246.404	5562
246.467	7891
246.531	7807
246.595	6475
246.659	6046
246.722	5797
246.786	6898
246.850	6999
246.913	6718
246.977	4483
247.041	5009
247.104	6068
247.168	5280
247.232	13421
247.295	18600
247.359	8985
247.423	6617
247.486	9402
247.550	6019
247.614	6690
247.677	7599
247.741	4932
247.804	4325
247.868	6468
247.932	13221
247.995	16773
248.059	8400
248.122	5624
248.186	7832
248.249	14533
248.313	31594
248.376	27809
248.440	19737
248.503	9394
248.567	9688
248.630	12286
248.694	15293
248.757	21685
248.821	31591
248.884	20696
248.948	22017
249.011	28331
249.075	37210
249.138	27737
249.202	14676
249.265	10901
249.328	12102
249.392	10592
249.455	8249
249.519	7637
249.582	9178
249.645	12941
249.709	8705
249.772	8129
249.835	7865
249.899	8574
249.962	7144
250.025	7543
250.089	16306
250.152	16873
250.215	10278
250.279	9589
250.342	8711
250.405	8312
250.468	7733
250.532	10052
250.595	15242
250.658	43419
250.721	46122
250.785	20806
250.848	13507
250.911	9941
250.974	9549
251.038	14558
251.101	19755
251.164	12459
251.227	13735
251.290	12855
251.354	18978
251.417	52712
251.480	40853
251.543	42747
251.606	79970
251.669	52141
251.732	27619
251.795	30646
251.859	31141
251.922	54485
251.985	27737
252.048	15528
252.111	12865
252.174	14018
252.237	24567
252.300	37049
252.363	46316
252.426	59909
252.489	27589
252.552	17730
252.615	13632
252.678	17782
252.741	31664
252.804	42419
252.867	65017
252.930	39917
252.993	23819
253.056	16306
253.119	11929
253.182	10576
253.245	15009
253.308	12198
253.371	12254
253.434	10691
253.497	12597
253.559	19287
253.622	13380
253.685	18864
253.748	15201
253.811	9258
253.874	12355
253.937	9616
254.000	9076
254.062	17425
254.125	18259
254.188	19655
254.251	12548
254.314	8937
254.376	15957
254.439	13929
254.502	12693
254.565	18063
254.628	22944
254.690	13535
254.753	7547
254.816	7628
254.878	9198
254.941	16851
255.004	12454
255.067	8599
255.129	7615
255.192	5184
255.255	4862
255.317	6335
255.380	4017
255.443	4574
255.505	3878
255.568	4037
255.631	4262
255.693	4654
255.756	2823
255.819	4775
255.881	4109
255.944	4206
256.006	3266
256.069	4614
256.132	3829
256.194	6370
256.257	9708
256.319	8094
256.382	6555
256.444	6407
256.507	5133
256.569	4972
256.632	6002
256.694	9440
256.757	25620
256.819	44418
256.882	18898
256.944	10012
257.007	9347
257.069	8472
257.132	6585
257.194	6479
257.257	5408
257.319	6233
257.381	7386
257.444	21477
257.506	58870
257.569	47418
257.631	22475
257.693	15489
257.756	9116
257.818	7849
257.880	5728
257.943	5395
258.005	5918
258.067	5373
258.130	4659
258.192	7444
258.254	10039
258.317	5624
258.379	5884
258.441	12004
258.503	9692
258.566	13684
258.628	11423
258.690	5312
258.753	6674
258.815	11061
258.877	6742
258.939	5928
259.001	5749
259.064	5329
259.126	6537
259.188	7672
259.250	6292
259.312	6535
259.375	9194
259.437	7171
259.499	4863
259.561	5268
259.623	5395
259.685	5583
259.747	5963
259.809	13331
259.872	17129
259.934	31152
259.996	21662
260.058	7378
260.120	5429
260.182	4934
260.244	4045
260.306	4564
260.368	4113
260.430	4275
260.492	9260
260.554	11061
260.616	7810
260.678	18902
260.740	15133
260.802	5937
260.864	6277
260.926	4796
260.988	5323
261.050	6700
261.112	14578
261.174	22842
261.236	11611
261.298	7049
261.359	10432
261.421	11309
261.483	4534
261.545	5528
261.607	3128
261.669	4845
261.731	8616
261.793	14482
261.854	6671
261.916	6416
261.978	6284
262.040	5302
262.102	5081
262.164	6939
262.225	4236
262.287	5279
262.349	11413
262.411	6557
262.472	4545
262.534	9277
262.596	9716
262.658	4827
262.719	4027
262.781	6166
262.843	9836
262.904	5614
262.966	5844
263.028	7533
263.090	31079
263.151	44298
263.213	18397
263.275	11412
263.336	5129
263.398	4227
263.459	3988
263.521	3869
263.583	10105
263.644	5810
263.706	3383
263.767	2465
263.829	2403
263.891	2426
263.952	2680
264.014	2988
264.075	7229
264.137	11110
264.198	5014
264.260	3057
264.321	3935
264.383	11675
264.444	16950
264.506	5838
264.567	4879
264.629	10927
264.690	14532
264.752	5034
264.813	4567
264.875	3268
264.936	3599
264.998	3404
265.059	3143
265.120	3706
265.182	8850
265.243	33575
265.305	21670
265.366	6859
265.427	4968
265.489	4560
265.550	3029
265.611	4934
265.673	3452
265.734	3755
265.795	3242
265.857	3181
265.918	4611
265.979	12705
266.040	47143
266.102	29019
266.163	10507
266.224	8642
266.286	5360
266.347	3687
266.408	3846
266.469	4489
266.530	3049
266.592	3666
266.653	7995
266.714	9229
266.775	3418
266.836	3646
266.898	3773
266.959	6666
267.020	3805
267.081	4358
267.142	2853
267.203	3963
267.264	1717
267.326	3703
267.387	2927
267.448	1840
267.509	3547
267.570	2183
267.631	2860
267.692	3006
267.753	3585
267.814	3507
267.875	8607
267.936	11456
267.997	8763
268.058	7708
268.119	4089
268.180	4249
268.241	3067
268.302	3742
268.363	3568
268.424	3953
268.485	3382
268.546	3284
268.607	2452
268.668	2822
268.729	2611
268.790	2671
268.851	4081
268.912	10530
268.972	7815
269.033	4981
269.094	2945
269.155	3787
269.216	2398
269.277	3483
269.338	2875
269.398	4235
269.459	3866
269.520	5710
269.581	7146
269.642	6673
269.702	5912
269.763	4210
269.824	4437
269.885	6122
269.945	6392
270.006	3848
270.067	2684
270.128	2859
270.188	2314
270.249	3359
270.310	2255
270.370	2940
270.431	2630
270.492	2550
270.553	3950
270.613	7852
270.674	11805
270.734	4473
270.795	3146
270.856	5255
270.916	3854
270.977	3245
271.038	4639
271.098	4286
271.159	7941
271.219	5724
271.280	3457
271.340	3099
271.401	4145
271.462	7919
271.522	4987
271.583	4349
271.643	3817
271.704	3518
271.764	5718
271.825	14529
271.885	36603
271.946	33406
272.006	14118
272.066	24809
272.127	27131
272.187	8474
272.248	6888
272.308	9237
272.369	21217
272.429	9824
272.489	11341
272.550	8799
272.610	10824
272.671	6732
272.731	7648
272.791	10156
272.852	6395
272.912	6232
272.972	3381
273.033	4675
273.093	5614
273.153	6524
273.214	4710
273.274	6232
273.334	20604
273.394	25278
273.455	11426
273.515	15764
273.575	22962
273.635	10848
273.696	17806
273.756	25486
273.816	10637
273.876	7840
273.936	15193
273.997	17581
274.057	5518
274.117	6946
274.177	12412
274.237	38694
274.297	25032
274.358	20236
274.418	24105
274.478	16341
274.538	6332
274.598	7286
274.658	19917
274.718	20300
274.778	7837
274.838	5460
274.898	15191
274.958	29140
275.018	29837
275.078	16340
275.138	8178
275.198	5068
275.258	3822
275.318	6576
275.378	11557
275.438	11033
275.498	7602
275.558	17866
275.618	28399
275.678	16784
275.738	15078
275.798	9359
275.858	6109
275.918	3307
275.978	5757
276.038	5870
276.098	3672
276.157	11487
276.217	20398
276.277	9217
276.337	7224
276.397	4949
276.457	5359
276.517	4547
276.576	3513
276.636	4342
276.696	8272
276.756	15501
276.815	8499
276.875	5209
276.935	5873
276.995	5422
277.055	3465
277.114	3484
277.174	8174
277.234	15645
277.293	6943
277.353	5197
277.413	3726
277.472	4836
277.532	4671
277.592	5197
277.651	15910
277.711	17349
277.771	9463
277.830	30411
277.890	17805
277.950	19893
278.009	35498
278.069	12914
278.128	18748
278.188	19659
278.248	11649
278.307	24885
278.367	11365
278.426	6655
278.486	4245
278.545	3990
278.605	4266
278.664	4313
278.724	5172
278.783	16861
278.843	24551
278.902	7479
278.962	6785
279.021	6924
279.081	10019
279.140	9191
279.199	7681
279.259	7864
279.318	6234
279.378	10253
279.437	17434
279.496	47025
279.556	109246
279.615	62363
279.675	21663
279.734	17158
279.793	26521
279.853	28479
279.912	10914
279.971	7726
280.031	6761
280.090	14175
280.149	17555
280.208	22087
280.268	80687
280.327	56355
280.386	16693
280.445	17362
280.505	13394
280.564	7479
280.623	6808
280.682	13472
280.742	12645
280.801	5767
280.860	4156
280.919	4109
280.978	3373
281.037	3710
281.097	3427
281.156	3364
281.215	3605
281.274	5845
281.333	19951
281.392	9855
281.451	3280
281.510	3604
281.569	3369
281.628	2764
281.688	2615
281.747	4739
281.806	3460
281.865	3014
281.924	2173
281.983	3154
282.042	1731
282.101	2559
282.160	2413
282.219	3046
282.278	4775
282.337	12698
282.396	6387
282.454	4563
282.513	6748
282.572	18888
282.631	8500
282.690	3538
282.749	2768
282.808	4543
282.867	4581
282.926	5440
282.985	2232
283.043	2178
283.102	2331
283.161	4181
283.220	10999
283.279	15710
283.338	5734
283.396	4364
283.455	4786
283.514	5313
283.573	7649
283.631	4719
283.690	4372
283.749	4510
283.808	9271
283.866	7589
283.925	3416
283.984	4868
284.043	5817
284.101	5825
284.160	3010
284.219	4854
284.277	4468
284.336	10917
284.395	25690
284.453	14787
284.512	8452
284.570	11501
284.629	8496
284.688	8799
284.746	8399
284.805	10581
284.863	12976
284.922	15247
284.981	19572
285.039	29433
285.098	54443
285.156	102173
285.215	124299
285.273	127265
285.332	88903
285.390	52989
285.449	34071
285.507	24207
285.566	17628
285.624	14277
285.683	12011
285.741	10125
285.799	8302
285.858	7227
285.916	7374
285.975	5997
286.033	4833
286.091	4567
286.150	3820
286.208	5002
286.267	5288
286.325	6019
286.383	9317
286.442	7465
286.500	3553
286.558	3732
286.616	3345
286.675	5334
286.733	4697
286.791	3884
286.850	4840
286.908	8150
286.966	9821
287.024	4697
287.083	3602
287.141	2762
287.199	3746
287.257	6169
287.315	4213
287.374	5787
287.432	13676
287.490	7301
287.548	5088
287.606	3777
287.664	3926
287.723	5891
287.781	5997
287.839	5653
287.897	5085
287.955	7011
288.013	11546
288.071	28499
288.129	95359
288.187	164745
288.245	72070
288.303	26299
288.361	16425
288.419	12737
288.477	9046
288.535	6849
288.593	5468
288.651	5275
288.709	2910
288.767	3374
288.825	3002
288.883	3055
288.941	3626
288.999	2953
289.057	2051
289.115	2531
289.173	2937
289.231	2982
289.289	2830
289.346	2766
289.404	4685
289.462	6589
289.520	5674
289.578	2948
289.636	2089
289.694	2531
289.751	2086
289.809	2312
289.867	2846
289.925	5055
289.983	3460
290.040	2570
290.098	2834
290.156	3891
290.214	4033
290.271	3251
290.329	1863
290.387	2005
290.444	2065
290.502	1597
290.560	1902
290.617	1863
290.675	1640
290.733	3081
290.790	3707
290.848	1377
290.906	2577
290.963	3061
291.021	1993
291.078	2355
291.136	3036
291.194	13483
291.251	17147
291.309	5380
291.366	1676
291.424	2313
291.481	2466
291.539	2869
291.596	2727
291.654	1366
291.711	1371
291.769	3574
291.826	5650
291.884	4072
291.941	2452
291.999	1727
292.056	3429
292.114	3207
292.171	2355
292.228	2692
292.286	4167
292.343	7966
292.401	7840
292.458	4986
292.515	3993
292.573	4186
292.630	4102
292.687	4190
292.745	2991
292.802	6137
292.859	13837
292.917	21552
292.974	10185
293.031	4031
293.089	3373
293.146	3047
293.203	2269
293.260	2147
293.318	2878
293.375	5121
293.432	3197
293.489	3229
293.546	2387
293.604	6111
293.661	19239
293.718	32591
293.775	15240
293.832	7580
293.889	6007
293.947	5135
294.004	3836
294.061	6083
294.118	12850
294.175	23713
294.232	22531
294.289	9712
294.346	7966
294.403	7942
294.460	6095
294.517	4756
294.574	3722
294.631	4516
294.688	6491
294.745	16447
294.802	41609
294.859	35520
294.916	12399
294.973	7490
295.030	7466
295.087	6319
295.144	4683
295.201	3985
295.258	3823
295.315	6410
295.372	18842
295.429	25279
295.486	11075
295.542	9102
295.599	22134
295.656	27545
295.713	22344
295.770	23904
295.827	10659
295.883	6529
295.940	5998
295.997	9945
296.054	7540
296.111	4909
296.167	4159
296.224	3325
296.281	3063
296.338	3748
296.394	4292
296.451	5907
296.508	15283
296.564	22829
296.621	18350
296.678	38952
296.734	39990
296.791	16240
296.848	9316
296.904	13308
296.961	25001
297.018	31086
297.074	20109
297.131	9755
297.187	7891
297.244	12514
297.301	35696
297.357	43165
297.414	16677
297.470	7725
297.527	5911
297.583	5481
297.640	4632
297.696	4460
297.753	3970
297.809	3203
297.866	2584
297.922	3843
297.979	2996
298.035	4378
298.092	8077
298.148	19806
298.204	14772
298.261	9686
298.317	20830
298.374	37664
298.430	18800
298.486	11907
298.543	9594
298.599	8582
298.656	10642
298.712	17973
298.768	29777
298.824	18280
298.881	8132
298.937	5153
298.993	4970
299.050	6859
299.106	5075
299.162	6023
299.218	5280
299.275	4444
299.331	6833
299.387	13646
299.443	36091
299.500	27455
299.556	10229
299.612	8250
299.668	5877
299.724	4329
299.780	5081
299.837	5210
299.893	10062
299.949	30457
300.005	29480
300.061	30676
300.117	41000
300.173	19936
300.229	11597
300.285	15241
300.341	15391
300.397	7577
300.453	5496
300.510	4507
300.566	4907
300.622	5360
300.678	10774
300.734	23286
300.790	25812
300.845	29503
300.901	19151
300.957	25936
301.013	18550
301.069	9069
301.125	6658
301.181	7092
301.237	5077
301.293	4182
301.349	3234
301.405	3980
301.461	4806
301.516	6271
301.572	7132
301.628	11732
301.684	9346
301.740	15850
301.796	20099
301.851	16142
301.907	25546
301.963	25399
302.019	45365
302.074	91373
302.130	80116
302.186	39276
302.242	18252
302.297	13544
302.353	13839
302.409	22032
302.464	18137
302.520	18940
302.576	38747
302.631	37939
302.687	21765
302.743	10631
302.798	7083
302.854	6116
302.910	7526
302.965	8638
303.021	14130
303.076	13674
303.132	16913
303.187	17560
303.243	9006
303.299	6087
303.354	5456
303.410	5121
303.465	4976
303.521	4812
303.576	4936
303.632	7326
303.687	13886
303.743	32403
303.798	22748
303.853	11368
303.909	7234
303.964	6528
304.020	11429
304.075	14779
304.130	14872
304.186	24931
304.241	23727
304.297	17570
304.352	9196
304.358	9014
304.407	7532
304.449	6368
304.463	5980
304.518	6744
304.539	6343
304.573	5695
304.629	7333
304.630	7423
304.684	11784
304.720	22363
304.739	27773
304.794	32777
304.811	28456
304.850	17532
304.902	8655
304.905	8109
304.960	6278
304.992	6615
305.015	6903
305.071	7373
305.083	6867
305.126	4892
305.173	4325
305.181	4257
305.236	4078
305.264	4587
305.292	5175
305.347	6395
305.354	6428
305.402	6587
305.445	7264
305.457	7481
305.512	9288
305.535	9399
305.567	9310
305.622	10627
305.626	10891
305.678	17820
305.716	32468
305.733	37885
305.788	37485
305.807	33948
305.843	26961
305.897	34395
305.898	34491
305.953	30586
305.988	22136
306.008	17184
306.063	11988
306.078	10661
306.118	7895
306.168	5458
306.173	5269
306.228	4615
306.259	4192
306.283	4007
306.338	4095
306.349	4312
306.393	5342
306.440	6198
306.448	6271
306.503	6466
306.530	6856
306.558	8958
306.613	19356
306.620	20637
306.668	29132
306.711	37032
306.723	37649
306.778	28405
306.801	22964
306.833	15919
306.888	8673
306.892	8308
306.943	6416
306.982	5356
306.997	5122
307.052	5308
307.072	5394
307.107	5912
307.162	7661
307.163	7688
307.217	11486
307.253	13192
307.272	13449
307.327	14482
307.343	14066
307.381	12554
307.434	11153
307.436	11439
307.491	21840
307.524	30800
307.546	33903
307.600	34134
307.614	31954
307.655	20909
307.704	11259
307.710	11023
307.765	12230
307.795	14705
307.819	18354
307.874	28178
307.885	28869
307.929	24609
307.975	19900
307.984	20530
308.038	29764
308.065	37511
308.093	58740
308.148	113838
308.156	124081
308.202	186295
308.246	224193
308.257	216790
308.312	136959
308.336	105055
308.366	83023
308.421	50575
308.426	47739
308.475	31996
308.517	21625
308.530	20172
308.585	17192
308.607	15919
308.639	15605
308.694	16570
308.697	16705
308.748	25793
308.787	34895
308.803	35481
308.857	30589
308.877	28639
308.912	25997
308.967	23831
308.967	23809
309.021	32478
309.058	39831
309.076	49734
309.130	86638
309.148	100659
309.185	157716
309.238	249952
309.239	251095
309.293	278010
309.328	276371
309.348	245337
309.402	144304
309.418	117507
309.457	85203
309.508	50456
309.511	49704
309.566	40270
309.598	36172
309.620	38398
309.674	45526
309.688	47345
309.729	46267
309.778	42619
309.783	41920
309.837	33215
309.868	28864
309.892	32774
309.946	44655
309.959	48342
310.001	66946
310.049	83618
310.055	80822
310.109	49454
310.139	32290
310.163	26171
310.218	15666
310.229	13720
310.272	11172
310.319	9064
310.326	8950
310.381	8358
310.409	7953
310.435	7588
310.489	6879
310.499	6814
310.543	7113
310.589	7268
310.598	7332
310.652	7898
310.679	8054
310.706	7378
310.760	5806
310.769	5603
310.814	5282
310.859	4778
310.868	4741
310.923	4736
310.948	4713
310.977	5500
311.031	7070
311.038	7292
311.085	7262
311.128	6857
311.139	6770
311.193	6564
311.218	6392
311.247	5965
311.301	5135
311.308	5018
311.356	5023
311.398	5128
311.410	5079
311.464	4718
311.488	4563
311.518	4799
311.572	5234
311.578	5283
311.626	7793
311.668	9980
311.680	9875
311.734	9164
311.758	8840
311.788	8775
311.842	8660
311.847	8631
311.896	10726
311.937	12565
311.950	12680
312.004	13011
312.027	13111
312.058	11281
312.112	7983
312.117	7637
312.165	7030
312.207	6489
312.297	9547
312.386	7939
312.476	7799
312.566	16091
312.656	10172
312.745	4890
312.835	5699
312.925	7056
313.015	6933
313.104	7689
313.194	5830
313.284	6008
313.374	8229
313.463	9049
313.553	6094
313.643	5482
313.732	4833
313.822	4953
313.912	5296
314.001	6737
314.091	6520
314.180	9814
314.270	9215
314.360	10210
314.449	9581
314.539	6604
314.628	4818
314.718	6137
314.808	8091
314.897	5376
314.987	4938
315.076	7464
315.166	10599
315.255	9531
315.345	8781
315.434	8999
315.524	7741
315.613	8387
315.703	11007
315.792	10931
315.881	9075
315.971	9240
316.060	15018
316.150	21820
316.239	22825
316.328	11074
316.418	5472
316.507	5301
316.597	8139
316.686	8074
316.775	9846
316.865	24160
316.954	8112
317.043	4709
317.133	5856
317.222	5509
317.311	5134
317.400	5436
317.490	8315
317.579	9804
317.668	6111
317.757	7942
317.847	11055
317.936	15795
318.025	22772
318.114	13617
318.203	11126
318.293	16194
318.382	34757
318.471	27892
318.560	34494
318.649	58512
318.738	20214
318.828	10449
318.917	13211
319.006	13141
319.095	31451
319.184	72357
319.273	53898
319.362	31068
319.451	11093
319.540	10072
319.629	19550
319.718	37599
319.807	17412
319.896	26724
319.985	88313
320.074	48116
320.163	12536
320.252	16418
320.341	13425
320.430	13586
320.519	16851
320.608	11679
320.697	7927
320.786	8567
320.875	11482
320.964	14551
321.053	23865
321.142	32316
321.230	39422
321.319	25431
321.408	58727
321.497	30396
321.586	23213
321.675	25112
321.764	28081
321.852	18098
321.941	32573
322.030	28032
322.119	22715
322.207	59909
322.296	41696
322.385	20942
322.474	23520
322.562	67454
322.651	46432
322.740	24414
322.829	35564
322.917	32734
323.006	24707
323.095	18630
323.183	14454
323.272	21656
323.361	34546
323.449	90814
323.538	41983
323.626	57617
323.715	48854
323.804	17735
323.892	53790
323.981	45281
324.069	13490
324.158	27428
324.246	36973
324.335	13117
324.424	22510
324.512	10708
324.601	11867
324.689	19308
324.778	38865
324.866	26300
324.954	10446
325.043	8996
325.131	15549
325.220	24973
325.308	29701
325.397	21988
325.485	17498
325.574	5441
325.662	5231
325.750	7250
325.839	6474
325.927	4831
326.015	8114
326.104	9958
326.192	17917
326.280	7201
326.369	6271
326.457	9411
326.545	17941
326.634	10806
326.722	4218
326.810	5377
326.898	5189
326.987	6637
327.075	15928
327.163	18461
327.251	10558
327.340	12553
327.428	21336
327.516	6360
327.604	5008
327.692	5906
327.781	6270
327.869	12532
327.957	9285
328.045	10202
328.133	4885
328.221	6743
328.309	7398
328.397	6024
328.485	8295
328.574	11431
328.662	36216
328.750	25850
328.838	9342
328.926	5713
329.014	5808
329.102	9032
329.190	20196
329.278	18495
329.366	6342
329.454	4604
329.542	5254
329.630	5002
329.718	5807
329.806	8282
329.893	9530
329.981	12190
330.069	21876
330.157	67910
330.245	180757
330.333	122907
330.421	27845
330.509	17911
330.597	46221
330.684	39749
330.772	12512
330.860	14237
330.948	18165
331.036	11112
331.123	4662
331.211	4325
331.299	6641
331.387	13220
331.475	27632
331.562	10932
331.650	5432
331.738	5912
331.825	8573
331.913	5219
332.001	4339
332.089	5830
332.176	12936
332.264	27165
332.352	29482
332.439	10428
332.527	6583
332.614	5306
332.702	7002
332.790	6122
332.877	13057
332.965	29986
333.052	10962
333.140	7654
333.228	18754
333.315	8378
333.403	7180
333.490	15825
333.578	19073
333.665	19980
333.753	14130
333.840	6863
333.928	7320
334.015	17473
334.103	30588
334.190	87998
334.278	32771
334.365	8530
334.452	6777
334.540	4860
334.627	6083
334.715	10081
334.802	18894
334.889	88754
334.977	115047
335.064	14619
335.151	6939
335.239	7336
335.326	11155
335.413	37977
335.501	69372
335.588	12632
335.675	7276
335.762	7278
335.850	14401
335.937	8721
336.024	21996
336.111	96022
336.199	51445
336.286	9174
336.373	5086
336.460	4387
336.547	4380
336.635	6760
336.722	7325
336.809	5829
336.896	9961
336.983	28391
337.070	70580
337.157	97989
337.245	68551
337.332	59662
337.419	9097
337.506	5325
337.593	7632
337.680	21422
337.767	68538
337.854	25283
337.941	23855
338.028	26439
338.115	12559
338.202	10596
338.289	20147
338.376	66572
338.463	32383
338.550	35332
338.637	48319
338.724	13865
338.811	23952
338.898	6994
338.984	5050
339.071	6578
339.158	9535
339.245	23168
339.332	17991
339.419	13982
339.506	16921
339.593	4867
339.679	4770
339.766	4963
339.853	6560
339.940	17897
340.027	7873
340.113	6587
340.200	9227
340.287	7657
340.374	8030
340.460	16413
340.547	7354
340.634	11248
340.720	40315
340.807	32907
340.894	5632
340.980	5430
341.067	5968
341.154	6294
341.240	9180
341.327	23921
341.414	9740
341.500	9392
341.587	5981
341.674	5140
341.760	13094
341.847	20627
341.933	8247
342.020	3021
342.106	3667
342.193	5810
342.279	13420
342.366	8876
342.452	17014
342.539	10062
342.625	18673
342.712	49897
342.798	24597
342.885	10417
342.971	3978
343.058	3096
343.144	3753
343.230	4139
343.317	5007
343.403	3952
343.490	3167
343.576	3252
343.662	4405
343.749	5828
343.835	9272
343.921	13783
344.008	61871
344.094	157879
344.180	47786
344.267	16915
344.353	40101
344.439	54486
344.525	26732
344.612	15499
344.698	15368
344.784	10662
344.870	4768
344.957	5017
345.043	9147
345.129	7023
345.215	14794
345.301	9097
345.387	6595
345.474	3437
345.560	3870
345.646	5675
345.732	5501
345.818	6310
345.904	6194
345.990	5811
346.076	6380
346.162	11962
346.249	6467
346.335	4504
346.421	5468
346.507	17192
346.593	60689
346.679	21876
346.765	6012
346.851	4555
346.937	5772
347.023	4617
347.108	5258
347.194	5882
347.280	5331
347.366	6489
347.452	17342
347.538	68494
347.624	60353
347.710	52916
347.796	10870
347.882	5798
347.967	4311
348.053	6642
348.139	6211
348.225	4014
348.311	4669
348.397	4407
348.482	5296
348.568	8216
348.654	3671
348.740	3300
348.825	3281
348.911	8267
348.997	30844
349.083	70834
349.168	16327
349.254	7115
349.340	5791
349.425	3457
349.511	6319
349.597	8696
349.682	14745
349.768	46561
349.854	29356
349.939	5368
350.025	3762
350.110	4887
350.196	3864
350.282	3032
350.367	3479
350.453	7089
350.538	10099
350.624	6654
350.709	7618
350.795	4442
350.880	5787
350.966	5675
351.051	7909
351.137	7231
351.222	6218
351.308	14662
351.393	45979
351.479	16257
351.564	6087
351.649	4814
351.735	3935
351.820	3431
351.906	4922
351.991	7677
352.076	26077
352.162	49134
352.247	11767
352.332	6791
352.418	13822
352.503	18171
352.588	59008
352.673	66097
352.759	15262
352.844	7719
352.929	7782
353.014	11526
353.100	6350
353.185	7321
353.270	16117
353.355	20211
353.441	6684
353.526	6433
353.611	14785
353.696	21640
353.781	12695
353.866	6402
353.952	6081
354.037	15324
354.122	38089
354.207	36222
354.292	16289
354.377	6256
354.462	4856
354.547	6599
354.632	7190
354.717	7807
354.802	8088
354.887	5682
354.972	3978
355.057	3855
355.142	3430
355.227	6415
355.312	10418
355.397	24668
355.482	57865
355.567	36638
355.652	19829
355.737	22099
355.822	51900
355.907	56325
355.991	10472
356.076	5633
356.161	5828
356.246	4889
356.331	5619
356.416	12648
356.501	71149
356.585	99755
356.670	20144
356.755	10660
356.840	14094
356.924	50965
357.009	195387
357.094	103757
357.179	24136
357.263	16498
357.348	13273
357.433	14590
357.517	13168
357.602	11282
357.687	8727
357.771	11898
357.856	39020
357.941	30403
358.025	42586
358.110	182813
358.195	118585
358.279	23068
358.364	14517
358.448	40052
358.533	112135
358.617	93297
358.702	81690
358.787	38549
358.871	19474
358.956	17527
359.040	6898
359.125	5973
359.209	5841
359.294	17574
359.378	35843
359.462	15903
359.547	9166
359.631	6410
359.716	4685
359.800	4384
359.885	8395
359.969	7323
360.053	6149
360.138	6488
360.222	9057
360.306	17691
360.391	16136
360.475	21950
360.559	57515
360.644	47152
360.728	39134
360.812	39715
360.896	125078
360.981	66539
361.065	39779
361.149	11296
361.233	9321
361.318	7652
361.402	8143
361.486	7949
361.570	6371
361.654	8656
361.739	20768
361.823	74310
361.907	133546
361.991	32667
362.075	14883
362.159	34962
362.243	26657
362.327	14139
362.411	11281
362.495	9286
362.580	7325
362.664	3764
362.748	3747
362.832	4929
362.916	5719
363.000	14412
363.084	61241
363.168	145267
363.252	47612
363.336	15010
363.420	18654
363.503	56887
363.587	85436
363.671	19583
363.755	11151
363.839	17477
363.923	9560
364.007	16224
364.091	21219
364.175	20640
364.258	88664
364.342	58601
364.426	18969
364.510	13561
364.594	16540
364.677	22424
364.761	98182
364.845	91593
364.929	32211
365.013	29224
365.096	20835
365.180	27903
365.264	24660
365.347	96975
365.431	53701
365.515	15419
365.598	7833
365.682	6483
365.766	11362
365.849	16653
365.933	8187
366.017	10450
366.100	9689
366.184	4030
366.267	5214
366.351	4983
366.435	4954
366.518	3521
366.602	3502
366.685	4649
366.769	6104
366.852	10654
366.936	21743
367.019	14254
367.103	8987
367.186	16304
367.270	7293
367.353	4299
367.436	4903
367.520	4744
367.603	6146
367.687	10486
367.770	23121
367.853	12624
367.937	27873
368.020	59713
368.104	18899
368.187	14002
368.270	24247
368.353	22485
368.437	22350
368.520	48387
368.603	36790
368.687	39120
368.770	82373
368.853	25368
368.936	19500
369.020	21697
369.103	9264
369.186	5810
369.269	6736
369.352	12797
369.436	21970
369.519	14553
369.602	7716
369.685	6246
369.768	7770
369.851	6464
369.934	4970
370.018	6671
370.101	17337
370.184	15426
370.267	8779
370.350	16042
370.433	25904
370.516	52312
370.599	68823
370.682	23528
370.765	44759
370.848	55706
370.931	94485
371.014	45296
371.097	10258
371.180	7213
371.263	4389
371.346	4257
371.429	4240
371.511	4916
371.594	10990
371.677	17736
371.760	19893
371.843	17849
371.926	61130
372.009	169088
372.091	69959
372.174	36195
372.257	79855
372.340	39891
372.423	25618
372.505	32600
372.588	15674
372.671	25465
372.754	89732
372.836	57349
372.919	30293
373.002	66138
373.085	26968
373.167	16051
373.250	39436
373.332	83281
373.415	100980
373.498	221880
373.580	104592
373.663	84233
373.746	143739
373.828	45053
373.911	17861
373.993	17329
374.076	55102
374.159	66070
374.241	26940
374.324	78363
374.406	64328
374.489	54035
374.571	173467
374.654	92125
374.736	36433
374.819	102236
374.901	147912
374.983	175574
375.066	42185
375.148	12883
375.231	40360
375.313	97462
375.395	43800
375.478	11377
375.560	6304
375.643	9307
375.725	28595
375.807	126966
375.890	120416
375.972	55165
376.054	27164
376.136	39635
376.219	22677
376.301	31835
376.383	116933
376.465	57889
376.548	34211
376.630	36149
376.712	98060
376.794	60029
376.877	8920
376.959	4845
377.041	6331
377.123	12597
377.205	17122
377.287	5279
377.369	4333
377.452	5297
377.534	5695
377.616	5192
377.698	5580
377.780	3850
377.862	5849
377.944	5051
378.026	3683
378.108	3425
378.190	3915
378.272	4408
378.354	2657
378.436	3146
378.518	6794
378.600	28960
378.682	27524
378.764	53013
378.846	54141
378.928	15247
379.010	20552
379.091	12458
379.173	5611
379.255	4979
379.337	8701
379.419	23259
379.501	80114
379.583	40827
379.664	9850
379.746	20943
379.828	55240
379.910	79932
379.991	75283
380.073	16953
380.155	8429
380.237	7989
380.318	4563
380.400	5227
380.482	11963
380.564	24369
380.645	18304
380.727	18243
380.809	11754
380.890	8131
380.972	5887
381.053	5445
381.135	7446
381.217	16298
381.298	60486
381.380	37340
381.461	22708
381.543	89315
381.624	143400
381.706	33548
381.787	14133
381.869	15211
381.951	35740
382.032	154290
382.113	126979
382.195	32842
382.276	17283
382.358	27026
382.439	88728
382.521	96468
382.602	158574
382.684	81277
382.765	127829
382.846	148289
382.928	172064
383.009	114573
383.090	72526
383.172	221496
383.253	384549
383.334	159605
383.416	143921
383.497	88132
383.578	40621
383.659	67735
383.741	198699
383.822	523879
383.903	331501
383.984	116424
384.066	179856
384.147	137653
384.228	33197
384.309	20559
384.390	16071
384.471	10581
384.553	11588
384.634	16443
384.715	19762
384.796	9580
384.877	12298
384.958	45844
385.039	72253
385.120	30547
385.201	11676
385.282	13277
385.363	12815
385.444	12252
385.525	19082
385.606	64832
385.687	69791
385.768	18339
385.849	19072
385.930	68084
386.011	145814
386.092	50777
386.173	12045
386.254	7948
386.335	7964
386.416	9912
386.496	30270
386.577	63876
386.658	24894
386.739	14216
386.820	11448
386.901	9571
386.981	8753
387.062	5652
387.143	10743
387.224	49454
387.304	58606
387.385	20161
387.466	11034
387.547	13221
387.627	9675
387.708	15911
387.789	83680
387.869	122803
387.950	38286
388.031	7276
388.111	5726
388.192	15773
388.273	24393
388.353	18312
388.434	10329
388.514	15686
388.595	70979
388.676	115611
388.756	65564
388.837	55524
388.917	44033
388.998	10033
389.078	7779
389.159	6530
389.239	5643
389.320	9569
389.400	10553
389.480	16573
389.561	56646
389.641	34996
389.722	9858
389.802	18760
389.883	22442
389.963	62409
390.043	47928
390.124	16956
390.204	17553
390.284	65655
390.365	52120
390.445	41058
390.525	120149
390.605	131957
390.686	47887
390.766	14511
390.846	7078
390.927	4639
391.007	6333
391.087	5888
391.167	6238
391.247	5444
391.328	8820
391.408	14935
391.488	11734
391.568	3860
391.648	7107
391.728	12487
391.808	11187
391.888	13166
391.969	25817
392.049	55107
392.129	25249
392.209	19737
392.289	60923
392.369	38577
392.449	27532
392.529	18958
392.609	12532
392.689	13580
392.769	51915
392.849	55708
392.929	26990
393.009	74619
393.089	59829
393.169	17435
393.248	32727
393.328	185860
393.408	276815
393.488	63357
393.568	16668
393.648	11063
393.728	7817
393.807	6754
393.887	8088
393.967	8622
394.047	11915
394.127	18104
394.206	30536
394.286	93141
394.366	367268
394.446	493494
394.525	173072
394.605	45656
394.685	26733
394.764	40408
394.844	68550
394.924	56877
395.003	19107
395.083	12287
395.163	11887
395.242	9644
395.322	11573
395.402	8376
395.481	11051
395.561	23390
395.640	75644
395.720	58607
395.799	76354
395.879	82488
395.958	54381
396.038	144384
396.117	480413
396.197	621976
396.276	272216
396.356	90630
396.435	50870
396.515	29726
396.594	24181
396.673	26978
396.753	49028
396.832	200343
396.912	222201
396.991	77641
397.070	17741
397.150	9865
397.229	7696
397.308	5851
397.388	6631
397.467	5668
397.546	4123
397.625	4334
397.705	7395
397.784	9716
397.863	5724
397.942	3635
398.022	3469
398.101	14863
398.180	67615
398.259	43230
398.338	11190
398.417	7344
398.497	5379
398.576	5144
398.655	3308
398.734	2933
398.813	4197
398.892	14352
398.971	69666
399.050	45242
399.129	6287
399.208	2126
399.287	3219
399.366	3175
399.445	2090
399.524	3151
399.603	2823
399.682	7004
399.761	22066
399.840	70547
399.919	70709
399.998	10919
400.077	2752
400.156	1991
400.235	4468
400.313	3410
400.392	4593
400.471	23476
400.550	57406
400.629	18898
400.708	6354
400.786	5173
400.865	13816
400.944	20408
401.023	10604
401.102	2144
401.180	1609
401.259	1840
401.338	4179
401.416	5470
401.495	6336
401.574	3578
401.652	3162
401.731	5249
401.810	4722
401.888	2494
401.967	618
402.046	2426
402.124	4395
402.203	8180
402.281	4853
402.360	5131
402.438	18547
402.517	18621
402.596	4993
402.674	4126
402.753	2842
402.831	2386
402.910	2344
402.988	8170
403.066	32320
403.145	23385
403.223	11405
403.302	27573
403.380	20497
403.459	17269
403.537	8605
403.615	3262
403.694	396
403.772	1672
403.850	604
403.929	1246
404.007	1250
404.085	3962
404.164	5124
404.242	3730
404.320	13515
404.398	55857
404.477	72234
404.555	123415
404.633	141213
404.711	57498
404.789	35217
404.868	9285
404.946	3366
405.024	1983
405.102	1443
405.180	2058
405.258	1907
405.336	2063
405.415	2420
405.493	7181
405.571	6001
405.649	936
405.727	1533
405.805	5098
405.883	4089
405.961	2868
406.039	6194
406.117	2971
406.195	5025
406.273	22456
406.351	108283
406.429	85574
406.507	15349
406.585	4610
406.663	3955
406.740	6254
406.818	5689
406.896	3212
406.974	2611
407.052	7472
407.130	54275
407.208	107488
407.285	27705
407.363	4632
407.441	3935
407.519	3339
407.596	3214
407.674	7317
407.752	16889
407.830	22540
407.907	13568
407.985	3824
408.063	1817
408.141	1455
408.218	4482
408.296	4447
408.373	3242
408.451	3407
408.529	5256
408.606	1689
408.684	340
408.762	17
408.839	-298
408.917	-219
408.994	920
409.072	751
409.149	208
409.227	1180
409.304	2929
409.382	622
409.459	-109
409.537	1388
409.614	2248
409.692	897
409.769	740
409.846	1625
409.924	3275
410.001	3644
410.079	2568
410.156	2425
410.233	2142
410.311	2957
410.388	1314
410.465	2223
410.543	3160
410.620	1763
410.697	1958
410.775	3769
410.852	468
410.929	2380
411.006	6077
411.083	2568
411.161	7346
411.238	10855
411.315	4769
411.392	1356
411.469	3679
411.547	5579
411.624	1875
411.701	2162
411.778	2144
411.855	9820
411.932	6341
412.009	1533
412.086	1022
412.163	2741
412.240	3076
412.317	4571
412.394	4646
412.471	1877
412.548	890
412.625	780
412.702	2065
412.779	7558
412.856	7125
412.933	558
413.010	692
413.087	4064
413.164	22295
413.241	49084
413.318	14134
413.395	5069
413.471	9390
413.548	5171
413.625	1684
413.702	2871
413.779	3211
413.855	130
413.932	130
414.009	-363
414.086	514
414.162	313
414.239	3082
414.316	20688
414.393	67027
414.469	32702
414.546	2870
414.623	1041
414.699	673
414.776	2511
414.853	2004
414.929	2326
415.006	2055
415.082	2338
415.159	1935
415.236	1719
415.312	1956
415.389	4601
415.465	9779
415.542	5420
415.618	2258
415.695	5752
415.771	3247
415.848	3385
415.924	2650
416.000	1332
416.077	1369
416.153	18
416.230	9
416.306	124
416.383	684
416.459	685
416.535	-218
416.612	231
416.688	717
416.764	216
416.841	936
416.917	690
416.993	1083
417.069	2016
417.146	5241
417.222	12422
417.298	7428
417.374	2133
417.451	2478
417.527	3473
417.603	4779
417.679	3321
417.755	1681
417.831	512
417.908	762
417.984	465
418.060	133
418.136	6004
418.212	12609
418.288	3655
418.364	1617
418.440	744
418.516	3840
418.592	5199
418.668	11882
418.744	21024
418.820	17258
418.896	4133
418.972	669
419.048	934
419.124	7091
419.200	8073
419.276	1353
419.352	-405
419.428	231
419.504	1175
419.579	3854
419.655	2276
419.731	2122
419.807	8924
419.883	24245
419.959	20938
420.034	5100
420.110	6419
420.186	35122
420.262	39780
420.337	6229
420.413	4318
420.489	1748
420.565	399
420.640	662
420.716	1074
420.792	-287
420.867	1562
420.943	-46
421.019	3696
421.094	4045
421.170	932
421.245	-904
421.321	681
421.397	-80
421.472	2082
421.548	6048
421.623	8658
421.699	3397
421.774	2158
421.850	1093
421.925	5476
422.001	5473
422.076	888
422.152	1501
422.227	4652
422.302	5397
422.378	4608
422.453	7649
422.529	15052
422.604	61073
422.679	195797
422.755	138560
422.830	34292
422.905	7895
422.981	2938
423.056	2297
423.131	1450
423.207	766
423.282	2088
423.357	10452
423.432	8122
423.508	3930
423.583	16197
423.658	18742
423.733	3737
423.808	3258
423.883	4693
423.959	4696
424.034	2327
424.109	730
424.184	113
424.259	42
424.334	158
424.409	245
424.484	319
424.559	1073
424.634	772
424.709	2198
424.784	4265
424.859	2499
424.934	3901
425.009	21849
425.084	49854
425.159	25085
425.234	2457
425.309	665
425.384	6513
425.459	19024
425.534	7425
425.609	1176
425.683	1069
425.758	664
425.833	991
425.908	2028
425.983	10184
426.058	49171
426.132	31745
426.207	5118
426.282	5017
426.357	6086
426.431	1140
426.506	1262
426.581	949
426.655	801
426.730	489
426.805	1063
426.879	2578
426.954	1364
427.029	4674
427.103	29498
427.178	103008
427.253	64058
427.327	9461
427.402	5252
427.476	18983
427.551	14216
427.625	3090
427.700	2587
427.774	955
427.849	2015
427.923	-362
427.998	100
428.072	60
428.147	3736
428.221	11643
428.296	25498
428.370	11847
428.444	2301
428.519	4899
428.593	13322
428.667	13961
428.742	14121
428.816	12308
428.890	18911
428.965	36065
429.039	20227
429.113	17823
429.188	8736
429.262	1140
429.336	3135
429.410	19363
429.485	18554
429.559	11523
429.633	11472
429.707	2293
429.781	4583
429.855	25661
429.930	51211
430.004	40333
430.078	66017
430.152	60967
430.226	30118
430.300	34452
430.374	7547
430.448	3026
430.522	14533
430.596	65168
430.670	49166
430.744	42298
430.818	110276
430.892	40303
430.966	4901
431.040	1609
431.114	165
431.188	352
431.262	930
431.336	661
431.410	4359
431.484	18183
431.557	18345
431.631	2246
431.705	3
431.779	954
431.853	10682
431.927	13065
432.000	1803
432.074	500
432.148	1198
432.222	2437
432.295	939
432.369	661
432.443	2827
432.516	24433
432.590	99648
432.664	58313
432.737	7603
432.811	1523
432.885	-382
432.958	190
433.032	690
433.106	-249
433.179	-953
433.253	-283
433.326	-213
433.400	-235
433.473	-449
433.547	-436
433.620	-166
433.694	3428
433.767	5294
433.841	1538
433.914	398
433.988	1
434.061	-173
434.134	200
434.208	-798
434.281	-772
434.355	-1241
434.428	-143
434.501	-232
434.575	-61
434.648	-186
434.721	-245
434.795	-496
434.868	-637
434.941	-419
435.014	-968
435.088	-431
435.161	1307
435.234	1852
435.307	5521
435.381	2563
435.454	-178
435.527	103
435.600	-575
435.673	-264
435.746	-472
435.819	-154
435.892	-153
435.966	-484
436.039	113
436.112	725
436.185	-1154
436.258	-586
436.331	-755
436.404	-982
436.477	-1061
436.550	-839
436.623	-728
436.696	-1137
436.769	290
436.842	493
436.915	642
436.987	2265
437.060	854
437.133	-767
437.206	-882
437.279	569
437.352	237
437.425	-552
437.498	807
437.570	4361
437.643	7157
437.716	1791
437.789	-6
437.861	1836
437.934	13074
438.007	10251
438.080	1077
438.152	1345
438.225	3452
438.298	28993
438.370	129275
438.443	88514
438.516	22347
438.588	5500
438.661	681
438.734	468
438.806	657
438.879	1212
438.951	2122
439.024	7277
439.096	3112
439.169	-153
439.241	217
439.314	29
439.386	1267
439.459	4168
439.531	6737
439.604	4334
439.676	827
439.749	144
439.821	-579
439.893	-197
439.966	-106
440.038	853
440.110	1982
440.183	1198
440.255	-211
440.327	2028
440.400	10899
440.472	75096
440.544	84896
440.617	15727
440.689	5214
440.761	5506
440.833	12822
440.905	9698
440.978	1588
441.050	4
441.122	220
441.194	-566
441.266	-465
441.338	-186
441.411	1807
441.483	19593
441.555	51868
441.627	17625
441.699	4263
441.771	4185
441.843	1090
441.915	55
441.987	155
442.059	-208
442.131	494
442.203	2661
442.275	2936
442.347	2861
442.419	997
442.491	2053
442.563	8740
442.635	8891
442.706	15218
442.778	20517
442.850	4591
442.922	-497
442.994	177
443.066	1889
443.137	2486
443.209	513
443.281	318
443.353	1704
443.425	6763
443.496	16751
443.568	21728
443.640	8963
443.711	2683
443.783	531
443.855	970
443.926	6
443.998	-322
444.070	1276
444.141	1379
444.213	3279
444.285	5519
444.356	4620
444.428	3594
444.499	988
444.571	-572
444.642	-213
444.714	167
444.785	3123
444.857	4811
444.928	11513
445.000	9558
445.071	6108
445.143	9856
445.214	3793
445.285	3342
445.357	15156
445.428	20859
445.500	39324
445.571	39121
445.642	16509
445.714	10351
445.785	21828
445.856	8719
445.928	5212
445.999	6147
446.070	4698
446.141	3242
446.213	5682
446.284	2595
446.355	2078
446.426	984
446.497	-39
446.569	1885
446.640	5494
446.711	6359
446.782	2144
446.853	1596
446.924	2565
446.995	2066
447.066	1379
447.138	3625
447.209	1825
447.280	87
447.351	-608
447.422	-278
447.493	878
447.564	2741
447.635	4556
447.706	2528
447.777	-356
447.847	-151
447.918	-1177
447.989	1562
448.060	3029
448.131	7787
448.202	10037
448.273	7462
448.344	3418
448.414	540
448.485	377
448.556	154
448.627	-476
448.698	-224
448.768	122
448.839	190
448.910	2636
448.981	4601
449.051	2072
449.122	505
449.193	-193
449.263	-208
449.334	246
449.405	1495
449.475	6552
449.546	7244
449.616	3903
449.687	5554
449.758	1646
449.828	1201
449.899	-208
449.969	133
450.040	286
450.110	1432
450.181	2219
450.251	509
450.322	1023
450.392	1006
450.463	391
450.533	321
450.604	539
450.674	1035
450.744	261
450.815	-28
450.885	148
450.955	-316
451.026	-525
451.096	-100
451.166	913
451.237	2488
451.307	13023
451.377	9558
451.447	1193
451.518	-191
451.588	-354
451.658	778
451.728	2005
451.799	10513
451.869	21036
451.939	7337
452.009	1319
452.079	-108
452.149	316
452.219	1868
452.289	13937
452.360	18615
452.430	4440
452.500	1189
452.570	2290
452.640	1436
452.710	4942
452.780	16655
452.850	13300
452.920	16721
452.990	7982
453.060	1152
453.129	3027
453.199	4941
453.269	11539
453.339	50593
453.409	89693
453.479	63140
453.549	97143
453.619	114414
453.688	67800
453.758	13405
453.828	2464
453.898	1741
453.968	1293
454.037	862
454.087	1391
454.107	1585
454.168	474
454.177	280
454.247	1011
454.249	1014
454.316	474
454.330	569
454.386	871
454.411	2704
454.456	5256
454.492	10596
454.525	15218
454.574	9733
454.595	7397
454.655	2711
454.665	1957
454.734	1443
454.736	1568
454.804	4944
454.817	6705
454.873	12734
454.898	16522
454.943	22413
454.979	16202
455.013	10786
455.060	5957
455.082	4150
455.141	3966
455.152	3944
455.221	9611
455.222	9948
455.291	27280
455.303	27798
455.360	29439
455.384	38862
455.430	50740
455.465	45845
455.499	41489
455.546	26488
455.569	19527
455.627	15375
455.638	14736
455.707	4944
455.708	4949
455.777	1224
455.789	1373
455.846	1821
455.869	1884
455.916	1980
455.950	1592
455.985	1207
456.031	1680
456.054	1856
456.112	1976
456.124	1970
456.193	1315
456.193	1288
456.262	1667
456.274	1883
456.332	2581
456.355	3019
456.401	3409
456.436	2912
456.470	2352
456.516	1698
456.540	1430
456.597	845
456.609	699
456.678	1305
456.678	1287
456.747	980
456.759	994
456.817	708
456.840	835
456.886	1178
456.920	965
456.955	838
457.001	1394
457.024	1804
457.082	2688
457.093	2905
457.162	4340
457.163	4387
457.232	5899
457.243	5832
457.301	4125
457.324	2912
457.370	1618
457.405	1726
457.439	1757
457.485	1329
457.508	1277
457.566	2287
457.577	2461
457.646	3025
457.647	3050
457.715	3371
457.727	3478
457.784	3273
457.808	3054
457.853	3006
457.889	3564
457.922	3832
457.969	3679
457.991	3715
458.050	4459
458.060	4501
458.129	5165
458.130	5184
458.198	4640
458.211	4581
458.267	3743
458.292	3171
458.336	2624
458.372	2336
458.405	2336
458.453	3085
458.474	3637
458.533	4577
458.543	4682
458.611	7423
458.614	7524
458.680	6950
458.694	6444
458.749	4547
458.775	3529
458.818	2565
458.855	2657
458.887	2666
458.936	2393
458.955	2391
459.016	2726
459.024	2723
459.093	2633
459.097	2672
459.162	3797
459.177	3972
459.230	4228
459.257	4696
459.299	5468
459.338	5619
459.368	5632
459.418	6529
459.437	6360
459.499	4976
459.505	4943
459.574	3937
459.579	3944
459.643	3856
459.659	3815
459.711	4220
459.740	4542
459.780	4670
459.820	4712
459.849	4677
459.900	5314
459.917	5534
459.981	5488
459.986	5449
460.054	5057
460.061	5073
460.123	5872
460.141	5991
460.191	6797
460.222	7509
460.260	8419
460.302	9961
460.328	9403
460.382	7971
460.397	7962
460.462	6251
460.465	6212
460.534	6614
460.543	6716
460.602	14092
460.623	16712
460.671	27371
460.703	36729
460.739	36536
460.783	36155
460.808	30852
460.864	9984
460.876	8788
460.944	5817
460.945	5785
461.013	5788
461.024	5850
461.081	6659
461.104	6998
461.150	6239
461.184	5588
461.218	5483
461.264	5303
461.286	5214
461.345	5219
461.355	5310
461.423	5941
461.425	5947
461.491	4865
461.505	4780
461.559	8096
461.585	9724
461.628	17639
461.665	24900
461.696	29200
461.745	38779
461.764	33985
461.825	14570
461.832	14435
461.901	8189
461.905	8036
461.969	6171
461.985	5962
462.037	6137
462.065	5936
462.105	5625
462.145	5585
462.173	8278
462.225	13300
462.241	15077
462.305	23596
462.310	23127
462.378	16347
462.385	15204
462.446	9902
462.465	7981
462.514	6681
462.545	6828
462.582	6591
462.625	6356
462.650	6367
462.705	6268
462.718	6266
462.785	6274
462.786	6338
462.854	9997
462.865	10577
462.922	12476
462.945	13582
462.990	11213
463.025	8727
463.058	7683
463.104	5797
463.126	5586
463.184	5522
463.194	5634
463.262	6554
463.264	6589
463.330	6950
463.344	6942
463.398	7293
463.424	7492
463.466	7453
463.504	7477
463.533	7585
463.583	7719
463.601	7955
463.663	8738
463.669	8938
463.737	10722
463.743	10953
463.805	15441
463.823	16706
463.873	25652
463.903	30968
463.940	35023
463.982	40940
464.008	34226
464.062	18053
464.076	16804
464.142	8473
464.144	8406
464.211	7137
464.221	7069
464.279	7496
464.301	7647
464.347	8393
464.381	8980
464.414	9883
464.461	11197
464.482	11743
464.540	13196
464.550	12998
464.617	11174
464.620	11091
464.685	11647
464.699	11796
464.753	15256
464.779	17058
464.820	19012
464.859	20808
464.888	20067
464.938	18428
464.956	18438
465.018	18524
465.023	18318
465.091	15212
465.098	14852
465.158	15084
465.177	15200
465.226	15718
465.257	16020
465.293	16019
465.336	15825
465.361	16936
465.416	19416
465.428	20051
465.495	23511
465.496	23621
465.563	34888
465.575	36802
465.631	47397
465.654	52101
465.698	37215
465.734	24264
465.765	21055
465.813	15362
465.833	15059
465.893	14946
465.900	14941
465.968	14890
465.972	14852
466.035	15316
466.052	15435
466.102	15346
466.131	15260
466.170	15730
466.210	16129
466.237	16287
466.290	16553
466.304	16924
466.369	18346
466.372	18402
466.439	19171
466.449	19223
466.506	20399
466.528	20827
466.573	24930
466.607	27897
466.641	38663
466.687	53619
466.708	60899
466.766	80869
466.775	76131
466.842	39569
466.845	37749
466.909	26652
466.925	23969
466.977	23345
467.004	23095
467.044	23533
467.083	23895
467.111	26217
467.163	30455
467.178	31507
467.242	35585
467.245	35447
467.312	31135
467.321	30501
467.379	29245
467.400	28701
467.446	29100
467.480	29289
467.559	27964
467.638	24212
467.717	23282
467.796	24713
467.875	27839
467.955	26391
468.034	29022
468.113	57420
468.192	91154
468.271	39861
468.350	21047
468.429	19819
468.508	20054
468.588	18796
468.667	20288
468.746	22567
468.825	21835
468.904	18995
468.983	19593
469.062	28778
469.141	36277
469.220	21484
469.299	17495
469.378	21903
469.456	25937
469.535	24687
469.614	22291
469.693	22457
469.772	26207
469.851	32439
469.930	29817
470.009	21207
470.088	21047
470.166	22363
470.245	25949
470.324	31935
470.403	27689
470.482	23019
470.560	19095
470.639	21013
470.718	23578
470.797	21079
470.875	20882
470.954	27283
471.033	32483
471.111	18966
471.190	17245
471.269	15674
471.347	16656
471.426	16966
471.505	19618
471.583	23302
471.662	21306
471.740	18852
471.819	18122
471.898	18380
471.976	18338
472.055	18236
472.133	18894
472.212	22436
472.290	24470
472.369	19230
472.447	16417
472.526	16440
472.604	17445
472.683	18117
472.761	19676
472.839	18800
472.918	16886
472.996	16995
473.075	18150
473.153	19157
473.231	15716
473.310	18704
473.388	19082
473.466	17264
473.545	20572
473.623	26858
473.701	27426
473.780	18644
473.858	17062
473.936	19892
474.014	17104
474.093	18768
474.171	22427
474.249	31738
474.327	26861
474.405	15668
474.484	15498
474.562	15777
474.640	16901
474.718	16625
474.796	18730
474.874	17925
474.952	16487
475.030	16786
475.108	16087
475.187	18394
475.265	18662
475.343	19362
475.421	21826
475.499	18056
475.577	17342
475.655	19226
475.733	31332
475.811	54782
475.889	54615
475.966	45530
476.044	15963
476.122	16301
476.200	18136
476.278	17940
476.356	14201
476.434	15375
476.512	15795
476.590	17688
476.667	18782
476.745	14476
476.823	15602
476.901	14745
476.979	15264
477.056	14309
477.134	15648
477.212	17194
477.290	16072
477.367	14198
477.445	12490
477.523	14358
477.601	14191
477.678	13570
477.756	15839
477.834	17762
477.911	14268
477.989	14011
478.066	11920
478.144	14923
478.222	15005
478.299	15737
478.377	16921
478.454	14209
478.532	12096
478.609	13361
478.687	15964
478.764	13859
478.842	14519
478.919	15694
478.997	15017
479.074	12494
479.152	13784
479.229	18830
479.307	13731
479.384	10568
479.461	11785
479.539	12425
479.616	14952
479.694	13034
479.771	13936
479.848	14853
479.926	16600
480.003	21757
480.080	13238
480.157	11722
480.235	11395
480.312	12082
480.389	12805
480.467	18499
480.544	26592
480.621	17694
480.698	13574
480.775	16479
480.853	15388
480.930	13427
481.007	13251
481.084	15516
481.161	15815
481.238	15128
481.315	12064
481.392	12829
481.470	12421
481.547	13191
481.624	12214
481.701	12779
481.778	11977
481.855	13340
481.932	15684
482.009	30026
482.086	27757
482.163	12056
482.240	12646
482.317	15993
482.393	16165
482.470	12083
482.547	11890
482.624	11741
482.701	12310
482.778	12730
482.855	11472
482.932	10873
483.009	9732
483.085	11328
483.162	13755
483.239	14187
483.316	10563
483.393	10814
483.469	10308
483.546	12288
483.623	15273
483.699	12079
483.776	12441
483.853	14314
483.930	18212
484.006	39916
484.083	81003
484.160	58243
484.236	84765
484.313	77544
484.389	53837
484.466	44350
484.543	42189
484.619	41341
484.696	41728
484.772	43184
484.849	47040
484.925	41735
485.002	39981
485.078	41601
485.155	42821
485.231	38759
485.308	38545
485.384	38415
485.461	40717
485.537	56933
485.614	77149
485.690	43453
485.766	36787
485.843	37653
485.919	48153
485.995	55989
486.072	35668
486.148	34131
486.224	32913
486.301	33076
486.377	37338
486.453	39259
486.530	38163
486.606	46725
486.682	59029
486.758	58217
486.835	68164
486.911	54430
486.987	73088
487.063	88170
487.139	113572
487.215	90206
487.292	50836
487.368	38156
487.444	39244
487.520	41878
487.596	42212
487.672	38016
487.748	44349
487.824	62484
487.900	44030
487.976	34298
488.052	36097
488.128	44720
488.204	41873
488.280	35957
488.356	35544
488.432	56192
488.508	99865
488.584	54313
488.660	34109
488.736	33458
488.812	34294
488.888	43120
488.964	50588
489.039	89602
489.115	158290
489.191	124558
489.267	38262
489.343	32968
489.418	29505
489.494	27450
489.570	27392
489.646	28765
489.722	28021
489.797	28552
489.873	33231
489.949	65498
490.024	76226
490.100	30183
490.176	26480
490.251	30747
490.327	41721
490.403	31659
490.478	26661
490.554	23151
490.629	23104
490.705	22320
490.781	24672
490.856	24512
490.932	27594
491.007	28962
491.083	29127
491.158	26064
491.234	27174
491.309	49152
491.385	66333
491.460	30846
491.536	25838
491.611	27167
491.686	26610
491.762	34186
491.837	56872
491.913	107329
491.988	127874
492.063	215051
492.139	75602
492.214	37616
492.289	23965
492.365	20829
492.440	25629
492.515	24146
492.590	23610
492.666	20286
492.741	22815
492.816	35090
492.891	25910
492.967	21499
493.042	18163
493.117	22588
493.192	24394
493.267	32772
493.342	100732
493.418	199062
493.493	54689
493.568	20349
493.643	17460
493.718	22325
493.793	28283
493.868	37838
493.943	27548
494.018	20453
494.093	18117
494.168	17197
494.243	17177
494.318	15479
494.393	15815
494.468	16740
494.543	15650
494.618	18922
494.693	19055
494.768	15270
494.842	17609
494.917	16093
494.992	16568
495.067	17538
495.142	15393
495.217	18457
495.292	17140
495.366	20060
495.441	25554
495.516	31610
495.591	37837
495.665	94966
495.740	306635
495.815	205987
495.890	35630
495.964	23000
496.039	23020
496.114	22003
496.188	21919
496.263	23155
496.338	21997
496.412	22064
496.487	27563
496.561	28518
496.636	32132
496.710	25891
496.785	25576
496.860	30327
496.934	27414
497.009	25147
497.083	26469
497.158	27136
497.232	29257
497.307	36236
497.381	33143
497.455	35652
497.530	45204
497.604	39987
497.679	37797
497.753	51085
497.827	69497
497.902	69621
497.976	75112
498.050	103067
498.125	346108
498.199	570555
498.273	134612
498.348	86858
498.422	73728
498.496	67681
498.570	63841
498.645	48929
498.719	45990
498.793	47856
498.867	57604
498.941	73235
499.016	121883
499.090	440283
499.164	280976
499.238	38366
499.312	27503
499.386	31887
499.460	32784
499.534	26650
499.609	30055
499.683	42018
499.757	42649
499.831	54789
499.905	233077
499.979	373644
500.053	67037
500.127	51059
500.201	44973
500.275	28889
500.349	25381
500.422	27113
500.496	35249
500.570	69705
500.644	135169
500.718	327499
500.792	133543
500.866	24599
500.940	27880
501.013	27291
501.087	23030
501.161	39083
501.235	56252
501.309	73204
501.382	218793
501.456	314994
501.530	68053
501.603	85387
501.677	57328
501.751	20026
501.825	22385
501.898	30230
501.972	93286
502.046	99664
502.119	24376
502.193	37650
502.266	108488
502.340	84990
502.413	39624
502.487	99068
502.561	71983
502.634	28342
502.708	19235
502.781	18855
502.855	15357
502.928	13226
503.002	12946
503.075	12532
503.149	14077
503.222	14178
503.295	16152
503.369	19677
503.442	23114
503.516	53104
503.589	181170
503.662	171813
503.736	47382
503.809	76826
503.882	91240
503.956	85660
504.029	121798
504.102	42658
504.175	39111
504.249	19366
504.322	15683
504.395	19256
504.468	13281
504.542	14417
504.615	11685
504.688	11583
504.761	11411
504.834	14592
504.907	16538
504.980	32676
505.053	20172
505.127	18638
505.200	26473
505.273	19253
505.346	16766
505.419	11904
505.492	11079
505.565	10282
505.638	8942
505.711	10264
505.784	9735
505.857	9702
505.930	11689
506.003	10925
506.076	12113
506.149	14298
506.221	19553
506.294	18102
506.367	29844
506.440	121573
506.513	119589
506.586	23535
506.659	16450
506.731	12296
506.804	12803
506.877	21363
506.950	18126
507.022	10745
507.095	12070
507.168	19612
507.241	12764
507.313	11023
507.386	11483
507.459	17544
507.531	14161
507.604	11672
507.677	10413
507.749	10333
507.822	13064
507.894	26111
507.967	44586
508.040	28184
508.112	20501
508.185	19483
508.257	17779
508.330	24485
508.402	20816
508.475	17629
508.547	18568
508.620	17908
508.692	23351
508.765	21276
508.837	15123
508.909	14049
508.982	14373
509.054	16862
509.127	15642
509.199	13927
509.271	13527
509.344	13246
509.416	13896
509.488	14154
509.560	14967
509.633	15180
509.705	18236
509.777	18845
509.849	23747
509.922	21742
509.994	17283
510.066	16556
510.138	17399
510.210	32258
510.283	36398
510.355	28198
510.427	23413
510.499	22362
510.571	21529
510.643	20953
510.715	28209
510.787	32878
510.859	21541
510.931	23566
511.003	28589
511.076	33373
511.148	20695
511.219	20972
511.291	25206
511.363	34324
511.435	22099
511.507	18236
511.579	17796
511.651	17527
511.723	16933
511.795	17159
511.867	16814
511.939	17483
512.010	29869
512.082	33316
512.154	18677
512.226	19688
512.298	23333
512.369	41955
512.441	34004
512.513	30623
512.585	25445
512.656	23650
512.728	26179
512.800	22887
512.871	20569
512.943	21115
513.015	18465
513.086	19480
513.158	21042
513.230	21572
513.301	27071
513.373	35071
513.444	24017
513.516	18784
513.588	18424
513.659	20656
513.731	24154
513.802	23431
513.874	31313
513.945	72122
514.016	39632
514.088	19008
514.159	20342
514.231	24030
514.302	37502
514.374	31128
514.445	25427
514.516	35504
514.588	39048
514.659	24157
514.730	34077
514.802	36147
514.873	29773
514.944	32503
515.016	27521
515.087	29225
515.158	28889
515.229	42657
515.301	31104
515.372	41303
515.443	36943
515.514	27500
515.585	21881
515.656	21091
515.728	19338
515.799	18710
515.870	19248
515.941	19766
516.012	19749
516.083	25188
516.154	28448
516.225	34848
516.296	33183
516.367	29203
516.438	30050
516.509	36716
516.580	45720
516.651	84664
516.722	360606
516.793	333594
516.864	60663
516.935	51492
517.006	48992
517.077	63122
517.148	113646
517.219	295544
517.289	784234
517.360	289349
517.431	117721
517.502	33790
517.573	27513
517.643	25016
517.714	28980
517.785	31413
517.856	29011
517.926	33665
517.997	38572
518.068	46235
518.138	61261
518.209	77200
518.280	183542
518.350	881964
518.421	697375
518.492	90750
518.562	38842
518.633	31735
518.703	26450
518.774	27086
518.845	29902
518.915	34743
518.986	27677
519.056	29616
519.127	49924
519.197	75751
519.268	147228
519.338	154886
519.408	38155
519.479	39049
519.549	37379
519.620	22406
519.690	17954
519.760	18620
519.831	18517
519.901	21171
519.971	16975
520.042	18002
520.112	20028
520.182	22776
520.253	27906
520.323	21238
520.393	22145
520.463	41319
520.534	27665
520.604	49536
520.674	36199
520.744	23918
520.814	48054
520.885	67808
520.955	41094
521.025	156243
521.095	129397
521.165	23139
521.235	18975
521.305	17097
521.375	15769
521.445	17169
521.515	21979
521.585	25707
521.655	30609
521.725	21347
521.795	21764
521.865	15736
521.935	19765
522.005	23225
522.075	14849
522.145	16339
522.215	16374
522.285	22805
522.355	26960
522.424	46863
522.494	54098
522.564	31703
522.634	37989
522.704	134709
522.774	101800
522.843	21612
522.913	16364
522.983	21780
523.053	20046
523.122	17474
523.192	20138
523.262	57872
523.331	105375
523.401	27059
523.471	14096
523.540	15375
523.610	13053
523.680	12268
523.749	12727
523.819	14708
523.888	16245
523.958	13267
524.027	12663
524.097	14519
524.166	13428
524.236	15331
524.305	15355
524.375	13431
524.444	11635
524.514	14048
524.583	13424
524.653	15986
524.722	18166
524.791	15950
524.861	12853
524.930	13175
524.999	12766
525.069	17926
525.138	16224
525.207	16646
525.277	15390
525.346	13547
525.415	12455
525.484	13034
525.554	14269
525.623	15614
525.692	12161
525.761	12168
525.830	10880
525.900	11351
525.969	14286
526.038	15911
526.107	15335
526.176	26093
526.245	32146
526.314	25200
526.383	29901
526.452	30343
526.522	34768
526.591	62119
526.660	72295
526.729	47476
526.797	32608
526.867	54091
526.935	263505
527.004	350636
527.073	146064
527.142	27485
527.211	16115
527.280	14571
527.349	20110
527.418	12500
527.487	11336
527.555	10913
527.624	10380
527.693	9389
527.762	11091
527.831	10475
527.899	9726
527.968	11353
528.037	10586
528.106	12216
528.174	22314
528.243	23546
528.312	22795
528.380	42372
528.449	19833
528.518	11848
528.586	8285
528.655	10332
528.723	8891
528.792	8909
528.861	10865
528.929	9357
528.998	9149
529.066	9073
529.135	8516
529.203	8513
529.272	7898
529.340	9631
529.409	9681
529.477	9540
529.545	10955
529.614	15462
529.682	12125
529.751	17576
529.819	15335
529.887	14350
529.956	9837
530.024	11213
530.092	9845
530.161	10929
530.229	17621
530.297	15664
530.365	10621
530.434	8198
530.502	8556
530.570	8580
530.638	7765
530.707	10376
530.775	11599
530.843	9735
530.911	8782
530.979	9492
531.047	9520
531.115	9983
531.183	9067
531.252	9219
531.320	9289
531.388	9391
531.456	9907
531.524	8370
531.592	10025
531.660	10636
531.728	9162
531.796	9557
531.864	8670
531.932	9857
532.000	10344
532.067	10285
532.135	11711
532.203	13728
532.271	14983
532.339	21596
532.407	55174
532.475	56867
532.542	22623
532.610	22265
532.678	25673
532.746	63091
532.814	283850
532.881	139430
532.949	22294
533.017	14213
533.084	10760
533.152	10389
533.220	10280
533.287	12780
533.355	11882
533.423	9915
533.490	10035
533.558	9813
533.625	11202
533.693	13532
533.761	13442
533.828	14237
533.896	13424
533.963	22606
534.031	34753
534.098	39183
534.166	28844
534.233	15570
534.300	14183
534.368	15281
534.435	14513
534.503	13053
534.570	12736
534.637	12885
534.705	11077
534.772	11224
534.840	11903
534.907	15047
534.974	23611
535.041	14187
535.109	14251
535.176	11723
535.243	10003
535.310	10301
535.378	11108
535.445	10028
535.512	9896
535.579	10251
535.646	10418
535.714	10887
535.781	14916
535.848	16475
535.915	15145
535.982	17662
536.049	18803
536.116	17440
536.183	15940
536.250	14832
536.317	14730
536.384	15464
536.451	21591
536.518	23792
536.585	18538
536.652	19892
536.719	26356
536.786	26858
536.853	20433
536.920	23391
536.987	38957
537.053	38777
537.120	97784
537.187	184423
537.254	27953
537.321	14159
537.388	13798
537.454	11218
537.521	10154
537.588	10995
537.654	11910
537.721	16229
537.788	15446
537.855	13314
537.921	12841
537.988	13744
538.055	13614
538.121	13779
538.188	14718
538.254	18884
538.321	37511
538.388	33579
538.454	15531
538.521	13076
538.587	12563
538.654	12012
538.720	11924
538.787	12033
538.853	12655
538.920	14815
538.986	15987
539.053	14787
539.119	14632
539.185	15643
539.252	15327
539.318	23304
539.385	22734
539.451	19638
539.517	20680
539.583	19848
539.650	29352
539.716	106364
539.782	64532
539.849	17545
539.915	15817
539.981	14131
540.047	18172
540.114	17903
540.180	17248
540.246	17350
540.312	20535
540.378	35583
540.444	46726
540.510	35004
540.576	110555
540.643	79076
540.709	17118
540.775	15072
540.841	14133
540.907	16955
540.973	28174
541.039	28366
541.105	29380
541.171	18810
541.237	15604
541.303	16623
541.369	17297
541.435	20353
541.500	33123
541.566	30266
541.632	16355
541.698	13562
541.764	14140
541.830	12815
541.896	13058
541.961	14935
542.027	13338
542.093	14582
542.159	15172
542.224	15931
542.290	22733
542.356	33431
542.421	46778
542.487	25495
542.553	18375
542.618	18322
542.684	17828
542.750	15707
542.815	18713
542.881	25391
542.947	77360
543.012	122029
543.078	23358
543.143	15445
543.209	15700
543.274	17120
543.340	17826
543.405	28899
543.471	77205
543.536	31236
543.602	15177
543.667	14107
543.732	14367
543.798	12939
543.863	14121
543.928	13228
543.994	13720
544.059	13130
544.124	13745
544.190	13814
544.255	14933
544.320	14885
544.386	15061
544.451	19696
544.516	25439
544.581	24139
544.646	43509
544.712	124646
544.777	44067
544.842	19773
544.907	19757
544.972	17910
545.037	16690
545.102	17886
545.168	18347
545.233	20114
545.298	19782
545.363	23839
545.428	25475
545.493	32479
545.558	80365
545.623	63284
545.688	21275
545.753	19386
545.818	16469
545.883	18063
545.947	17332
546.012	18456
546.077	18683
546.142	19371
546.207	18128
546.272	22350
546.337	25261
546.401	21861
546.466	19609
546.531	17791
546.596	19457
546.661	19158
546.725	18362
546.790	16070
546.855	16761
546.919	15627
546.984	17000
547.049	17337
547.113	19126
547.178	17001
547.243	17193
547.307	19424
547.372	20732
547.436	24717
547.501	19696
547.565	17689
547.630	21976
547.695	23955
547.759	22600
547.823	22841
547.888	18439
547.952	17402
548.017	17090
548.081	19847
548.146	24647
548.210	24785
548.274	18687
548.339	16525
548.403	16676
548.468	17054
548.532	16193
548.596	17175
548.660	17334
548.725	19002
548.789	20195
548.853	23524
548.917	19460
548.982	21627
549.046	27829
549.110	18799
549.174	16451
549.238	17057
549.303	16516
549.367	17382
549.431	17529
549.495	17306
549.559	17337
549.623	17791
549.687	18722
549.751	28846
549.815	24093
549.879	19889
549.943	17128
550.007	19057
550.071	20252
550.135	25033
550.199	25344
550.263	19662
550.327	19446
550.391	23940
550.455	22403
550.519	18845
550.582	20356
550.646	23980
550.710	33169
550.774	22263
550.838	19646
550.901	19442
550.965	20131
551.029	20232
551.093	23032
551.156	25109
551.220	38418
551.284	58749
551.347	30842
551.411	42376
551.475	76009
551.538	30369
551.602	19905
551.666	18914
551.729	17447
551.793	18106
551.856	19013
551.920	19219
551.983	19436
552.047	18663
552.110	18062
552.174	17045
552.237	17346
552.301	18017
552.364	16976
552.428	17266
552.491	17298
552.554	19592
552.618	18556
552.681	19475
552.745	20549
552.808	28232
552.871	38106
552.934	31233
552.998	21865
553.061	22133
553.124	21376
553.187	22221
553.251	24771
553.314	26368
553.377	26514
553.440	32702
553.503	70783
553.567	217139
553.630	85453
553.693	22953
553.756	19969
553.819	18648
553.882	16603
553.945	17284
554.008	16244
554.071	15467
554.134	16817
554.197	16346
554.260	16131
554.323	18404
554.386	17389
554.449	18155
554.512	17489
554.575	16942
554.638	17490
554.701	16806
554.764	15759
554.827	15277
554.889	15841
554.952	14461
555.015	15217
555.078	15478
555.141	15394
555.203	15315
555.266	15230
555.329	15953
555.391	15938
555.454	16462
555.517	18165
555.580	16680
555.642	15068
555.705	15343
555.768	16071
555.830	15842
555.893	15195
555.955	16015
556.018	15033
556.080	15545
556.143	15907
556.206	14885
556.268	16529
556.330	17330
556.393	17570
556.455	15933
556.518	20807
556.580	25834
556.643	17768
556.705	16005
556.767	14401
556.830	17268
556.892	17616
556.955	25212
557.017	26196
557.079	17152
557.142	15793
557.204	18304
557.266	30314
557.328	39934
557.391	18973
557.453	15040
557.515	15416
557.577	17504
557.639	21740
557.701	15951
557.764	13731
557.826	14902
557.888	15209
557.950	15542
558.012	14441
558.074	14824
558.136	16247
558.198	24998
558.260	23321
558.322	17613
558.384	16976
558.446	18526
558.508	18985
558.570	22816
558.632	31302
558.694	60149
558.756	38505
558.818	34990
558.880	96780
558.942	66921
559.003	28522
559.065	25739
559.127	17827
559.189	16850
559.251	17652
559.312	18221
559.374	22303
559.436	50211
559.498	56209
559.559	21107
559.621	18427
559.683	18496
559.744	22254
559.806	36495
559.868	57004
559.929	30690
559.991	20894
560.052	21378
560.114	26267
560.176	28984
560.237	22855
560.299	34158
560.360	24992
560.422	17889
560.483	17508
560.545	17664
560.606	17883
560.667	17526
560.729	16035
560.790	16365
560.852	16646
560.913	17198
560.974	16424
561.036	16161
561.097	16355
561.158	17472
561.220	18586
561.281	18290
561.342	19401
561.403	22524
561.465	24563
561.526	41796
561.587	79097
561.648	38075
561.709	20450
561.771	18760
561.832	18462
561.893	18194
561.954	18594
562.015	17602
562.076	18017
562.137	19630
562.198	19020
562.259	18387
562.320	20019
562.381	19803
562.442	24191
562.503	26844
562.564	19811
562.625	18259
562.686	18035
562.747	20386
562.808	21135
562.869	18961
562.930	21147
562.991	22682
563.051	21658
563.112	20195
563.173	19565
563.234	17952
563.294	19128
563.355	18578
563.416	19749
563.477	19588
563.537	19100
563.598	20880
563.659	20323
563.720	19443
563.780	20902
563.841	21677
563.901	20110
563.962	19810
564.023	19275
564.083	19333
564.144	20994
564.204	21448
564.265	20065
564.325	21699
564.386	29829
564.446	38140
564.507	22001
564.567	20598
564.628	21345
564.688	20465
564.749	20767
564.809	22298
564.869	23834
564.930	22309
564.990	20565
565.050	21295
565.111	21198
565.171	20292
565.231	20579
565.292	21018
565.352	20198
565.412	21955
565.472	21280
565.532	23415
565.593	21954
565.653	21645
565.713	22901
565.773	23025
565.833	24920
565.893	31403
565.953	27291
566.013	23048
566.074	24389
566.134	27597
566.194	33231
566.254	41416
566.314	34451
566.374	28955
566.434	27589
566.494	28201
566.554	27750
566.614	30100
566.673	29874
566.733	31386
566.793	32784
566.853	34815
566.913	35123
566.973	36341
567.033	36538
567.092	36933
567.152	35487
567.212	35878
567.272	35786
567.331	37722
567.391	38736
567.451	40424
567.511	44301
567.570	48441
567.630	40648
567.690	35662
567.749	37385
567.809	40872
567.868	43491
567.928	49549
567.988	53769
568.047	61688
568.107	71988
568.166	91997
568.226	125513
568.285	182199
568.345	196145
568.404	170884
568.464	150464
568.523	138020
568.582	134541
568.642	142207
568.701	159152
568.761	201212
568.820	286461
568.879	348123
568.939	304302
568.998	243069
569.057	191768
569.116	156330
569.176	126577
569.235	104760
569.294	88447
569.353	77969
569.413	68987
569.472	63268
569.531	55747
569.590	50665
569.649	46722
569.708	42641
569.767	40973
569.827	40535
569.886	38995
569.945	34087
570.004	32268
570.063	32807
570.122	31692
570.181	31579
570.240	29716
570.299	31170
570.358	31961
570.417	27202
570.475	24994
570.534	25544
570.593	26309
570.652	25270
570.711	26323
570.770	24127
570.829	26116
570.887	24712
570.946	25354
571.005	23618
571.064	22256
571.122	21505
571.181	23170
571.240	22300
571.299	20673
571.357	20744
571.416	21873
571.475	22065
571.533	24825
571.592	20188
571.650	21388
571.709	20476
571.768	20336
571.826	19103
571.885	18991
571.943	18614
572.002	18571
572.060	18926
572.119	18018
572.177	17491
572.236	16461
572.294	17798
572.352	17112
572.411	18635
572.469	17702
572.528	17690
572.586	18834
572.644	18500
572.703	22141
572.761	21594
572.819	18447
572.877	17923
572.936	17645
572.994	16107
573.052	16206
573.110	16577
573.169	17763
573.227	16756
573.285	16734
573.343	16021
573.401	15884
573.459	16576
573.517	16571
573.576	16802
573.634	16761
573.692	17280
573.750	17024
573.808	16388
573.866	16107
573.924	18582
573.982	19249
574.040	17266
574.098	16369
574.155	15446
574.213	14667
574.271	15284
574.329	15131
574.387	15028
574.445	15632
574.503	15278
574.560	14987
574.618	14258
574.676	15218
574.734	15560
574.792	15368
574.849	15746
574.907	14321
574.965	15285
575.022	14682
575.080	14815
575.138	15735
575.195	15636
575.253	16323
575.311	17195
575.368	16575
575.426	14899
575.483	15637
575.541	15305
575.598	14779
575.656	15451
575.713	15002
575.771	15163
575.828	15397
575.886	15432
575.943	16082
576.001	16007
576.058	16506
576.115	16542
576.173	17849
576.230	18225
576.287	20682
576.345	20378
576.402	17768
576.459	15750
576.517	16630
576.574	17130
576.631	16969
576.688	18196
576.746	16374
576.803	17256
576.860	16044
576.917	16110
576.974	15737
577.031	16858
577.089	16416
577.146	17000
577.203	16523
577.260	17780
577.317	17766
577.374	19504
577.431	19410
577.488	17037
577.545	17182
577.602	16687
577.659	17141
577.716	18396
577.773	19744
577.830	18718
577.886	17913
577.943	17136
578.000	17078
578.057	18293
578.114	19136
578.171	21000
578.227	24005
578.284	27852
578.341	24570
578.398	22359
578.454	20309
578.511	20524
578.568	20548
578.625	19931
578.681	17492
578.738	16873
578.794	16922
578.851	17625
578.908	18256
578.964	20234
579.021	21789
579.077	18129
579.134	18785
579.190	18296
579.247	17234
579.303	17670
579.360	17260
579.416	17568
579.473	17736
579.529	16544
579.586	17598
579.642	17240
579.698	18413
579.755	18568
579.811	19347
579.867	19994
579.924	19290
579.980	20051
580.036	22435
580.093	25589
580.149	30673
580.205	40528
580.261	35652
580.317	30839
580.374	26385
580.430	25521
580.486	23987
580.542	23487
580.598	21226
580.619	21196
580.654	21165
580.692	20932
580.710	20853
580.765	20718
580.767	20736
580.823	20589
580.838	20405
580.879	20014
580.911	19680
580.935	19451
580.984	19491
580.991	19523
581.047	20276
581.057	20266
581.103	20298
581.130	20793
581.159	21354
581.203	23007
581.215	23475
581.270	23583
581.276	23468
581.326	22518
581.349	21921
581.382	21083
581.422	21356
581.438	21491
581.494	20961
581.494	20946
581.550	20944
581.567	20678
581.606	20165
581.640	20633
581.661	20925
581.713	20871
581.717	20882
581.773	19737
581.786	19718
581.829	19691
581.859	20189
581.885	20678
581.932	21211
581.940	21307
581.996	21115
582.004	20956
582.052	20164
582.077	20479
582.107	20819
582.150	20931
582.163	20995
582.219	21576
582.223	21532
582.274	21156
582.296	21358
582.330	21682
582.368	22338
582.386	22624
582.441	21465
582.441	21470
582.497	21061
582.514	21348
582.552	22043
582.587	22552
582.608	22900
582.659	23908
582.663	23980
582.719	22367
582.732	22342
582.774	22181
582.805	22026
582.830	22050
582.877	23070
582.885	23242
582.941	22998
582.950	23108
582.996	23566
583.023	23984
583.052	24580
583.095	25405
583.107	25668
583.162	29410
583.168	29709
583.218	32278
583.240	31659
583.273	30407
583.313	28973
583.328	28516
583.384	26846
583.385	26821
583.439	25964
583.458	25717
583.494	25212
583.531	24938
583.549	24902
583.603	24507
583.605	24488
583.660	24707
583.676	24586
583.715	24358
583.748	24740
583.770	25029
583.820	24940
583.825	24923
583.881	26118
583.893	25967
583.936	25321
583.965	25265
583.991	25268
584.038	25967
584.046	26060
584.101	25678
584.110	25593
584.156	25322
584.183	26043
584.211	26869
584.255	26740
584.266	26626
584.321	26738
584.328	26711
584.376	26792
584.400	27183
584.431	27657
584.472	27780
584.486	27754
584.541	28040
584.545	28031
584.596	27962
584.617	28294
584.651	28913
584.689	29129
584.706	29182
584.761	29707
584.762	29712
584.816	29778
584.834	30122
584.871	30631
584.906	30644
584.926	30611
584.978	31214
584.980	31249
585.035	31782
585.051	32149
585.090	32871
585.123	33284
585.145	33650
585.195	34468
585.200	34524
585.254	34698
585.267	35130
585.309	37333
585.340	39642
585.364	41115
585.412	40981
585.419	40703
585.473	37743
585.484	37483
585.528	37661
585.556	38539
585.583	39872
585.628	42315
585.637	42985
585.692	47409
585.700	48842
585.747	58405
585.772	59836
585.801	56507
585.845	48026
585.856	46379
585.910	43786
585.917	43543
585.965	43746
585.989	43837
586.019	43888
586.061	44882
586.074	45334
586.128	45974
586.133	46123
586.183	47413
586.205	47999
586.237	49038
586.277	50412
586.292	50661
586.346	50362
586.349	50419
586.401	51779
586.421	52558
586.455	53841
586.493	54560
586.509	55354
586.564	60319
586.565	60491
586.618	71544
586.637	75464
586.672	78184
586.709	72931
586.727	68559
586.781	61670
586.781	61654
586.835	64924
586.853	65466
586.889	65782
586.925	66534
586.944	67174
586.996	69018
586.998	69060
587.052	72234
587.068	73113
587.106	75362
587.140	77125
587.161	78038
587.212	81125
587.215	81281
587.269	85029
587.284	86257
587.323	89169
587.356	91058
587.377	92481
587.427	96582
587.431	96850
587.485	102569
587.499	103812
587.539	108020
587.571	111464
587.593	114016
587.643	121077
587.648	121731
587.702	129762
587.715	131745
587.755	138840
587.786	145368
587.810	149928
587.858	158505
587.864	159645
587.917	174262
587.930	177711
587.971	190459
588.001	199905
588.025	208065
588.073	226427
588.079	228824
588.133	252913
588.145	258879
588.187	283618
588.217	302265
588.241	318935
588.288	354397
588.295	359674
588.348	409171
588.360	420545
588.402	469985
588.431	508392
588.456	543612
588.503	616550
588.510	629488
588.564	743240
588.575	769669
588.617	890429
588.646	978896
588.671	1078118
588.718	1281238
588.725	1321229
588.778	1644216
588.789	1708562
588.832	1976507
588.861	2129276
588.886	2140854
588.932	2071841
588.939	2022503
588.993	1572588
589.004	1519652
589.047	1790911
589.075	2010908
589.100	2125726
589.147	2221500
589.154	2189154
589.207	1860373
589.218	1792301
589.261	1596849
589.290	1477416
589.314	1455957
589.361	1441877
589.368	1460049
589.421	1640007
589.433	1681095
589.475	1904392
589.504	2035176
589.528	2009278
589.576	1864947
589.582	1850525
589.635	1797207
589.647	1802828
589.689	1933689
589.718	1953029
589.742	1757747
589.790	1325820
589.795	1290252
589.849	968689
589.861	898485
589.902	757588
589.932	659534
589.955	607039
590.004	503294
590.009	495570
590.062	420339
590.075	402895
590.115	363058
590.146	334230
590.168	317876
590.218	283269
590.222	280948
590.275	253841
590.289	247121
590.328	231432
590.360	219232
590.381	211129
590.431	192831
590.435	191897
590.488	177416
590.503	173731
590.541	166277
590.574	159718
590.594	155570
590.645	145983
590.647	145619
590.700	136489
590.716	133987
590.753	129276
590.787	125090
590.806	122331
590.859	114570
590.859	114463
590.912	109976
590.930	108553
590.965	105600
591.001	102916
591.018	101342
591.071	96426
591.072	96389
591.124	94613
591.143	93911
591.177	91697
591.214	89306
591.230	88629
591.283	86712
591.285	86635
591.336	85583
591.356	85029
591.389	83680
591.427	82289
591.442	81171
591.495	76690
591.498	76371
591.547	74104
591.569	73051
591.600	71811
591.640	70056
591.653	69670
591.706	68252
591.711	68081
591.759	66953
591.782	66386
591.811	66883
591.853	67659
591.864	67336
591.917	65505
591.924	65206
591.969	62512
591.995	61009
592.022	61036
592.066	61038
592.075	60963
592.127	60361
592.137	60256
592.180	62302
592.208	63582
592.233	62305
592.279	59613
592.285	59116
592.338	54815
592.350	53828
592.390	53483
592.421	53194
592.443	52602
592.491	51266
592.495	51253
592.548	50870
592.562	50751
592.600	50521
592.633	50294
592.653	49793
592.704	48186
592.705	48462
592.775	48572
592.846	47224
592.916	47868
592.987	49336
593.058	48245
593.128	44412
593.199	43662
593.270	42623
593.341	42303
593.411	41189
593.482	41840
593.553	40993
593.623	39822
593.694	38102
593.764	39357
593.835	39158
593.906	37135
593.976	36950
594.047	36579
594.117	39953
594.188	40134
594.258	36969
594.329	34373
594.399	33671
594.470	33782
594.540	33329
594.611	32983
594.681	32421
594.751	33148
594.822	34241
594.892	35157
594.963	34420
595.033	33463
595.103	32583
595.174	32987
595.244	37871
595.314	49930
595.384	38403
595.455	30211
595.525	30180
595.595	30949
595.665	30147
595.736	30154
595.806	30359
595.876	28678
595.946	29428
596.016	28483
596.087	28535
596.157	28338
596.227	27710
596.297	29171
596.367	28963
596.437	30730
596.507	33711
596.577	42192
596.647	35591
596.717	27879
596.787	27253
596.857	26981
596.927	26917
596.997	27234
597.067	26271
597.137	28888
597.207	31159
597.277	27442
597.347	27337
597.417	27995
597.487	27857
597.557	28382
597.626	28192
597.696	28138
597.766	31304
597.836	37302
597.906	35166
597.975	26828
598.045	25273
598.115	26405
598.185	25546
598.254	26946
598.324	27128
598.394	28222
598.464	27779
598.533	26409
598.603	25037
598.672	25769
598.742	25664
598.812	25619
598.881	24402
598.951	24728
599.020	24916
599.090	23017
599.159	23870
599.229	23779
599.299	22659
599.368	22980
599.437	23035
599.507	22784
599.576	24256
599.646	24371
599.715	26531
599.785	24103
599.854	24788
599.924	25998
599.993	25614
600.062	22567
600.132	22380
600.201	22310
600.270	23954
600.340	26062
600.409	22706
600.478	22844
600.547	21858
600.617	22379
600.686	22513
600.755	22611
600.824	23533
600.894	24036
600.963	21303
601.032	20671
601.101	20751
601.170	20852
601.239	20830
601.308	20801
601.378	21710
601.447	21189
601.516	20516
601.585	21223
601.654	21327
601.723	21892
601.792	21602
601.861	22728
601.930	25121
601.999	27930
602.068	22901
602.137	21907
602.206	22452
602.275	21149
602.343	25431
602.412	28837
602.481	22617
602.550	20040
602.619	20208
602.688	20849
602.756	21390
602.825	20414
602.894	19499
602.963	19841
603.032	19686
603.100	19197
603.169	19153
603.238	19702
603.307	18892
603.375	19541
603.444	18770
603.513	19012
603.581	18578
603.650	19548
603.719	18553
603.787	18082
603.856	19179
603.924	18287
603.993	18661
604.061	18387
604.130	18958
604.198	20134
604.267	19159
604.335	18972
604.404	18521
604.472	18025
604.541	18479
604.609	18870
604.678	18283
604.746	18132
604.815	18870
604.883	19218
604.951	18793
605.020	19112
605.088	18188
605.156	19060
605.225	17844
605.293	17432
605.361	18042
605.429	19030
605.498	19146
605.566	19684
605.634	20326
605.702	18897
605.771	18495
605.839	18892
605.907	18926
605.975	17966
606.043	17934
606.111	18345
606.180	18431
606.248	21223
606.316	25935
606.384	20791
606.452	22568
606.520	26704
606.588	24615
606.656	16711
606.724	17595
606.792	16790
606.860	16369
606.928	15534
606.996	15339
607.064	14798
607.132	14887
607.200	15809
607.267	16194
607.335	15902
607.403	15838
607.471	15893
607.539	15687
607.607	15753
607.674	14622
607.742	15355
607.810	17119
607.878	17870
607.946	15770
608.013	15141
608.081	15943
608.149	16533
608.216	14952
608.284	17155
608.352	15585
608.419	15895
608.487	18868
608.555	22623
608.622	15816
608.690	15446
608.757	15031
608.825	16707
608.893	16866
608.960	18881
609.028	23166
609.095	23507
609.163	20720
609.230	16820
609.298	17465
609.365	15562
609.432	15104
609.500	16788
609.567	17990
609.635	17761
609.702	17944
609.769	18828
609.837	20193
609.904	19801
609.971	17852
610.039	20808
610.106	24720
610.173	36752
610.241	72195
610.308	129503
610.375	136231
610.442	50654
610.509	23318
610.577	19835
610.644	17554
610.711	16992
610.778	16999
610.845	17056
610.912	17897
610.980	17957
611.047	24229
611.114	27705
611.181	17953
611.248	15284
611.315	15529
611.382	15309
611.449	15661
611.516	15271
611.583	15832
611.650	16284
611.717	14922
611.784	15903
611.851	16278
611.918	18391
611.984	20112
612.051	22330
612.118	32333
612.185	68150
612.252	103087
612.319	31412
612.386	19404
612.452	17520
612.519	17806
612.586	22410
612.653	24409
612.719	17935
612.786	17321
612.853	16126
612.919	14426
612.986	15738
613.053	13998
613.120	14919
613.186	14224
613.253	15503
613.319	14075
613.386	14765
613.453	16464
613.519	16930
613.586	20861
613.652	34572
613.719	31600
613.785	31155
613.852	18181
613.918	16801
613.985	17403
614.051	23886
614.118	44190
614.184	86469
614.250	32998
614.317	17525
614.383	13938
614.449	14615
614.516	14181
614.582	15967
614.648	15257
614.715	15303
614.781	15037
614.847	15155
614.914	17006
614.980	17361
615.046	16099
615.112	16054
615.179	16025
615.245	19454
615.311	25486
615.377	41411
615.443	71089
615.509	49845
615.575	27444
615.642	20522
615.708	20289
615.774	22327
615.840	23478
615.906	30969
615.972	43665
616.038	86989
616.104	153073
616.170	148062
616.236	184785
616.302	66404
616.368	28798
616.434	23092
616.500	21751
616.565	20820
616.631	21069
616.697	20365
616.763	19187
616.829	20582
616.895	27452
616.961	35447
617.026	27118
617.092	18823
617.158	16759
617.224	16493
617.289	15649
617.355	16076
617.421	16827
617.487	17549
617.552	15985
617.618	15291
617.684	14133
617.749	16031
617.815	15129
617.880	14525
617.946	14488
618.012	15750
618.077	16490
618.143	15120
618.208	15452
618.274	15467
618.339	16830
618.405	16408
618.470	16491
618.536	15861
618.601	18635
618.667	18209
618.732	16535
618.798	16433
618.863	16951
618.928	15718
618.994	17492
619.059	19248
619.124	26785
619.190	29448
619.255	17613
619.320	16554
619.386	16160
619.451	16355
619.516	15140
619.581	15386
619.647	15857
619.712	16017
619.777	15335
619.842	16038
619.907	16149
619.972	17081
620.038	16820
620.103	15964
620.168	15059
620.233	16288
620.298	15311
620.363	14891
620.428	14462
620.493	16299
620.558	14854
620.623	15322
620.688	15650
620.753	14645
620.818	14809
620.883	15632
620.948	15421
621.013	15898
621.078	16553
621.143	15227
621.207	17508
621.272	16497
621.337	18301
621.402	18976
621.467	21133
621.532	26123
621.596	22189
621.661	20506
621.726	17794
621.791	17556
621.855	19059
621.920	21604
621.985	20596
622.049	23194
622.114	22354
622.179	20961
622.243	19818
622.308	19884
622.373	19663
622.437	20087
622.502	19102
622.566	17704
622.631	18959
622.695	19324
622.760	19387
622.824	20064
622.889	19293
622.953	21814
623.018	27744
623.082	42015
623.147	24560
623.211	19897
623.276	20020
623.340	20312
623.404	17745
623.469	18631
623.533	18039
623.597	18171
623.662	18079
623.726	18136
623.790	18707
623.854	17301
623.919	18505
623.983	17877
624.047	17973
624.111	18294
624.176	17148
624.240	18937
624.304	22598
624.368	19463
624.432	17893
624.496	18368
624.560	18937
624.625	24321
624.689	21044
624.753	17604
624.817	17387
624.881	17839
624.945	16430
625.009	17530
625.073	17285
625.137	18889
625.201	22595
625.265	29040
625.329	20078
625.393	19006
625.456	19115
625.520	17783
625.584	20336
625.648	23266
625.712	29553
625.776	55305
625.839	93061
625.903	67844
625.967	22917
626.031	26456
626.095	46113
626.158	36245
626.222	17219
626.286	15549
626.349	15021
626.413	15149
626.477	17027
626.540	17151
626.604	14986
626.668	15123
626.731	13966
626.795	15463
626.858	15714
626.922	14653
626.986	14817
627.049	14587
627.113	13671
627.176	14611
627.240	13708
627.303	14067
627.366	13251
627.430	15015
627.493	14080
627.557	14618
627.620	14422
627.684	13776
627.747	13879
627.810	13572
627.874	14145
627.937	13818
628.000	14338
628.064	14506
628.127	14482
628.190	13163
628.253	14146
628.317	13917
628.380	13957
628.443	13525
628.506	13719
628.569	13970
628.632	12882
628.696	13504
628.759	11777
628.822	12573
628.885	12356
628.948	12985
629.011	12020
629.074	13154
629.137	12636
629.200	11356
629.263	13912
629.326	12133
629.389	11517
629.452	12179
629.515	12221
629.578	12575
629.641	13455
629.704	13037
629.767	13051
629.830	13723
629.892	12215
629.955	12253
630.018	13200
630.081	13989
630.144	18390
630.207	16403
630.269	14753
630.332	13660
630.395	14412
630.458	12338
630.520	11892
630.583	12300
630.646	10715
630.708	10675
630.771	10710
630.834	10893
630.896	10683
630.959	10678
631.021	10989
631.084	10592
631.146	11959
631.209	12756
631.272	12929
631.334	11546
631.397	10222
631.459	10598
631.522	11564
631.584	11787
631.646	10305
631.709	11658
631.771	14384
631.834	15081
631.896	10693
631.958	9424
632.021	10222
632.083	10243
632.145	10343
632.208	9790
632.270	11455
632.332	10124
632.395	10077
632.457	10675
632.519	9386
632.581	9883
632.643	9616
632.706	10179
632.768	9143
632.830	9533
632.892	8565
632.954	9511
633.016	10390
633.078	9642
633.141	9312
633.203	8758
633.265	9250
633.327	9236
633.389	8868
633.451	10992
633.513	13162
633.575	13828
633.637	12229
633.698	14301
633.760	10312
633.822	9742
633.884	8843
633.946	10452
634.008	8800
634.070	9545
634.132	11361
634.193	12211
634.255	10221
634.317	8714
634.379	9490
634.441	9161
634.502	9398
634.564	9536
634.626	9471
634.687	10376
634.749	10417
634.811	9600
634.873	8725
634.934	8946
634.996	7816
635.057	8757
635.119	8483
635.181	8679
635.242	9371
635.304	8142
635.365	8671
635.427	8202
635.488	9798
635.550	8823
635.611	8163
635.673	7407
635.734	9228
635.796	8268
635.857	9595
635.918	9116
635.980	8223
636.041	8864
636.102	8588
636.164	8703
636.225	7748
636.286	7533
636.348	9731
636.409	8390
636.470	7984
636.531	7679
636.593	8327
636.654	9757
636.715	7959
636.776	6993
636.838	7685
636.899	7320
636.960	8104
637.021	7529
637.082	7924
637.143	8699
637.204	6853
637.265	7158
637.326	7124
637.387	7141
637.448	6969
637.509	7940
637.570	7137
637.631	7117
637.692	6287
637.753	6668
637.814	6904
637.875	7304
637.936	7278
637.997	7109
638.058	8023
638.119	8136
638.179	6873
638.240	6503
638.301	7066
638.362	7302
638.423	6603
638.483	7549
638.544	6181
638.605	7276
638.666	6624
638.726	6708
638.787	6934
638.848	6250
638.908	6729
638.969	5890
639.030	6824
639.090	6705
639.151	6708
639.211	6995
639.272	9313
639.332	14261
639.393	16644
639.453	7216
639.514	7587
639.574	7360
639.635	6139
639.695	6419
639.756	6793
639.816	6919
639.877	8726
639.937	12213
639.997	22206
640.058	15731
640.118	6861
640.178	6548
640.239	6032
640.299	6134
640.359	5279
640.420	5956
640.480	5407
640.540	6083
640.600	6261
640.661	6503
640.721	6164
640.781	8621
640.841	8701
640.901	7450
640.961	6438
641.021	6628
641.082	7472
641.142	11858
641.202	13156
641.262	6728
641.322	6772
641.382	6197
641.442	6489
641.502	6350
641.562	6470
641.622	5987
641.682	5568
641.742	6354
641.802	6824
641.861	6392
641.921	6874
641.981	8024
642.041	6924
642.101	9328
642.161	9957
642.221	5744
642.280	5252
642.340	5789
642.400	5407
642.460	6102
642.519	5649
642.579	4772
642.639	5483
642.698	4233
642.758	5844
642.818	4862
642.877	6384
642.937	6006
642.997	4901
643.056	10080
643.116	10510
643.175	6306
643.235	5745
643.294	6460
643.354	5323
643.414	5716
643.473	6356
643.532	6332
643.592	6865
643.651	7440
643.711	9244
643.770	14900
643.830	27545
643.889	74879
643.948	69238
644.008	10934
644.067	6327
644.126	5935
644.186	5502
644.245	5454
644.304	5010
644.363	5342
644.423	4483
644.482	4897
644.541	5328
644.600	4660
644.659	4780
644.719	4547
644.778	5975
644.837	5583
644.896	8030
644.955	14248
645.014	16383
645.073	8301
645.132	6108
645.191	5727
645.250	5043
645.309	5405
645.368	4705
645.427	5277
645.486	4743
645.545	6627
645.604	6026
645.663	4710
645.722	4086
645.781	5081
645.840	4865
645.898	5515
645.957	5664
646.016	6059
646.075	9160
646.134	12763
646.192	23096
646.251	61055
646.310	35691
646.369	6961
646.427	5293
646.486	4860
646.545	4071
646.603	5975
646.662	4619
646.721	4156
646.779	3937
646.838	3866
646.896	4950
646.955	5383
647.014	6008
647.072	5541
647.131	8412
647.189	11819
647.248	4740
647.306	5334
647.365	4348
647.423	3455
647.481	5076
647.540	3831
647.598	4383
647.657	4219
647.715	4687
647.773	3667
647.832	4831
647.890	3718
647.948	4154
648.007	4399
648.065	4199
648.123	4211
648.181	5685
648.240	5596
648.298	7497
648.356	5275
648.414	5186
648.472	4529
648.531	5260
648.589	4446
648.647	4524
648.705	3647
648.763	3937
648.821	4363
648.879	4293
648.937	5089
648.995	5171
649.053	3690
649.111	4737
649.169	5533
649.227	7414
649.285	9554
649.343	22038
649.401	35347
649.459	19939
649.516	27875
649.574	12787
649.632	17000
649.690	36447
649.748	20644
649.806	9466
649.863	16640
649.921	14320
649.979	10491
650.037	5800
650.094	3853
650.152	4523
650.210	4204
650.268	3677
650.325	4647
650.383	4073
650.440	3916
650.498	3755
650.556	3607
650.613	4084
650.671	4005
650.728	4396
650.786	4393
650.843	3843
650.901	2559
650.958	3325
651.016	4071
651.073	3513
651.131	3583
651.188	2095
651.246	4117
651.303	2747
651.360	3617
651.418	2863
651.475	3584
651.532	3021
651.590	3826
651.647	2248
651.704	3547
651.762	3977
651.819	3890
651.876	2867
651.933	3750
651.990	3232
652.048	2879
652.105	2727
652.162	3885
652.219	3473
652.276	2894
652.333	3109
652.390	2848
652.448	3315
652.505	2906
652.562	3671
652.619	4440
652.676	5109
652.733	9731
652.790	5193
652.847	2773
652.904	3679
652.961	2196
653.017	2406
653.074	3610
653.131	3481
653.188	2791
653.245	3017
653.302	3146
653.359	3416
653.415	3541
653.472	3201
653.529	3615
653.586	3155
653.642	3373
653.699	2808
653.756	3637
653.813	2854
653.869	3015
653.926	2754
653.983	3236
654.039	3256
654.096	3528
654.152	2973
654.209	3193
654.266	3802
654.322	2729
654.379	3952
654.435	3831
654.492	4426
654.548	5345
654.605	8192
654.661	9954
654.717	3346
654.774	3553
654.830	3515
654.887	3510
654.943	3478
655.000	4146
655.056	3150
655.112	3875
655.168	2954
655.225	3354
655.281	3818
655.337	4174
655.394	6692
655.450	7183
655.506	5183
655.562	5112
655.618	9488
655.675	4709
655.731	3880
655.787	3949
655.843	3840
655.899	3478
655.955	4236
656.011	3527
656.067	2622
656.123	4482
656.179	3942
656.235	4609
656.291	4061
656.347	4561
656.403	4105
656.459	3960
656.515	4552
656.571	4710
656.627	3921
656.683	4087
656.739	4062
656.795	3466
656.850	4342
656.906	4274
656.962	4455
657.018	2547
657.074	3204
657.129	3000
657.185	4038
657.241	3861
657.297	2903
657.352	3042
657.408	2720
657.464	3693
657.519	3780
657.575	2799
657.630	2423
657.686	2647
657.742	2658
657.797	3393
657.853	2730
657.908	3355
657.964	1973
658.019	2017
658.075	3258
658.130	3022
658.186	2038
658.241	2303
658.297	2741
658.352	2999
658.407	3256
658.463	2957
658.518	3050
658.573	2860
658.629	3230
658.684	3194
658.739	2705
658.795	2427
658.850	2331
658.905	2833
658.960	3642
659.016	1846
659.071	2968
659.126	3211
659.181	3645
659.236	4723
659.291	8026
659.346	5729
659.401	4680
659.457	4393
659.512	5386
659.567	5499
659.622	3310
659.677	3414
659.732	2628
659.787	4084
659.842	3192
659.897	3648
659.952	4370
660.007	2179
660.061	2318
660.116	3398
660.171	2864
660.226	2409
660.281	3418
660.336	2629
660.391	2812
660.445	2175
660.500	2992
660.555	2466
660.610	3006
660.664	3587
660.719	1922
660.774	3479
660.828	2988
660.883	2754
660.938	3188
660.992	2342
661.047	2613
661.101	2956
661.156	2619
661.211	2859
661.265	2839
661.320	2636
661.374	3016
661.429	2887
661.483	2645
661.538	2553
661.592	2372
661.647	2911
661.701	3054
661.755	2260
661.810	2708
661.864	2365
661.919	2837
661.973	3709
662.027	2634
662.081	2886
662.136	2626
662.190	2292
662.244	3656
662.299	2500
662.353	3070
662.407	2890
662.461	2196
662.515	3521
662.569	2998
662.624	3468
662.678	2666
662.732	3061
662.786	2498
662.840	3642
662.894	2560
662.948	2376
663.002	2760
663.056	3167
663.110	1730
663.164	2725
663.218	3772
663.272	2093
663.326	2676
663.380	3434
663.434	3477
663.488	3036
663.542	2575
663.595	2736
663.649	2441
663.703	3311
663.757	2297
663.811	2734
663.864	2206
663.918	3119
663.972	2071
664.026	2456
664.079	2130
664.133	2808
664.187	2359
664.240	2845
664.294	2445
664.348	2541
664.401	2730
664.455	3289
664.508	2352
664.562	2422
664.615	2217
664.669	2792
664.722	3276
664.776	2225
664.829	2216
664.883	2668
664.936	3228
664.990	3261
665.043	2888
665.097	3770
665.150	3848
665.203	3244
665.257	2812
665.310	2577
665.363	2658
665.417	3003
665.470	2708
665.523	2974
665.576	3152
665.630	2944
665.683	2858
665.736	2228
665.789	3501
665.842	2866
665.895	3055
665.949	3812
666.002	2113
666.055	2462
666.108	3538
666.161	3661
666.214	3751
666.267	3378
666.320	2532
666.373	4074
666.426	2653
666.479	3319
666.532	3629
666.585	3579
666.638	4022
666.691	3728
666.744	4336
666.796	4348
666.849	3799
666.902	3544
666.955	2940
667.008	3160
667.060	3184
667.113	2275
667.166	1986
667.219	2969
667.271	2161
667.324	2734
667.377	2546
667.430	2448
667.482	3514
667.535	3425
667.587	3814
667.640	4353
667.693	3920
667.745	5094
667.798	8278
667.850	6461
667.903	2646
667.955	3102
668.008	2828
668.060	3548
668.113	3517
668.165	3241
668.218	3567
668.270	4505
668.322	2779
668.375	3019
668.427	3515
668.479	2074
668.532	3762
668.584	2965
668.636	3349
668.689	2959
668.741	2249
668.793	2973
668.845	2330
668.898	2720
668.950	3804
669.002	3939
669.054	3019
669.106	3338
669.158	3522
669.211	3348
669.263	3864
669.315	3419
669.367	4494
669.419	4956
669.471	4385
669.523	5588
669.575	6383
669.627	7351
669.679	5426
669.731	4782
669.783	4612
669.835	5625
669.886	5563
669.938	5182
669.990	3536
670.042	4221
670.094	4582
670.146	4845
670.197	5116
670.249	6434
670.301	7300
670.353	10781
670.404	15343
670.456	22169
670.508	33447
670.560	50826
670.611	81653
670.663	132534
670.715	237520
670.766	530598
670.818	562249
670.869	154681
670.921	38420
670.972	21687
671.024	14872
671.075	11780
671.127	8852
671.178	6460
671.230	5497
671.281	5923
671.333	5908
671.384	3878
671.436	4890
671.487	4317
671.538	4698
671.590	4591
671.641	4441
671.692	5357
671.744	5249
671.795	7697
671.846	5241
671.897	3637
671.949	4452
672.000	3567
672.051	3269
672.102	3894
672.153	3446
672.204	3086
672.256	3116
672.307	3398
672.358	3724
672.409	4265
672.460	3411
672.511	3073
672.562	2636
672.613	3081
672.664	3047
672.715	3979
672.766	2273
672.817	3103
672.868	2829
672.919	2662
672.970	3187
673.021	3412
673.071	2124
673.122	3034
673.173	2609
673.224	2644
673.275	2546
673.326	3443
673.376	2811
673.427	1784
673.478	2313
673.528	3279
673.579	2518
673.630	2891
673.680	2232
673.731	2712
673.782	2009
673.832	2789
673.883	2791
673.934	2476
673.984	2661
674.035	2447
674.085	2637
674.136	2767
674.186	2611
674.237	3701
674.287	4258
674.338	5264
674.388	2689
674.438	2766
674.489	1854
674.539	2048
674.589	3371
674.640	2568
674.690	3023
674.740	2000
674.791	2460
674.841	3218
674.891	2371
674.942	2373
674.992	2550
675.042	2101
675.092	2191
675.142	3004
675.193	2288
675.243	1862
675.293	3055
675.343	2516
675.393	2088
675.443	2619
675.493	2597
675.543	2362
675.593	2911
675.643	2781
675.693	2474
675.743	1538
675.793	3086
675.843	2083
675.893	2619
675.943	2409
675.993	1534
676.043	2047
676.093	2535
676.142	2052
676.192	1863
676.242	1916
676.292	1896
676.341	2615
676.391	3006
676.441	2152
676.491	1683
676.540	2132
676.590	2118
676.640	2556
676.689	2475
676.739	1450
676.789	2501
676.838	1673
676.888	2674
676.937	1883
676.987	2338
677.037	2041
677.086	1472
677.136	1512
677.185	1737
677.235	2504
677.284	2333
677.333	1599
677.383	2085
677.432	1360
677.482	1905
677.531	2060
677.580	1167
677.630	1604
677.679	1633
677.728	1137
677.778	1854
677.827	2474
677.876	1970
677.925	774
677.975	1585
678.024	2106
678.073	1270
678.122	1461
678.171	1564
678.220	2064
678.269	2317
678.319	2284
678.368	1418
678.417	2422
678.466	1576
678.515	2007
678.564	2555
678.613	2381
678.662	1568
678.711	1637
678.760	1854
678.809	1644
678.857	1941
678.906	2143
678.955	1524
679.004	1534
679.053	1856
679.102	1964
679.151	1353
679.199	1878
679.248	1899
679.297	1626
679.346	1803
679.394	1590
679.443	2257
679.492	1283
679.540	2305
679.589	2609
679.638	1758
679.686	1947
679.735	1316
679.784	1590
679.832	1332
679.881	1928
679.929	1293
679.978	1029
680.026	1391
680.075	1627
680.123	1124
680.172	1134
680.220	1056
680.268	1352
680.317	1064
680.365	1077
680.414	1800
680.462	1069
680.510	2360
680.559	1992
680.607	1680
680.655	1742
680.703	1042
680.752	1618
680.800	1046
680.848	1530
680.896	1474
680.945	1136
680.993	832
681.041	1341
681.089	1612
681.137	1192
681.185	402
681.233	1465
681.258	1355
681.281	1218
681.329	1399
681.377	1585
681.380	1609
681.425	1414
681.473	1882
681.502	2087
681.521	2168
681.569	1901
681.617	1960
681.624	1959
681.665	1688
681.713	1578
681.745	1985
681.761	2128
681.809	2385
681.857	2773
681.867	2778
681.904	2664
681.952	2556
681.989	2730
682.000	2741
682.048	2882
682.096	2297
682.111	2422
682.143	2597
682.191	3512
682.233	2696
682.239	2537
682.286	3005
682.334	2870
682.354	2932
682.382	2957
682.430	3249
682.476	3445
682.477	3419
682.525	3168
682.572	3220
682.598	3042
682.620	2838
682.667	3409
682.715	3417
682.720	3447
682.763	3469
682.810	3155
682.841	3334
682.857	3368
682.905	3471
682.952	3778
682.963	3781
683.000	3670
683.047	3617
683.085	3909
683.095	3960
683.142	3933
683.190	3886
683.206	4043
683.237	4228
683.284	4973
683.328	4530
683.332	4470
683.379	4164
683.426	4209
683.449	4172
683.473	4090
683.521	4811
683.568	4017
683.571	4067
683.615	4439
683.662	4502
683.693	4247
683.709	4049
683.757	5021
683.804	4734
683.814	4710
683.851	4552
683.898	5618
683.936	5046
683.945	4885
683.992	4756
684.039	5063
684.057	5015
684.086	4911
684.133	5410
684.179	5507
684.180	5486
684.227	5685
684.274	6087
684.300	5886
684.321	5695
684.368	6013
684.415	6198
684.422	6148
684.462	5670
684.509	5933
684.543	5806
684.556	5746
684.603	5857
684.649	5648
684.665	5845
684.696	6246
684.743	6736
684.786	6106
684.790	6037
684.837	6530
684.883	6369
684.908	6405
684.930	6473
684.977	6914
685.023	7556
685.029	7530
685.070	6980
685.117	7230
685.150	7190
685.164	7174
685.210	7271
685.257	7544
685.272	7515
685.303	7487
685.350	8371
685.393	7405
685.396	7310
685.443	7985
685.490	8400
685.514	8234
685.536	8103
685.583	8892
685.629	8309
685.636	8334
685.675	8164
685.722	8404
685.757	7969
685.768	7856
685.815	8408
685.861	8568
685.878	8382
685.908	8114
685.954	8314
686.000	8604
686.000	8600
686.047	8708
686.093	8964
686.121	9482
686.139	9888
686.185	9515
686.232	9835
686.242	9799
686.278	8950
686.324	9283
686.363	8758
686.370	8746
686.416	8196
686.463	8860
686.484	8985
686.509	9142
686.555	8549
686.601	8677
686.606	8717
686.647	9032
686.693	9159
686.727	9103
686.739	9063
686.785	8997
686.831	9245
686.848	9137
686.877	8923
686.923	8759
686.969	9018
686.969	9017
687.015	9505
687.061	9331
687.090	9188
687.107	9160
687.153	9387
687.199	8975
687.211	9020
687.245	9024
687.291	9102
687.332	9377
687.336	9433
687.382	9224
687.428	9818
687.453	9692
687.474	9446
687.520	10056
687.565	9514
687.574	9421
687.611	9147
687.657	9776
687.695	9697
687.702	9711
687.748	10352
687.794	10357
687.816	10428
687.839	10458
687.885	10173
687.931	10005
687.937	10097
687.976	10492
688.022	9906
688.058	10082
688.067	10202
688.113	10599
688.158	10538
688.179	10672
688.204	10667
688.249	10924
688.295	10511
688.300	10498
688.340	10634
688.386	11317
688.421	11271
688.431	11241
688.477	10789
688.522	11659
688.542	11554
688.567	11408
688.613	11295
688.658	10948
688.663	11027
688.703	11767
688.749	11390
688.784	11517
688.794	11568
688.839	11110
688.884	11711
688.905	11561
688.930	11284
688.975	11439
689.020	10869
689.026	10877
689.065	11317
689.110	10737
689.146	11368
689.155	11509
689.201	11403
689.246	11661
689.267	11563
689.291	11557
689.336	11654
689.381	11672
689.388	11710
689.426	11733
689.471	11806
689.509	11692
689.516	11736
689.561	11765
689.606	11976
689.630	12258
689.651	12364
689.696	11586
689.741	11685
689.750	11643
689.785	11939
689.830	11888
689.871	12353
689.875	12379
689.920	12247
689.965	12136
689.992	11974
690.010	12010
690.054	12257
690.099	12416
690.112	12458
690.144	12403
690.189	12342
690.233	11890
690.233	11907
690.278	12352
690.323	12716
690.354	12393
690.367	12279
690.412	12866
690.457	13030
690.474	13127
690.501	13420
690.546	13489
690.590	13954
690.595	13980
690.635	14262
690.680	14302
690.716	14219
690.724	14415
690.769	16096
690.813	17337
690.836	17908
690.857	18974
690.902	21192
690.946	23791
690.957	24358
690.991	30218
691.035	38391
691.077	47497
691.080	48334
691.124	61980
691.168	72986
691.198	79915
691.213	75537
691.257	63475
691.301	51514
691.318	46959
691.346	42243
691.390	34305
691.434	26193
691.439	25270
691.478	23103
691.522	20539
691.559	18535
691.567	18511
691.611	17950
691.655	17494
691.680	17027
691.699	16728
691.743	16364
691.787	15720
691.800	15662
691.831	15880
691.875	15672
691.919	15189
691.921	15160
691.964	15477
692.008	15734
692.041	15837
692.052	15818
692.096	15693
692.139	15500
692.162	15376
692.183	15456
692.227	15104
692.271	15600
692.282	15582
692.315	15533
692.359	15568
692.402	15632
692.403	15663
692.447	15637
692.490	15693
692.523	15564
692.534	15520
692.578	15852
692.622	15743
692.643	15493
692.666	15356
692.709	15871
692.753	15899
692.763	15912
692.797	16004
692.840	15711
692.884	15891
692.884	15926
692.928	15830
692.971	16155
693.004	15875
693.015	15965
693.059	16540
693.102	17205
693.124	17648
693.146	17708
693.189	17396
693.233	17047
693.245	16956
693.276	17760
693.320	18903
693.363	19790
693.365	19788
693.407	20883
693.450	21787
693.485	22631
693.493	23100
693.537	25368
693.580	27878
693.605	29049
693.624	31446
693.667	37124
693.710	43162
693.725	45088
693.753	56913
693.797	76048
693.840	96234
693.845	98569
693.883	126289
693.926	154227
693.966	178605
693.970	175943
694.013	146267
694.056	116310
694.086	95765
694.099	90002
694.142	71166
694.185	52178
694.206	43004
694.229	40311
694.272	35288
694.315	30118
694.326	28707
694.358	27379
694.401	25562
694.444	23621
694.446	23488
694.487	23295
694.530	22579
694.566	22188
694.573	22072
694.616	20868
694.659	19598
694.686	18932
694.702	18800
694.745	17997
694.787	17245
694.806	16900
694.830	16948
694.873	17063
694.916	17083
694.926	17057
694.959	17108
695.002	17106
695.044	17054
695.046	17009
695.087	17158
695.130	17511
695.166	17493
695.172	17499
695.215	17603
695.258	17503
695.286	17421
695.301	17486
695.343	17532
695.386	17614
695.406	17613
695.428	17371
695.471	16842
695.514	16346
695.526	16067
695.556	16181
695.599	16677
695.641	17003
695.646	17006
695.684	17019
695.726	16848
695.766	16808
695.769	16837
695.811	16596
695.854	16236
695.886	16065
695.896	16215
695.938	16451
695.981	17055
696.005	17072
696.023	16967
696.065	17004
696.108	16894
696.125	16824
696.150	17006
696.192	17234
696.235	17331
696.245	17361
696.277	17405
696.319	17272
696.361	17240
696.365	17185
696.404	17441
696.446	17672
696.485	17887
696.488	17955
696.530	18168
696.572	18446
696.604	18646
696.614	18614
696.656	18257
696.698	17810
696.724	17550
696.740	17522
696.783	17227
696.825	17000
696.844	16891
696.867	16813
696.909	16290
696.951	16090
696.964	15964
696.992	16511
697.034	17146
697.076	17844
697.083	17896
697.118	17568
697.160	17227
697.202	16842
697.203	16788
697.244	17094
697.286	17253
697.323	17434
697.327	17457
697.369	17138
697.411	16833
697.442	16550
697.453	16629
697.494	16946
697.536	17021
697.562	17115
697.578	17262
697.620	17455
697.661	17692
697.682	17763
697.703	17892
697.744	18030
697.786	18195
697.801	18184
697.828	18641
697.869	19393
697.911	20048
697.921	20150
697.952	19726
697.994	19142
698.035	18573
698.040	18450
698.077	18388
698.118	18239
698.160	18126
698.160	18075
698.201	17825
698.243	17513
698.279	17187
698.284	17257
698.325	17471
698.367	17656
698.399	17755
698.408	17699
698.449	17222
698.491	16756
698.518	16386
698.532	16539
698.573	16867
698.614	17219
698.638	17350
698.656	17294
698.697	17078
698.738	16857
698.757	16708
698.779	16951
698.820	17315
698.862	17675
698.877	17769
698.903	17958
698.944	18168
698.985	18380
698.996	18390
699.026	18445
699.067	18456
699.116	18420
699.235	18424
699.354	18201
699.474	18136
699.593	17626
699.713	20101
699.832	17886
699.951	18348
700.070	18578
700.190	18081
700.309	17770
700.428	17813
700.547	18729
700.667	17453
700.786	17634
700.905	18456
701.024	16648
701.143	18193
701.262	15934
701.381	16916
701.500	16520
701.619	17998
701.738	17609
701.857	16355
701.976	15522
702.095	15990
702.214	17111
702.333	17508
702.452	16911
702.571	16090
702.690	16294
702.809	16499
702.928	15289
703.047	15153
703.165	16059
703.284	15017
703.403	15164
703.522	16345
703.640	17562
703.759	17405
703.878	21293
703.997	20020
704.115	15206
704.234	15518
704.353	15164
704.471	15443
704.590	14775
704.708	14887
704.827	14671
704.946	14826
705.064	15666
705.183	16233
705.301	15035
705.420	18988
705.538	21760
705.656	19455
705.775	19125
705.893	23442
706.012	42800
706.130	28046
706.249	19290
706.367	18705
706.485	19021
706.604	18462
706.722	18418
706.840	20887
706.958	21843
707.077	18629
707.195	17380
707.313	17717
707.431	16727
707.549	16435
707.668	17306
707.786	17546
707.904	16744
708.022	15958
708.140	17310
708.258	16330
708.376	16838
708.494	17164
708.612	16950
708.730	19121
708.848	23905
708.966	20993
709.084	20976
709.202	19778
709.320	19142
709.438	19398
709.556	20006
709.674	19613
709.791	19642
709.909	19618
710.027	18853
710.145	19185
710.263	18404
710.380	18655
710.498	18544
710.616	19808
710.733	19189
710.851	18462
710.969	19183
711.086	18454
711.204	18749
711.322	17587
711.439	17640
711.557	18137
711.674	17942
711.792	18525
711.909	18634
712.027	20736
712.144	18475
712.262	16855
712.379	17147
712.497	21028
712.614	26665
712.732	22903
712.849	20805
712.966	21136
713.084	23768
713.201	24248
713.318	21641
713.436	21458
713.553	21128
713.670	19825
713.787	20744
713.905	22962
714.022	21769
714.139	19854
714.256	20880
714.373	20421
714.490	20694
714.608	22790
714.725	32209
714.842	69959
714.959	32192
715.076	19119
715.193	18691
715.310	18628
715.427	18916
715.544	17239
715.661	17570
715.778	18501
715.895	19132
716.011	19190
716.128	20289
716.245	18112
716.362	19495
716.479	22040
716.596	19463
716.713	18406
716.829	18267
716.946	18246
717.063	17659
717.180	17122
717.296	16923
717.413	16991
717.530	16707
717.646	17126
717.763	16231
717.880	15656
717.996	16264
718.113	16006
718.229	17471
718.346	15861
718.462	15218
718.579	16850
718.695	21605
718.812	28602
718.928	21192
719.045	20443
719.161	14956
719.277	15063
719.394	14914
719.510	15501
719.626	15500
719.743	15629
719.859	16912
719.975	15900
720.092	17570
720.208	28325
720.324	26349
720.440	15609
720.557	15659
720.673	19689
720.789	26102
720.905	33979
721.021	43977
721.137	16535
721.253	14671
721.369	14940
721.486	16045
721.602	17924
721.718	18611
721.834	14001
721.950	14074
722.066	14505
722.181	14162
722.297	13145
722.413	14938
722.529	13272
722.645	13604
722.761	13963
722.877	13292
722.993	13729
723.108	13093
723.224	12450
723.340	13730
723.456	12928
723.571	12651
723.687	12095
723.803	12645
723.918	12289
724.034	12507
724.150	13867
724.265	13288
724.381	14672
724.497	28035
724.612	17522
724.728	13034
724.843	11585
724.959	12638
725.074	15380
725.190	26398
725.305	16681
725.421	13229
725.536	12123
725.651	11199
725.767	11912
725.882	11870
725.997	11285
726.113	11616
726.228	11283
726.343	12632
726.459	11082
726.574	11421
726.689	11564
726.804	10794
726.920	10909
727.035	11913
727.150	11584
727.265	11145
727.380	11670
727.495	11897
727.610	11436
727.725	11250
727.841	11695
727.956	15492
728.071	23671
728.186	13937
728.301	10663
728.416	10948
728.531	10472
728.645	10691
728.760	10373
728.875	12474
728.990	10944
729.105	11433
729.220	11126
729.335	11919
729.449	11046
729.564	10538
729.679	9038
729.794	9937
729.908	10647
730.023	11336
730.138	10141
730.253	10101
730.367	9716
730.482	9587
730.596	10005
730.711	10037
730.826	10455
730.940	10174
731.055	9371
731.169	9627
731.284	9313
731.398	9479
731.513	9959
731.627	10571
731.742	10174
731.856	11386
731.970	10033
732.085	9497
732.199	9909
732.313	8862
732.428	9981
732.542	12665
732.656	16626
732.771	10767
732.885	9938
732.999	9215
733.113	9532
733.227	9576
733.342	9440
733.456	8764
733.570	8204
733.684	8809
733.798	8455
733.912	8495
734.026	8770
734.140	8061
734.254	8853
734.368	9888
734.482	16500
734.596	11378
734.710	8513
734.824	7788
734.938	8518
735.052	8155
735.166	9464
735.280	10253
735.393	8253
735.507	8704
735.621	9651
735.735	11879
735.849	14853
735.962	8649
736.076	8530
736.190	9524
736.303	9495
736.417	13216
736.531	10169
736.644	8243
736.758	8308
736.872	7887
736.985	7689
737.099	7956
737.212	8283
737.326	7287
737.439	8296
737.553	7217
737.666	8322
737.780	7910
737.893	7960
738.007	8429
738.120	7596
738.233	8033
738.347	8019
738.460	8421
738.573	7963
738.687	8834
738.800	8436
738.913	9655
739.026	9909
739.140	8577
739.253	8372
739.366	8689
739.479	7280
739.592	7227
739.705	7842
739.818	7403
739.932	7984
740.045	8215
740.158	8121
740.271	7429
740.384	7633
740.497	7510
740.610	7556
740.723	7412
740.836	8654
740.949	8364
741.062	9194
741.174	10350
741.287	8019
741.400	7657
741.513	7425
741.626	9384
741.739	8701
741.851	8095
741.964	7721
742.077	7692
742.189	7417
742.302	8748
742.415	8073
742.527	8632
742.640	7884
742.753	7198
742.865	7486
742.978	7074
743.090	7823
743.203	7372
743.316	7846
743.428	7567
743.541	6686
743.653	7127
743.766	7073
743.878	7416
743.990	7561
744.103	9738
744.215	8332
744.327	8147
744.440	8377
744.552	8974
744.664	10678
744.777	8658
744.889	6923
745.001	7256
745.113	7136
745.226	6954
745.338	6618
745.450	6045
745.562	6565
745.674	7091
745.786	6302
745.898	7311
746.010	7120
746.122	7168
746.234	6744
746.347	7071
746.459	6902
746.570	7256
746.682	7056
746.794	7709
746.906	9005
747.018	6955
747.130	7113
747.242	6544
747.354	7003
747.466	7121
747.577	7046
747.689	7820
747.801	7364
747.913	6488
748.024	5505
748.136	5998
748.248	7051
748.359	6807
748.471	6737
748.583	6253
748.694	6705
748.806	7948
748.918	7186
749.029	7995
749.141	7529
749.252	7856
749.364	6731
749.475	9678
749.587	13030
749.698	8378
749.809	7024
749.921	7149
750.032	7226
750.144	6590
750.255	6679
750.366	6473
750.478	6909
750.589	7207
750.700	7243
750.811	7603
750.923	7859
751.034	9801
751.145	16444
751.256	9920
751.367	7347
751.479	6741
751.590	7509
751.701	6971
751.812	7058
751.923	6828
752.034	6224
752.145	6202
752.256	6714
752.367	6302
752.478	6632
752.589	6823
752.700	6590
752.811	6434
752.922	6685
753.032	6567
753.143	7506
753.254	6613
753.365	6444
753.476	6679
753.586	6281
753.697	6886
753.808	6672
753.919	6532
754.029	6961
754.140	6725
754.251	6879
754.361	6302
754.472	6743
754.582	6997
754.693	7470
754.804	7833
754.914	6688
755.025	6692
755.135	5792
755.246	6727
755.356	7210
755.466	7144
755.577	7356
755.687	7353
755.798	7147
755.908	6656
756.018	7248
756.129	6149
756.239	7089
756.349	7502
756.460	6731
756.570	6558
756.680	7583
756.790	7336
756.900	8124
757.011	7969
757.121	7536
757.231	7813
757.341	7079
757.451	7385
757.561	7129
757.671	7660
757.781	6946
757.891	7723
758.001	6967
758.111	8508
758.221	8501
758.331	8669
758.441	8857
758.551	8759
758.661	10539
758.771	8953
758.880	8456
758.990	9864
759.100	8021
759.210	8020
759.320	8566
759.429	8137
759.539	8346
759.649	8272
759.758	8920
759.868	8414
759.978	7906
760.087	9760
760.197	9057
760.307	9539
760.416	9201
760.526	9939
760.635	9778
760.745	9557
760.854	10479
760.964	10237
761.073	10418
761.182	11165
761.292	10713
761.401	11864
761.511	11986
761.620	11239
761.729	11114
761.839	12483
761.948	12266
762.057	12569
762.166	13225
762.276	12315
762.385	14014
762.494	13591
762.603	13709
762.712	14236
762.822	15171
762.931	15355
763.040	15639
763.149	16219
763.258	16400
763.367	17584
763.476	18117
763.585	18727
763.694	20480
763.803	21439
763.912	22329
764.021	23259
764.130	24816
764.238	24896
764.347	26859
764.456	29880
764.565	32030
764.674	34120
764.783	36705
764.891	40291
765.000	44354
765.109	49375
765.217	57360
765.326	65113
765.435	77533
765.543	93819
765.652	113867
765.761	144296
765.869	190636
765.978	262404
766.086	385774
766.195	590203
766.303	928754
766.412	1185914
766.520	913999
766.629	1103764
766.737	924600
766.846	586453
766.954	381062
767.062	266594
767.171	198789
767.279	152946
767.387	118590
767.496	97433
767.604	82441
767.712	72004
767.820	62600
767.928	58540
768.037	52704
768.145	49396
768.253	46159
768.361	44708
768.469	43676
768.577	44422
768.685	45560
768.793	47071
768.901	51794
769.009	58125
769.117	69006
769.225	83941
769.333	109958
769.441	156919
769.549	247966
769.657	426469
769.765	772378
769.873	1031785
769.981	919483
770.088	797593
770.196	435597
770.304	256140
770.412	171610
770.519	125199
770.627	97021
770.735	77437
770.842	64058
770.950	54356
771.058	47606
771.165	42310
771.273	38290
771.380	35200
771.488	31313
771.595	28092
771.703	26049
771.810	24744
771.918	23385
772.025	21888
772.133	20859
772.240	18706
772.348	18912
772.455	17990
772.562	17322
772.670	15574
772.777	14857
772.884	14963
772.991	14767
773.099	14930
773.206	12783
773.313	12638
773.420	13111
773.528	12371
773.635	12084
773.742	11961
773.849	11295
773.956	10177
774.063	11021
774.170	10754
774.277	11185
774.384	10764
774.491	9351
774.598	9526
774.705	10208
774.812	10832
774.919	10952
775.026	9433
775.133	10055
775.239	8944
775.346	8855
775.453	9316
775.560	8942
775.667	9170
775.773	9067
775.880	8785
775.987	7996
776.093	8859
776.200	8494
776.307	7666
776.413	7726
776.520	7498
776.627	7798
776.733	7820
776.840	7659
776.946	8402
777.053	8148
777.159	10208
777.266	11650
777.372	9940
777.478	11559
777.585	10143
777.691	7174
777.798	6998
777.904	7202
778.010	8390
778.117	10565
778.223	7840
778.329	6568
778.435	6995
778.542	7055
778.648	6899
778.754	6509
778.860	6245
778.966	6288
779.072	6899
779.178	7103
779.284	7281
779.391	5776
779.497	6882
779.603	8896
779.708	10711
779.815	19791
779.920	53388
780.026	189584
780.132	139196
780.238	17093
780.344	8829
780.450	7725
780.556	7093
780.661	6514
780.767	5941
780.873	6077
780.979	6046
781.085	5638
781.190	5857
781.296	5067
781.402	5547
781.507	5896
781.613	4386
781.719	5085
781.824	5298
781.930	4829
782.035	5282
782.141	4763
782.246	5235
782.352	4483
782.457	4514
782.563	5361
782.668	4728
782.773	5239
782.879	5201
782.984	5863
783.090	4933
783.195	5450
783.300	7413
783.405	4995
783.511	4701
783.616	4715
783.721	5090
783.826	4615
783.932	5230
784.037	5210
784.142	4963
784.247	4629
784.352	4284
784.457	4525
784.562	4547
784.667	5301
784.772	4230
784.877	4484
784.982	4734
785.087	3477
785.192	4131
785.297	4179
785.402	4215
785.507	4429
785.611	4999
785.716	4138
785.821	3912
785.926	4766
786.031	4380
786.135	3912
786.240	4042
786.345	4230
786.450	4325
786.554	4463
786.659	4423
786.763	3140
786.868	3853
786.973	4513
787.077	4800
787.182	3843
787.286	4240
787.391	3449
787.495	4022
787.600	3727
787.704	3641
787.809	3360
787.913	3959
788.017	3927
788.122	4436
788.226	4057
788.330	3627
788.435	3616
788.539	3719
788.643	3270
788.747	3184
788.852	3039
788.956	3302
789.060	3449
789.164	3687
789.268	3456
789.372	3787
789.476	2892
789.580	3430
789.684	3567
789.788	2778
789.892	3221
789.996	3867
790.100	4220
790.204	3625
790.308	3580
790.412	3825
790.516	4202
790.620	3985
790.724	4592
790.828	3581
790.931	4259
791.035	3303
791.139	4578
791.242	3633
791.346	3643
791.450	3537
791.554	3494
791.657	2911
791.761	3961
791.864	3361
791.968	3610
792.072	3363
792.175	2889
792.279	4075
792.382	3050
792.486	3599
792.589	3711
792.693	3340
792.796	3787
792.899	3272
793.003	3573
793.106	3066
793.209	3716
793.313	3718
793.416	3477
793.519	3763
793.623	4318
793.726	6036
793.829	6285
793.932	3461
794.035	3654
794.138	4242
794.242	4157
794.345	4767
794.448	7784
794.551	11864
794.654	33147
794.757	101473
794.860	87388
794.963	11021
795.066	5114
795.169	4292
795.272	4071
795.375	4148
795.477	3144
795.580	3188
795.683	2797
795.786	3376
795.889	2104
795.991	3018
796.094	3430
796.197	2998
796.300	3196
796.402	2638
796.505	2866
796.608	2774
796.710	3010
796.813	1842
796.915	2926
797.018	2698
797.120	3262
797.223	3151
797.326	2787
797.428	2447
797.530	2862
797.633	2573
797.735	3214
797.838	2906
797.940	4201
798.042	4045
798.145	2546
798.247	2100
798.349	2926
798.452	2731
798.554	2266
798.656	1851
798.758	3296
798.860	2807
798.962	3150
799.065	2381
799.167	2326
799.269	2565
799.371	3304
799.473	3444
799.575	3071
799.677	3384
799.779	4479
799.881	3177
799.983	5281
800.085	3083
800.187	2500
800.289	2586
800.390	2516
800.492	2058
800.594	3047
800.696	2274
800.798	2556
800.899	2756
801.001	3353
801.103	2126
801.205	2711
801.306	2146
801.408	2387
801.509	2052
801.611	2459
801.713	2237
801.814	2026
801.916	2759
802.017	2835
802.119	2471
802.220	1655
802.322	2091
802.423	2843
802.525	3020
802.626	3369
802.727	2701
802.829	2223
802.930	2373
803.031	3284
803.133	1510
803.234	2387
803.335	1889
803.436	2583
803.538	1928
803.639	2045
803.740	2592
803.841	1567
803.942	1995
804.043	1908
804.144	2049
804.245	1824
804.346	1616
804.447	2010
804.548	2351
804.649	4960
804.750	2968
804.851	2076
804.952	1959
805.053	1961
805.154	1417
805.255	2355
805.355	1600
805.456	2518
805.557	1640
805.658	1523
805.758	2128
805.859	2568
805.960	2268
806.061	2275
806.161	1513
806.262	1586
806.362	2193
806.463	1875
806.564	2201
806.664	2285
806.765	1978
806.865	2776
806.966	2369
807.066	1891
807.166	2610
807.267	3157
807.367	2110
807.468	2406
807.568	1610
807.668	1645
807.769	2400
807.869	2089
807.969	1631
808.069	2476
808.170	2332
808.270	1639
808.370	2320
808.470	2298
808.570	2519
808.670	2136
808.770	2382
808.870	1804
808.970	2118
809.070	2003
809.170	1717
809.271	1971
809.370	1761
809.470	1892
809.570	1708
809.670	1714
809.770	2206
809.870	2713
809.970	1659
810.070	1539
810.169	2037
810.269	974
810.369	2312
810.469	1290
810.568	2089
810.668	1750
810.768	2107
810.867	2470
810.967	2119
811.066	1873
811.166	1659
811.265	2161
811.365	1760
811.464	1931
811.564	1731
811.663	2605
811.763	850
811.862	2213
811.962	1713
812.061	1817
812.160	1160
812.260	2095
812.359	2027
812.458	3563
812.557	5278
812.657	10627
812.756	9600
812.855	4308
812.954	2202
813.053	2781
813.153	2594
813.252	2128
813.351	2998
813.450	2852
813.549	2040
813.648	2458
813.747	2115
813.846	1993
813.945	2306
814.044	2152
814.143	2183
814.242	2615
814.341	2660
814.439	2544
814.538	3035
814.637	2717
814.736	2480
814.835	2768
814.933	2694
815.032	2552
815.131	2608
815.229	2793
815.328	2989
815.427	3134
815.525	3424
815.624	3234
815.722	3373
815.821	2950
815.919	4524
816.018	3595
816.116	3877
816.215	4139
816.313	4025
816.412	4745
816.510	5171
816.609	4919
816.707	5377
816.805	4443
816.904	5843
817.002	5969
817.100	6848
817.198	7514
817.296	8673
817.395	9925
817.493	11738
817.591	13800
817.689	16852
817.787	21689
817.885	31738
817.983	49948
818.081	89225
818.179	181980
818.277	390722
818.375	662217
818.473	448565
818.571	182680
818.669	91319
818.767	64684
818.865	55681
818.963	57310
819.061	68563
819.158	100792
819.256	166946
819.354	317365
819.452	615849
819.549	783271
819.647	517177
819.745	246017
819.842	129358
819.940	79103
820.038	55921
820.135	41172
820.233	31629
820.330	25986
820.428	20763
820.525	17612
820.623	15060
820.720	13338
820.818	11521
820.915	9819
821.012	9856
821.110	9245
821.207	7894
821.304	7357
821.402	6375
821.499	6928
821.596	7614
821.693	6103
821.791	6311
821.888	5540
821.985	7248
822.082	8298
822.179	5813
822.276	4316
822.373	4147
822.470	3793
822.567	3102
822.664	3239
822.761	3227
822.858	3067
822.955	2880
823.052	2883
823.149	3077
823.246	3416
823.343	2908
823.440	2753
823.536	2437
823.633	3090
823.730	1980
823.827	3028
823.923	3274
824.020	2886
824.117	2340
824.213	2413
824.310	3266
824.407	1904
824.503	2694
824.600	2722
824.696	2493
824.793	2612
824.889	2257
824.986	1951
825.082	2286
825.179	2138
825.275	2015
825.371	1928
825.468	2580
825.564	1690
825.660	2126
825.757	1846
825.853	1782
825.949	1961
826.045	1475
826.142	1272
826.238	1865
826.334	2471
826.430	1373
826.526	1860
826.622	1512
826.718	1912
826.814	1314
826.910	2464
827.006	2176
827.102	1732
827.198	1737
827.294	1479
827.390	1681
827.486	1664
827.582	919
827.678	1063
827.774	2001
827.869	1484
827.965	1735
828.061	449
828.157	1072
828.252	1458
828.348	847
828.444	1168
828.539	1056
828.635	1575
828.731	1738
828.826	1481
828.922	1185
829.017	114
829.113	1691
829.208	1006
829.304	600
829.399	1897
829.495	966
829.590	615
829.685	1111
829.781	1266
829.876	1122
829.971	637
830.066	901
830.162	592
830.257	905
830.352	1447
830.447	2133
830.543	1148
830.638	801
830.733	2140
830.828	1083
830.923	1453
831.018	1591
831.113	1260
831.208	773
831.303	1547
831.398	781
831.493	1284
831.588	963
831.683	1099
831.778	787
831.873	1266
831.967	1414
832.062	1046
832.157	794
832.252	954
832.346	879
832.441	1960
832.536	2742
832.631	3199
832.725	6449
832.820	3265
832.914	1438
833.009	1198
833.104	1196
833.198	2327
833.293	1809
833.387	1760
833.482	1216
833.576	1061
833.670	871
833.765	714
833.859	1568
833.954	1583
834.048	1236
834.142	1857
834.237	465
834.331	474
834.425	1256
834.519	1176
834.613	1787
834.708	822
834.802	938
834.896	809
834.990	1136
835.084	1497
835.178	1308
835.272	515
835.366	1454
835.460	1550
835.554	568
835.648	842
835.742	600
835.836	1078
835.930	620
836.024	1170
836.117	883
836.211	1803
836.305	1677
836.399	2054
836.493	1568
836.586	1541
836.680	656
836.774	1042
836.867	1283
836.961	588
837.055	487
837.148	773
837.242	706
837.335	845
837.429	1236
837.522	868
837.616	1304
837.709	1658
837.803	2025
837.896	1228
837.989	877
838.083	2524
838.176	1676
838.269	3943
838.363	2844
838.456	1373
838.549	1984
838.642	2454
838.735	5335
838.829	5486
838.922	1585
839.015	1788
839.108	1342
839.201	1330
839.294	911
839.387	1140
839.480	288
839.573	1436
839.666	1496
839.759	1486
839.852	708
839.945	904
840.038	608
840.131	745
840.223	1017
840.316	1308
840.409	1227
840.502	269
840.594	1038
840.687	444
840.780	1669
840.873	72
840.965	1322
841.058	1279
841.150	1987
841.243	3755
841.336	2180
841.428	690
841.521	481
841.613	1027
841.706	1729
841.798	930
841.890	1071
841.983	910
842.075	1211
842.167	1099
842.260	1336
842.352	1242
842.444	1727
842.537	2688
842.629	4613
842.721	3579
842.813	669
842.905	626
842.997	1263
843.090	1386
843.182	1150
843.274	2701
843.366	5000
843.458	10407
843.550	14897
843.642	6533
843.734	2298
843.826	981
843.918	1825
844.009	1521
844.101	1142
844.193	946
844.285	1143
844.377	1421
844.469	1457
844.560	1832
844.652	2414
844.744	2826
844.835	892
844.927	913
845.019	1381
845.110	1671
845.202	1313
845.293	876
845.385	461
845.476	1287
845.568	1557
845.659	937
845.751	914
845.842	228
845.934	1049
846.025	851
846.116	632
846.208	1119
846.299	339
846.390	1487
846.482	538
846.573	659
846.664	1788
846.755	2117
846.846	3243
846.937	2013
847.029	662
847.120	1025
847.211	661
847.302	1951
847.393	791
847.484	1156
847.575	756
847.666	40
847.757	704
847.847	987
847.938	1271
848.029	1087
848.120	517
848.211	668
848.302	1269
848.392	395
848.483	894
848.574	494
848.664	388
848.755	437
848.846	1199
848.936	1339
849.027	614
849.118	742
849.208	445
849.299	861
849.389	817
849.480	1161
849.570	1586
849.661	2265
849.751	2073
849.841	2725
849.932	1012
850.022	703
850.112	851
850.203	215
850.293	979
850.383	1356
850.474	537
850.564	991
850.654	1020
850.744	645
850.834	838
850.924	449
851.014	678
851.104	1017
851.194	1363
851.284	1627
851.374	2342
851.464	1652
851.554	1474
851.644	1588
851.734	1819
851.824	2605
851.914	2208
852.004	3784
852.094	5981
852.183	3511
852.273	1165
852.363	-197
852.452	519
852.542	720
852.632	519
852.721	1086
852.811	-274
852.901	1405
852.990	712
853.080	851
853.169	223
853.259	759
853.348	278
853.438	605
853.527	684
853.617	1126
853.706	1080
853.795	1127
853.885	3001
853.974	3537
854.063	7077
854.152	10959
854.242	11848
854.331	3418
854.420	1119
854.509	201
854.598	1217
854.687	965
854.777	787
854.866	566
854.955	1557
855.044	943
855.133	1305
855.222	663
855.311	-94
855.400	524
855.488	698
855.577	94
855.666	608
855.755	1293
855.844	1788
855.933	1249
856.021	1885
856.110	1620
856.199	128
856.288	921
856.376	1007
856.465	171
856.554	1662
856.642	222
856.731	109
856.819	651
856.908	139
856.996	702
857.085	500
857.173	232
857.262	970
857.350	849
857.438	506
857.527	466
857.615	527
857.703	809
857.792	1029
857.880	525
857.968	655
858.056	814
858.145	614
858.233	860
858.321	1034
858.409	1119
858.497	522
858.585	687
858.673	1101
858.761	761
858.849	1152
858.937	297
859.025	624
859.113	917
859.201	539
859.289	1549
859.377	537
859.465	148
859.552	507
859.640	1219
859.728	768
859.816	794
859.903	39
859.991	855
860.079	1270
860.166	141
860.254	759
860.342	955
860.429	947
860.517	-157
860.604	651
860.692	633
860.779	-252
860.867	166
860.954	942
861.042	735
861.129	1371
861.216	1547
861.304	253
861.391	615
861.478	1159
861.565	744
861.653	919
861.740	703
861.827	475
861.914	1199
862.001	629
862.089	1222
862.176	167
862.263	567
862.350	1143
862.437	612
862.524	283
862.611	1110
862.698	392
862.785	357
862.871	1894
862.958	367
863.045	272
863.132	903
863.219	87
863.306	614
863.392	1131
863.479	369
863.566	427
863.652	186
863.739	726
863.826	608
863.912	763
863.999	211
864.086	569
864.172	640
864.259	572
864.345	103
864.432	827
864.518	231
864.604	227
864.691	490
864.777	389
864.863	875
864.950	288
865.036	147
865.122	885
865.209	932
865.295	253
865.381	190
865.467	326
865.553	1355
865.639	82
865.726	677
865.812	1946
865.898	2327
865.984	3718
866.070	5973
866.156	10720
866.242	6280
866.328	1420
866.414	1115
866.499	399
866.585	263
866.671	367
866.757	230
866.843	917
866.928	382
867.014	-1
867.100	1306
867.186	779
867.271	1425
867.357	1337
867.442	1354
867.528	1631
867.614	719
867.699	334
867.785	1085
867.870	602
867.956	1729
868.041	1910
868.127	1442
868.212	1604
868.297	1377
868.383	942
868.468	961
868.553	2449
868.639	3745
868.724	3037
868.809	8255
868.894	4934
868.979	979
869.065	880
869.150	-22
869.235	378
869.320	355
869.405	569
869.490	508
869.575	271
869.660	-484
869.745	458
869.830	-81
869.915	514
870.000	-96
870.085	364
870.169	1169
870.254	607
870.339	681
870.424	141
870.509	721
870.593	525
870.678	130
870.763	630
870.847	394
870.932	-196
871.016	574
871.101	-114
871.186	109
871.270	454
871.355	684
871.439	465
871.523	107
871.608	-31
871.692	534
871.777	447
871.861	428
871.945	726
872.030	273
872.114	82
872.198	289
872.282	221
872.367	134
872.451	365
872.535	365
872.619	562
872.703	127
872.787	-395
872.871	430
872.955	499
873.039	-477
873.123	477
873.207	482
873.291	199
873.375	541
873.459	1118
873.543	303
873.627	873
873.711	605
873.794	353
873.878	586
873.962	-253
874.045	-251
874.129	183
874.137	193
874.213	293
874.245	404
874.296	585
874.352	302
874.380	162
874.460	624
874.464	642
874.547	721
874.568	352
874.631	-741
874.676	-292
874.714	98
874.784	82
874.798	69
874.881	1078
874.892	889
874.965	-365
874.999	-152
875.048	111
875.107	384
875.131	513
875.215	777
875.215	777
875.298	440
875.323	332
875.381	63
875.430	49
875.465	52
875.538	423
875.548	474
875.631	724
875.646	568
875.714	-214
875.753	311
875.798	937
875.861	484
875.881	344
875.964	522
875.968	505
876.047	231
876.076	171
876.130	-46
876.183	566
876.213	977
876.291	978
876.296	965
876.379	492
876.398	586
876.462	1156
876.506	1087
876.545	823
876.613	459
876.628	451
876.711	697
876.721	726
876.794	601
876.828	452
876.877	443
876.935	689
876.960	748
877.043	732
877.043	731
877.125	563
877.150	799
877.208	1293
877.258	1058
877.291	989
877.365	1272
877.374	1284
877.456	1197
877.472	1165
877.539	1115
877.579	1144
877.622	1077
877.687	1144
877.704	1234
877.787	1123
877.794	1121
877.869	887
877.901	1118
877.952	1566
878.008	1662
878.034	1675
878.115	971
878.117	958
878.199	1056
878.222	918
878.282	518
878.329	875
878.364	1145
878.437	1099
878.447	1095
878.529	10
878.544	27
878.611	188
878.651	545
878.694	913
878.758	1010
878.776	1047
878.858	1095
878.865	1115
878.941	1388
878.972	1077
879.023	550
879.078	830
879.105	911
879.185	701
879.187	709
879.269	1091
879.292	1157
879.351	657
879.399	298
879.433	364
879.506	1100
879.516	1166
879.598	496
879.613	543
879.680	595
879.720	579
879.762	815
879.827	904
879.844	866
879.926	647
879.933	710
880.007	1172
880.040	787
880.089	496
880.147	1313
880.171	1575
880.253	1693
880.254	1695
880.335	2468
880.360	2614
880.417	3304
880.467	4499
880.499	5472
880.574	8720
880.580	8817
880.662	6329
880.680	5535
880.744	2738
880.787	1636
880.825	1059
880.893	1092
880.907	1182
880.989	891
881.000	984
881.070	1110
881.106	965
881.152	955
881.213	774
881.233	783
881.315	1146
881.319	1148
881.396	927
881.426	997
881.478	1081
881.532	980
881.559	955
881.639	794
881.641	793
881.722	688
881.745	622
881.803	597
881.852	683
881.885	691
881.958	981
881.966	1015
882.047	895
882.064	980
882.129	1171
882.171	1195
882.210	1873
882.277	2996
882.291	2982
882.372	3120
882.383	2948
882.454	1735
882.489	1429
882.535	1288
882.596	1462
882.616	1480
882.697	1091
882.702	1094
882.778	1560
882.808	1519
882.859	1121
882.914	1092
882.940	1087
883.020	731
883.021	733
883.102	963
883.127	1076
883.183	1202
883.233	978
883.264	738
883.339	913
883.345	949
883.426	758
883.445	806
883.507	1110
883.551	1142
883.587	980
883.657	890
883.668	973
883.749	1566
883.763	1649
883.830	1365
883.869	1274
883.910	1487
883.975	1512
883.991	1445
884.072	1003
884.081	1012
884.152	1427
884.187	1452
884.233	1335
884.292	1031
884.314	1171
884.394	2243
884.398	2280
884.475	1147
884.504	665
884.555	1199
884.610	1683
884.636	1558
884.716	1175
884.716	1179
884.797	1163
884.821	1082
884.877	1034
884.927	1114
884.958	1333
885.033	1692
885.038	1689
885.118	1313
885.139	1240
885.199	957
885.244	1004
885.279	1148
885.350	1217
885.359	1232
885.439	1296
885.456	1264
885.520	1512
885.561	1693
885.600	1459
885.667	1361
885.680	1360
885.760	818
885.773	765
885.840	1204
885.878	1489
885.920	1455
885.984	1384
886.000	1425
886.080	1481
886.089	1480
886.160	1160
886.195	1101
886.240	1437
886.300	1682
886.320	1601
886.400	1309
886.406	1298
886.480	1977
886.511	2152
886.560	2088
886.616	2181
886.640	2105
886.720	1533
886.722	1517
886.800	1323
886.827	1308
886.879	1361
886.932	1308
886.959	1531
887.038	2218
887.039	2221
887.119	2020
887.143	1866
887.198	1677
887.248	1627
887.278	1750
887.354	1987
887.358	1990
887.437	1948
887.459	1896
887.517	2047
887.564	2259
887.596	1991
887.669	1235
887.676	1274
887.755	1806
887.774	1928
887.835	2181
887.880	2329
887.914	2337
887.985	2295
887.994	2262
888.073	1833
888.090	1771
888.153	2160
888.195	2369
888.232	1865
888.300	961
888.311	1135
888.391	2295
888.405	2496
888.470	2067
888.510	1832
888.549	1812
888.615	1707
888.628	1654
888.708	1342
888.720	1294
888.787	1665
888.825	1822
888.866	1556
888.930	1177
888.945	1321
889.024	2092
889.035	2189
889.103	1806
889.140	1586
889.182	1737
889.245	1935
889.261	1886
889.340	1657
889.349	1629
889.419	2127
889.454	2363
889.498	2233
889.559	2041
889.577	2169
889.656	2722
889.664	2772
889.735	1938
889.768	1530
889.814	2133
889.873	2928
889.978	2385
890.083	2440
890.187	1823
890.292	1962
890.397	2070
890.501	3112
890.606	1314
890.710	2362
890.815	1388
890.919	1428
891.024	1660
891.128	2443
891.233	1802
891.337	2254
891.442	1782
891.546	1712
891.650	1545
891.755	2219
891.859	2166
891.963	2377
892.068	1593
892.172	2626
892.276	1372
892.380	2513
892.484	946
892.589	1919
892.693	1489
892.797	1627
892.901	1457
893.005	1884
893.109	897
893.213	2306
893.317	2325
893.421	2221
893.525	2059
893.629	1618
893.733	1710
893.837	2032
893.941	1604
894.045	3203
894.148	3205
894.252	9198
894.356	6447
894.460	3236
894.564	2012
894.667	604
894.771	1825
894.875	1921
894.978	1603
895.082	1475
895.186	1801
895.289	2021
895.393	2215
895.496	2573
895.600	1972
895.703	1736
895.807	1302
895.910	1775
896.014	1356
896.117	1811
896.221	1907
896.324	1987
896.427	1698
896.531	2012
896.634	1779
896.737	1917
896.840	1055
896.944	1787
897.047	1088
897.150	1975
897.253	1560
897.356	2328
897.460	1503
897.563	1944
897.666	1969
897.769	1706
897.872	2412
897.975	1359
898.078	1018
898.181	2531
898.284	917
898.387	2695
898.490	1179
898.593	1633
898.695	1586
898.798	981
898.901	1641
899.004	1707
899.107	2156
899.209	2294
899.312	1168
899.415	1764
899.518	1112
899.620	1318
899.723	2085
899.826	2612
899.928	3702
900.031	1761
900.133	1167
900.236	1808
900.338	1065
900.441	2237
900.543	797
900.646	1433
900.748	1551
900.851	1754
900.953	688
901.055	2192
901.158	1335
901.260	2169
901.362	1530
901.465	2271
901.567	1854
901.669	2096
901.771	1667
901.873	1270
901.976	1410
902.078	2046
902.180	1195
902.282	1042
902.384	1732
902.486	934
902.588	1139
902.690	1320
902.792	1624
902.894	1954
902.996	1135
903.098	1785
903.200	1304
903.302	1773
903.404	1086
903.505	1873
903.607	1829
903.709	1604
903.811	1276
903.913	2398
904.014	685
904.116	994
904.218	1245
904.319	1239
904.421	646
904.523	1810
904.624	1433
904.726	1129
904.827	2424
904.929	702
905.030	909
905.132	1667
905.233	1272
905.335	1495
905.436	1531
905.537	1290
905.639	1110
905.740	1869
905.841	1375
905.943	2306
906.044	1956
906.145	1883
906.247	1114
906.348	1802
906.449	558
906.550	944
906.651	1987
906.752	1827
906.854	669
906.955	1363
907.056	1649
907.157	1731
907.258	1033
907.359	1065
907.460	1721
907.561	1294
907.662	1375
907.762	2058
907.863	1228
907.964	1336
908.065	1284
908.166	1864
908.267	1672
908.367	1394
908.468	1145
908.569	1756
908.670	1342
908.770	2248
908.871	1914
908.971	2617
909.072	1060
909.173	1904
909.273	1769
909.374	1202
909.474	1107
909.575	988
909.675	1449
909.776	1577
909.876	173
909.977	1509
910.077	1327
910.177	1829
910.278	1045
910.378	1978
910.478	1321
910.579	1590
910.679	1266
910.779	2294
910.879	1895
910.980	1923
911.080	1301
911.180	1103
911.280	1815
911.380	1300
911.480	1353
911.580	696
911.680	806
911.780	1157
911.880	1604
911.980	1190
912.080	1178
912.180	1138
912.280	1389
912.380	1802
912.480	813
912.580	1307
912.679	1187
912.779	1425
912.879	1027
912.979	1253
913.078	194
913.178	1051
913.278	1136
913.377	2028
913.477	1273
913.577	1799
913.676	1881
913.776	1411
913.875	1649
913.975	1540
914.074	937
914.174	956
914.273	1146
914.373	1558
914.472	752
914.572	1850
914.671	952
914.770	1314
914.870	1016
914.969	1328
915.068	1329
915.167	1528
915.267	1590
915.366	1402
915.465	938
915.564	1492
915.663	697
915.763	1123
915.862	1172
915.961	1648
916.060	173
916.159	1039
916.258	641
916.357	761
916.456	1703
916.555	1719
916.654	567
916.752	798
916.851	1241
916.950	1736
917.049	1513
917.148	1170
917.247	1602
917.345	1474
917.444	167
917.543	1161
917.642	1157
917.740	1528
917.839	920
917.937	1805
918.036	1843
918.135	921
918.233	1009
918.332	1537
918.430	596
918.529	644
918.627	543
918.726	1256
918.824	915
918.923	1759
919.021	1279
919.119	623
919.218	1558
919.316	327
919.414	1005
919.512	1239
919.611	1272
919.709	973
919.807	1140
919.905	1003
920.003	444
920.102	1422
920.200	828
920.298	901
920.396	403
920.494	1238
920.592	1244
920.690	1395
920.788	1251
920.886	1536
920.984	1248
921.082	1098
921.180	1488
921.277	1368
921.375	918
921.473	1244
921.571	835
921.669	1075
921.766	1288
921.864	1528
921.962	756
922.060	1735
922.157	1672
922.255	1266
922.352	1058
922.450	1597
922.548	1626
922.645	814
922.743	702
922.840	1428
922.938	1180
923.035	1364
923.133	1612
923.230	1743
923.327	1459
923.425	2150
923.522	1463
923.619	1610
923.717	738
923.814	1453
923.911	1191
924.008	1627
924.106	1204
924.203	1823
924.300	695
924.397	1340
924.494	870
924.591	1147
924.688	975
924.786	2094
924.883	790
924.979	1750
925.077	565
925.173	1340
925.270	957
925.367	1217
925.464	356
925.561	1810
925.658	1321
925.755	1787
925.852	1773
925.948	1688
926.045	1076
926.142	1291
926.239	1932
926.335	928
926.432	1207
926.529	1532
926.625	550
926.722	1432
926.818	1080
926.915	1444
927.011	844
927.108	801
927.204	1356
927.301	938
927.397	770
927.494	1008
927.590	945
927.687	555
927.783	1055
927.879	1087
927.976	620
928.072	1401
928.168	1150
928.264	1812
928.361	373
928.457	856
928.553	1021
928.649	1130
928.745	617
928.841	1349
928.937	913
929.033	1384
929.129	951
929.225	1151
929.321	551
929.417	1432
929.513	334
929.609	1192
929.705	832
929.801	903
929.897	836
929.993	1026
930.089	994
930.184	904
930.280	782
930.376	1494
930.471	967
930.567	528
930.663	628
930.758	11
930.854	1120
930.950	1196
931.045	1162
931.141	1023
931.236	837
931.332	720
931.427	246
931.523	1653
931.618	584
931.714	1027
931.809	593
931.905	921
932.000	221
932.095	752
932.191	422
932.286	888
932.381	943
932.476	568
932.572	334
932.667	958
932.762	1013
932.857	610
932.952	427
933.047	892
933.142	258
933.237	1053
933.332	530
933.427	916
933.522	1204
933.617	1478
933.712	277
933.807	1091
933.902	597
933.997	1043
934.092	967
934.187	657
934.282	614
934.376	565
934.471	234
934.566	686
934.661	767
934.755	691
934.850	622
934.945	588
935.039	180
935.134	1091
935.228	217
935.323	744
935.417	739
935.512	1036
935.606	272
935.701	1368
935.795	-18
935.890	13
935.984	942
936.079	958
936.173	537
936.267	920
936.362	4
936.456	1780
936.550	864
936.644	242
936.738	217
936.833	1771
936.927	673
937.021	1659
937.115	610
937.209	633
937.303	774
937.397	216
937.491	595
937.585	1083
937.679	765
937.773	1315
937.867	-557
937.961	1253
938.055	517
938.149	1246
938.243	181
938.337	1062
938.430	-39
938.524	611
938.618	801
938.712	1418
938.805	576
938.899	331
938.993	-110
939.086	258
939.180	174
939.274	2072
939.367	530
939.461	1450
939.554	597
939.648	1351
939.741	548
939.835	326
939.928	1009
940.022	1398
940.115	997
940.208	409
940.302	145
940.395	575
940.488	414
940.582	1088
940.675	-22
940.768	707
940.861	476
940.954	1112
941.048	161
941.141	1406
941.234	288
941.327	1506
941.420	2135
941.513	1760
941.606	378
941.699	437
941.792	277
941.885	377
941.978	545
942.071	246
942.164	238
942.257	896
942.349	768
942.442	1024
942.535	-670
942.628	1009
942.721	510
942.813	543
942.906	615
942.999	654
943.091	155
943.184	1086
943.277	943
943.369	1245
943.462	146
943.554	1084
943.647	831
943.739	472
943.832	194
943.924	1219
944.017	389
944.109	411
944.201	-122
944.294	187
944.386	339
944.478	768
944.571	325
944.663	937
944.755	247
944.847	657
944.940	195
945.032	770
945.124	109
945.216	971
945.308	570
945.400	924
945.492	943
945.584	-171
945.676	357
945.768	700
945.860	227
945.952	826
946.044	608
946.136	493
946.228	546
946.320	22
946.412	-73
946.503	388
946.595	249
946.687	764
946.779	-184
946.870	1406
946.962	-199
947.054	915
947.145	545
947.237	142
947.329	269
947.420	973
947.512	-649
947.603	-283
947.695	576
947.786	269
947.878	-317
947.969	555
948.061	-241
948.152	68
948.243	417
948.335	542
948.426	575
948.517	-366
948.609	4
948.700	779
948.791	-975
948.882	953
948.973	-504
949.065	965
949.156	172
949.247	-31
949.338	727
949.429	922
949.520	-326
949.611	-64
949.702	492
949.793	116
949.884	-237
949.975	439
950.066	397
950.157	757
950.247	-199
950.338	901
950.429	-596
950.520	629
950.611	-281
950.701	736
950.792	396
950.883	253
950.973	190
951.064	938
951.155	206
951.245	587
951.336	105
951.427	584
951.517	178
951.608	247
951.698	37
951.788	366
951.879	188
951.969	473
952.060	-302
952.150	804
952.240	47
952.331	112
952.421	722
952.511	384
952.602	547
952.692	-26
952.782	66
952.872	246
952.962	157
953.052	710
953.143	142
953.233	601
953.323	-356
953.413	672
953.503	360
953.593	676
953.683	-164
953.773	-210
953.863	616
953.953	544
954.042	-53
954.132	720
954.222	389
954.312	-198
954.402	-663
954.492	1651
954.581	810
954.671	2056
954.761	75
954.850	607
954.940	-616
955.030	482
955.119	7
955.209	356
955.298	-345
955.388	754
955.477	90
955.567	84
955.656	-449
955.746	666
955.835	429
955.925	190
956.014	596
956.103	818
956.193	302
956.282	149
956.371	700
956.461	812
956.550	343
956.639	901
956.728	261
956.817	783
956.906	431
956.995	917
957.085	333
957.174	358
957.263	620
957.352	559
957.441	357
957.530	663
957.619	214
957.708	36
957.796	358
957.885	911
957.974	223
958.063	1701
958.152	-207
958.241	1385
958.329	289
958.418	392
958.507	395
958.596	1157
958.684	102
958.773	1022
958.861	1051
958.950	1342
959.039	1337
959.127	1669
959.216	578
959.304	1402
959.393	1036
959.481	1039
959.570	832
959.658	1701
959.746	1752
959.835	1687
959.923	2726
960.011	2403
960.100	1085
960.188	1644
960.276	97
960.365	1359
960.453	185
960.541	654
960.629	205
960.717	849
960.805	919
960.893	364
960.981	398
961.069	702
961.158	399
961.245	345
961.333	-116
961.421	1351
961.509	147
961.597	431
961.685	330
961.773	-151
961.861	344
961.949	259
962.036	271
962.124	568
962.212	133
962.299	770
962.387	352
962.475	-81
962.562	-861
962.650	270
962.738	106
962.825	287
962.913	-504
963.000	-439
963.088	190
963.175	335
963.263	-575
963.350	570
963.438	-355
963.525	185
963.612	1252
963.700	3328
963.787	6034
963.874	7043
963.962	1673
964.049	156
964.136	47
964.223	-177
964.310	771
964.398	934
964.485	-92
964.572	158
964.659	692
964.746	1956
964.833	-543
964.920	685
965.007	144
965.094	-587
965.181	-191
965.268	278
965.355	-503
965.441	496
965.528	-567
965.615	645
965.702	-70
965.789	283
965.875	-220
965.962	-294
966.049	-599
966.136	52
966.222	232
966.309	-131
966.395	-514
966.482	553
966.569	-163
966.655	516
966.742	-680
966.828	-421
966.915	-1381
967.001	120
967.087	-1219
967.174	-182
967.260	-155
967.347	175
967.433	1158
967.519	4480
967.605	2915
967.692	478
967.778	-154
967.864	134
967.950	-399
968.036	-78
968.123	-789
968.209	336
968.295	-595
968.381	843
968.467	-93
968.553	-732
968.639	-996
968.725	-194
968.811	176
968.897	1162
968.983	-1265
969.069	-647
969.154	-820
969.240	-68
969.326	-767
969.412	-505
969.497	-767
969.583	-558
969.669	-253
969.755	-57
969.840	-648
969.926	-70
970.012	-1108
970.097	-107
970.183	-538
970.268	-26
970.354	-436
970.439	115
970.525	2044
970.610	1251
970.696	-357
970.781	56
970.866	-608
970.952	-483
971.037	-139
971.122	-475
971.208	-1175
971.293	-3
971.378	-816
971.463	-205
971.549	-9
971.634	-838
971.719	-755
971.804	-727
971.889	-162
971.974	-661
972.059	-177
972.144	-472
972.229	-780
972.314	263
972.399	-1355
972.484	73
972.569	-513
972.654	-46
972.739	702
972.824	1378
972.908	-90
972.993	-399
973.078	-681
973.163	-344
973.247	-552
973.332	-832
973.417	-477
973.501	494
973.586	-731
973.671	-572
973.755	57
973.840	-146
973.924	113
974.009	-522
974.093	-1006
974.178	-560
974.262	-502
974.346	993
974.431	315
974.515	-101
974.600	-1074
974.684	-41
974.768	-691
974.852	-539
974.937	-1342
975.021	-452
975.105	-1008
975.189	-1049
975.273	-966
975.358	-1220
975.442	-894
975.526	255
975.610	-1706
975.694	-1169
975.778	-742
975.862	-805
975.946	-1005
976.030	545
976.114	-673
976.198	147
976.281	-758
976.365	-453
976.449	-1176
976.533	-544
976.617	-1061
976.700	-707
976.784	-486
976.868	-443
976.951	112
977.035	285
977.119	-605
977.202	-1484
977.286	-1154
977.369	-15
977.453	-789
977.536	305
977.620	-936
977.703	-585
977.787	-1895
977.870	255
977.953	-139
978.037	-92
978.120	-228
978.203	-268
978.287	720
978.370	866
978.453	-411
978.536	-143
978.620	-639
978.703	160
978.786	-130
978.869	-1199
978.952	-1217
979.035	336
979.118	-490
979.201	-364
979.284	-810
979.367	-25
979.450	-628
979.533	-704
979.616	-813
979.699	-663
979.782	-773
979.865	-525
979.948	-1048
980.030	-1151
980.113	-895
980.196	-766
980.279	-1170
980.361	-1219
980.444	-1304
980.526	-251
980.609	-1214
980.692	-692
980.774	-452
980.857	-154
980.939	-504
981.022	-527
981.104	-1149
981.187	-575
981.269	-1385
981.352	-1006
981.434	-1289
981.516	-1089
981.599	-734
981.681	-150
981.763	-988
981.846	-1050
981.928	-1117
982.010	-742
982.092	-1132
982.174	-586
982.256	-1467
982.339	-839
982.421	-792
982.503	-86
982.585	-1668
982.667	-1098
982.749	-665
982.831	-357
982.913	-1264
982.995	671
983.077	-1329
983.158	-119
983.240	-1253
983.322	-1052
983.404	-711
983.486	-375
983.568	-1544
983.649	-986
983.731	-786
983.813	-884
983.894	-351
983.976	-1177
984.058	-794
984.139	-509
984.221	-931
984.302	-307
984.384	-898
984.465	-442
984.547	-370
984.628	-1081
984.710	-973
984.791	-392
984.872	-955
984.954	-1373
985.035	-1255
985.116	-1035
985.198	-2221
985.279	-1180
985.360	-691
985.441	-803
985.522	-612
985.604	-918
985.685	-1620
985.766	-449
985.847	-1051
985.928	-284
986.009	-881
986.090	-529
986.171	-668
986.252	-979
986.333	-1060
986.414	-943
986.495	-904
986.576	-912
986.656	-1701
986.737	-640
986.818	-902
986.899	-1046
986.980	-643
987.060	-939
987.141	-1341
987.222	-518
987.302	-1127
987.383	-959
987.464	-832
987.544	-373
987.625	-834
987.705	-274
987.786	-787
987.866	-1144
987.947	-873
988.027	-624
988.108	-1244
988.188	-675
988.268	-470
988.349	-1058
988.429	-1045
988.509	26
988.589	-337
988.670	-695
988.750	-456
988.830	-1037
988.910	-882
988.990	-1113
989.070	-995
989.151	-1260
989.231	-1261
989.311	-270
989.391	-1148
989.471	-1100
989.551	-1029
989.631	-812
989.711	-1042
989.791	-253
989.870	-1071
989.950	-50
990.030	-827
990.110	-712
990.190	-1339
990.269	-674
990.349	-1264
990.429	-232
990.509	-1303
990.588	-106
990.668	-928
990.747	-423
990.827	-1087
990.907	-980
990.986	-1613
991.066	-943
991.145	-1227
991.225	-637
991.304	-1016
991.383	-378
991.463	-1251
991.542	-1490
991.622	-1634
991.701	-664
991.780	-865
991.859	-443
991.939	-2094
992.018	-11
992.097	-813
992.176	-261
992.256	-1116
992.335	-880
992.414	-1535
992.493	-374
992.572	-990
992.651	-392
992.730	-1563
992.809	-474
992.888	-2224
992.967	-1162
993.046	-1642
993.125	-837
993.203	-1441
993.282	-1114
993.361	-787
993.440	-183
993.519	-1996
993.597	-321
993.676	-1589
993.755	-628
993.834	-263
993.912	-1215
993.991	-630
994.069	-1227
994.148	-813
994.226	-616
994.305	-825
994.384	-1663
994.462	-414
994.540	-1342
994.619	-1593
994.697	-607
994.776	-1581
994.854	231
994.932	-1638
995.011	-280
995.089	-1567
995.167	-1004
995.245	-941
995.324	-1312
995.402	-673
995.480	6
995.558	-827
995.636	-926
995.714	-1553
995.792	-906
995.870	-1461
995.948	-1106
996.026	-469
996.104	-1254
996.182	-1243
996.260	-1047
996.338	-1451
996.416	-651
996.494	-1074
996.572	-144
996.649	-1446
996.727	-865
996.805	-931
996.883	-836
996.960	-1122
997.038	-649
997.116	-566
997.193	-1557
997.271	-782
997.348	-1057
997.426	-1038
997.504	-711
997.581	-1246
997.658	-277
997.736	-1524
997.813	-1439
997.891	-750
997.968	-1188
998.046	-1046
998.123	-658
998.200	-1240
998.277	-1017
998.355	-20
998.432	-791
998.509	-1458
998.586	-634
998.663	-812
998.741	-904
998.818	-1313
998.895	-943
998.972	-1756
999.049	-1253
999.126	-1534
999.203	-641
999.280	-1606
999.357	-685
999.434	-1266
999.511	29
999.587	-1164
999.664	-806
999.741	-1422
999.818	-264
999.895	-1629
999.971	-1407
1000.048	-1699
1000.125	229
1000.202	-1370
1000.278	-832
1000.355	-1858
1000.431	-992
1000.508	-1622
1000.584	-805
1000.661	-1633
1000.738	-1582
1000.814	-810
1000.890	-779
1000.967	-688
1001.043	-745
1001.120	-1780
1001.196	-1101
1001.272	-1068
1001.349	-716
1001.425	-640
1001.501	-1122
1001.577	-1670
1001.654	-1221
1001.730	-1554
1001.806	-1104
1001.882	-1402
1001.958	-673
1002.034	-1170
1002.110	-594
1002.186	-1283
1002.262	-457
1002.338	-1956
1002.414	-734
1002.490	-1730
1002.566	-1480
1002.642	-1701
1002.718	-647
1002.794	-1644
1002.870	-497
1002.945	-2216
1003.021	-980
1003.097	-1548
1003.173	-1320
1003.248	-1669
1003.324	-1149
1003.400	-1417
1003.475	-1396
1003.551	-1898
1003.626	-1003
1003.702	-1539
1003.777	-1676
1003.853	-1547
1003.928	-1607
1004.004	-1149
1004.079	-1335
1004.155	-1698
1004.230	-1210
1004.305	-1120
1004.381	-1205
1004.456	-2239
1004.531	-666
1004.607	-1136
1004.682	-1360
1004.757	-1136
1004.832	-1032
1004.907	-1486
1004.982	-1043
1005.057	-1002
1005.133	-2027
1005.208	-1780
1005.283	-1366
1005.358	-1360
1005.433	-1928
1005.508	-1517
1005.583	-1214
1005.657	-2342
1005.732	-848
1005.807	-1548
1005.882	-1543
1005.957	-1296
1006.032	-1181
1006.106	-680
1006.181	-1190
1006.256	-2078
1006.331	-889
1006.405	-1951
1006.480	-1030
1006.554	-919
1006.629	-1709
1006.704	-1905
1006.778	-1661
1006.853	-1926
1006.927	-1718
1007.002	-1986
1007.076	-1046
1007.150	-2114
1007.225	-1460
1007.299	-1753
1007.373	-1425
1007.448	-2695
1007.522	-165
1007.596	-1819
1007.671	-1665
1007.745	-1678
1007.819	-974
1007.893	-1874
1007.967	-993
1008.041	-2020
1008.115	-644
1008.190	-1833
1008.264	-1382
1008.338	-2160
1008.412	-2196
1008.486	-1394
1008.560	-945
1008.633	-2162
1008.707	-1832
1008.781	-1851
1008.855	-1820
1008.929	-2232
1009.003	-1791
1009.076	-1682
1009.150	-1434
1009.224	-1789
1009.298	-1100
1009.371	-2556
1009.445	-1097
1009.519	-1582
1009.592	-1415
1009.666	-1497
1009.739	-1080
1009.813	-2089
1009.886	-626
1009.960	-1911
1010.033	-1057
1010.107	-1099
1010.180	-1723
1010.253	-1937
1010.327	-1550
1010.400	-1947
1010.473	-1888
1010.547	-1159
1010.620	-1406
1010.693	-1511
1010.766	-1248
1010.840	-1951
1010.913	-994
1010.986	-2129
1011.059	-1978
1011.132	-1339
1011.205	-1291
1011.278	-2283
1011.351	-1568
1011.424	-1951
1011.497	-1927
1011.570	-2052
1011.643	-1216
1011.716	-2038
1011.789	-2052
1011.862	-1787
1011.934	-1151
1012.007	-2511
1012.080	-1809
1012.153	-1998
1012.225	-1267
1012.298	-2016
1012.371	-1181
1012.443	-1628
1012.516	-2069
1012.588	-2578
1012.661	-1999
1012.733	-1968
1012.806	-1766
1012.879	-2202
1012.951	-1441
1013.023	-1965
1013.096	-1618
1013.168	-2005
1013.241	-1607
1013.313	-2192
1013.385	-1508
1013.458	-2432
1013.530	-1085
1013.602	-1766
1013.674	-1344
1013.746	-2286
1013.819	-1636
1013.891	-1848
1013.963	-2135
1014.035	-1376
1014.107	-1167
1014.179	-1736
1014.251	-1375
1014.323	-1514
1014.395	-1532
1014.467	-1926
1014.539	-1333
1014.611	-2718
1014.683	-1326
1014.754	-1861
1014.826	-1788
1014.898	-1725
1014.970	-1507
1015.042	-1400
1015.113	-1625
1015.185	-1851
1015.257	-1870
1015.328	-1822
1015.400	-1048
1015.471	-2117
1015.543	-2277
1015.615	-2007
1015.686	-2239
1015.757	-3006
1015.829	-1655
1015.901	-1496
1015.972	-1820
1016.043	-2336
1016.115	-1497
1016.186	-1655
1016.257	-2598
1016.328	-1737
1016.400	-1080
1016.471	-2404
1016.542	-1510
1016.613	-1863
1016.685	-1102
1016.756	-1771
1016.827	-1188
1016.898	-2150
1016.969	-1877
1017.040	-2896
1017.111	-1705
1017.182	-2280
1017.253	-2322
1017.324	-2996
1017.395	-1400
1017.466	-1068
1017.537	-1608
1017.608	-2574
1017.678	-1903
1017.749	-2642
1017.820	-1654
1017.891	-2043
1017.961	-1809
1018.032	-1971
1018.103	-1145
1018.173	-1380
1018.244	-2114
1018.315	-1940
1018.385	-1517
1018.456	-2335
1018.526	-2214
1018.597	-1363
1018.667	-1811
1018.738	-2464
1018.808	-1602
1018.878	-2728
1018.949	-1844
1019.019	-2049
1019.089	-1970
1019.160	-1947
1019.230	-2501
1019.300	-1651
1019.371	-2190
1019.441	-1483
1019.511	-1155
1019.581	-2720
1019.651	-2206
1019.721	-2332
1019.791	-2163
1019.861	-2386
1019.931	-1547
1020.001	-2064
1020.071	-2182
1020.141	-2369
1020.211	-2032
1020.281	-1913
1020.351	-1799
1020.421	-1914
1020.491	-1668
1020.560	-1806
1020.630	-1822
1020.700	-2390
1020.770	-1344
1020.839	-2014
1020.909	-1979
1020.979	-2269
1021.048	-1520
1021.118	-1491
1021.187	-1691
1021.257	-2720
1021.326	-1235
1021.396	-2203
1021.465	-885
1021.535	-2094
1021.604	-1626
1021.674	-2449
1021.743	-1790
1021.812	-2242
1021.882	-1590
1021.951	-1287
1022.020	-1277
1022.089	-1124
1022.159	-1884
1022.228	-2127
1022.297	-1368
1022.366	-2185
1022.435	-1063
1022.504	-1856
1022.573	-2046
1022.642	-2081
1022.711	-1758
1022.781	-1849
1022.849	-1510
1022.918	-2321
1022.987	-2305
1023.056	-3016
1023.125	-1481
1023.194	-1885
1023.263	-1500
1023.331	-2155
1023.400	-2311
1023.469	-1778
1023.538	-1609
1023.606	-2491
1023.675	-2323
1023.744	-2393
1023.812	-1004
1023.881	-1968
1023.949	-1076
1024.018	-1455
1024.086	-907
1024.155	-2799
1024.223	-1424
1024.292	-1890
1024.360	-661
1024.429	-1928
1024.497	-1968
1024.565	-2527
1024.634	-2306
1024.702	-1507
1024.770	-1896
1024.838	-2537
1024.907	-1212
1024.975	-2319
1025.043	-2206
1025.111	-2153
1025.179	-1833
1025.247	-1757
1025.315	-1199
1025.383	-2610
1025.451	-1867
1025.519	-2424
1025.587	-1493
1025.655	-1728
1025.723	-1761
1025.791	-1224
1025.859	-1542
1025.927	-1629
1025.995	-2272
1026.062	-2509
1026.130	-1762
1026.198	-1658
1026.266	-2573
1026.333	-2148
1026.401	-1789
1026.469	-2072
1026.536	-1983
1026.604	-2328
1026.671	-1736
1026.739	-2448
1026.806	-1902
1026.874	-2516
1026.941	-1860
1027.009	-2014
1027.076	-1711
1027.144	-1778
1027.211	-1383
1027.278	-1974
1027.345	-1874
1027.413	-2907
1027.480	-2354
1027.547	-2242
1027.614	-1843
1027.682	-1953
1027.749	-1186
1027.816	-1691
1027.883	-1625
1027.950	-1982
1028.017	-2273
1028.084	-1202
1028.151	-2446
1028.218	-1956
1028.285	-2412
1028.352	-1973
1028.419	-1846
1028.486	-2315
1028.553	-1707
1028.619	-1825
1028.686	-1319
1028.753	-2404
1028.820	-1726
1028.886	-1797
1028.953	-1722
1029.020	-2043
1029.086	-1648
1029.153	-1396
1029.220	-1792
1029.286	-1779
1029.353	-1578
1029.419	-2269
1029.486	-1696
1029.552	-1932
1029.619	-1458
1029.685	-2612
1029.751	-2292
1029.818	-1238
1029.884	-2236
1029.951	-1032
1030.017	-2206
1030.083	-2342
1030.149	-1396
1030.216	-2482
1030.282	-2027
1030.348	-1887
1030.414	-1770
1030.480	-1668
1030.546	-2233
1030.612	-2483
1030.678	-2267
1030.744	-1866
1030.810	-1788
1030.876	-1766
1030.942	-1933
1031.008	-2239
1031.074	-1883
1031.140	-2449
1031.206	-1778
1031.272	-2481
1031.337	-1240
1031.403	-1645
1031.469	-2416
1031.534	-2135
1031.600	-1656
1031.666	-2323
1031.731	-2467
1031.797	-1930
1031.863	-2594
1031.928	-2380
1031.994	-2172
1032.059	-1648
1032.125	-1947
1032.190	-2894
1032.256	-1805
1032.321	-2204
1032.386	-2407
1032.452	-2470
1032.517	-2377
1032.582	-1547
1032.647	-1853
1032.713	-2495
1032.778	-1247
1032.843	-2404
1032.908	-1087
1032.974	-2170
1033.039	-1957
1033.104	-1862
1033.169	-2770
1033.234	-2201
1033.299	-2039
1033.364	-2316
1033.429	-1800
1033.494	-1415
1033.559	-2433
1033.624	-2285
1033.688	-1627
1033.753	-2504
1033.818	-1335
1033.883	-2330
1033.948	-2311
1034.013	-2669
1034.077	-2219
1034.142	-2497
1034.207	-1664
1034.271	-2102
1034.336	-1348
1034.400	-1746
1034.465	-1889
1034.530	-1492
1034.594	-1616
1034.658	-2289
1034.723	-2363
1034.787	-1395
1034.852	-2115
1034.916	-2055
1034.981	-2611
1035.045	-2152
1035.109	-1698
1035.173	-2002
1035.238	-1948
1035.302	-2282
1035.366	-2099
1035.430	-2517
1035.495	-2407
1035.559	-2071
1035.623	-1533
1035.687	-2322
1035.751	-2021
1035.815	-2005
1035.879	-2093
1035.943	-1893
1036.007	-2368
1036.071	-3087
1036.135	-2613
1036.198	-2330
1036.262	-2670
1036.326	-2477
1036.390	-2040
1036.454	-2044
1036.517	-2203
1036.581	-2470
1036.645	-1098
1036.709	-1569
1036.772	-1485
1036.836	-2312
1036.900	-1815
1036.963	-2533
1037.026	-2084
1037.090	-2960
1037.154	-2182
1037.217	-2041
1037.280	-2829
1037.344	-2687
1037.407	-1311
1037.471	-3045
1037.534	-2308
1037.597	-2637
1037.661	-2105
1037.724	-3331
1037.787	-1834
1037.850	-2541
1037.913	-2706
1037.977	-2329
1038.040	-2676
1038.103	-2391
1038.166	-1517
1038.229	-2613
1038.292	-2236
1038.355	-3089
1038.418	-2528
1038.481	-1810
1038.544	-1931
1038.607	-2872
1038.670	-1523
1038.732	-2838
1038.795	-2440
1038.858	-3131
1038.921	-2047
1038.984	-1819
1039.046	-2278
1039.109	-2626
1039.172	-1669
1039.234	-2339
1039.297	-2203
1039.360	-2400
1039.422	-2343
1039.485	-1684
1039.547	-1508
1039.610	-2538
1039.672	-2937
1039.734	-2323
1039.797	-1547
1039.859	-2265
1039.922	-2504
1039.984	-3021
1040.046	-2321
1040.109	-1620
1040.171	-1434
1040.233	-2827
1040.295	-2311
1040.358	-3352
1040.420	-2383
1040.482	-2824
1040.544	-2094
1040.606	-2770
1040.668	-1879
1040.730	-3738
1040.792	-2104
1040.854	-2750
1040.916	-1906
1040.978	-1974
1041.040	-1379
1041.102	-2048
1041.164	-1725
1041.225	-2175
1041.287	-2283
1041.349	-3235
1041.411	-2858
1041.472	-2495
1041.534	-2061
1041.596	-3089
1041.657	-1529
1041.719	-2567
1041.781	-1868
1041.842	-2740
1041.904	-1492
1041.965	-3110
1042.027	-2047
1042.088	-2027
1042.150	-1356
1042.211	-2580
1042.272	-2042
1042.334	-2793
1042.395	-2701
1042.456	-2643
1042.518	-2049
1042.579	-2091
1042.640	-2225
1042.701	-2533
1042.763	-1829
1042.824	-3067
1042.885	-2814
1042.946	-2470
1043.007	-1722
1043.068	-2889
1043.129	-2343
1043.190	-2448
1043.251	-2453
1043.312	-2369
1043.373	-1703
1043.434	-2602
1043.495	-1882
1043.556	-2520
1043.616	-921
1043.677	-3154
1043.738	-2559
1043.799	-2258
1043.859	-1542
1043.920	-2301
1043.981	-2836
1044.041	-2607
1044.102	-1664
1044.162	-2107
1044.223	-2779
1044.284	-2820
1044.344	-2279
1044.405	-2160
1044.465	-2097
1044.525	-2799
1044.586	-1516
1044.646	-2503
1044.707	-2191
1044.767	-2434
1044.827	-2145
1044.887	-2508
1044.948	-1907
1045.008	-2103
1045.068	-2611
1045.128	-2258
1045.188	-1842
1045.249	-1619
1045.309	-2636
1045.369	-1986
1045.429	-2463
1045.489	-1780
1045.549	-1984
1045.609	-2767
1045.669	-1736
1045.729	-2524
1045.789	-1993
1045.848	-2911
1045.908	-1462
1045.968	-1813
1046.028	-1728
1046.088	-2305
1046.147	-1788
1046.207	-3488
1046.267	-1619
1046.326	-2227
1046.386	-1801
1046.446	-896
1046.505	-701
1046.565	-2035
1046.624	-1540
1046.684	-1647
1046.743	-658
1046.803	-1973
1046.862	-888
1046.922	0
