'Start Wavelength	183.907
'End Wavelength	1046.922
'Gate Delay	5.000
'Gate Width (ms)	1.050
'Laser Output Level	0.000
'X Position	0.000
'Y Position	0.000
'Z Position	0.000
'Grid Point Number	1.000
'Shot Number	100.000
183.907	369.000
183.977	-54.000
184.047	518
184.116	365
184.186	757
184.256	662
184.325	10
184.395	400
184.465	441
184.534	466
184.604	716
184.674	495
184.743	-279
184.813	811
184.883	1026
184.952	27
185.022	944
185.092	491
185.161	266
185.231	-459
185.301	645
185.370	-158
185.440	496
185.509	409
185.579	-296
185.649	355
185.718	875
185.788	681
185.857	283
185.927	74
185.996	339
186.066	261
186.136	-124
186.205	93
186.275	1137
186.344	306
186.414	-117
186.483	-137
186.553	949
186.622	-60
186.692	1181
186.761	-638
186.831	828
186.900	-409
186.970	585
187.039	-337
187.109	518
187.178	-432
187.248	430
187.317	780
187.387	56
187.456	-154
187.526	326
187.595	-359
187.664	-154
187.734	997
187.803	534
187.873	77
187.942	380
188.012	-525
188.081	63
188.150	-316
188.220	76
188.289	-166
188.358	256
188.428	541
188.497	63
188.567	-120
188.636	-129
188.705	-166
188.775	473
188.844	-691
188.913	512
188.983	-265
189.052	612
189.121	-268
189.191	56
189.260	-170
189.329	685
189.399	-714
189.468	-93
189.537	416
189.606	290
189.676	315
189.745	793
189.814	234
189.883	712
189.953	568
190.022	127
190.091	229
190.161	642
190.230	384
190.299	577
190.368	49
190.437	584
190.507	-545
190.576	647
190.645	185
190.714	3
190.783	-717
190.853	283
190.922	595
190.991	187
191.060	680
191.129	448
191.198	-441
191.268	599
191.337	295
191.406	1117
191.475	-268
191.544	553
191.613	-478
191.682	76
191.752	-216
191.821	-350
191.890	494
191.959	644
192.028	291
192.097	726
192.166	-546
192.235	-78
192.304	-173
192.373	626
192.442	-3
192.511	416
192.580	108
192.650	439
192.719	-413
192.788	647
192.857	-34
192.926	-190
192.995	624
193.064	1068
193.133	-200
193.202	384
193.271	148
193.340	636
193.409	217
193.478	1722
193.547	140
193.615	384
193.684	1103
193.753	803
193.822	630
193.891	450
193.960	712
194.029	451
194.098	335
194.167	424
194.236	814
194.305	825
194.374	500
194.443	321
194.512	-552
194.580	1206
194.649	-53
194.718	80
194.787	-439
194.856	126
194.925	412
194.994	84
195.062	21
195.131	679
195.200	-904
195.269	883
195.338	485
195.407	709
195.475	524
195.544	599
195.613	248
195.682	792
195.751	456
195.819	250
195.888	-149
195.957	1573
196.026	158
196.094	772
196.163	-41
196.232	1172
196.301	-94
196.369	211
196.438	429
196.507	301
196.576	-466
196.644	499
196.713	137
196.782	698
196.850	73
196.919	231
196.988	94
197.056	-224
197.125	320
197.194	522
197.262	660
197.331	306
197.400	276
197.468	-993
197.537	-1119
197.606	1011
197.674	59
197.743	992
197.812	13
197.880	600
197.949	352
198.017	863
198.086	28
198.155	1066
198.223	55
198.292	1052
198.360	-67
198.429	210
198.497	-229
198.566	355
198.635	476
198.703	448
198.772	69
198.840	1146
198.909	1049
198.977	-123
199.046	2
199.114	73
199.183	409
199.251	171
199.320	131
199.388	85
199.457	63
199.525	788
199.594	-129
199.662	298
199.731	-301
199.799	470
199.867	10
199.936	833
200.004	-200
200.073	994
200.141	113
200.210	-267
200.278	267
200.346	728
200.415	1050
200.483	826
200.552	117
200.620	842
200.688	557
200.757	531
200.825	-321
200.893	82
200.962	133
201.030	381
201.098	147
201.167	475
201.235	-100
201.303	467
201.372	-377
201.440	382
201.508	281
201.577	538
201.645	-343
201.713	357
201.781	286
201.850	-9
201.918	630
201.986	-99
202.055	-494
202.123	252
202.191	180
202.259	576
202.327	-92
202.396	525
202.464	233
202.532	402
202.600	1358
202.669	452
202.737	516
202.805	224
202.873	-519
202.941	738
203.009	-161
203.078	223
203.146	216
203.214	-386
203.282	-505
203.350	596
203.418	604
203.487	413
203.555	-248
203.623	114
203.691	1178
203.759	494
203.827	53
203.895	-69
203.963	550
204.031	382
204.099	70
204.168	99
204.236	567
204.304	1292
204.372	600
204.440	1394
204.508	-98
204.576	532
204.644	75
204.712	437
204.780	495
204.848	684
204.916	3
204.984	34
205.052	-135
205.120	190
205.188	206
205.256	258
205.324	-460
205.392	-167
205.460	335
205.528	1189
205.596	306
205.664	1283
205.732	178
205.799	748
205.867	620
205.935	-33
206.003	755
206.071	572
206.139	488
206.207	449
206.275	-154
206.343	161
206.411	401
206.478	337
206.546	158
206.614	647
206.682	61
206.750	387
206.818	413
206.885	891
206.953	-836
207.021	1429
207.089	126
207.157	398
207.225	88
207.292	178
207.360	216
207.428	205
207.496	-76
207.563	218
207.631	354
207.699	174
207.767	-65
207.834	181
207.902	-467
207.970	317
208.038	-358
208.105	490
208.173	-5
208.241	627
208.309	-91
208.376	578
208.444	656
208.512	416
208.579	678
208.647	1122
208.715	786
208.782	486
208.850	7
208.918	69
208.985	-179
209.053	1094
209.120	1036
209.188	202
209.256	-132
209.323	275
209.391	202
209.459	730
209.526	74
209.594	477
209.661	877
209.729	1029
209.796	186
209.864	969
209.932	-516
209.999	1237
210.067	37
210.134	692
210.202	267
210.269	1032
210.337	894
210.404	415
210.472	672
210.539	801
210.607	204
210.674	345
210.742	267
210.809	557
210.877	325
210.944	1366
211.012	-22
211.079	1299
211.146	490
211.214	441
211.281	342
211.349	1012
211.416	982
211.484	811
211.551	43
211.618	1064
211.686	-193
211.753	567
211.821	443
211.888	-14
211.955	1045
212.023	667
212.090	256
212.157	227
212.225	563
212.292	1165
212.359	1371
212.427	4555
212.494	1686
212.561	844
212.629	461
212.696	817
212.763	538
212.831	1044
212.898	294
212.965	159
213.032	890
213.100	568
213.167	-413
213.234	1142
213.301	1038
213.369	211
213.436	203
213.503	616
213.570	1051
213.638	1688
213.705	587
213.772	-11
213.839	571
213.906	876
213.973	750
214.041	491
214.108	775
214.175	411
214.242	257
214.309	333
214.376	464
214.444	237
214.511	909
214.578	586
214.645	829
214.712	998
214.779	-325
214.846	492
214.913	1226
214.980	1794
215.048	529
215.115	1791
215.182	814
215.249	884
215.316	126
215.383	1035
215.450	588
215.517	1304
215.584	668
215.651	1109
215.718	189
215.785	716
215.852	74
215.919	1340
215.986	259
216.053	542
216.120	-159
216.187	479
216.254	1282
216.321	695
216.388	-321
216.455	727
216.522	-10
216.589	1223
216.656	1523
216.722	1283
216.789	774
216.856	1141
216.923	791
216.990	1054
217.057	652
217.124	1799
217.191	484
217.258	1426
217.324	1352
217.391	1759
217.458	1254
217.525	460
217.592	1356
217.659	834
217.725	689
217.792	1582
217.859	1501
217.926	1049
217.993	106
218.059	730
218.126	-315
218.193	351
218.260	362
218.327	-356
218.393	157
218.460	104
218.527	-166
218.594	476
218.660	369
218.727	1402
218.794	-38
218.860	603
218.927	405
218.994	1540
219.061	-192
219.127	604
219.194	754
219.261	602
219.327	544
219.394	1112
219.461	-415
219.527	553
219.594	435
219.661	1109
219.727	-175
219.794	1383
219.860	129
219.927	456
219.994	1411
220.060	2833
220.127	2250
220.193	1674
220.260	1461
220.326	2362
220.393	2128
220.460	2690
220.526	1938
220.593	1111
220.659	1761
220.726	990
220.792	2187
220.859	2362
220.925	3458
220.992	5283
221.058	5120
221.125	3862
221.191	2857
221.258	1240
221.324	181
221.391	1483
221.457	369
221.524	604
221.590	921
221.657	3601
221.723	1755
221.789	2456
221.856	1261
221.922	1283
221.989	947
222.055	1199
222.121	-628
222.188	1582
222.254	355
222.321	695
222.387	429
222.453	72
222.520	239
222.586	-156
222.652	771
222.719	658
222.785	326
222.851	572
222.918	0
222.984	549
223.050	325
223.116	-918
223.183	338
223.249	183
223.315	263
223.382	552
223.448	300
223.514	76
223.580	-156
223.647	-619
223.713	-17
223.779	-319
223.845	268
223.911	157
223.978	-161
224.044	833
224.110	6
224.176	937
224.242	-411
224.309	441
224.375	-245
224.441	259
224.507	-1134
224.573	488
224.639	-236
224.705	-310
224.772	-282
224.838	138
224.904	46
224.970	613
225.036	345
225.102	645
225.168	176
225.234	887
225.300	-700
225.366	676
225.432	727
225.499	1027
225.565	-128
225.631	-434
225.697	131
225.763	-31
225.829	281
225.895	686
225.961	1122
226.027	1431
226.093	894
226.159	1886
226.225	2447
226.291	4866
226.357	7883
226.423	3339
226.489	1844
226.554	1959
226.620	768
226.686	2208
226.752	2690
226.818	5400
226.884	10127
226.950	8393
227.016	3695
227.082	2371
227.148	1191
227.214	1845
227.279	1344
227.345	1193
227.411	944
227.477	2474
227.543	4431
227.609	4278
227.674	2841
227.740	1334
227.806	758
227.872	656
227.938	1365
228.003	1016
228.069	122
228.135	676
228.201	-296
228.267	-10
228.332	124
228.398	1007
228.464	676
228.530	-80
228.595	71
228.661	98
228.727	-48
228.792	626
228.858	236
228.924	-172
228.990	1655
229.055	-60
229.121	672
229.187	279
229.252	735
229.318	-311
229.384	-270
229.449	882
229.515	-353
229.581	-1093
229.646	1239
229.712	274
229.777	613
229.843	1563
229.909	691
229.974	1278
230.040	61
230.105	588
230.171	-121
230.236	1143
230.302	1769
230.368	1144
230.433	268
230.499	586
230.564	1345
230.630	326
230.695	196
230.761	501
230.826	-928
230.892	1647
230.957	131
231.023	89
231.088	-30
231.154	757
231.219	303
231.284	334
231.350	948
231.415	-83
231.481	417
231.546	337
231.612	144
231.677	368
231.742	-1154
231.808	819
231.873	184
231.939	-683
232.004	1472
232.069	1388
232.135	219
232.200	-414
232.265	117
232.331	795
232.396	345
232.461	-499
232.527	12
232.592	-88
232.657	507
232.723	592
232.788	-144
232.853	386
232.918	-244
232.984	-125
233.049	-488
233.114	423
233.179	464
233.245	1635
233.310	1013
233.375	-551
233.440	64
233.506	-208
233.571	-151
233.636	122
233.701	50
233.766	1092
233.832	-84
233.897	1134
233.962	-798
234.027	1753
234.092	-7
234.157	1082
234.222	657
234.288	559
234.353	2925
234.418	3065
234.483	1365
234.548	505
234.613	430
234.678	677
234.743	-101
234.808	3753
234.873	994
234.938	1475
235.004	457
235.069	846
235.134	467
235.199	965
235.264	-469
235.329	88
235.394	719
235.459	835
235.524	-306
235.589	1272
235.654	141
235.719	-456
235.784	702
235.849	138
235.913	1449
235.978	2200
236.043	826
236.108	510
236.173	561
236.238	473
236.303	212
236.368	476
236.433	1637
236.498	2510
236.563	2015
236.627	4538
236.692	13746
236.757	10265
236.822	3993
236.887	2750
236.952	2169
237.017	1565
237.081	2593
237.146	2136
237.211	6133
237.276	13685
237.341	19240
237.405	9158
237.470	3265
237.535	2183
237.600	2028
237.664	2057
237.729	309
237.794	761
237.859	3405
237.923	2394
237.988	1356
238.053	2009
238.118	1571
238.182	5418
238.247	4424
238.312	1490
238.376	1717
238.441	-388
238.506	1088
238.570	707
238.635	727
238.700	1412
238.764	211
238.829	2445
238.893	1477
238.958	1777
239.023	625
239.087	972
239.152	711
239.216	777
239.281	525
239.346	-45
239.410	430
239.475	958
239.539	5206
239.604	2794
239.668	1152
239.733	1487
239.797	3600
239.862	8932
239.926	6863
239.991	3018
240.055	1324
240.120	582
240.184	1841
240.249	538
240.313	186
240.378	1078
240.442	2443
240.507	4335
240.571	475
240.635	1160
240.700	1638
240.764	980
240.829	918
240.893	213
240.957	212
241.022	3120
241.086	4163
241.151	1629
241.215	-127
241.279	1488
241.344	1469
241.408	1082
241.472	-105
241.537	1271
241.601	508
241.665	-320
241.730	269
241.794	769
241.858	26
241.922	1015
241.987	802
242.051	385
242.115	-66
242.179	723
242.244	-347
242.308	1215
242.372	625
242.436	456
242.501	965
242.565	681
242.629	-184
242.693	555
242.757	-315
242.822	123
242.886	86
242.950	1066
243.014	291
243.078	733
243.142	1175
243.206	661
243.271	-5
243.335	684
243.399	922
243.463	5971
243.527	14694
243.591	4063
243.655	2029
243.719	867
243.783	1821
243.847	2253
243.911	2483
243.975	3484
244.040	965
244.104	2046
244.168	245
244.232	1593
244.296	1656
244.360	3049
244.424	613
244.488	535
244.552	408
244.615	-1288
244.679	207
244.743	1381
244.807	-112
244.871	774
244.935	549
244.999	-213
245.063	771
245.127	1141
245.191	835
245.255	1900
245.319	1395
245.383	507
245.446	1415
245.510	807
245.574	-86
245.638	634
245.702	-395
245.766	3028
245.829	1645
245.893	661
245.957	90
246.021	1567
246.085	1057
246.149	1623
246.212	4335
246.276	5887
246.340	1367
246.404	1923
246.467	1556
246.531	1162
246.595	1879
246.659	2067
246.722	895
246.786	2302
246.850	1846
246.913	3364
246.977	582
247.041	731
247.104	783
247.168	1978
247.232	4030
247.295	8868
247.359	3525
247.423	2030
247.486	3413
247.550	2391
247.614	1343
247.677	1372
247.741	1205
247.804	1850
247.868	2058
247.932	3811
247.995	7405
248.059	2455
248.122	506
248.186	3097
248.249	2862
248.313	13845
248.376	12913
248.440	7567
248.503	1800
248.567	4128
248.630	2826
248.694	5951
248.757	6498
248.821	14524
248.884	7738
248.948	7306
249.011	9942
249.075	17093
249.138	12565
249.202	4577
249.265	2071
249.328	3508
249.392	1588
249.455	3153
249.519	1988
249.582	1924
249.645	3462
249.709	3085
249.772	1203
249.835	1923
249.899	2382
249.962	2739
250.025	856
250.089	6007
250.152	6915
250.215	3196
250.279	1950
250.342	2116
250.405	1473
250.468	1395
250.532	2152
250.595	4389
250.658	15477
250.721	22785
250.785	7434
250.848	5330
250.911	2141
250.974	3892
251.038	3710
251.101	8355
251.164	3880
251.227	4219
251.290	2954
251.354	5730
251.417	21706
251.480	17993
251.543	13711
251.606	38874
251.669	24614
251.732	10437
251.795	11084
251.859	12647
251.922	24245
251.985	12936
252.048	4689
252.111	4017
252.174	3826
252.237	8407
252.300	16323
252.363	17340
252.426	31629
252.489	10992
252.552	5995
252.615	3797
252.678	5060
252.741	12900
252.804	15268
252.867	31915
252.930	18176
252.993	9846
253.056	6454
253.119	4614
253.182	3019
253.245	5777
253.308	3469
253.371	4104
253.434	3119
253.497	4100
253.559	8681
253.622	5184
253.685	5185
253.748	5428
253.811	2727
253.874	3685
253.937	2376
254.000	2602
254.062	4659
254.125	8045
254.188	6838
254.251	5183
254.314	2147
254.376	5020
254.439	5386
254.502	5072
254.565	5160
254.628	9167
254.690	4574
254.753	3055
254.816	2279
254.878	3001
254.941	6258
255.004	5655
255.067	1692
255.129	2395
255.192	1630
255.255	1032
255.317	3009
255.380	2399
255.443	993
255.505	1277
255.568	189
255.631	1300
255.693	1409
255.756	24
255.819	1986
255.881	809
255.944	913
256.006	201
256.069	633
256.132	565
256.194	1291
256.257	3991
256.319	2174
256.382	2070
256.444	1852
256.507	1317
256.569	448
256.632	1174
256.694	1913
256.757	8773
256.819	22180
256.882	6640
256.944	3035
257.007	3261
257.069	1899
257.132	1749
257.194	2167
257.257	1630
257.319	216
257.381	1619
257.444	6077
257.506	26342
257.569	24971
257.631	12900
257.693	6132
257.756	3143
257.818	1880
257.880	2057
257.943	2257
258.005	1332
258.067	1093
258.130	507
258.192	1775
258.254	2551
258.317	1431
258.379	1237
258.441	4904
258.503	4504
258.566	4863
258.628	6701
258.690	1208
258.753	2052
258.815	3462
258.877	1984
258.939	577
259.001	623
259.064	735
259.126	628
259.188	515
259.250	1229
259.312	1119
259.375	5722
259.437	2647
259.499	1652
259.561	456
259.623	1748
259.685	619
259.747	756
259.809	5370
259.872	8565
259.934	14739
259.996	11849
260.058	3105
260.120	1629
260.182	1806
260.244	800
260.306	522
260.368	1691
260.430	236
260.492	2889
260.554	6055
260.616	3822
260.678	7486
260.740	8895
260.802	1119
260.864	2205
260.926	233
260.988	1611
261.050	488
261.112	3418
261.174	9717
261.236	6788
261.298	1888
261.359	3533
261.421	5121
261.483	1708
261.545	2102
261.607	427
261.669	1150
261.731	2717
261.793	6037
261.854	2225
261.916	1717
261.978	1428
262.040	962
262.102	1366
262.164	1578
262.225	1635
262.287	697
262.349	3780
262.411	2356
262.472	1477
262.534	2435
262.596	4588
262.658	1273
262.719	1054
262.781	1664
262.843	4020
262.904	1846
262.966	1686
263.028	647
263.090	11179
263.151	22589
263.213	7039
263.275	3621
263.336	1809
263.398	486
263.459	285
263.521	413
263.583	4145
263.644	2070
263.706	848
263.767	12
263.829	866
263.891	428
263.952	546
264.014	-63
264.075	1983
264.137	4475
264.198	2295
264.260	-201
264.321	732
264.383	2352
264.444	8195
264.506	2230
264.567	1066
264.629	3567
264.690	6172
264.752	1950
264.813	1578
264.875	1
264.936	779
264.998	738
265.059	935
265.120	254
265.182	2416
265.243	12323
265.305	9896
265.366	2674
265.427	2023
265.489	1558
265.550	-16
265.611	611
265.673	1339
265.734	668
265.795	962
265.857	-97
265.918	722
265.979	3573
266.040	20120
266.102	13667
266.163	4471
266.224	2610
266.286	1781
266.347	801
266.408	152
266.469	738
266.530	482
266.592	-41
266.653	2646
266.714	3457
266.775	754
266.836	343
266.898	474
266.959	1029
267.020	1359
267.081	1451
267.142	1229
267.203	-157
267.264	-314
267.326	1882
267.387	337
267.448	-560
267.509	870
267.570	151
267.631	198
267.692	-761
267.753	866
267.814	-342
267.875	2677
267.936	4604
267.997	1778
268.058	898
268.119	975
268.180	988
268.241	319
268.302	-58
268.363	-70
268.424	546
268.485	830
268.546	-291
268.607	933
268.668	88
268.729	-50
268.790	-401
268.851	914
268.912	2307
268.972	2890
269.033	442
269.094	195
269.155	565
269.216	548
269.277	325
269.338	1116
269.398	710
269.459	-33
269.520	1581
269.581	2309
269.642	1590
269.702	486
269.763	-552
269.824	162
269.885	1100
269.945	2435
270.006	1061
270.067	13
270.128	-105
270.188	770
270.249	-698
270.310	373
270.370	-161
270.431	890
270.492	-642
270.553	780
270.613	1253
270.674	5427
270.734	1215
270.795	790
270.856	1418
270.916	671
270.977	98
271.038	1275
271.098	222
271.159	2492
271.219	1419
271.280	353
271.340	186
271.401	1089
271.462	2255
271.522	1555
271.583	116
271.643	1256
271.704	284
271.764	1348
271.825	4004
271.885	14287
271.946	16204
272.006	4773
272.066	7912
272.127	13845
272.187	5640
272.248	2240
272.308	2293
272.369	10565
272.429	3960
272.489	3712
272.550	2695
272.610	4143
272.671	1851
272.731	2786
272.791	3085
272.852	939
272.912	1820
272.972	1139
273.033	840
273.093	1270
273.153	2235
273.214	1153
273.274	781
273.334	7847
273.394	13286
273.455	4693
273.515	5470
273.575	11720
273.635	4161
273.696	6041
273.756	11395
273.816	4983
273.876	1887
273.936	5829
273.997	8338
274.057	1971
274.117	1211
274.177	4368
274.237	17985
274.297	13326
274.358	7760
274.418	11306
274.478	7287
274.538	3129
274.598	1882
274.658	8266
274.718	8602
274.778	3638
274.838	1164
274.898	4040
274.958	12881
275.018	13613
275.078	7360
275.138	3210
275.198	1919
275.258	1964
275.318	1464
275.378	3688
275.438	3589
275.498	2382
275.558	6053
275.618	13391
275.678	8769
275.738	6307
275.798	4414
275.858	2485
275.918	747
275.978	1721
276.038	1950
276.098	682
276.157	2453
276.217	10438
276.277	3792
276.337	2571
276.397	1485
276.457	2895
276.517	1265
276.576	1182
276.636	31
276.696	2393
276.756	5870
276.815	3914
276.875	1740
276.935	1820
276.995	1082
277.055	1284
277.114	1284
277.174	3044
277.234	7793
277.293	2799
277.353	1608
277.413	849
277.472	1481
277.532	612
277.592	2183
277.651	4482
277.711	6936
277.771	2957
277.830	11881
277.890	8419
277.950	6703
278.009	17598
278.069	5671
278.128	6677
278.188	7744
278.248	4400
278.307	8239
278.367	5646
278.426	2227
278.486	1928
278.545	428
278.605	1255
278.664	861
278.724	1994
278.783	6113
278.843	13768
278.902	3461
278.962	2921
279.021	1963
279.081	2616
279.140	1510
279.199	2061
279.259	2405
279.318	2475
279.378	2695
279.437	6174
279.496	23805
279.556	51769
279.615	33245
279.675	8744
279.734	6174
279.793	10935
279.853	18095
279.912	7114
279.971	2470
280.031	3018
280.090	8093
280.149	12621
280.208	7974
280.268	35330
280.327	30290
280.386	7295
280.445	7194
280.505	6500
280.564	3088
280.623	2629
280.682	4723
280.742	7137
280.801	2115
280.860	1214
280.919	1466
280.978	547
281.037	864
281.097	844
281.156	654
281.215	1532
281.274	2054
281.333	10587
281.392	6442
281.451	2001
281.510	1693
281.569	1089
281.628	316
281.688	769
281.747	2135
281.806	738
281.865	1144
281.924	725
281.983	514
282.042	921
282.101	423
282.160	955
282.219	654
282.278	1198
282.337	5717
282.396	3690
282.454	1500
282.513	1994
282.572	8605
282.631	4343
282.690	923
282.749	1181
282.808	1385
282.867	799
282.926	1434
282.985	1222
283.043	669
283.102	1044
283.161	1280
283.220	5122
283.279	9153
283.338	3589
283.396	2041
283.455	1777
283.514	1908
283.573	3043
283.631	1447
283.690	2572
283.749	711
283.808	4391
283.866	4032
283.925	1503
283.984	1414
284.043	1866
284.101	1395
284.160	928
284.219	2104
284.277	1797
284.336	3035
284.395	12144
284.453	8191
284.512	3009
284.570	3894
284.629	3377
284.688	1574
284.746	2598
284.805	2604
284.863	3690
284.922	3903
284.981	4492
285.039	7201
285.098	15144
285.156	36099
285.215	78310
285.273	69072
285.332	36792
285.390	18537
285.449	12126
285.507	7595
285.566	5894
285.624	4316
285.683	3956
285.741	3037
285.799	2646
285.858	2095
285.916	2218
285.975	1488
286.033	2134
286.091	618
286.150	438
286.208	1258
286.267	1304
286.325	1828
286.383	3371
286.442	2974
286.500	1657
286.558	933
286.616	801
286.675	1502
286.733	2130
286.791	1100
286.850	1991
286.908	3179
286.966	4979
287.024	1144
287.083	1356
287.141	-42
287.199	1783
287.257	2153
287.315	2303
287.374	1245
287.432	5564
287.490	3625
287.548	1816
287.606	965
287.664	1667
287.723	2149
287.781	3437
287.839	1147
287.897	2445
287.955	2364
288.013	4803
288.071	10264
288.129	41171
288.187	95562
288.245	40819
288.303	13404
288.361	7759
288.419	5574
288.477	4275
288.535	3062
288.593	2981
288.651	1601
288.709	973
288.767	1655
288.825	1397
288.883	1048
288.941	1052
288.999	1274
289.057	1212
289.115	651
289.173	1528
289.231	1146
289.289	1004
289.346	438
289.404	2129
289.462	3174
289.520	2675
289.578	652
289.636	1137
289.694	836
289.751	675
289.809	1146
289.867	1449
289.925	2109
289.983	2683
290.040	579
290.098	1384
290.156	1190
290.214	1805
290.271	674
290.329	1062
290.387	874
290.444	1134
290.502	909
290.560	1229
290.617	1075
290.675	1823
290.733	289
290.790	1785
290.848	240
290.906	1667
290.963	290
291.021	1423
291.078	944
291.136	2339
291.194	6001
291.251	12149
291.309	3661
291.366	2197
291.424	906
291.481	1774
291.539	-3
291.596	1230
291.654	620
291.711	848
291.769	1528
291.826	4093
291.884	2602
291.941	980
291.999	1013
292.056	1698
292.114	1628
292.171	516
292.228	758
292.286	2283
292.343	3100
292.401	4291
292.458	2807
292.515	1783
292.573	2439
292.630	2676
292.687	1210
292.745	1831
292.802	2447
292.859	7310
292.917	12077
292.974	6631
293.031	1943
293.089	1959
293.146	1287
293.203	1090
293.260	915
293.318	2196
293.375	4273
293.432	1643
293.489	1531
293.546	1757
293.604	2181
293.661	8047
293.718	19463
293.775	10511
293.832	4469
293.889	4519
293.947	4322
294.004	3136
294.061	2756
294.118	6906
294.175	12969
294.232	15810
294.289	7766
294.346	4332
294.403	3483
294.460	3147
294.517	2583
294.574	1811
294.631	1870
294.688	3056
294.745	6970
294.802	23700
294.859	25845
294.916	11840
294.973	5729
295.030	4638
295.087	3295
295.144	2590
295.201	1998
295.258	3085
295.315	2792
295.372	9076
295.429	15870
295.486	7326
295.542	5959
295.599	12927
295.656	20106
295.713	14597
295.770	16096
295.827	7570
295.883	3654
295.940	4195
295.997	5238
296.054	5160
296.111	2266
296.167	2842
296.224	1034
296.281	2393
296.338	2072
296.394	2209
296.451	2521
296.508	8394
296.564	14335
296.621	11014
296.678	20106
296.734	25326
296.791	10368
296.848	6155
296.904	6099
296.961	13318
297.018	18946
297.074	14226
297.131	6490
297.187	4943
297.244	7345
297.301	18864
297.357	29806
297.414	11412
297.470	7237
297.527	4493
297.583	3029
297.640	3615
297.696	3359
297.753	2110
297.809	2159
297.866	1459
297.922	1475
297.979	2075
298.035	1479
298.092	4717
298.148	10948
298.204	11130
298.261	6106
298.317	10807
298.374	22763
298.430	15519
298.486	7134
298.543	4624
298.599	4012
298.656	5173
298.712	7872
298.768	16135
298.824	11902
298.881	5474
298.937	3649
298.993	3697
299.050	3729
299.106	4292
299.162	3102
299.218	3360
299.275	2101
299.331	4064
299.387	7078
299.443	22013
299.500	27992
299.556	15573
299.612	6978
299.668	6899
299.724	12800
299.780	14681
299.837	7134
299.893	9101
299.949	21805
300.005	28093
300.061	23256
300.117	34334
300.173	17619
300.229	8987
300.285	8802
300.341	10815
300.397	6326
300.453	4377
300.510	4266
300.566	5186
300.622	8499
300.678	22930
300.734	32633
300.790	22767
300.845	24580
300.901	19627
300.957	27156
301.013	19149
301.069	8572
301.125	5219
301.181	5753
301.237	4753
301.293	3158
301.349	3467
301.405	2589
301.461	3445
301.516	4071
301.572	4184
301.628	5674
301.684	6293
301.740	8348
301.796	13386
301.851	9899
301.907	14682
301.963	16174
302.019	24242
302.074	55285
302.130	54852
302.186	26974
302.242	11913
302.297	7382
302.353	7995
302.409	13439
302.464	12281
302.520	10488
302.576	22244
302.631	23105
302.687	15363
302.743	7087
302.798	4441
302.854	2824
302.910	3852
302.965	4769
303.021	8166
303.076	8155
303.132	9608
303.187	10337
303.243	6273
303.299	4426
303.354	3102
303.410	2427
303.465	2924
303.521	2481
303.576	3733
303.632	4555
303.687	7169
303.743	18058
303.798	16095
303.853	7671
303.909	5481
303.964	3926
304.020	5972
304.075	8428
304.130	8317
304.186	13921
304.241	15686
304.297	11020
304.352	7347
304.358	6967
304.407	3886
304.449	4686
304.463	4961
304.518	4779
304.539	4383
304.573	3754
304.629	4151
304.630	4213
304.684	7171
304.720	12144
304.739	14672
304.794	21927
304.811	19025
304.850	11843
304.902	5546
304.905	5153
304.960	3924
304.992	3809
305.015	3724
305.071	3764
305.083	3734
305.126	3610
305.173	2595
305.181	2438
305.236	2330
305.264	2627
305.292	2895
305.347	3461
305.354	3460
305.402	3481
305.445	3863
305.457	3998
305.512	5169
305.535	5264
305.567	5291
305.622	5137
305.626	5320
305.678	9316
305.716	16803
305.733	19612
305.788	23826
305.807	21058
305.843	16089
305.897	19492
305.898	19522
305.953	19069
305.988	13678
306.008	10528
306.063	7182
306.078	6410
306.118	5066
306.168	3426
306.173	3261
306.228	3752
306.259	2976
306.283	2450
306.338	2912
306.349	2898
306.393	2895
306.440	3534
306.448	3624
306.503	3424
306.530	3798
306.558	4498
306.613	8162
306.620	8747
306.668	13720
306.711	19061
306.723	19723
306.778	16914
306.801	13443
306.833	9116
306.888	5608
306.892	5414
306.943	3781
306.982	3169
306.997	2989
307.052	3091
307.072	3120
307.107	3218
307.162	3487
307.163	3506
307.217	5556
307.253	6080
307.272	6021
307.327	6558
307.343	6037
307.381	4953
307.434	4975
307.436	5075
307.491	8940
307.524	13136
307.546	15080
307.600	17203
307.614	16010
307.655	10656
307.704	5754
307.710	5470
307.765	5353
307.795	6145
307.819	7032
307.874	11119
307.885	11091
307.929	9528
307.975	8347
307.984	8457
308.038	11669
308.065	15071
308.093	23017
308.148	45338
308.156	50709
308.202	83561
308.246	103728
308.257	101863
308.312	62210
308.336	45391
308.366	34050
308.421	21548
308.426	20563
308.475	13109
308.517	9391
308.530	8541
308.585	6967
308.607	6638
308.639	6562
308.694	6042
308.697	6114
308.748	8630
308.787	11528
308.803	11803
308.857	10772
308.877	9576
308.912	7908
308.967	7285
308.967	7309
309.021	9733
309.058	12569
309.076	15554
309.130	27709
309.148	33414
309.185	60460
309.238	106110
309.239	106488
309.293	124666
309.328	119615
309.348	104076
309.402	51654
309.418	38448
309.457	26065
309.508	15975
309.511	15523
309.566	12057
309.598	10780
309.620	10687
309.674	11021
309.688	11461
309.729	11646
309.778	10485
309.783	10283
309.837	8441
309.868	7805
309.892	9641
309.946	15717
309.959	17616
310.001	24581
310.049	31323
310.055	30485
310.109	19122
310.139	12363
310.163	9656
310.218	5849
310.229	5261
310.272	4188
310.319	3289
310.326	3155
310.381	2704
310.409	2359
310.435	2231
310.489	2296
310.499	2332
310.543	2268
310.589	2195
310.598	2222
310.652	2248
310.679	2340
310.706	2447
310.760	2728
310.769	2753
310.814	2168
310.859	1741
310.868	1815
310.923	2173
310.948	2377
310.977	2365
311.031	2432
311.038	2435
311.085	2428
311.128	2361
311.139	2361
311.193	2419
311.218	2488
311.247	2278
311.301	1836
311.308	1785
311.356	1934
311.398	2117
311.410	2033
311.464	1620
311.488	1481
311.518	1570
311.572	1642
311.578	1672
311.626	2135
311.668	2556
311.680	2540
311.734	2440
311.758	2401
311.788	2407
311.842	2487
311.847	2505
311.896	2712
311.937	2961
311.950	2909
312.004	2743
312.027	2664
312.058	2398
312.112	1991
312.117	1964
312.165	1761
312.207	1619
312.297	2943
312.386	2360
312.476	1682
312.566	4591
312.656	2450
312.745	2019
312.835	2080
312.925	2124
313.015	2206
313.104	2108
313.194	2955
313.284	1679
313.374	2394
313.463	2211
313.553	2596
313.643	2783
313.732	2313
313.822	1740
313.912	2186
314.001	3275
314.091	3028
314.180	3476
314.270	2981
314.360	2784
314.449	3550
314.539	2110
314.628	2619
314.718	2981
314.808	3290
314.897	2786
314.987	2650
315.076	3260
315.166	3472
315.255	2841
315.345	3403
315.434	3442
315.524	3320
315.613	3761
315.703	5377
315.792	9732
315.881	38116
315.971	14624
316.060	6745
316.150	5740
316.239	6287
316.328	3350
316.418	2707
316.507	2297
316.597	3748
316.686	3805
316.775	3805
316.865	6903
316.954	2804
317.043	2292
317.133	2595
317.222	2211
317.311	2272
317.400	1512
317.490	3508
317.579	3804
317.668	4390
317.757	6368
317.847	16546
317.936	63927
318.025	23946
318.114	13178
318.203	7720
318.293	4707
318.382	8118
318.471	7786
318.560	9381
318.649	18354
318.738	6111
318.828	3733
318.917	4250
319.006	3763
319.095	8215
319.184	21785
319.273	14347
319.362	8825
319.451	3402
319.540	4226
319.629	6887
319.718	10442
319.807	4971
319.896	8695
319.985	29779
320.074	14850
320.163	3306
320.252	4397
320.341	7033
320.430	3924
320.519	5043
320.608	3596
320.697	3578
320.786	4186
320.875	4459
320.964	5676
321.053	7981
321.142	10937
321.230	12305
321.319	9058
321.408	18244
321.497	10165
321.586	10337
321.675	14574
321.764	9700
321.852	6232
321.941	10474
322.030	8321
322.119	7676
322.207	17762
322.296	12750
322.385	9166
322.474	10065
322.562	22773
322.651	14599
322.740	9481
322.829	12090
322.917	9564
323.006	7032
323.095	7238
323.183	4552
323.272	6459
323.361	10064
323.449	25236
323.538	10338
323.626	16806
323.715	12868
323.804	5103
323.892	14053
323.981	10631
324.069	5235
324.158	10818
324.246	20230
324.335	5762
324.424	7480
324.512	3715
324.601	3280
324.689	6038
324.778	11296
324.866	7517
324.954	3444
325.043	2764
325.131	3591
325.220	6707
325.308	7191
325.397	5944
325.485	5246
325.574	2842
325.662	2427
325.750	2319
325.839	3040
325.927	2561
326.015	3131
326.104	2523
326.192	4356
326.280	1717
326.369	1881
326.457	3575
326.545	6225
326.634	3710
326.722	2468
326.810	2137
326.898	3185
326.987	3132
327.075	5253
327.163	5177
327.251	3512
327.340	4013
327.428	6526
327.516	3399
327.604	2100
327.692	2761
327.781	2307
327.869	3150
327.957	3357
328.045	2847
328.133	2530
328.221	1810
328.309	2433
328.397	1995
328.485	2959
328.574	5335
328.662	11630
328.750	7112
328.838	3742
328.926	5624
329.014	2963
329.102	2726
329.190	5645
329.278	5114
329.366	1212
329.454	2117
329.542	2610
329.630	1737
329.718	2027
329.806	1620
329.893	2925
329.981	2566
330.069	4319
330.157	14385
330.245	42605
330.333	23451
330.421	5254
330.509	4522
330.597	12490
330.684	9405
330.772	3668
330.860	3444
330.948	5098
331.036	2118
331.123	1990
331.211	2209
331.299	2529
331.387	4206
331.475	7295
331.562	2701
331.650	2463
331.738	2466
331.825	2521
331.913	1643
332.001	1994
332.089	1754
332.176	3688
332.264	6804
332.352	6870
332.439	2697
332.527	2430
332.614	2033
332.702	3537
332.790	7748
332.877	5308
332.965	6846
333.052	2357
333.140	2011
333.228	3562
333.315	1336
333.403	2325
333.490	4588
333.578	4364
333.665	3965
333.753	6289
333.840	2574
333.928	3191
334.015	5667
334.103	10078
334.190	27748
334.278	11851
334.365	8021
334.452	8821
334.540	5489
334.627	4931
334.715	6550
334.802	11252
334.889	32773
334.977	43740
335.064	14873
335.151	6269
335.239	5383
335.326	5353
335.413	15512
335.501	22633
335.588	5404
335.675	3950
335.762	5880
335.850	8983
335.937	9732
336.024	18537
336.111	45251
336.199	32569
336.286	11647
336.373	5728
336.460	3862
336.547	3543
336.635	2955
336.722	2792
336.809	2540
336.896	4301
336.983	9403
337.070	20423
337.157	31735
337.245	19339
337.332	15053
337.419	3207
337.506	2407
337.593	3277
337.680	5963
337.767	18242
337.854	6510
337.941	6598
338.028	6944
338.115	4636
338.202	3896
338.289	5836
338.376	17483
338.463	8035
338.550	10539
338.637	12797
338.724	3515
338.811	5609
338.898	1927
338.984	1638
339.071	1670
339.158	2743
339.245	6348
339.332	5627
339.419	4088
339.506	4327
339.593	1232
339.679	2508
339.766	1511
339.853	2194
339.940	5028
340.027	2929
340.113	2396
340.200	3595
340.287	2061
340.374	2218
340.460	4119
340.547	1969
340.634	3568
340.720	12943
340.807	8518
340.894	2258
340.980	1983
341.067	1669
341.154	2326
341.240	3554
341.327	6305
341.414	3434
341.500	3467
341.587	2357
341.674	1928
341.760	4525
341.847	5664
341.933	2913
342.020	1282
342.106	1658
342.193	1978
342.279	4971
342.366	2774
342.452	4947
342.539	3040
342.625	5319
342.712	14149
342.798	7015
342.885	3534
342.971	1098
343.058	1804
343.144	1540
343.230	1784
343.317	1153
343.403	1693
343.490	1747
343.576	1280
343.662	1431
343.749	1515
343.835	3730
343.921	6189
344.008	30685
344.094	83719
344.180	21518
344.267	6302
344.353	18010
344.439	20201
344.525	7498
344.612	3746
344.698	3002
344.784	1991
344.870	1758
344.957	1497
345.043	3495
345.129	1618
345.215	4040
345.301	3025
345.387	2454
345.474	921
345.560	1189
345.646	840
345.732	2121
345.818	1540
345.904	1591
345.990	1741
346.076	1684
346.162	3653
346.249	2464
346.335	1535
346.421	4333
346.507	8112
346.593	29894
346.679	8419
346.765	3115
346.851	3147
346.937	2877
347.023	2314
347.108	1804
347.194	1892
347.280	2591
347.366	3113
347.452	10233
347.538	38352
347.624	27103
347.710	20761
347.796	3824
347.882	2196
347.967	2065
348.053	2120
348.139	2120
348.225	2013
348.311	1005
348.397	2074
348.482	2942
348.568	2980
348.654	2182
348.740	5753
348.825	6483
348.911	5917
348.997	14768
349.083	35173
349.168	5360
349.254	2071
349.340	2552
349.425	1657
349.511	2903
349.597	4008
349.682	5903
349.768	17687
349.854	9889
349.939	2838
350.025	1385
350.110	2060
350.196	1870
350.282	898
350.367	1628
350.453	2021
350.538	1751
350.624	1721
350.709	2478
350.795	563
350.880	1710
350.966	2322
351.051	2480
351.137	1937
351.222	1576
351.308	5433
351.393	15369
351.479	4756
351.564	1839
351.649	1436
351.735	1838
351.820	1883
351.906	1387
351.991	2035
352.076	8815
352.162	15583
352.247	3549
352.332	1869
352.418	4210
352.503	5531
352.588	19572
352.673	18658
352.759	4190
352.844	2024
352.929	2156
353.014	3151
353.100	3559
353.185	4991
353.270	4963
353.355	5548
353.441	2145
353.526	2511
353.611	4535
353.696	5476
353.781	3626
353.866	2149
353.952	2415
354.037	3904
354.122	9839
354.207	8770
354.292	4360
354.377	1666
354.462	1986
354.547	2474
354.632	3004
354.717	3182
354.802	5429
354.887	6139
354.972	4232
355.057	1777
355.142	2379
355.227	3041
355.312	4503
355.397	5536
355.482	15730
355.567	8157
355.652	5242
355.737	6930
355.822	20196
355.907	20142
355.991	4349
356.076	2109
356.161	2499
356.246	1449
356.331	2117
356.416	5022
356.501	34329
356.585	43242
356.670	5978
356.755	4513
356.840	5829
356.924	20868
357.009	88995
357.094	37739
357.179	7427
357.263	4659
357.348	4312
357.433	4244
357.517	3745
357.602	3952
357.687	4050
357.771	5110
357.856	8856
357.941	7495
358.025	17330
358.110	86374
358.195	47493
358.279	7317
358.364	6435
358.448	17155
358.533	40043
358.617	29782
358.702	28472
358.787	12216
358.871	6701
358.956	5592
359.040	3252
359.125	3332
359.209	4260
359.294	11589
359.378	9311
359.462	5290
359.547	2913
359.631	1379
359.716	1945
359.800	1545
359.885	3293
359.969	3644
360.053	12859
360.138	12423
360.222	8608
360.306	5924
360.391	5401
360.475	5817
360.559	12504
360.644	13237
360.728	10584
360.812	17794
360.896	61093
360.981	24571
361.065	14631
361.149	10037
361.233	4166
361.318	2566
361.402	3923
361.486	3240
361.570	1612
361.654	2984
361.739	7351
361.823	31979
361.907	62567
361.991	14214
362.075	15713
362.159	18891
362.243	12233
362.327	17717
362.411	28809
362.495	12500
362.580	6104
362.664	4906
362.748	5103
362.832	8967
362.916	16200
363.000	45012
363.084	91548
363.168	90943
363.252	26097
363.336	14554
363.420	9719
363.503	22277
363.587	27466
363.671	6551
363.755	5112
363.839	7515
363.923	4703
364.007	6980
364.091	9800
364.175	14746
364.258	47867
364.342	60855
364.426	104554
364.510	64093
364.594	20894
364.677	14759
364.761	50061
364.845	41485
364.929	11328
365.013	8287
365.096	6828
365.180	7466
365.264	9473
365.347	35520
365.431	16019
365.515	4600
365.598	3020
365.682	3365
365.766	4019
365.849	4530
365.933	3600
366.017	3777
366.100	3164
366.184	1907
366.267	2837
366.351	2026
366.435	4338
366.518	3867
366.602	1909
366.685	1955
366.769	2352
366.852	4176
366.936	6368
367.019	3692
367.103	3033
367.186	4614
367.270	2988
367.353	2017
367.436	2137
367.520	2292
367.603	3584
367.687	3464
367.770	6656
367.853	4528
367.937	12817
368.020	24109
368.104	6477
368.187	4358
368.270	6492
368.353	6006
368.437	5902
368.520	11793
368.603	9214
368.687	13623
368.770	30704
368.853	7134
368.936	6202
369.020	5630
369.103	2051
369.186	1838
369.269	1744
369.352	4734
369.436	9008
369.519	4633
369.602	1063
369.685	2862
369.768	2186
369.851	1701
369.934	1516
370.018	1865
370.101	4742
370.184	5579
370.267	2893
370.350	3963
370.433	7731
370.516	24065
370.599	44490
370.682	13776
370.765	14936
370.848	18278
370.931	40386
371.014	31878
371.097	13887
371.180	3835
371.263	2285
371.346	1177
371.429	2506
371.511	2072
371.594	3466
371.677	5450
371.760	6787
371.843	5981
371.926	27332
372.009	79215
372.091	25645
372.174	12571
372.257	37407
372.340	15482
372.423	7268
372.505	7763
372.588	4084
372.671	9594
372.754	35215
372.836	20524
372.919	10358
373.002	17801
373.085	6568
373.167	5388
373.250	13688
373.332	35131
373.415	42388
373.498	102292
373.580	40956
373.663	55529
373.746	86743
373.828	17572
373.911	6407
373.993	5683
374.076	18295
374.159	18241
374.241	9894
374.324	29132
374.406	20873
374.489	25786
374.571	86955
374.654	39698
374.736	15771
374.819	50884
374.901	69429
374.983	80144
375.066	15584
375.148	5019
375.231	15583
375.313	30184
375.395	12080
375.478	3069
375.560	3460
375.643	4356
375.725	12523
375.807	60332
375.890	51062
375.972	14562
376.054	8544
376.136	10057
376.219	6081
376.301	15066
376.383	55790
376.465	24057
376.548	10344
376.630	13153
376.712	43580
376.794	24299
376.877	3891
376.959	2390
377.041	3810
377.123	3512
377.205	5216
377.287	2808
377.369	6845
377.452	16966
377.534	6443
377.616	2382
377.698	3503
377.780	1789
377.862	1553
377.944	2437
378.026	1224
378.108	2170
378.190	2026
378.272	2484
378.354	2499
378.436	2407
378.518	2256
378.600	8299
378.682	8515
378.764	20024
378.846	24726
378.928	10243
379.010	6535
379.091	6860
379.173	3174
379.255	2158
379.337	3320
379.419	9907
379.501	32882
379.583	13820
379.664	4192
379.746	6488
379.828	19406
379.910	26795
379.991	26332
380.073	5762
380.155	4148
380.237	2797
380.318	2737
380.400	2816
380.482	4595
380.564	6800
380.645	6684
380.727	6936
380.809	4674
380.890	3004
380.972	3160
381.053	3109
381.135	3555
381.217	6345
381.298	21021
381.380	11334
381.461	8874
381.543	39122
381.624	57923
381.706	11631
381.787	5163
381.869	6226
381.951	17644
382.032	75469
382.113	54718
382.195	8888
382.276	7559
382.358	11937
382.439	40657
382.521	43827
382.602	74433
382.684	31592
382.765	47695
382.846	41625
382.928	25448
383.009	14685
383.090	11741
383.172	32311
383.253	55446
383.334	30507
383.416	56344
383.497	32661
383.578	8140
383.659	11667
383.741	29064
383.822	79740
383.903	47283
383.984	28206
384.066	68121
384.147	46999
384.228	9916
384.309	7546
384.390	6925
384.471	5751
384.553	5557
384.634	6946
384.715	7241
384.796	5324
384.877	7367
384.958	19669
385.039	26804
385.120	11376
385.201	6342
385.282	6043
385.363	6976
385.444	7425
385.525	9250
385.606	31160
385.687	33425
385.768	9046
385.849	8690
385.930	33548
386.011	70359
386.092	22963
386.173	7777
386.254	6405
386.335	6652
386.416	5249
386.496	11959
386.577	21907
386.658	9120
386.739	6732
386.820	5989
386.901	6005
386.981	7704
387.062	7391
387.143	11681
387.224	22607
387.304	22490
387.385	9688
387.466	6155
387.547	7600
387.627	7735
387.708	11205
387.789	36814
387.869	52587
387.950	17990
388.031	7526
388.111	6232
388.192	10850
388.273	15583
388.353	11527
388.434	5550
388.514	6939
388.595	36109
388.676	51661
388.756	22233
388.837	17862
388.917	13039
388.998	2613
389.078	4432
389.159	4785
389.239	2479
389.320	4662
389.400	2896
389.480	7342
389.561	23017
389.641	13738
389.722	5098
389.802	6116
389.883	8952
389.963	27500
390.043	19130
390.124	4765
390.204	6295
390.284	20952
390.365	15067
390.445	11705
390.525	25971
390.605	24709
390.686	12323
390.766	6498
390.846	4593
390.927	2784
391.007	2281
391.087	3570
391.167	4100
391.247	3437
391.328	4706
391.408	5752
391.488	4773
391.568	3151
391.648	5067
391.728	6398
391.808	5835
391.888	5951
391.969	12064
392.049	20876
392.129	11451
392.209	11902
392.289	28590
392.369	17654
392.449	11923
392.529	9343
392.609	9987
392.689	11695
392.769	29828
392.849	30259
392.929	23527
393.009	45260
393.089	49745
393.169	58762
393.248	153567
393.328	439123
393.408	516340
393.488	204865
393.568	67145
393.648	32834
393.728	20361
393.807	14761
393.887	12831
393.967	9502
394.047	9601
394.127	10203
394.206	12778
394.286	30485
394.366	133404
394.446	161734
394.525	39678
394.605	10432
394.685	8257
394.764	13778
394.844	24589
394.924	25533
395.003	12138
395.083	9058
395.163	6393
395.242	6010
395.322	6149
395.402	3462
395.481	6479
395.561	11078
395.640	29850
395.720	36351
395.799	32563
395.879	23426
395.958	14127
396.038	40210
396.117	169400
396.197	214436
396.276	62768
396.356	21348
396.435	17248
396.515	17540
396.594	23330
396.673	46236
396.753	144203
396.832	411971
396.912	346889
396.991	102082
397.070	33052
397.150	17465
397.229	13854
397.308	19413
397.388	38451
397.467	19398
397.546	6712
397.625	4054
397.705	6909
397.784	5703
397.863	3927
397.942	4273
398.022	3177
398.101	7244
398.180	22391
398.259	15070
398.338	6715
398.417	2906
398.497	2740
398.576	3039
398.655	2124
398.734	5835
398.813	12328
398.892	11628
398.971	23265
399.050	12757
399.129	2235
399.208	2968
399.287	3064
399.366	1251
399.445	2768
399.524	2565
399.603	3106
399.682	3900
399.761	7305
399.840	24319
399.919	20947
399.998	3683
400.077	1026
400.156	287
400.235	3887
400.313	1170
400.392	1709
400.471	9297
400.550	16820
400.629	4520
400.708	3079
400.786	2953
400.865	5244
400.944	4811
401.023	4696
401.102	1204
401.180	1421
401.259	3725
401.338	1950
401.416	2918
401.495	1861
401.574	1673
401.652	1254
401.731	2240
401.810	1466
401.888	1374
401.967	649
402.046	1612
402.124	2697
402.203	2358
402.281	3005
402.360	2393
402.438	6735
402.517	4093
402.596	2117
402.674	1296
402.753	946
402.831	1012
402.910	1977
402.988	6431
403.066	25545
403.145	17769
403.223	9273
403.302	20681
403.380	15765
403.459	15633
403.537	7070
403.615	2618
403.694	788
403.772	2094
403.850	1740
403.929	1759
404.007	1996
404.085	5260
404.164	4028
404.242	2454
404.320	6459
404.398	12831
404.477	14650
404.555	53227
404.633	56512
404.711	16135
404.789	10550
404.868	3272
404.946	1827
405.024	1182
405.102	985
405.180	54
405.258	156
405.336	1763
405.415	1752
405.493	2626
405.571	3701
405.649	257
405.727	-403
405.805	2398
405.883	2444
405.961	2334
406.039	2534
406.117	1065
406.195	3271
406.273	8882
406.351	44026
406.429	30531
406.507	3888
406.585	1264
406.663	965
406.740	2674
406.818	2228
406.896	1241
406.974	2273
407.052	2382
407.130	22517
407.208	38548
407.285	9149
407.363	1815
407.441	1960
407.519	2391
407.596	4098
407.674	17553
407.752	76991
407.830	62551
407.907	11150
407.985	2642
408.063	2122
408.141	880
408.218	2961
408.296	2764
408.373	4955
408.451	3192
408.529	2183
408.606	1618
408.684	2714
408.762	1738
408.839	595
408.917	269
408.994	1460
409.072	1186
409.149	2255
409.227	3958
409.304	5230
409.382	6437
409.459	6589
409.537	9525
409.614	8696
409.692	6545
409.769	5568
409.846	8644
409.924	11760
410.001	7228
410.079	6698
410.156	8631
410.233	21650
410.311	13219
410.388	3425
410.465	3009
410.543	2170
410.620	2715
410.697	2559
410.775	2371
410.852	795
410.929	4054
411.006	3921
411.083	1922
411.161	2926
411.238	2601
411.315	2068
411.392	1428
411.469	2372
411.547	1384
411.624	266
411.701	1290
411.778	2497
411.855	2695
411.932	1845
412.009	757
412.086	1541
412.163	649
412.240	1700
412.317	3826
412.394	2855
412.471	1269
412.548	431
412.625	1303
412.702	2365
412.779	9855
412.856	19025
412.933	4922
413.010	1699
413.087	2582
413.164	8094
413.241	13362
413.318	3825
413.395	3066
413.471	2556
413.548	2145
413.625	1018
413.702	1472
413.779	2315
413.855	764
413.932	54
414.009	-525
414.086	621
414.162	2221
414.239	8980
414.316	20710
414.393	23137
414.469	8260
414.546	1411
414.623	1135
414.699	1059
414.776	621
414.853	677
414.929	363
415.006	1020
415.082	1906
415.159	1941
415.236	2082
415.312	1479
415.389	2362
415.465	3021
415.542	1792
415.618	1069
415.695	1908
415.771	1506
415.848	517
415.924	340
416.000	107
416.077	1143
416.153	-376
416.230	-530
416.306	678
416.383	910
416.459	414
416.535	771
416.612	888
416.688	1386
416.764	4315
416.841	1647
416.917	450
416.993	312
417.069	1095
417.146	1070
417.222	1291
417.298	1360
417.374	2391
417.451	3641
417.527	1092
417.603	999
417.679	2005
417.755	5499
417.831	2168
417.908	1596
417.984	373
418.060	151
418.136	1558
418.212	3152
418.288	822
418.364	1145
418.440	562
418.516	1762
418.592	2074
418.668	5588
418.744	6902
418.820	4949
418.896	1623
418.972	-100
419.048	495
419.124	3033
419.200	2206
419.276	1707
419.352	394
419.428	1176
419.504	993
419.579	2232
419.655	2012
419.731	1858
419.807	4294
419.883	6908
419.959	3927
420.034	1986
420.110	2074
420.186	11713
420.262	11341
420.337	2753
420.413	1424
420.489	1094
420.565	2319
420.640	835
420.716	2412
420.792	663
420.867	2078
420.943	1267
421.019	1749
421.094	2631
421.170	4988
421.245	3329
421.321	3472
421.397	3586
421.472	11838
421.548	42091
421.623	29347
421.699	6819
421.774	5302
421.850	5331
421.925	6947
422.001	7862
422.076	8091
422.152	10698
422.227	14570
422.302	21688
422.378	30102
422.453	52249
422.529	106465
422.604	205222
422.679	259888
422.755	233048
422.830	133253
422.905	65503
422.981	37115
423.056	25063
423.131	17501
423.207	14032
423.282	10627
423.357	10902
423.432	8009
423.508	8491
423.583	11314
423.658	10309
423.733	4128
423.808	5062
423.883	5696
423.959	5654
424.034	4952
424.109	5336
424.184	2667
424.259	2731
424.334	2105
424.409	850
424.484	1805
424.559	1204
424.634	1983
424.709	2283
424.784	2334
424.859	2342
424.934	1660
425.009	7012
425.084	14795
425.159	6961
425.234	1754
425.309	801
425.384	1809
425.459	2623
425.534	1557
425.609	1297
425.683	1182
425.758	1033
425.833	681
425.908	1522
425.983	3193
426.058	14580
426.132	6670
426.207	1816
426.282	2373
426.357	1021
426.431	432
426.506	1636
426.581	303
426.655	689
426.730	663
426.805	106
426.879	1276
426.954	1383
427.029	2854
427.103	12080
427.178	37408
427.253	20199
427.327	2623
427.402	1235
427.476	4068
427.551	2749
427.625	1010
427.700	974
427.774	-510
427.849	1846
427.923	-41
427.998	1264
428.072	2876
428.147	5122
428.221	18178
428.296	72798
428.370	47825
428.444	6406
428.519	2075
428.593	4349
428.667	4896
428.742	6553
428.816	7445
428.890	38430
428.965	76259
429.039	23534
429.113	6623
429.188	2965
429.262	1765
429.336	2437
429.410	6903
429.485	4493
429.559	4091
429.633	5045
429.707	2816
429.781	5536
429.855	38600
429.930	71777
430.004	27757
430.078	24231
430.152	31001
430.226	87589
430.300	107614
430.374	24891
430.448	6166
430.522	8281
430.596	21766
430.670	20374
430.744	60585
430.818	97793
430.892	22285
430.966	4389
431.040	2120
431.114	659
431.188	544
431.262	1417
431.336	1005
431.410	2476
431.484	5427
431.557	5230
431.631	1367
431.705	2332
431.779	12222
431.853	62583
431.927	55773
432.000	8193
432.074	1809
432.148	1434
432.222	1219
432.295	219
432.369	224
432.443	1116
432.516	12535
432.590	39343
432.664	16987
432.737	2213
432.811	19
432.885	588
432.958	852
433.032	139
433.106	286
433.179	290
433.253	-185
433.326	-74
433.400	1136
433.473	863
433.547	-171
433.620	648
433.694	-146
433.767	1512
433.841	294
433.914	221
433.988	-680
434.061	-72
434.134	302
434.208	-402
434.281	-95
434.355	133
434.428	-756
434.501	-36
434.575	-121
434.648	253
434.721	556
434.795	-337
434.868	462
434.941	209
435.014	-434
435.088	487
435.161	541
435.234	429
435.307	1927
435.381	700
435.454	886
435.527	4198
435.600	4398
435.673	4025
435.746	3037
435.819	2133
435.892	2023
435.966	990
436.039	-212
436.112	1418
436.185	1054
436.258	352
436.331	102
436.404	-175
436.477	169
436.550	10
436.623	655
436.696	186
436.769	214
436.842	164
436.915	668
436.987	468
437.060	813
437.133	-114
437.206	230
437.279	880
437.352	335
437.425	1134
437.498	6758
437.570	5936
437.643	2183
437.716	528
437.789	-20
437.861	717
437.934	2476
438.007	1748
438.080	-125
438.152	1263
438.225	2540
438.298	15298
438.370	58418
438.443	28272
438.516	3854
438.588	1265
438.661	-387
438.734	733
438.806	68
438.879	810
438.951	187
439.024	1529
439.096	824
439.169	1328
439.241	-9
439.314	-9
439.386	550
439.459	629
439.531	1586
439.604	1529
439.676	512
439.749	366
439.821	680
439.893	330
439.966	443
440.038	693
440.110	1242
440.183	500
440.255	93
440.327	1926
440.400	5969
440.472	30684
440.544	26126
440.617	2720
440.689	2134
440.761	1300
440.833	2288
440.905	2634
440.978	272
441.050	495
441.122	755
441.194	576
441.266	89
441.338	11
441.411	1039
441.483	8205
441.555	16175
441.627	4626
441.699	1848
441.771	1976
441.843	548
441.915	1277
441.987	377
442.059	912
442.131	1248
442.203	1864
442.275	2950
442.347	4711
442.419	8134
442.491	38077
442.563	106888
442.635	55892
442.706	14867
442.778	9461
442.850	3766
442.922	2945
442.994	2691
443.066	4047
443.137	3104
443.209	3240
443.281	6087
443.353	13064
443.425	45740
443.496	165056
443.568	192145
443.640	86633
443.711	19569
443.783	5974
443.855	3746
443.926	3282
443.998	1840
444.070	2004
444.141	1883
444.213	2439
444.285	3656
444.356	2718
444.428	2618
444.499	1521
444.571	2016
444.642	1690
444.714	1315
444.785	2016
444.857	3698
444.928	6193
445.000	4426
445.071	5030
445.143	7029
445.214	7876
445.285	11381
445.357	30192
445.428	97575
445.500	231092
445.571	176498
445.642	114581
445.714	40763
445.785	17936
445.856	6534
445.928	4846
445.999	4001
446.070	3374
446.141	2776
446.213	3957
446.284	1774
446.355	2609
446.426	596
446.497	1215
446.569	1794
446.640	2297
446.711	2356
446.782	1167
446.853	1101
446.924	1568
446.995	509
447.066	564
447.138	2068
447.209	1191
447.280	159
447.351	-121
447.422	-143
447.493	768
447.564	1415
447.635	1337
447.706	616
447.777	891
447.847	24
447.918	-700
447.989	1099
448.060	882
448.131	3179
448.202	3464
448.273	1937
448.344	532
448.414	362
448.485	279
448.556	510
448.627	-754
448.698	1288
448.768	1139
448.839	395
448.910	1170
448.981	1450
449.051	996
449.122	-86
449.193	-361
449.263	-86
449.334	593
449.405	521
449.475	2505
449.546	1700
449.616	1845
449.687	2491
449.758	840
449.828	141
449.899	530
449.969	50
450.040	-29
450.110	922
450.181	825
450.251	299
450.322	220
450.392	165
450.463	659
450.533	-247
450.604	616
450.674	322
450.744	1420
450.815	576
450.885	778
450.955	872
451.026	554
451.096	355
451.166	133
451.237	1992
451.307	5491
451.377	2824
451.447	560
451.518	-90
451.588	335
451.658	534
451.728	782
451.799	5268
451.869	5861
451.939	1436
452.009	745
452.079	233
452.149	206
452.219	2391
452.289	7388
452.360	5798
452.430	1793
452.500	1016
452.570	2399
452.640	4505
452.710	13236
452.780	20336
452.850	13159
452.920	8345
452.990	4145
453.060	2299
453.129	1366
453.199	2082
453.269	6947
453.339	17222
453.409	27544
453.479	23018
453.549	35786
453.619	39338
453.688	17811
453.758	3688
453.828	1158
453.898	594
453.968	615
454.037	796
454.087	730
454.107	642
454.168	152
454.177	5
454.247	901
454.249	940
454.316	590
454.330	1013
454.386	2448
454.411	3421
454.456	3572
454.492	5296
454.525	6469
454.574	3823
454.595	2783
454.655	2038
454.665	1974
454.734	3058
454.736	3262
454.804	5958
454.817	7623
454.873	9972
454.898	10753
454.943	10454
454.979	6871
455.013	4533
455.060	3478
455.082	3930
455.141	6924
455.152	7315
455.221	14550
455.222	15062
455.291	24562
455.303	26088
455.360	29719
455.384	37838
455.430	43567
455.465	35649
455.499	28728
455.546	19909
455.569	14971
455.627	9407
455.638	8820
455.707	3502
455.708	3562
455.777	3333
455.789	3390
455.846	3221
455.869	3492
455.916	4072
455.950	4437
455.985	4429
456.031	4234
456.054	4086
456.112	4073
456.124	4047
456.193	4208
456.193	4143
456.262	5422
456.274	5554
456.332	5287
456.355	5548
456.401	5203
456.436	4325
456.470	3633
456.516	3883
456.540	3994
456.597	4220
456.609	4205
456.678	3783
456.678	3731
456.747	4452
456.759	4468
456.817	4502
456.840	4584
456.886	4484
456.920	4711
456.955	5161
457.001	6115
457.024	6538
457.082	7227
457.093	7326
457.162	8052
457.163	8132
457.232	9072
457.243	9033
457.301	7367
457.324	6755
457.370	6716
457.405	7179
457.439	7640
457.485	8082
457.508	8230
457.566	9104
457.577	9454
457.646	12264
457.647	12370
457.715	22278
457.727	24427
457.784	43676
457.808	54084
457.853	68090
457.889	81233
457.922	73608
457.969	52684
457.991	55777
458.050	67941
458.060	72618
458.129	117423
458.130	118962
458.198	113521
458.211	108607
458.267	62751
458.292	42088
458.336	31825
458.372	27797
458.405	35731
458.453	50085
458.474	67620
458.533	122801
458.543	128532
458.611	191691
458.614	193970
458.680	118839
458.694	98673
458.749	51834
458.775	33443
458.818	23846
458.855	18767
458.887	16637
458.936	15372
458.955	14809
459.016	12890
459.024	12708
459.093	12219
459.097	12216
459.162	12237
459.177	12373
459.230	13740
459.257	14651
459.299	15801
459.338	16768
459.368	17676
459.418	19840
459.437	18577
459.499	13650
459.505	13574
459.574	12434
459.579	12436
459.643	12150
459.659	12010
459.711	11858
459.740	12145
459.780	12905
459.820	13753
459.849	14164
459.900	14651
459.917	14500
459.981	13929
459.986	13823
460.054	13113
460.061	13017
460.123	13153
460.141	13569
460.191	16550
460.222	17842
460.260	18842
460.302	20668
460.328	20172
460.382	18786
460.397	19148
460.462	20662
460.465	21134
460.534	33167
460.543	34836
460.602	100658
460.623	124384
460.671	206048
460.703	269127
460.739	242789
460.783	205356
460.808	161890
460.864	36734
460.876	31924
460.944	18355
460.945	18241
461.013	16377
461.024	16195
461.081	15105
461.104	15002
461.150	15076
461.184	15028
461.218	15372
461.264	15774
461.286	15809
461.345	15484
461.355	15471
461.423	16348
461.425	16359
461.491	16703
461.505	16910
461.559	25225
461.585	29010
461.628	46614
461.665	62651
461.696	70569
461.745	83772
461.764	69603
461.825	21726
461.832	21274
461.901	16615
461.905	16423
461.969	16180
461.985	16153
462.037	16266
462.065	16197
462.105	17718
462.145	19297
462.173	25666
462.225	37734
462.241	41860
462.305	58454
462.310	56864
462.378	31849
462.385	28912
462.446	20391
462.465	17840
462.514	17764
462.545	17919
462.582	18569
462.625	19166
462.650	19953
462.705	21667
462.718	21779
462.785	22932
462.786	23030
462.854	27726
462.865	28442
462.922	33039
462.945	34981
462.990	26437
463.025	19561
463.058	18334
463.104	16796
463.126	16845
463.184	16821
463.194	17049
463.262	18813
463.264	18859
463.330	19998
463.344	20174
463.398	21272
463.424	21958
463.466	21995
463.504	21809
463.533	21447
463.583	20829
463.601	21315
463.663	22762
463.669	23258
463.737	29208
463.743	29700
463.805	39833
463.823	42746
463.873	65965
463.903	80228
463.940	88017
463.982	96551
464.008	77080
464.062	34968
464.076	32853
464.142	22236
464.144	22311
464.211	24736
464.221	25091
464.279	34487
464.301	38104
464.347	44774
464.381	50101
464.414	43121
464.461	32292
464.482	32924
464.540	34708
464.550	33703
464.617	26320
464.620	26034
464.685	26471
464.699	26574
464.753	30432
464.779	32199
464.820	34183
464.859	35998
464.888	36983
464.938	38671
464.956	38572
465.018	37737
465.023	37239
465.091	29800
465.098	29018
465.158	29779
465.177	29941
465.226	30985
465.257	31513
465.293	31744
465.336	31884
465.361	33887
465.416	38330
465.428	40144
465.495	49622
465.496	49910
465.563	81611
465.575	87029
465.631	108900
465.654	118005
465.698	76407
465.734	41516
465.765	37689
465.813	31817
465.833	31796
465.893	31809
465.900	31771
465.968	30776
465.972	30656
466.035	31588
466.052	31751
466.102	34218
466.131	35548
466.170	36606
466.210	37615
466.237	36700
466.290	34534
466.304	35120
466.369	37320
466.372	37466
466.439	39710
466.449	39929
466.506	41374
466.528	41846
466.573	51392
466.607	58384
466.641	83826
466.687	118963
466.708	133012
466.766	171064
466.775	159342
466.842	68505
466.845	64047
466.909	49123
466.925	45452
466.977	45603
467.004	45551
467.044	47161
467.083	48590
467.111	50393
467.163	53478
467.178	54636
467.242	58850
467.245	58847
467.312	56075
467.321	55584
467.379	66351
467.400	70052
467.446	81724
467.480	89863
467.559	62523
467.638	47509
467.717	47866
467.796	48603
467.875	53961
467.955	53740
468.034	67229
468.113	139184
468.192	214549
468.271	83193
468.350	61111
468.429	65308
468.508	63941
468.588	53282
468.667	50367
468.746	50488
468.825	47559
468.904	41535
468.983	43597
469.062	64530
469.141	79610
469.220	41733
469.299	35907
469.378	40078
469.456	44313
469.535	42408
469.614	42736
469.693	43596
469.772	49516
469.851	66733
469.930	53507
470.009	36126
470.088	35329
470.166	36463
470.245	39268
470.324	42925
470.403	41281
470.482	37857
470.560	36079
470.639	39274
470.718	43585
470.797	37901
470.875	42445
470.954	57918
471.033	63335
471.111	33710
471.190	31758
471.269	29981
471.347	31682
471.426	33979
471.505	38302
471.583	41735
471.662	38351
471.740	34974
471.819	36500
471.898	35640
471.976	33592
472.055	33272
472.133	39806
472.212	54389
472.290	53326
472.369	36581
472.447	32852
472.526	31866
472.604	33649
472.683	35455
472.761	38048
472.839	38031
472.918	33234
472.996	32822
473.075	36384
473.153	38881
473.231	33493
473.310	36985
473.388	38204
473.466	33880
473.545	36431
473.623	43639
473.701	43682
473.780	35052
473.858	34190
473.936	37233
474.014	35422
474.093	40751
474.171	56005
474.249	72370
474.327	52680
474.405	33271
474.484	31140
474.562	32316
474.640	32007
474.718	34164
474.796	34923
474.874	33819
474.952	31875
475.030	33411
475.108	33409
475.187	36969
475.265	41748
475.343	54791
475.421	63506
475.499	37251
475.577	37573
475.655	41079
475.733	73086
475.811	130131
475.889	122390
475.966	91010
476.044	41569
476.122	47942
476.200	51670
476.278	43222
476.356	30266
476.434	32038
476.512	38365
476.590	50906
476.667	48097
476.745	30784
476.823	29506
476.901	29656
476.979	33081
477.056	30732
477.134	32443
477.212	32695
477.290	30656
477.367	28161
477.445	28073
477.523	27696
477.601	27173
477.678	27984
477.756	34182
477.834	39382
477.911	29686
477.989	30977
478.066	31758
478.144	36576
478.222	39729
478.299	61976
478.377	64915
478.454	35471
478.532	28266
478.609	32135
478.687	32783
478.764	27182
478.842	28177
478.919	30730
478.997	29488
479.074	26362
479.152	31198
479.229	39196
479.307	29742
479.384	23703
479.461	25294
479.539	26599
479.616	33510
479.694	29555
479.771	31500
479.848	32658
479.926	45176
480.003	48354
480.080	28957
480.157	25954
480.235	26592
480.312	26836
480.389	31292
480.467	46672
480.544	59164
480.621	36993
480.698	32266
480.775	34849
480.853	37434
480.930	31896
481.007	32010
481.084	44373
481.161	65238
481.238	49743
481.315	28573
481.392	26785
481.470	28399
481.547	31722
481.624	30323
481.701	30586
481.778	33661
481.855	38008
481.932	49448
482.009	79607
482.086	65606
482.163	39710
482.240	49150
482.317	77771
482.393	68808
482.470	35059
482.547	35469
482.624	32772
482.701	33085
482.778	33187
482.855	29208
482.932	30019
483.009	31350
483.085	37157
483.162	51692
483.239	51595
483.316	34098
483.393	33445
483.469	32339
483.546	36803
483.623	39872
483.699	33754
483.776	33434
483.853	40836
483.930	61173
484.006	118165
484.083	187838
484.160	94245
484.236	108490
484.313	90256
484.389	73402
484.466	69990
484.543	77580
484.619	75542
484.696	69681
484.772	72591
484.849	74771
484.925	60563
485.002	58433
485.078	62925
485.155	64322
485.231	64061
485.308	63309
485.384	61243
485.461	74251
485.537	110978
485.614	136445
485.690	60645
485.766	52694
485.843	54348
485.919	73611
485.995	81174
486.072	51877
486.148	49960
486.224	48494
486.301	52884
486.377	59379
486.453	59819
486.530	55489
486.606	67894
486.682	77764
486.758	92542
486.835	116883
486.911	88774
486.987	135108
487.063	132023
487.139	147728
487.215	127017
487.292	80570
487.368	67780
487.444	76860
487.520	100827
487.596	126200
487.672	172546
487.748	412695
487.824	745317
487.900	381510
487.976	132933
488.052	91693
488.128	87105
488.204	73721
488.280	69275
488.356	89777
488.432	127419
488.508	193307
488.584	78244
488.660	52486
488.736	49766
488.812	51150
488.888	60277
488.964	71585
489.039	123708
489.115	196413
489.191	139157
489.267	57582
489.343	53650
489.418	44336
489.494	41313
489.570	40868
489.646	47392
489.722	49408
489.797	46739
489.873	64972
489.949	148008
490.024	147100
490.100	50688
490.176	51780
490.251	48551
490.327	57141
490.403	42507
490.478	40700
490.554	36001
490.629	39395
490.705	36294
490.781	40342
490.856	39544
490.932	44520
491.007	43917
491.083	44549
491.158	40237
491.234	47914
491.309	105226
491.385	120165
491.460	44989
491.536	44868
491.611	39734
491.686	40851
491.762	50206
491.837	81608
491.913	138975
491.988	179601
492.063	248235
492.139	102619
492.214	68080
492.289	34478
492.365	37482
492.440	52893
492.515	43827
492.590	40274
492.666	33101
492.741	41741
492.816	66353
492.891	41559
492.967	33517
493.042	33248
493.117	37245
493.192	41742
493.267	60903
493.342	191256
493.418	312170
493.493	67596
493.568	31548
493.643	31629
493.718	36505
493.793	51316
493.868	56049
493.943	39887
494.018	32815
494.093	30009
494.168	30645
494.243	28246
494.318	27662
494.393	29398
494.468	32225
494.543	28764
494.618	29456
494.693	29831
494.768	28376
494.842	31273
494.917	29361
494.992	35855
495.067	29104
495.142	28395
495.217	30440
495.292	29917
495.366	34815
495.441	43696
495.516	49850
495.591	58634
495.665	138483
495.740	366702
495.815	192068
495.890	47729
495.964	37297
496.039	40773
496.114	44517
496.188	63954
496.263	59044
496.338	39782
496.412	40896
496.487	47601
496.561	47060
496.636	49949
496.710	43403
496.785	48478
496.860	53643
496.934	44407
497.009	44192
497.083	44024
497.158	46729
497.232	52399
497.307	62565
497.381	56878
497.455	64296
497.530	83470
497.604	67383
497.679	66305
497.753	91790
497.827	119599
497.902	114017
497.976	126355
498.050	196614
498.125	680749
498.199	814038
498.273	160187
498.348	114330
498.422	103578
498.496	98636
498.570	92588
498.645	79794
498.719	79443
498.793	84732
498.867	112171
498.941	136233
499.016	263923
499.090	797133
499.164	341251
499.238	59899
499.312	50063
499.386	56012
499.460	54810
499.534	48452
499.609	55171
499.683	85111
499.757	82986
499.831	122673
499.905	498623
499.979	564779
500.053	98052
500.127	90483
500.201	62814
500.275	45344
500.349	46217
500.422	49710
500.496	66411
500.570	111572
500.644	260731
500.718	599916
500.792	155994
500.866	48216
500.940	58606
501.013	50801
501.087	46877
501.161	73521
501.235	95051
501.309	171453
501.382	494594
501.456	497216
501.530	106196
501.603	187681
501.677	84019
501.751	38712
501.825	42971
501.898	70112
501.972	213094
502.046	159194
502.119	47179
502.193	85773
502.266	237621
502.340	130319
502.413	94304
502.487	211175
502.561	129842
502.634	47433
502.708	35845
502.781	32553
502.855	28916
502.928	26614
503.002	27253
503.075	26313
503.149	30025
503.222	32101
503.295	35951
503.369	43686
503.442	55948
503.516	137911
503.589	406126
503.662	299515
503.736	94989
503.809	194007
503.882	182435
503.956	232468
504.029	267303
504.102	230990
504.175	348089
504.249	186063
504.322	90676
504.395	63383
504.468	43017
504.542	39313
504.615	31052
504.688	28227
504.761	26095
504.834	30504
504.907	33206
504.980	48367
505.053	34233
505.127	35788
505.200	38758
505.273	42015
505.346	30656
505.419	26299
505.492	23024
505.565	21651
505.638	22116
505.711	21731
505.784	20897
505.857	20910
505.930	22660
506.003	21596
506.076	24910
506.149	32059
506.221	41897
506.294	35302
506.367	72520
506.440	268616
506.513	168127
506.586	42902
506.659	27457
506.731	22336
506.804	26893
506.877	35596
506.950	29660
507.022	22497
507.095	29917
507.168	38565
507.241	23267
507.313	19295
507.386	21734
507.459	27332
507.531	22105
507.604	19891
507.677	19832
507.749	19485
507.822	24205
507.894	39664
507.967	51263
508.040	31701
508.112	27721
508.185	28244
508.257	26423
508.330	35505
508.402	28435
508.475	27209
508.547	29156
508.620	28356
508.692	47499
508.765	36903
508.837	23764
508.909	22304
508.982	23459
509.054	23949
509.127	22904
509.199	21191
509.271	21612
509.344	20922
509.416	21412
509.488	20940
509.560	22484
509.633	23400
509.705	26127
509.777	25153
509.849	33272
509.922	27998
509.994	24229
510.066	23950
510.138	24875
510.210	40257
510.283	40466
510.355	33833
510.427	29804
510.499	29197
510.571	29998
510.643	30793
510.715	38968
510.787	37930
510.859	28275
510.931	32846
511.003	38171
511.076	38966
511.148	27744
511.219	28646
511.291	41183
511.363	52815
511.435	29038
511.507	26629
511.579	25972
511.651	26920
511.723	26981
511.795	25204
511.867	25410
511.939	30418
512.010	56225
512.082	50743
512.154	27229
512.226	29391
512.298	35685
512.369	48848
512.441	37338
512.513	36172
512.585	30893
512.656	28557
512.728	34062
512.800	27789
512.871	25733
512.943	28049
513.015	25026
513.086	26944
513.158	27565
513.230	28472
513.301	35516
513.373	38642
513.444	29774
513.516	27983
513.588	25569
513.659	26049
513.731	31145
513.802	28406
513.874	42514
513.945	79643
514.016	38139
514.088	25783
514.159	27707
514.231	31723
514.302	43100
514.374	32926
514.445	34504
514.516	65817
514.588	56583
514.659	34203
514.730	59530
514.802	47690
514.873	40810
514.944	44891
515.016	40142
515.087	40103
515.158	45797
515.229	66943
515.301	43256
515.372	58141
515.443	48807
515.514	37598
515.585	32125
515.656	30139
515.728	27972
515.799	26182
515.870	30113
515.941	30111
516.012	29411
516.083	32399
516.154	36045
516.225	38561
516.296	37875
516.367	35235
516.438	37799
516.509	44967
516.580	55550
516.651	106893
516.722	388862
516.793	243081
516.864	61839
516.935	58230
517.006	62900
517.077	76054
517.148	139490
517.219	333986
517.289	670382
517.360	329707
517.431	136744
517.502	44581
517.573	39727
517.643	36716
517.714	45650
517.785	42574
517.856	40350
517.926	45888
517.997	52176
518.068	60914
518.138	75985
518.209	92608
518.280	220763
518.350	884515
518.421	461818
518.492	88946
518.562	74089
518.633	86411
518.703	106108
518.774	178378
518.845	382838
518.915	412699
518.986	168812
519.056	95797
519.127	98230
519.197	124128
519.268	281635
519.338	216421
519.408	60058
519.479	57916
519.549	48242
519.620	35418
519.690	30953
519.760	31020
519.831	30769
519.901	32122
519.971	30044
520.042	38157
520.112	39010
520.182	35857
520.253	40298
520.323	31825
520.393	37713
520.463	55019
520.534	41416
520.604	78509
520.674	43451
520.744	43328
520.814	78256
520.885	77571
520.955	81194
521.025	328011
521.095	157651
521.165	40422
521.235	35423
521.305	29256
521.375	26037
521.445	28197
521.515	33964
521.585	37042
521.655	38254
521.725	30613
521.795	29075
521.865	25907
521.935	37664
522.005	37409
522.075	25063
522.145	28798
522.215	34428
522.285	45434
522.355	53605
522.424	93322
522.494	91582
522.564	48225
522.634	57720
522.704	167056
522.774	84932
522.843	30119
522.913	29571
522.983	36280
523.053	30904
523.122	30101
523.192	32263
523.262	82805
523.331	101965
523.401	35237
523.471	26777
523.540	25026
523.610	21428
523.680	23058
523.749	24441
523.819	31223
523.888	36247
523.958	24514
524.027	25586
524.097	28620
524.166	24988
524.236	25072
524.305	25921
524.375	23167
524.444	24515
524.514	26602
524.583	27673
524.653	32628
524.722	34019
524.791	26913
524.861	25532
524.930	25226
524.999	27434
525.069	33079
525.138	29513
525.207	36523
525.277	29967
525.346	32057
525.415	29691
525.484	30173
525.554	36315
525.623	40183
525.692	44464
525.761	48610
525.830	52815
525.900	66601
525.969	96993
526.038	157839
526.107	266462
526.176	831571
526.245	809681
526.314	255042
526.383	407448
526.452	648377
526.522	815857
526.591	1036069
526.660	245331
526.729	139383
526.797	140616
526.867	203818
526.935	639566
527.004	1540462
527.073	1190510
527.142	177022
527.211	73517
527.280	52071
527.349	47580
527.418	34043
527.487	29929
527.555	27754
527.624	25627
527.693	25242
527.762	26638
527.831	24492
527.899	24755
527.968	23798
528.037	22245
528.106	25331
528.174	37450
528.243	37218
528.312	42513
528.380	57673
528.449	26905
528.518	21618
528.586	18890
528.655	19880
528.723	20037
528.792	19781
528.861	23948
528.929	23380
528.998	24394
529.066	29442
529.135	48016
529.203	45947
529.272	56116
529.340	71717
529.409	65375
529.477	60386
529.545	64811
529.614	68410
529.682	81414
529.751	92785
529.819	88186
529.887	100571
529.956	88697
530.024	84787
530.092	77023
530.161	79427
530.229	88303
530.297	92369
530.365	84720
530.434	87485
530.502	92817
530.570	81804
530.638	72070
530.707	69673
530.775	68338
530.843	67273
530.911	78092
530.979	72826
531.047	84334
531.115	83415
531.183	75098
531.252	71432
531.320	69368
531.388	69171
531.456	76968
531.524	82871
531.592	83046
531.660	96524
531.728	87302
531.796	83048
531.864	81619
531.932	82912
532.000	83312
532.067	91742
532.135	96715
532.203	97356
532.271	106946
532.339	108935
532.407	143023
532.475	124162
532.542	100157
532.610	98063
532.678	111070
532.746	177230
532.814	398737
532.881	174869
532.949	102320
533.017	93817
533.084	88207
533.152	85122
533.220	83729
533.287	87582
533.355	90411
533.423	87858
533.490	92680
533.558	87893
533.625	85635
533.693	82802
533.761	80646
533.828	78536
533.896	79883
533.963	95560
534.031	103606
534.098	121932
534.166	94080
534.233	80483
534.300	79634
534.368	79071
534.435	76346
534.503	77324
534.570	82552
534.637	87616
534.705	94570
534.772	101465
534.840	123829
534.907	356369
534.974	576406
535.041	121026
535.109	78791
535.176	66564
535.243	66157
535.310	65133
535.378	66281
535.445	58920
535.512	56848
535.579	56037
535.646	52152
535.714	54719
535.781	57394
535.848	57731
535.915	60487
535.982	61270
536.049	61781
536.116	56932
536.183	54146
536.250	50795
536.317	51313
536.384	50697
536.451	55665
536.518	58391
536.585	53364
536.652	57636
536.719	63695
536.786	57690
536.853	51505
536.920	58969
536.987	71241
537.053	68300
537.120	163136
537.187	176269
537.254	50147
537.321	46547
537.388	44884
537.454	40036
537.521	39154
537.588	38123
537.654	39766
537.721	42386
537.788	41929
537.855	38361
537.921	39852
537.988	42094
538.055	40889
538.121	37933
538.188	37990
538.254	42678
538.321	58709
538.388	47958
538.454	37371
538.521	37343
538.587	36567
538.654	37190
538.720	35747
538.787	34867
538.853	35147
538.920	37517
538.986	37739
539.053	33917
539.119	34286
539.185	35950
539.252	37206
539.318	45569
539.385	43462
539.451	41063
539.517	40980
539.583	41019
539.650	55736
539.716	139571
539.782	58794
539.849	33764
539.915	34573
539.981	34356
540.047	36043
540.114	35677
540.180	35174
540.246	36334
540.312	40989
540.378	54450
540.444	58602
540.510	55424
540.576	144759
540.643	65901
540.709	32953
540.775	33239
540.841	31748
540.907	36203
540.973	49251
541.039	40761
541.105	41515
541.171	33131
541.237	31675
541.303	31738
541.369	34458
541.435	37192
541.500	48527
541.566	38952
541.632	29472
541.698	28037
541.764	28156
541.830	28112
541.896	27726
541.961	27743
542.027	30883
542.093	31929
542.159	31767
542.224	32240
542.290	37949
542.356	47760
542.421	53362
542.487	36891
542.553	29342
542.618	32676
542.684	31546
542.750	31067
542.815	32221
542.881	44029
542.947	115381
543.012	104812
543.078	31748
543.143	28932
543.209	30070
543.274	30058
543.340	32129
543.405	51113
543.471	84737
543.536	33611
543.602	28764
543.667	27385
543.732	28706
543.798	28761
543.863	31054
543.928	26692
543.994	24684
544.059	25808
544.124	26761
544.190	27127
544.255	27971
544.320	28565
544.386	28824
544.451	33903
544.516	38055
544.581	36731
544.646	72870
544.712	128302
544.777	39231
544.842	32743
544.907	36223
544.972	33156
545.037	32557
545.102	36386
545.168	34937
545.233	35025
545.298	36265
545.363	40630
545.428	42477
545.493	57300
545.558	108299
545.623	58883
545.688	37127
545.753	35118
545.818	33881
545.883	36492
545.947	36200
546.012	37945
546.077	39583
546.142	39169
546.207	38030
546.272	41997
546.337	44297
546.401	41819
546.466	41912
546.531	42787
546.596	51833
546.661	67614
546.725	49223
546.790	45293
546.855	49084
546.919	48371
546.984	55237
547.049	57490
547.113	65913
547.178	66469
547.243	74706
547.307	83387
547.372	93124
547.436	98970
547.501	92655
547.565	98729
547.630	96239
547.695	94836
547.759	96918
547.823	95449
547.888	91901
547.952	92250
548.017	98796
548.081	113852
548.146	117610
548.210	107680
548.274	104276
548.339	102866
548.403	94828
548.468	89384
548.532	88142
548.596	92192
548.660	91696
548.725	96534
548.789	108273
548.853	109262
548.917	100508
548.982	106023
549.046	104093
549.110	84695
549.174	83515
549.238	92162
549.303	101045
549.367	106370
549.431	101511
549.495	95691
549.559	96520
549.623	106596
549.687	121014
549.751	125374
549.815	138590
549.879	138128
549.943	130024
550.007	137198
550.071	140650
550.135	141356
550.199	125535
550.263	119612
550.327	119520
550.391	133690
550.455	133359
550.519	131651
550.582	139502
550.646	160307
550.710	168306
550.774	157989
550.838	160603
550.901	165428
550.965	177814
551.029	188811
551.093	206103
551.156	235000
551.220	290358
551.284	315494
551.347	229962
551.411	237170
551.475	245146
551.538	173898
551.602	160087
551.666	150280
551.729	139616
551.793	136239
551.856	136083
551.920	134691
551.983	133124
552.047	129224
552.110	131649
552.174	136857
552.237	135688
552.301	126348
552.364	121031
552.428	118994
552.491	119961
552.554	124220
552.618	123427
552.681	128699
552.745	139564
552.808	138034
552.871	140702
552.934	134338
552.998	127343
553.061	126708
553.124	123554
553.187	123246
553.251	128547
553.314	133109
553.377	135341
553.440	158363
553.503	261028
553.567	418087
553.630	166668
553.693	133469
553.756	132250
553.819	127722
553.882	122751
553.945	124071
554.008	124165
554.071	122844
554.134	124734
554.197	119337
554.260	116477
554.323	119952
554.386	121661
554.449	124070
554.512	124284
554.575	120517
554.638	116559
554.701	116165
554.764	115007
554.827	112478
554.889	109247
554.952	103068
555.015	101911
555.078	101919
555.141	104495
555.203	101574
555.266	99988
555.329	102077
555.391	97109
555.454	96541
555.517	94305
555.580	93498
555.642	92011
555.705	88480
555.768	85524
555.830	85509
555.893	81682
555.955	80078
556.018	78173
556.080	78303
556.143	79190
556.206	80081
556.268	79030
556.330	79345
556.393	75661
556.455	78246
556.518	85433
556.580	85161
556.643	71389
556.705	68006
556.767	66917
556.830	69339
556.892	67042
556.955	73751
557.017	70250
557.079	63231
557.142	61078
557.204	64110
557.266	78792
557.328	76474
557.391	57250
557.453	55239
557.515	56088
557.577	59570
557.639	61727
557.701	60277
557.764	62318
557.826	64214
557.888	69914
557.950	73832
558.012	79261
558.074	99303
558.136	191424
558.198	545640
558.260	241884
558.322	83990
558.384	80535
558.446	86927
558.508	103567
558.570	124314
558.632	158121
558.694	211742
558.756	271124
558.818	655731
558.880	1701736
558.942	785458
559.003	576792
559.065	352853
559.127	131272
559.189	124819
559.251	135107
559.312	175300
559.374	349731
559.436	1156525
559.498	779058
559.559	165509
559.621	130629
559.683	136648
559.744	198127
559.806	549509
559.868	1010045
559.929	267467
559.991	136486
560.052	178515
560.114	489120
560.176	392512
560.237	262682
560.299	512128
560.360	147861
560.422	56591
560.483	48968
560.545	43435
560.606	42740
560.667	40892
560.729	37552
560.790	35934
560.852	35776
560.913	36074
560.974	35310
561.036	34970
561.097	34992
561.158	34894
561.220	35697
561.281	33910
561.342	34523
561.403	36462
561.465	41205
561.526	60872
561.587	81415
561.648	40920
561.709	33761
561.771	32913
561.832	32858
561.893	31704
561.954	30669
562.015	30916
562.076	32303
562.137	31078
562.198	30750
562.259	31468
562.320	31230
562.381	31798
562.442	37616
562.503	36456
562.564	31819
562.625	30518
562.686	29517
562.747	31819
562.808	31319
562.869	32713
562.930	36331
562.991	40847
563.051	39879
563.112	32522
563.173	32042
563.234	30827
563.294	30944
563.355	29104
563.416	30245
563.477	29429
563.537	29222
563.598	31411
563.659	30368
563.720	29462
563.780	30980
563.841	31356
563.901	31109
563.962	30712
564.023	30129
564.083	29682
564.144	29481
564.204	30118
564.265	30640
564.325	32822
564.386	52142
564.446	52953
564.507	31461
564.567	30032
564.628	29298
564.688	29208
564.749	30760
564.809	33561
564.869	39158
564.930	31522
564.990	29745
565.050	29000
565.111	28847
565.171	29352
565.231	29367
565.292	29778
565.352	28453
565.412	29957
565.472	31059
565.532	32479
565.593	30404
565.653	30095
565.713	30426
565.773	33381
565.833	34269
565.893	38572
565.953	34421
566.013	32621
566.074	32366
566.134	37609
566.194	49512
566.254	55568
566.314	44424
566.374	38016
566.434	36665
566.494	36555
566.554	35971
566.614	37547
566.673	38913
566.733	39842
566.793	42363
566.853	44018
566.913	44659
566.973	45804
567.033	47249
567.092	44749
567.152	45882
567.212	45646
567.272	45172
567.331	48270
567.391	48556
567.451	52066
567.511	60023
567.570	62134
567.630	50147
567.690	46336
567.749	47577
567.809	50893
567.868	54309
567.928	58900
567.988	66546
568.047	73975
568.107	86210
568.166	106991
568.226	141333
568.285	186827
568.345	189293
568.404	169690
568.464	155552
568.523	147155
568.582	148713
568.642	157276
568.701	176042
568.761	220770
568.820	297967
568.879	328334
568.939	289477
568.998	238441
569.057	191759
569.116	159174
569.176	133555
569.235	114403
569.294	99173
569.353	86698
569.413	77232
569.472	70037
569.531	64152
569.590	60325
569.649	58128
569.708	54845
569.767	50591
569.827	49778
569.886	48929
569.945	44876
570.004	41669
570.063	40149
570.122	40357
570.181	40096
570.240	41101
570.299	41352
570.358	40023
570.417	35313
570.475	33224
570.534	34348
570.593	34661
570.652	37077
570.711	37577
570.770	33322
570.829	34314
570.887	32443
570.946	34255
571.005	32269
571.064	29922
571.122	32612
571.181	32948
571.240	31449
571.299	29047
571.357	30592
571.416	31729
571.475	34155
571.533	35694
571.592	30913
571.650	31341
571.709	30018
571.768	30982
571.826	32687
571.885	33138
571.943	31943
572.002	29619
572.060	29537
572.119	26975
572.177	26116
572.236	26121
572.294	25593
572.352	27593
572.411	27739
572.469	27275
572.528	26673
572.586	27861
572.644	28416
572.703	31772
572.761	27582
572.819	26096
572.877	26014
572.936	25590
572.994	26136
573.052	25225
573.110	25812
573.169	26102
573.227	25423
573.285	26380
573.343	25509
573.401	26212
573.459	25421
573.517	25902
573.576	26288
573.634	26767
573.692	26556
573.750	27390
573.808	26394
573.866	27502
573.924	30711
573.982	31129
574.040	28377
574.098	27414
574.155	24966
574.213	25680
574.271	25204
574.329	27913
574.387	28108
574.445	26812
574.503	23888
574.560	21850
574.618	23497
574.676	23239
574.734	24095
574.792	23423
574.849	24076
574.907	22102
574.965	22556
575.022	21920
575.080	21511
575.138	22686
575.195	22781
575.253	22269
575.311	23981
575.368	22847
575.426	20801
575.483	21155
575.541	21706
575.598	21491
575.656	22158
575.713	23622
575.771	22715
575.828	22862
575.886	22795
575.943	22869
576.001	23219
576.058	23162
576.115	23933
576.173	26989
576.230	27445
576.287	28520
576.345	27357
576.402	24306
576.459	24997
576.517	25298
576.574	25669
576.631	25392
576.688	24192
576.746	23832
576.803	23961
576.860	24242
576.917	26893
576.974	26284
577.031	24394
577.089	23642
577.146	22777
577.203	24454
577.260	24547
577.317	26315
577.374	26776
577.431	26554
577.488	24767
577.545	23611
577.602	24416
577.659	24899
577.716	25573
577.773	27727
577.830	26555
577.886	25333
577.943	23890
578.000	23827
578.057	26925
578.114	26144
578.171	26723
578.227	31697
578.284	31500
578.341	29209
578.398	27557
578.454	28298
578.511	29037
578.568	29248
578.625	26452
578.681	26259
578.738	25932
578.794	26865
578.851	27584
578.908	29906
578.964	28710
579.021	27079
579.077	27696
579.134	31260
579.190	26901
579.247	25272
579.303	24434
579.360	24454
579.416	24124
579.473	24956
579.529	24902
579.586	25640
579.642	26470
579.698	26920
579.755	28226
579.811	26619
579.867	27260
579.924	28506
579.980	28626
580.036	31637
580.093	34865
580.149	39942
580.205	43565
580.261	40151
580.317	36026
580.374	36436
580.430	35828
580.486	34880
580.542	33106
580.598	31803
580.619	31807
580.654	31858
580.692	31279
580.710	31056
580.765	30316
580.767	30333
580.823	31655
580.838	31657
580.879	31808
580.911	31872
580.935	31980
580.984	31603
580.991	31600
581.047	31929
581.057	32138
581.103	33280
581.130	33500
581.159	33803
581.203	35316
581.215	35763
581.270	36859
581.276	36593
581.326	34452
581.349	34551
581.382	34780
581.422	33921
581.438	33599
581.494	34008
581.494	33974
581.550	33810
581.567	33734
581.606	33685
581.640	33394
581.661	33290
581.713	35004
581.717	35163
581.773	34378
581.786	34389
581.829	34512
581.859	35259
581.885	35985
581.932	35281
581.940	35187
581.996	35436
582.004	35677
582.052	37013
582.077	36546
582.107	36135
582.150	36620
582.163	36786
582.219	37758
582.223	37786
582.274	38363
582.296	38528
582.330	38827
582.368	39487
582.386	39848
582.441	39005
582.441	39021
582.497	39835
582.514	39887
582.552	40272
582.587	42306
582.608	43529
582.659	43640
582.663	43655
582.719	43148
582.732	42976
582.774	42591
582.805	42853
582.830	43074
582.877	44526
582.885	44810
582.941	48573
582.950	49067
582.996	51882
583.023	55014
583.052	58295
583.095	59520
583.107	59796
583.162	57735
583.168	57705
583.218	57185
583.240	55108
583.273	52110
583.313	49420
583.328	48425
583.384	45945
583.385	45892
583.439	44471
583.458	44235
583.494	43755
583.531	42755
583.549	42361
583.603	41820
583.605	41781
583.660	41302
583.676	41224
583.715	41424
583.748	42075
583.770	42453
583.820	41481
583.825	41349
583.881	42299
583.893	41890
583.936	40517
583.965	40593
583.991	40789
584.038	41659
584.046	41769
584.101	40832
584.110	41112
584.156	42413
584.183	42393
584.211	42400
584.255	42547
584.266	42566
584.321	43094
584.328	43323
584.376	45191
584.400	45170
584.431	44798
584.472	45027
584.486	45159
584.541	45740
584.545	45826
584.596	46580
584.617	46167
584.651	45736
584.689	46978
584.706	47388
584.761	47970
584.762	48001
584.816	48514
584.834	48676
584.871	48800
584.906	49033
584.926	49106
584.978	51181
584.980	51235
585.035	51742
585.051	52443
585.090	54164
585.123	55356
585.145	56228
585.195	58205
585.200	58343
585.254	63154
585.267	65099
585.309	72202
585.340	77844
585.364	81944
585.412	87580
585.419	88352
585.473	96755
585.484	99801
585.528	114365
585.556	129564
585.583	153383
585.628	218569
585.637	241327
585.692	451167
585.700	500022
585.747	751891
585.772	708920
585.801	543970
585.845	250469
585.856	197411
585.910	107498
585.917	100621
585.965	81724
585.989	75663
586.019	70756
586.061	66343
586.074	64935
586.128	63182
586.133	62958
586.183	60423
586.205	60123
586.237	59644
586.277	59056
586.292	58535
586.346	56649
586.349	56662
586.401	56053
586.421	56078
586.455	55842
586.493	56755
586.509	57456
586.564	60323
586.565	60655
586.618	72393
586.637	73066
586.672	71861
586.709	66267
586.727	63828
586.781	65657
586.781	65559
586.835	62113
586.853	61429
586.889	59757
586.925	58186
586.944	57534
586.996	58344
586.998	58274
587.052	59281
587.068	59496
587.106	59467
587.140	60488
587.161	60972
587.212	62095
587.215	61998
587.269	63182
587.284	63744
587.323	64939
587.356	66651
587.377	67701
587.427	69658
587.431	69606
587.485	72019
587.499	72961
587.539	75007
587.571	76790
587.593	77903
587.643	81893
587.648	82033
587.702	86596
587.715	87814
587.755	90823
587.786	94548
587.810	96889
587.858	102689
587.864	102965
587.917	108727
587.930	110770
587.971	117396
588.001	123444
588.025	127544
588.073	138869
588.079	139783
588.133	152001
588.145	155654
588.187	167500
588.217	179279
588.241	188355
588.288	209879
588.295	212072
588.348	239907
588.360	247886
588.402	274743
588.431	297093
588.456	315390
588.503	359151
588.510	364303
588.564	425453
588.575	442244
588.617	505921
588.646	559659
588.671	610932
588.718	728310
588.725	748674
588.778	938802
588.789	978571
588.832	1182489
588.861	1287400
588.886	1377416
588.932	1453467
588.939	1436232
588.993	1322658
589.004	1347601
589.047	1418394
589.075	1460236
589.100	1396728
589.147	1137825
589.154	1109349
589.207	874898
589.218	836046
589.261	747905
589.290	711794
589.314	703693
589.361	725954
589.368	735710
589.421	871858
589.433	905530
589.475	1110624
589.504	1223007
589.528	1290887
589.576	1352563
589.582	1329068
589.635	1288806
589.647	1278626
589.689	1089266
589.718	881734
589.742	762043
589.790	529125
589.795	509830
589.849	382785
589.861	359898
589.902	304345
589.932	272046
589.955	248747
590.004	208887
590.009	204335
590.062	176038
590.075	170866
590.115	153831
590.146	143499
590.168	135953
590.218	123550
590.222	121897
590.275	112101
590.289	110205
590.328	103120
590.360	99032
590.381	95312
590.431	89368
590.435	88504
590.488	82966
590.503	81952
590.541	77852
590.574	75488
590.594	73518
590.645	70166
590.647	69669
590.700	67347
590.716	67144
590.753	64567
590.787	62830
590.806	61927
590.859	60921
590.859	60567
590.912	58544
590.930	58211
590.965	57168
591.001	57082
591.018	56118
591.071	53379
591.072	53622
591.124	51305
591.143	50736
591.177	49972
591.214	50099
591.230	49865
591.283	49861
591.285	50082
591.336	48851
591.356	48831
591.389	47970
591.427	47310
591.442	46644
591.495	45083
591.498	45181
591.547	44044
591.569	43835
591.600	43153
591.640	42673
591.653	42258
591.706	41580
591.711	41706
591.759	42193
591.782	42749
591.811	42957
591.853	43815
591.864	43468
591.917	42252
591.924	42288
591.969	42016
591.995	42238
592.022	42190
592.066	42340
592.075	42062
592.127	41615
592.137	41710
592.180	42800
592.208	43758
592.233	42973
592.279	41777
592.285	41518
592.338	40844
592.350	40849
592.390	40233
592.421	40051
592.443	40059
592.491	40559
592.495	40402
592.548	40316
592.562	40448
592.600	40302
592.633	40449
592.653	39985
592.704	38951
592.705	39194
592.775	40469
592.846	42080
592.916	41314
592.987	42884
593.058	44386
593.128	40500
593.199	41660
593.270	41122
593.341	40700
593.411	43232
593.482	43724
593.553	44775
593.623	43189
593.694	44333
593.764	46004
593.835	45720
593.906	45142
593.976	46456
594.047	48727
594.117	50881
594.188	50788
594.258	49074
594.329	48362
594.399	49985
594.470	50595
594.540	51065
594.611	52058
594.681	52710
594.751	53146
594.822	53878
594.892	55672
594.963	56850
595.033	58704
595.103	59355
595.174	60029
595.244	63953
595.314	67653
595.384	64421
595.455	63993
595.525	66588
595.595	68075
595.665	70209
595.736	69166
595.806	69279
595.876	70223
595.946	70603
596.016	71365
596.087	74889
596.157	74603
596.227	76211
596.297	78855
596.367	83110
596.437	85820
596.507	89956
596.577	92202
596.647	90137
596.717	94165
596.787	96025
596.857	94656
596.927	95896
596.997	96914
597.067	101017
597.137	109502
597.207	125262
597.277	123220
597.347	115402
597.417	108824
597.487	107551
597.557	106128
597.626	107224
597.696	107744
597.766	108716
597.836	106546
597.906	101645
597.975	99895
598.045	102065
598.115	104824
598.185	111201
598.254	119253
598.324	129295
598.394	132375
598.464	130071
598.533	132123
598.603	127343
598.672	127670
598.742	139716
598.812	144539
598.881	140856
598.951	137282
599.020	137639
599.090	139254
599.159	141764
599.229	140197
599.299	136878
599.368	140210
599.437	142339
599.507	137543
599.576	136483
599.646	137949
599.715	139164
599.785	137090
599.854	136971
599.924	138628
599.993	139428
600.062	142166
600.132	146064
600.201	151577
600.270	167863
600.340	183888
600.409	184238
600.478	179952
600.547	182862
600.617	180356
600.686	162602
600.755	157606
600.824	155780
600.894	156622
600.963	158544
601.032	160447
601.101	162101
601.170	161236
601.239	163089
601.308	166345
601.378	169998
601.447	172330
601.516	175586
601.585	180885
601.654	184606
601.723	187735
601.792	193611
601.861	199968
601.930	211411
601.999	225889
602.068	220008
602.137	218916
602.206	219340
602.275	218674
602.343	222780
602.412	225286
602.481	220352
602.550	221809
602.619	224963
602.688	224722
602.756	230924
602.825	226916
602.894	232616
602.963	231551
603.032	234059
603.100	238765
603.169	227358
603.238	239217
603.307	233194
603.375	227866
603.444	240716
603.513	226508
603.581	229380
603.650	251997
603.719	217287
603.787	198872
603.856	201186
603.924	201770
603.993	206978
604.061	213421
604.130	218643
604.198	222460
604.267	223905
604.335	232633
604.404	230162
604.472	237545
604.541	237963
604.609	243245
604.678	253919
604.746	255822
604.815	267875
604.883	261396
604.951	248461
605.020	256574
605.088	244748
605.156	227703
605.225	223817
605.293	224728
605.361	228507
605.429	225633
605.498	228868
605.566	226323
605.634	235413
605.702	235520
605.771	235150
605.839	245726
605.907	225388
605.975	231904
606.043	228700
606.111	211829
606.180	233346
606.248	223761
606.316	206506
606.384	225613
606.452	196135
606.520	152577
606.588	154888
606.656	154472
606.724	153283
606.792	145588
606.860	134706
606.928	124970
606.996	121874
607.064	116672
607.132	120794
607.200	125924
607.267	130273
607.335	131749
607.403	135132
607.471	133564
607.539	127840
607.607	129837
607.674	116860
607.742	115109
607.810	114343
607.878	114825
607.946	114694
608.013	118399
608.081	119527
608.149	121213
608.216	123502
608.284	128396
608.352	126798
608.419	126635
608.487	126150
608.555	118564
608.622	121284
608.690	127006
608.757	136871
608.825	141301
608.893	139210
608.960	134067
609.028	126251
609.095	125613
609.163	124456
609.230	115443
609.298	102072
609.365	106915
609.432	114589
609.500	121466
609.567	137050
609.635	158967
609.702	170727
609.769	168341
609.837	138579
609.904	116511
609.971	118920
610.039	133176
610.106	171147
610.173	315994
610.241	746393
610.308	648137
610.375	201690
610.442	136070
610.509	121104
610.577	120435
610.644	119321
610.711	123122
610.778	126205
610.845	131047
610.912	136760
610.980	144026
611.047	148827
611.114	143866
611.181	136089
611.248	134097
611.315	140190
611.382	144214
611.449	150739
611.516	153705
611.583	150920
611.650	153390
611.717	154047
611.784	157126
611.851	163550
611.918	175785
611.984	204155
612.051	283373
612.118	532587
612.185	1258964
612.252	1226700
612.319	345132
612.386	221488
612.452	194351
612.519	179478
612.586	176682
612.653	174991
612.719	177816
612.786	174764
612.853	162271
612.919	155694
612.986	158585
613.053	153822
613.120	149817
613.186	158496
613.253	166480
613.319	153220
613.386	148282
613.453	147753
613.519	147727
613.586	146960
613.652	155163
613.719	150171
613.785	149965
613.852	151384
613.918	148825
613.985	150032
614.051	159830
614.118	178874
614.184	186762
614.250	149934
614.317	150758
614.383	147680
614.449	150701
614.516	149023
614.582	150773
614.648	151107
614.715	148726
614.781	153823
614.847	162864
614.914	156763
614.980	148317
615.046	143598
615.112	147518
615.179	149784
615.245	151791
615.311	151635
615.377	160356
615.443	169813
615.509	158968
615.575	160349
615.642	158964
615.708	159890
615.774	168756
615.840	180944
615.906	196549
615.972	237729
616.038	352839
616.104	672732
616.170	1421017
616.236	1700308
616.302	547171
616.368	331041
616.434	248418
616.500	216456
616.565	226395
616.631	285415
616.697	250385
616.763	232091
616.829	319762
616.895	592084
616.961	690533
617.026	334881
617.092	194917
617.158	168624
617.224	162231
617.289	151736
617.355	143337
617.421	141357
617.487	140127
617.552	133247
617.618	132636
617.684	132995
617.749	132905
617.815	128814
617.880	127458
617.946	124775
618.012	127152
618.077	129745
618.143	128763
618.208	132530
618.274	138801
618.339	142219
618.405	122248
618.470	117261
618.536	118955
618.601	119033
618.667	114124
618.732	107257
618.798	106011
618.863	106208
618.928	104547
618.994	106876
619.059	110235
619.124	125792
619.190	125422
619.255	105360
619.320	104751
619.386	104960
619.451	105728
619.516	101529
619.581	104374
619.647	104878
619.712	106422
619.777	103578
619.842	104136
619.907	108062
619.972	111796
620.038	111053
620.103	106703
620.168	104782
620.233	106208
620.298	107980
620.363	108354
620.428	109833
620.493	112457
620.558	112313
620.623	114112
620.688	115815
620.753	113155
620.818	115624
620.883	115570
620.948	115920
621.013	114280
621.078	115132
621.143	112363
621.207	117902
621.272	113028
621.337	113076
621.402	111100
621.467	112403
621.532	111705
621.596	112504
621.661	110005
621.726	110347
621.791	111778
621.855	112171
621.920	111341
621.985	112519
622.049	112693
622.114	115700
622.179	114038
622.243	119576
622.308	118799
622.373	119817
622.437	119828
622.502	115402
622.566	114233
622.631	112004
622.695	114320
622.760	113441
622.824	113732
622.889	115711
622.953	114255
623.018	122474
623.082	126756
623.147	119316
623.211	116792
623.276	117328
623.340	114406
623.404	110263
623.469	110666
623.533	110873
623.597	110341
623.662	110445
623.726	106853
623.790	102035
623.854	97682
623.919	99419
623.983	98192
624.047	98794
624.111	99002
624.176	101696
624.240	102576
624.304	104115
624.368	102374
624.432	101718
624.496	99603
624.560	105355
624.625	108282
624.689	104760
624.753	109274
624.817	105813
624.881	102518
624.945	103867
625.009	101762
625.073	95123
625.137	95098
625.201	98300
625.265	100679
625.329	96704
625.393	94637
625.456	94494
625.520	94929
625.584	96964
625.648	101498
625.712	104667
625.776	118388
625.839	121108
625.903	95882
625.967	79071
626.031	85562
626.095	103529
626.158	94051
626.222	76349
626.286	69334
626.349	68571
626.413	65643
626.477	64991
626.540	64007
626.604	63604
626.668	62078
626.731	60934
626.795	61127
626.858	59829
626.922	57415
626.986	58147
627.049	58292
627.113	59256
627.176	59842
627.240	57506
627.303	56709
627.366	55291
627.430	56926
627.493	57061
627.557	56594
627.620	56223
627.684	56429
627.747	55550
627.810	53176
627.874	50211
627.937	46492
628.000	49191
628.064	49517
628.127	43791
628.190	42589
628.253	42119
628.317	40683
628.380	39742
628.443	38477
628.506	39221
628.569	37709
628.632	34546
628.696	34795
628.759	35423
628.822	34126
628.885	32168
628.948	32667
629.011	31137
629.074	31424
629.137	30432
629.200	29857
629.263	31416
629.326	29472
629.389	29355
629.452	29254
629.515	29199
629.578	29954
629.641	29980
629.704	29794
629.767	27915
629.830	27170
629.892	26878
629.955	26893
630.018	28393
630.081	27554
630.144	29110
630.207	26660
630.269	27459
630.332	25226
630.395	25697
630.458	25602
630.520	23723
630.583	24950
630.646	24410
630.708	24314
630.771	24790
630.834	26156
630.896	25295
630.959	25663
631.021	25714
631.084	25339
631.146	25109
631.209	26136
631.272	24606
631.334	25442
631.397	24571
631.459	25740
631.522	27561
631.584	28355
631.646	30475
631.709	31356
631.771	33949
631.834	32321
631.896	29689
631.958	27135
632.021	26472
632.083	24355
632.145	24796
632.208	23886
632.270	23953
632.332	22753
632.395	22770
632.457	23288
632.519	23932
632.581	24722
632.643	22515
632.706	23125
632.768	22293
632.830	22220
632.892	23451
632.954	22900
633.016	24001
633.078	22195
633.141	23556
633.203	22942
633.265	22637
633.327	22460
633.389	23743
633.451	23486
633.513	24771
633.575	25480
633.637	24004
633.698	23531
633.760	25232
633.822	24567
633.884	26359
633.946	26628
634.008	27873
634.070	29367
634.132	32279
634.193	34479
634.255	36158
634.317	38257
634.379	37353
634.441	34132
634.502	31326
634.564	28793
634.626	26374
634.687	25172
634.749	23445
634.811	21987
634.873	22271
634.934	22607
634.996	23172
635.057	22724
635.119	22500
635.181	23891
635.242	24564
635.304	22622
635.365	24454
635.427	24262
635.488	24575
635.550	23944
635.611	25425
635.673	23592
635.734	26820
635.796	26558
635.857	30035
635.918	32050
635.980	35888
636.041	37996
636.102	40024
636.164	42791
636.225	41249
636.286	36218
636.348	32921
636.409	28159
636.470	25331
636.531	24769
636.593	24570
636.654	23630
636.715	22767
636.776	21460
636.838	20907
636.899	21090
636.960	21231
637.021	20751
637.082	21008
637.143	20149
637.204	18419
637.265	19452
637.326	20592
637.387	19229
637.448	19456
637.509	20903
637.570	20161
637.631	19680
637.692	18502
637.753	18674
637.814	18357
637.875	18566
637.936	19071
637.997	18939
638.058	19774
638.119	19162
638.179	19529
638.240	17693
638.301	19171
638.362	18094
638.423	17890
638.483	19800
638.544	17640
638.605	18662
638.666	19031
638.726	19254
638.787	18448
638.848	18763
638.908	17264
638.969	17142
639.030	18303
639.090	16663
639.151	17171
639.211	17930
639.272	19589
639.332	24532
639.393	28046
639.453	23195
639.514	21158
639.574	18807
639.635	16387
639.695	16673
639.756	15907
639.816	17441
639.877	18450
639.937	20194
639.997	22517
640.058	17628
640.118	16764
640.178	17552
640.239	16618
640.299	17638
640.359	16836
640.420	17479
640.480	18959
640.540	22135
640.600	24560
640.661	22347
640.721	21760
640.781	27458
640.841	31782
640.901	20543
640.961	17850
641.021	19135
641.082	23842
641.142	22102
641.202	18811
641.262	14773
641.322	16824
641.382	15616
641.442	16128
641.502	16547
641.562	15940
641.622	16296
641.682	16940
641.742	20359
641.802	19905
641.861	16803
641.921	15543
641.981	16112
642.041	15235
642.101	16362
642.161	14749
642.221	14557
642.280	14748
642.340	14597
642.400	13653
642.460	16336
642.519	15580
642.579	15409
642.639	15510
642.698	13719
642.758	17319
642.818	15345
642.877	15850
642.937	16446
642.997	16771
643.056	18567
643.116	16477
643.175	17849
643.235	16760
643.294	18949
643.354	21526
643.414	25575
643.473	43979
643.532	36890
643.592	34974
643.651	49934
643.711	85558
643.770	159400
643.830	355613
643.889	898794
643.948	402420
644.008	67565
644.067	35230
644.126	26293
644.186	21871
644.245	19649
644.304	17376
644.363	17807
644.423	16691
644.482	16828
644.541	17475
644.600	17996
644.659	21215
644.719	25807
644.778	38610
644.837	61546
644.896	119695
644.955	310369
645.014	175156
645.073	33666
645.132	22813
645.191	18606
645.250	17974
645.309	19260
645.368	19868
645.427	25825
645.486	38382
645.545	81353
645.604	38733
645.663	17728
645.722	16042
645.781	18644
645.840	19310
645.898	22327
645.957	30905
646.016	44732
646.075	80472
646.134	157133
646.192	366828
646.251	759931
646.310	204078
646.369	44743
646.427	31134
646.486	24906
646.545	19518
646.603	17485
646.662	15870
646.721	14905
646.779	14562
646.838	15177
646.896	19170
646.955	24554
647.014	37579
647.072	66309
647.131	189250
647.189	158515
647.248	23569
647.306	15642
647.365	14499
647.423	11108
647.481	13804
647.540	10565
647.598	11421
647.657	11547
647.715	11163
647.773	10388
647.832	11245
647.890	9489
647.948	10438
648.007	11235
648.065	9749
648.123	10443
648.181	10833
648.240	11246
648.298	11584
648.356	9543
648.414	9808
648.472	9970
648.531	10964
648.589	10056
648.647	9534
648.705	9375
648.763	9368
648.821	9690
648.879	10493
648.937	11191
648.995	13366
649.053	15547
649.111	23686
649.169	39250
649.227	69828
649.285	134574
649.343	407262
649.401	343479
649.459	49932
649.516	27779
649.574	18673
649.632	25138
649.690	35690
649.748	24518
649.806	30797
649.863	56210
649.921	129228
649.979	145545
650.037	24696
650.094	10994
650.152	10394
650.210	9199
650.268	10830
650.325	10718
650.383	15277
650.440	10048
650.498	8025
650.556	7484
650.613	6898
650.671	7707
650.728	7010
650.786	8003
650.843	9780
650.901	8568
650.958	7395
651.016	6247
651.073	6147
651.131	6206
651.188	5154
651.246	6798
651.303	5446
651.360	5938
651.418	5653
651.475	5921
651.532	5660
651.590	6118
651.647	5566
651.704	5688
651.762	5249
651.819	6357
651.876	5520
651.933	6154
651.990	5802
652.048	4691
652.105	4719
652.162	5338
652.219	5602
652.276	5863
652.333	5809
652.390	4101
652.448	5333
652.505	5047
652.562	5322
652.619	6054
652.676	7759
652.733	9631
652.790	6132
652.847	4421
652.904	5001
652.961	3952
653.017	4499
653.074	4713
653.131	5204
653.188	4019
653.245	5043
653.302	4575
653.359	5031
653.415	5436
653.472	4469
653.529	5834
653.586	4651
653.642	4357
653.699	5284
653.756	3816
653.813	5053
653.869	6101
653.926	4982
653.983	4417
654.039	4566
654.096	4450
654.152	6036
654.209	3910
654.266	5952
654.322	5802
654.379	4536
654.435	5118
654.492	4502
654.548	5515
654.605	5856
654.661	7025
654.717	5326
654.774	5379
654.830	4921
654.887	4488
654.943	5530
655.000	8249
655.056	6808
655.112	4519
655.168	4260
655.225	4992
655.281	4659
655.337	4628
655.394	5491
655.450	5700
655.506	5142
655.562	5984
655.618	7134
655.675	5364
655.731	5170
655.787	4189
655.843	4604
655.899	4149
655.955	4439
656.011	4741
656.067	3246
656.123	4138
656.179	4353
656.235	4754
656.291	3534
656.347	4905
656.403	3711
656.459	3618
656.515	4830
656.571	4574
656.627	4039
656.683	4389
656.739	5104
656.795	4405
656.850	3954
656.906	4362
656.962	5336
657.018	4039
657.074	4730
657.129	6227
657.185	9504
657.241	19551
657.297	16121
657.352	5813
657.408	3840
657.464	6334
657.519	4016
657.575	3584
657.630	3933
657.686	4372
657.742	3721
657.797	5939
657.853	5969
657.908	6065
657.964	3814
658.019	3608
658.075	4189
658.130	3790
658.186	3025
658.241	4381
658.297	3290
658.352	4507
658.407	4563
658.463	3821
658.518	3714
658.573	3139
658.629	3213
658.684	4023
658.739	3399
658.795	3786
658.850	4229
658.905	3624
658.960	4001
659.016	3076
659.071	3839
659.126	4492
659.181	3037
659.236	5243
659.291	6668
659.346	4970
659.401	4273
659.457	5378
659.512	6422
659.567	5814
659.622	4572
659.677	2945
659.732	3945
659.787	3968
659.842	3084
659.897	4931
659.952	4716
660.007	4587
660.061	4306
660.116	3541
660.171	2801
660.226	4109
660.281	4005
660.336	3425
660.391	4463
660.445	3660
660.500	4052
660.555	3657
660.610	4246
660.664	4716
660.719	3382
660.774	4043
660.828	4796
660.883	4275
660.938	4465
660.992	2430
661.047	3729
661.101	4138
661.156	3820
661.211	3315
661.265	2815
661.320	3551
661.374	4042
661.429	3427
661.483	3760
661.538	3538
661.592	4586
661.647	5671
661.701	7403
661.755	6198
661.810	4644
661.864	3868
661.919	3395
661.973	4701
662.027	3324
662.081	2587
662.136	3560
662.190	3670
662.244	3664
662.299	3467
662.353	3436
662.407	3418
662.461	3103
662.515	3633
662.569	3723
662.624	3492
662.678	4033
662.732	3424
662.786	3527
662.840	4043
662.894	3383
662.948	2828
663.002	3601
663.056	3805
663.110	1709
663.164	3559
663.218	3514
663.272	4062
663.326	4159
663.380	3222
663.434	3281
663.488	2797
663.542	3374
663.595	3646
663.649	2984
663.703	3773
663.757	2951
663.811	2745
663.864	3730
663.918	3707
663.972	2665
664.026	2904
664.079	2937
664.133	3181
664.187	3454
664.240	3698
664.294	3583
664.348	4868
664.401	4063
664.455	3501
664.508	3102
664.562	3020
664.615	2837
664.669	2298
664.722	3378
664.776	2147
664.829	3097
664.883	3325
664.936	3341
664.990	3927
665.043	5419
665.097	4362
665.150	4630
665.203	3134
665.257	3920
665.310	3968
665.363	3856
665.417	3405
665.470	2942
665.523	3576
665.576	3773
665.630	3308
665.683	3640
665.736	3299
665.789	3378
665.842	2834
665.895	2956
665.949	3004
666.002	3441
666.055	2999
666.108	4346
666.161	3772
666.214	3530
666.267	4189
666.320	3531
666.373	4793
666.426	4026
666.479	3596
666.532	4422
666.585	3699
666.638	4934
666.691	3148
666.744	4262
666.796	3168
666.849	3326
666.902	4488
666.955	3540
667.008	3096
667.060	3529
667.113	3500
667.166	3101
667.219	3451
667.271	3430
667.324	3549
667.377	4431
667.430	3675
667.482	4115
667.535	3865
667.587	3311
667.640	3263
667.693	3801
667.745	4633
667.798	6694
667.850	3864
667.903	3491
667.955	3806
668.008	3498
668.060	2992
668.113	3488
668.165	3494
668.218	4283
668.270	3502
668.322	3303
668.375	4094
668.427	4318
668.479	2598
668.532	3634
668.584	3237
668.636	3840
668.689	3528
668.741	4826
668.793	3858
668.845	3016
668.898	3554
668.950	3909
669.002	3571
669.054	2228
669.106	2858
669.158	3732
669.211	3567
669.263	3814
669.315	3958
669.367	5097
669.419	3208
669.471	3605
669.523	3685
669.575	4274
669.627	4149
669.679	4284
669.731	3341
669.783	3900
669.835	3620
669.886	3957
669.938	3978
669.990	3114
670.042	3426
670.094	4575
670.146	3243
670.197	3464
670.249	3999
670.301	4513
670.353	6049
670.404	7496
670.456	9138
670.508	13096
670.560	21662
670.611	40347
670.663	70288
670.715	148640
670.766	336752
670.818	169101
670.869	26815
670.921	14417
670.972	9618
671.024	7326
671.075	5652
671.127	4990
671.178	3919
671.230	5489
671.281	5185
671.333	5802
671.384	5290
671.436	6232
671.487	8305
671.538	10817
671.590	16807
671.641	28193
671.692	46682
671.744	97071
671.795	97394
671.846	38378
671.897	16681
671.949	10195
672.000	8367
672.051	6459
672.102	5349
672.153	3927
672.204	4703
672.256	4544
672.307	3273
672.358	4409
672.409	2745
672.460	2989
672.511	3149
672.562	2697
672.613	3289
672.664	3051
672.715	3025
672.766	2968
672.817	2813
672.868	2894
672.919	2531
672.970	1378
673.021	2392
673.071	1991
673.122	2569
673.173	2448
673.224	2382
673.275	3100
673.326	2124
673.376	3013
673.427	1730
673.478	2662
673.528	3255
673.579	2092
673.630	2680
673.680	3068
673.731	2028
673.782	1824
673.832	2498
673.883	2167
673.934	2962
673.984	2235
674.035	2487
674.085	3187
674.136	1972
674.186	2486
674.237	3401
674.287	3452
674.338	3527
674.388	2657
674.438	2280
674.489	2705
674.539	3294
674.589	2284
674.640	2352
674.690	3256
674.740	2084
674.791	2125
674.841	2828
674.891	2920
674.942	1986
674.992	1953
675.042	2188
675.092	1283
675.142	2444
675.193	1133
675.243	2323
675.293	2521
675.343	2276
675.393	2210
675.443	2545
675.493	1566
675.543	1048
675.593	2302
675.643	2321
675.693	1796
675.743	2447
675.793	1776
675.843	1270
675.893	1561
675.943	2620
675.993	1486
676.043	1983
676.093	2487
676.142	1098
676.192	2461
676.242	1707
676.292	1391
676.341	1740
676.391	2025
676.441	1981
676.491	1973
676.540	1722
676.590	1498
676.640	2202
676.689	2013
676.739	655
676.789	2432
676.838	1815
676.888	2257
676.937	2156
676.987	2466
677.037	1928
677.086	1640
677.136	908
677.185	1805
677.235	1830
677.284	1838
677.333	1916
677.383	1649
677.432	2143
677.482	1236
677.531	2078
677.580	1213
677.630	1701
677.679	1101
677.728	1447
677.778	1969
677.827	2447
677.876	1392
677.925	1252
677.975	2086
678.024	1406
678.073	2427
678.122	1903
678.171	1384
678.220	1728
678.269	3751
678.319	2068
678.368	2912
678.417	1935
678.466	2795
678.515	2105
678.564	1908
678.613	1811
678.662	1448
678.711	1811
678.760	1201
678.809	2036
678.857	1430
678.906	1830
678.955	2199
679.004	2257
679.053	2479
679.102	2398
679.151	1789
679.199	1885
679.248	2152
679.297	1707
679.346	2592
679.394	1764
679.443	1382
679.492	1994
679.540	1819
679.589	1341
679.638	985
679.686	1546
679.735	1573
679.784	1597
679.832	3040
679.881	1946
679.929	833
679.978	985
680.026	1755
680.075	1289
680.123	1355
680.172	1195
680.220	1568
680.268	1420
680.317	1356
680.365	1200
680.414	905
680.462	884
680.510	1829
680.559	1408
680.607	1111
680.655	1085
680.703	1425
680.752	1533
680.800	1488
680.848	686
680.896	900
680.945	1133
680.993	916
681.041	1205
681.089	1451
681.137	750
681.185	984
681.233	1888
681.258	1779
681.281	1631
681.329	2019
681.377	1193
681.380	1248
681.425	1388
681.473	2248
681.502	2044
681.521	1815
681.569	1982
681.617	1867
681.624	1880
681.665	1626
681.713	2677
681.745	2486
681.761	2325
681.809	2071
681.857	2028
681.867	2028
681.904	1812
681.952	3220
681.989	2820
682.000	2649
682.048	2303
682.096	2030
682.111	2380
682.143	2999
682.191	2904
682.233	3464
682.239	3503
682.286	3438
682.334	3448
682.354	3774
682.382	4066
682.430	3525
682.476	4305
682.477	4280
682.525	4481
682.572	3423
682.598	3729
682.620	3947
682.667	4285
682.715	4993
682.720	4945
682.763	4023
682.810	4613
682.841	4531
682.857	4453
682.905	4182
682.952	4929
682.963	4874
683.000	4446
683.047	4396
683.085	5128
683.095	5298
683.142	4351
683.190	5417
683.206	5213
683.237	4741
683.284	5289
683.328	5741
683.332	5734
683.379	5392
683.426	5552
683.449	5520
683.473	5511
683.521	5917
683.568	5697
683.571	5745
683.615	5768
683.662	6005
683.693	5832
683.709	5692
683.757	6370
683.804	6387
683.814	6231
683.851	5568
683.898	6615
683.936	6619
683.945	6586
683.992	5957
684.039	6677
684.057	6930
684.086	7287
684.133	7586
684.179	7409
684.180	7371
684.227	7513
684.274	7051
684.300	7374
684.321	7633
684.368	7357
684.415	7972
684.422	8017
684.462	8150
684.509	7724
684.543	8252
684.556	8374
684.603	7836
684.649	8271
684.665	8032
684.696	7498
684.743	8230
684.786	8568
684.790	8564
684.837	8066
684.883	8597
684.908	8579
684.930	8601
684.977	9128
685.023	8424
685.029	8526
685.070	9052
685.117	8918
685.150	8928
685.164	8926
685.210	9130
685.257	9980
685.272	9832
685.303	9376
685.350	9111
685.393	9852
685.396	9905
685.443	10012
685.490	9430
685.514	10098
685.536	10575
685.583	10413
685.629	10046
685.636	10076
685.675	10232
685.722	9969
685.757	10073
685.768	10073
685.815	10552
685.861	10749
685.878	10773
685.908	10820
685.954	10560
686.000	10535
686.000	10526
686.047	11137
686.093	12015
686.121	11770
686.139	11483
686.185	11798
686.232	11475
686.242	11548
686.278	11589
686.324	11654
686.363	10985
686.370	10910
686.416	10769
686.463	11287
686.484	11396
686.509	11492
686.555	12022
686.601	11728
686.606	11767
686.647	11905
686.693	12071
686.727	11865
686.739	11778
686.785	12064
686.831	11426
686.848	11319
686.877	11282
686.923	11886
686.969	12265
686.969	12265
687.015	12450
687.061	12697
687.090	13074
687.107	13264
687.153	13043
687.199	13320
687.211	13204
687.245	12547
687.291	12532
687.332	12288
687.336	12328
687.382	13150
687.428	13224
687.453	13389
687.474	13338
687.520	13525
687.565	13625
687.574	13614
687.611	14225
687.657	15022
687.695	16152
687.702	16630
687.748	19506
687.794	23938
687.816	24618
687.839	23473
687.885	21183
687.931	19975
687.937	19777
687.976	17952
688.022	16148
688.058	14518
688.067	14522
688.113	14276
688.158	14184
688.179	14284
688.204	14396
688.249	14269
688.295	14203
688.300	14221
688.340	14818
688.386	14944
688.421	15308
688.431	15297
688.477	14582
688.522	15152
688.542	15046
688.567	15328
688.613	15631
688.658	16291
688.663	16340
688.703	16219
688.749	15579
688.784	15894
688.794	16022
688.839	15818
688.884	15497
688.905	15594
688.930	15804
688.975	15394
689.020	15684
689.026	15672
689.065	15880
689.110	16071
689.146	16353
689.155	16485
689.201	17499
689.246	18086
689.267	17868
689.291	17302
689.336	17297
689.381	16817
689.388	16680
689.426	16210
689.471	16345
689.509	16506
689.516	16579
689.561	16929
689.606	16631
689.630	16738
689.651	16726
689.696	16083
689.741	16072
689.750	15937
689.785	16129
689.830	16317
689.871	16710
689.875	16705
689.920	16807
689.965	16606
689.992	16311
690.010	16381
690.054	16549
690.099	17175
690.112	17142
690.144	17159
690.189	17445
690.233	17572
690.233	17596
690.278	17916
690.323	17607
690.354	17315
690.367	17356
690.412	17918
690.457	17610
690.474	17802
690.501	17907
690.546	17709
690.590	17262
690.595	17227
690.635	17932
690.680	18627
690.716	19041
690.724	19170
690.769	19853
690.813	20842
690.836	21006
690.857	21741
690.902	23578
690.946	25479
690.957	25945
690.991	31544
691.035	38902
691.077	46972
691.080	47221
691.124	48370
691.168	49032
691.198	49874
691.213	47125
691.257	39245
691.301	31151
691.318	27834
691.346	26451
691.390	24302
691.434	22090
691.439	21849
691.478	21665
691.522	21306
691.559	20546
691.567	20504
691.611	20712
691.655	20673
691.680	20437
691.699	20455
691.743	20985
691.787	20878
691.800	20967
691.831	21044
691.875	20923
691.919	20552
691.921	20503
691.964	20509
692.008	21185
692.041	21068
692.052	20932
692.096	20251
692.139	19902
692.162	19487
692.183	19442
692.227	19563
692.271	19813
692.282	19804
692.315	20062
692.359	20368
692.402	20758
692.403	20801
692.447	20762
692.490	21274
692.523	21388
692.534	21362
692.578	21400
692.622	20936
692.643	20823
692.666	20674
692.709	20377
692.753	19945
692.763	19833
692.797	19933
692.840	19996
692.884	19794
692.884	19836
692.928	20243
692.971	20310
693.004	20418
693.015	20480
693.059	20658
693.102	21033
693.124	20856
693.146	20917
693.189	21546
693.233	21781
693.245	21875
693.276	22323
693.320	22947
693.363	23356
693.365	23323
693.407	24036
693.450	24838
693.485	25324
693.493	25610
693.537	26852
693.580	28010
693.605	28810
693.624	31094
693.667	36081
693.710	41259
693.725	43148
693.753	53986
693.797	70175
693.840	87909
693.845	89731
693.883	93111
693.926	95691
693.966	98584
693.970	96860
694.013	76793
694.056	57014
694.086	43004
694.099	41315
694.142	36016
694.185	30869
694.206	28268
694.229	27888
694.272	26851
694.315	26114
694.326	25814
694.358	25516
694.401	25038
694.444	24484
694.446	24414
694.487	24402
694.530	23987
694.566	23911
694.573	23923
694.616	23353
694.659	22749
694.686	22497
694.702	22573
694.745	22385
694.787	22237
694.806	22223
694.830	22413
694.873	22431
694.916	22539
694.926	22477
694.959	22399
695.002	22317
695.044	22238
695.046	22180
695.087	22656
695.130	23128
695.166	23496
695.172	23540
695.215	23443
695.258	23421
695.286	23218
695.301	23378
695.343	23822
695.386	24247
695.406	24393
695.428	24351
695.471	24202
695.514	23870
695.526	23786
695.556	24509
695.599	25351
695.641	26150
695.646	26181
695.684	26014
695.726	25719
695.766	25379
695.769	25438
695.811	25535
695.854	25328
695.886	25321
695.896	25371
695.938	25201
695.981	24827
696.005	24769
696.023	25080
696.065	25457
696.108	25992
696.125	26018
696.150	26100
696.192	26231
696.235	26611
696.245	26607
696.277	26757
696.319	26894
696.361	27027
696.365	26960
696.404	27077
696.446	27215
696.485	27356
696.488	27432
696.530	27359
696.572	27433
696.604	27358
696.614	27397
696.656	27200
696.698	27193
696.724	27022
696.740	27047
696.783	27076
696.825	26983
696.844	26946
696.867	27165
696.909	27182
696.951	27290
696.964	27281
696.992	27349
697.034	27326
697.076	27260
697.083	27172
697.118	27527
697.160	28011
697.202	28396
697.203	28332
697.244	28174
697.286	28040
697.323	27740
697.327	27776
697.369	27538
697.411	27261
697.442	26976
697.453	27118
697.494	27390
697.536	27665
697.562	27779
697.578	27874
697.620	27926
697.661	28041
697.682	27957
697.703	28322
697.744	29015
697.786	29677
697.801	29863
697.828	29978
697.869	29896
697.911	29847
697.921	29777
697.952	29832
697.994	29708
698.035	29652
698.040	29564
698.077	29600
698.118	29475
698.160	29458
698.160	29378
698.201	29462
698.243	29479
698.279	29445
698.284	29533
698.325	29580
698.367	29653
698.399	29605
698.408	29798
698.449	30330
698.491	30869
698.518	31151
698.532	31347
698.573	31689
698.614	32024
698.638	32123
698.656	32020
698.697	31577
698.738	31163
698.757	30873
698.779	30995
698.820	31063
698.862	31147
698.877	31093
698.903	31260
698.944	31379
698.985	31512
698.996	31463
699.026	31446
699.067	31307
699.116	31058
699.235	31992
699.354	31153
699.474	30324
699.593	29949
699.713	31102
699.832	30203
699.951	31440
700.070	30478
700.190	30112
700.309	28976
700.428	29539
700.547	28249
700.667	28539
700.786	28104
700.905	29053
701.024	28629
701.143	29509
701.262	27499
701.381	28040
701.500	28583
701.619	28769
701.738	28137
701.857	29006
701.976	27449
702.095	27632
702.214	28322
702.333	29397
702.452	28934
702.571	27331
702.690	28211
702.809	27083
702.928	25673
703.047	25889
703.165	26070
703.284	27291
703.403	25550
703.522	26302
703.640	26319
703.759	26137
703.878	28373
703.997	26389
704.115	26045
704.234	25572
704.353	26178
704.471	24535
704.590	27279
704.708	25163
704.827	23021
704.946	23866
705.064	24813
705.183	24605
705.301	25667
705.420	27397
705.538	27971
705.656	25970
705.775	26134
705.893	37322
706.012	54474
706.130	27230
706.249	25021
706.367	25081
706.485	25220
706.604	25962
706.722	26643
706.840	32493
706.958	47808
707.077	47584
707.195	25296
707.313	24215
707.431	23337
707.549	24255
707.668	22005
707.786	23892
707.904	22404
708.022	23716
708.140	23375
708.258	21819
708.376	23832
708.494	23507
708.612	23407
708.730	25640
708.848	27090
708.966	25093
709.084	24811
709.202	23731
709.320	24271
709.438	24163
709.556	24559
709.674	22933
709.791	22382
709.909	21525
710.027	23592
710.145	23111
710.263	21231
710.380	22189
710.498	21922
710.616	21809
710.733	22846
710.851	22127
710.969	22341
711.086	21828
711.204	21893
711.322	21120
711.439	22096
711.557	21832
711.674	21566
711.792	21975
711.909	21951
712.027	25492
712.144	21489
712.262	20594
712.379	21234
712.497	23776
712.614	25198
712.732	23797
712.849	23065
712.966	22889
713.084	24472
713.201	23440
713.318	23386
713.436	23343
713.553	24177
713.670	23726
713.787	24783
713.905	24831
714.022	23789
714.139	24565
714.256	29017
714.373	35267
714.490	57246
714.608	117380
714.725	460947
714.842	835193
714.959	105075
715.076	38137
715.193	27895
715.310	25873
715.427	22480
715.544	21957
715.661	22020
715.778	21993
715.895	21060
716.011	22053
716.128	21682
716.245	20972
716.362	21689
716.479	20484
716.596	19724
716.713	20746
716.829	19935
716.946	19542
717.063	19246
717.180	18407
717.296	18129
717.413	17461
717.530	18488
717.646	17666
717.763	17453
717.880	16864
717.996	17032
718.113	18254
718.229	17280
718.346	17325
718.462	17188
718.579	17533
718.695	21660
718.812	21846
718.928	19279
719.045	18174
719.161	18455
719.277	17545
719.394	18516
719.510	18334
719.626	19239
719.743	23126
719.859	28096
719.975	49287
720.092	152708
720.208	507699
720.324	123487
720.440	26118
720.557	21111
720.673	21733
720.789	24213
720.905	32019
721.021	24345
721.137	16379
721.253	16312
721.369	15474
721.486	16471
721.602	18418
721.718	15458
721.834	15120
721.950	16505
722.066	15151
722.181	14997
722.297	14772
722.413	15075
722.529	15298
722.645	14841
722.761	14145
722.877	14011
722.993	14820
723.108	16883
723.224	17794
723.340	14914
723.456	13734
723.571	13865
723.687	13512
723.803	14186
723.918	13663
724.034	13067
724.150	14476
724.265	15071
724.381	16271
724.497	21958
724.612	13623
724.728	13776
724.843	13429
724.959	13669
725.074	17331
725.190	19828
725.305	13774
725.421	13040
725.536	12823
725.651	13213
725.767	12549
725.882	12287
725.997	13489
726.113	13088
726.228	13336
726.343	12773
726.459	12634
726.574	12606
726.689	12364
726.804	13133
726.920	12294
727.035	12651
727.150	11596
727.265	12336
727.380	12211
727.495	12745
727.610	11991
727.725	12656
727.841	13757
727.956	20058
728.071	22747
728.186	12864
728.301	11623
728.416	12833
728.531	12180
728.645	10630
728.760	11331
728.875	12761
728.990	11860
729.105	12773
729.220	11901
729.335	12420
729.449	11374
729.564	10750
729.679	10877
729.794	11461
729.908	12432
730.023	11704
730.138	10467
730.253	11338
730.367	10276
730.482	11042
730.596	11103
730.711	12698
730.826	15471
730.940	20997
731.055	14360
731.169	12680
731.284	12670
731.398	13126
731.513	13246
731.627	14387
731.742	15470
731.856	17419
731.970	16677
732.085	20046
732.199	26587
732.313	42870
732.428	96532
732.542	280402
732.656	264822
732.771	55017
732.885	26496
732.999	20420
733.113	19863
733.227	17577
733.342	16909
733.456	17277
733.570	15980
733.684	14278
733.798	14923
733.912	14865
734.026	13790
734.140	14072
734.254	14200
734.368	16166
734.482	19214
734.596	14549
734.710	13868
734.824	12868
734.938	12440
735.052	13288
735.166	14188
735.280	13468
735.393	12848
735.507	13523
735.621	13634
735.735	15746
735.849	14169
735.962	13407
736.076	13405
736.190	12694
736.303	13402
736.417	14566
736.531	11936
736.644	12926
736.758	12091
736.872	12085
736.985	11590
737.099	12126
737.212	11048
737.326	12099
737.439	11903
737.553	11635
737.666	11982
737.780	11197
737.893	11848
738.007	14230
738.120	13388
738.233	12585
738.347	13044
738.460	12158
738.573	12729
738.687	10916
738.800	11641
738.913	12666
739.026	12650
739.140	12307
739.253	12667
739.366	10958
739.479	11184
739.592	10660
739.705	10799
739.818	12216
739.932	10841
740.045	10794
740.158	11443
740.271	13045
740.384	16105
740.497	13293
740.610	12885
740.723	11888
740.836	11578
740.949	12157
741.062	13732
741.174	14537
741.287	12539
741.400	11714
741.513	10596
741.626	11471
741.739	12589
741.851	11785
741.964	12367
742.077	11064
742.189	11541
742.302	11471
742.415	10803
742.527	10806
742.640	11581
742.753	10271
742.865	10703
742.978	11227
743.090	11442
743.203	10954
743.316	11683
743.428	12171
743.541	13038
743.653	11688
743.766	11470
743.878	11769
743.990	12021
744.103	12355
744.215	12077
744.327	11096
744.440	12174
744.552	13110
744.664	11168
744.777	11083
744.889	10633
745.001	10074
745.113	10374
745.226	11023
745.338	10555
745.450	10045
745.562	10447
745.674	10558
745.786	10642
745.898	10858
746.010	10376
746.122	10028
746.234	10903
746.347	10532
746.459	10463
746.570	11030
746.682	10740
746.794	11072
746.906	10193
747.018	9282
747.130	10544
747.242	9542
747.354	10655
747.466	10987
747.577	10081
747.689	10167
747.801	10913
747.913	9316
748.024	9248
748.136	9660
748.248	9957
748.359	9216
748.471	10210
748.583	10293
748.694	8877
748.806	10705
748.918	9793
749.029	8852
749.141	9310
749.252	9764
749.364	8335
749.475	10531
749.587	10730
749.698	10092
749.809	10365
749.921	9890
750.032	8953
750.144	9901
750.255	9780
750.366	8528
750.478	9491
750.589	9452
750.700	8485
750.811	10417
750.923	9714
751.034	10501
751.145	13561
751.256	8832
751.367	8988
751.479	9050
751.590	8459
751.701	8236
751.812	7855
751.923	8214
752.034	7810
752.145	9058
752.256	8606
752.367	8615
752.478	8673
752.589	8221
752.700	8414
752.811	8892
752.922	9386
753.032	9489
753.143	8905
753.254	8761
753.365	10228
753.476	9971
753.586	9214
753.697	8719
753.808	8085
753.919	9474
754.029	9457
754.140	8747
754.251	8201
754.361	7876
754.472	9248
754.582	8112
754.693	8148
754.804	8072
754.914	7823
755.025	7410
755.135	7239
755.246	8956
755.356	8403
755.466	8142
755.577	8321
755.687	8780
755.798	7921
755.908	8225
756.018	8197
756.129	7558
756.239	8528
756.349	9025
756.460	8968
756.570	8823
756.680	9283
756.790	8010
756.900	8589
757.011	8360
757.121	9038
757.231	9057
757.341	8909
757.451	8073
757.561	8469
757.671	8324
757.781	8883
757.891	8360
758.001	8089
758.111	9172
758.221	8815
758.331	9493
758.441	8895
758.551	9528
758.661	9771
758.771	9675
758.880	9356
758.990	9296
759.100	8320
759.210	9709
759.320	9992
759.429	8908
759.539	10118
759.649	10355
759.758	10673
759.868	10534
759.978	11138
760.087	11580
760.197	11872
760.307	12462
760.416	11461
760.526	10644
760.635	10999
760.745	11251
760.854	11661
760.964	13386
761.073	13438
761.182	13263
761.292	11998
761.401	11488
761.511	12135
761.620	10220
761.729	11562
761.839	10361
761.948	11185
762.057	11184
762.166	10967
762.276	10411
762.385	11251
762.494	11234
762.603	10784
762.712	12291
762.822	11625
762.931	11437
763.040	12137
763.149	12157
763.258	13059
763.367	13510
763.476	13297
763.585	13233
763.694	14520
763.803	14761
763.912	15266
764.021	16209
764.130	16792
764.238	17383
764.347	18711
764.456	19729
764.565	20878
764.674	21193
764.783	22901
764.891	24040
765.000	28401
765.109	31081
765.217	33837
765.326	40092
765.435	46844
765.543	55915
765.652	68772
765.761	87298
765.869	118020
765.978	167409
766.086	252722
766.195	398033
766.303	629993
766.412	750058
766.520	598589
766.629	712710
766.737	482218
766.846	296864
766.954	195775
767.062	140043
767.171	107036
767.279	83651
767.387	65846
767.496	54841
767.604	45975
767.712	41988
767.820	36871
767.928	34493
768.037	32212
768.145	30145
768.253	28943
768.361	28676
768.469	27088
768.577	27718
768.685	28092
768.793	29659
768.901	32074
769.009	36280
769.117	42252
769.225	52966
769.333	69303
769.441	104700
769.549	166592
769.657	301397
769.765	551951
769.873	638048
769.981	606488
770.088	406427
770.196	214990
770.304	132827
770.412	92266
770.519	68193
770.627	54554
770.735	43911
770.842	37595
770.950	32520
771.058	28806
771.165	26842
771.273	24732
771.380	22783
771.488	22289
771.595	21669
771.703	18673
771.810	18231
771.918	17978
772.025	17459
772.133	17675
772.240	15949
772.348	17109
772.455	16485
772.562	15258
772.670	14574
772.777	14163
772.884	13840
772.991	13681
773.099	13148
773.206	13254
773.313	13065
773.420	12301
773.528	11806
773.635	12764
773.742	12880
773.849	11751
773.956	11016
774.063	11418
774.170	10515
774.277	11685
774.384	10651
774.491	10324
774.598	9718
774.705	10912
774.812	10707
774.919	10407
775.026	10816
775.133	9986
775.239	10133
775.346	8595
775.453	8644
775.560	8906
775.667	9601
775.773	9407
775.880	10121
775.987	9275
776.093	9186
776.200	9181
776.307	8111
776.413	9050
776.520	8983
776.627	9273
776.733	8314
776.840	7411
776.946	9368
777.053	8437
777.159	7986
777.266	8057
777.372	8407
777.478	8411
777.585	8269
777.691	7571
777.798	7867
777.904	8521
778.010	8639
778.117	8831
778.223	7242
778.329	7768
778.435	8014
778.542	8026
778.648	7241
778.754	6560
778.860	7337
778.966	7622
779.072	6361
779.178	6812
779.284	6956
779.391	7287
779.497	7714
779.603	9317
779.708	10435
779.815	17809
779.920	47151
780.026	150992
780.132	47841
780.238	10806
780.344	8065
780.450	7878
780.556	7092
780.661	6117
780.767	6504
780.873	6170
780.979	6366
781.085	7556
781.190	7456
781.296	6243
781.402	6704
781.507	6651
781.613	6295
781.719	5338
781.824	6957
781.930	6329
782.035	5793
782.141	6351
782.246	5275
782.352	5047
782.457	5827
782.563	6149
782.668	6188
782.773	5765
782.879	5303
782.984	6500
783.090	5767
783.195	5556
783.300	6062
783.405	5770
783.511	5481
783.616	5555
783.721	5589
783.826	5191
783.932	5731
784.037	5184
784.142	5419
784.247	6162
784.352	5110
784.457	5020
784.562	5433
784.667	5110
784.772	5527
784.877	4374
784.982	5320
785.087	5528
785.192	5027
785.297	5406
785.402	5465
785.507	5597
785.611	5243
785.716	4515
785.821	5034
785.926	4619
786.031	5212
786.135	4714
786.240	4921
786.345	4177
786.450	5353
786.554	4061
786.659	4203
786.763	4301
786.868	5390
786.973	5114
787.077	3444
787.182	4031
787.286	5069
787.391	4777
787.495	4116
787.600	3834
787.704	4584
787.809	4858
787.913	5002
788.017	5434
788.122	5218
788.226	5210
788.330	4024
788.435	4224
788.539	4787
788.643	4233
788.747	4162
788.852	4220
788.956	5023
789.060	5252
789.164	4238
789.268	3479
789.372	5244
789.476	4729
789.580	3562
789.684	3843
789.788	4110
789.892	3965
789.996	4604
790.100	4188
790.204	4285
790.308	5018
790.412	4209
790.516	4144
790.620	4469
790.724	4432
790.828	4478
790.931	4341
791.035	5615
791.139	5585
791.242	5411
791.346	5790
791.450	5181
791.554	4592
791.657	4045
791.761	5887
791.864	4958
791.968	5321
792.072	5472
792.175	4821
792.279	3620
792.382	4530
792.486	5047
792.589	4704
792.693	5150
792.796	3997
792.899	4518
793.003	4265
793.106	3545
793.209	4190
793.313	4440
793.416	3747
793.519	3827
793.623	4807
793.726	5703
793.829	4911
793.932	4264
794.035	3506
794.138	4907
794.242	5772
794.345	5234
794.448	7943
794.551	11246
794.654	28832
794.757	87049
794.860	34082
794.963	6337
795.066	5408
795.169	5223
795.272	4619
795.375	5105
795.477	5370
795.580	3872
795.683	2862
795.786	4806
795.889	4485
795.991	4737
796.094	4504
796.197	3230
796.300	4615
796.402	4081
796.505	3488
796.608	3723
796.710	3570
796.813	4535
796.915	3704
797.018	4533
797.120	3714
797.223	3504
797.326	4347
797.428	3070
797.530	4138
797.633	3388
797.735	4547
797.838	4112
797.940	5157
798.042	4645
798.145	3495
798.247	4052
798.349	3576
798.452	3796
798.554	4594
798.656	4114
798.758	4712
798.860	4487
798.962	3619
799.065	3570
799.167	2561
799.269	3854
799.371	4841
799.473	5199
799.575	4572
799.677	4937
799.779	5282
799.881	3400
799.983	4061
800.085	4211
800.187	4273
800.289	2655
800.390	3877
800.492	3218
800.594	4421
800.696	3034
800.798	3018
800.899	2893
801.001	3474
801.103	3018
801.205	3455
801.306	4071
801.408	3104
801.509	3620
801.611	3895
801.713	4051
801.814	3590
801.916	3131
802.017	2811
802.119	2313
802.220	3616
802.322	3072
802.423	3407
802.525	3033
802.626	4284
802.727	3144
802.829	3836
802.930	1142
803.031	4148
803.133	3475
803.234	2306
803.335	3443
803.436	2054
803.538	3834
803.639	2570
803.740	2690
803.841	3516
803.942	2938
804.043	2712
804.144	2285
804.245	2840
804.346	2654
804.447	2787
804.548	3220
804.649	4360
804.750	2472
804.851	2806
804.952	2504
805.053	3167
805.154	2211
805.255	3044
805.355	3352
805.456	3254
805.557	2532
805.658	1973
805.758	3267
805.859	2981
805.960	2429
806.061	2510
806.161	2387
806.262	2194
806.362	2366
806.463	2040
806.564	2685
806.664	2144
806.765	2541
806.865	3704
806.966	2458
807.066	2300
807.166	2199
807.267	2781
807.367	2098
807.468	3116
807.568	2084
807.668	2583
807.769	2343
807.869	2915
807.969	2522
808.069	2335
808.170	2029
808.270	1719
808.370	2359
808.470	3473
808.570	2971
808.670	2859
808.770	3064
808.870	1840
808.970	2538
809.070	2037
809.170	1371
809.271	1925
809.370	3054
809.470	2753
809.570	2025
809.670	1575
809.770	2276
809.870	3045
809.970	2436
810.070	2369
810.169	2386
810.269	1846
810.369	3287
810.469	2087
810.568	2975
810.668	1664
810.768	2185
810.867	1650
810.967	2296
811.066	2165
811.166	1822
811.265	2191
811.365	1894
811.464	2459
811.564	2296
811.663	2708
811.763	1747
811.862	2939
811.962	2204
812.061	2620
812.160	1716
812.260	2093
812.359	2684
812.458	2712
812.557	3727
812.657	5333
812.756	3742
812.855	3143
812.954	2433
813.053	3047
813.153	2405
813.252	1930
813.351	2825
813.450	2063
813.549	2246
813.648	2815
813.747	2548
813.846	2658
813.945	2167
814.044	2273
814.143	3181
814.242	2373
814.341	2102
814.439	2349
814.538	3001
814.637	2092
814.736	2449
814.835	3049
814.933	2549
815.032	3088
815.131	3605
815.229	4097
815.328	6327
815.427	6491
815.525	5497
815.624	4490
815.722	5427
815.821	4456
815.919	5424
816.018	5196
816.116	6107
816.215	6065
816.313	5350
816.412	6120
816.510	6534
816.609	7986
816.707	7109
816.805	7180
816.904	6211
817.002	7662
817.100	8310
817.198	8807
817.296	8915
817.395	9632
817.493	10536
817.591	9646
817.689	13435
817.787	15909
817.885	22257
817.983	34643
818.081	63927
818.179	133213
818.277	293430
818.375	386223
818.473	180811
818.571	70177
818.669	40802
818.767	33024
818.865	30844
818.963	34104
819.061	43386
819.158	64627
819.256	116493
819.354	227740
819.452	433188
819.549	443978
819.647	222886
819.745	97089
819.842	54642
819.940	36985
820.038	26546
820.135	20570
820.233	17671
820.330	14758
820.428	11648
820.525	11096
820.623	10201
820.720	8497
820.818	8480
820.915	7967
821.012	7718
821.110	6078
821.207	7231
821.304	6017
821.402	6256
821.499	6330
821.596	5238
821.693	4867
821.791	5631
821.888	5693
821.985	5837
822.082	5981
822.179	5672
822.276	5090
822.373	5353
822.470	4480
822.567	4573
822.664	3755
822.761	4556
822.858	3635
822.955	3903
823.052	4388
823.149	3310
823.246	4394
823.343	4519
823.440	4195
823.536	3525
823.633	4497
823.730	3286
823.827	4135
823.923	4238
824.020	3851
824.117	3341
824.213	3584
824.310	4262
824.407	2765
824.503	3863
824.600	3852
824.696	2402
824.793	3920
824.889	3575
824.986	3780
825.082	2619
825.179	3452
825.275	2608
825.371	4429
825.468	3276
825.564	2035
825.660	3032
825.757	4436
825.853	4278
825.949	2616
826.045	3074
826.142	3167
826.238	3645
826.334	2726
826.430	3088
826.526	2772
826.622	1784
826.718	2376
826.814	3172
826.910	3435
827.006	2646
827.102	1344
827.198	3224
827.294	3171
827.390	3579
827.486	2988
827.582	1883
827.678	1701
827.774	3874
827.869	2248
827.965	2640
828.061	2004
828.157	1773
828.252	2969
828.348	2760
828.444	2962
828.539	2102
828.635	2621
828.731	3553
828.826	2332
828.922	2899
829.017	2987
829.113	3865
829.208	1704
829.304	2258
829.399	3919
829.495	3208
829.590	2828
829.685	2615
829.781	3240
829.876	3193
829.971	1689
830.066	1248
830.162	2100
830.257	2814
830.352	1711
830.447	2831
830.543	2087
830.638	2558
830.733	3907
830.828	2424
830.923	3178
831.018	2897
831.113	2596
831.208	3052
831.303	2759
831.398	1864
831.493	1766
831.588	3241
831.683	2262
831.778	1841
831.873	2102
831.967	3288
832.062	2662
832.157	2083
832.252	3035
832.346	2272
832.441	3923
832.536	3616
832.631	4189
832.725	4360
832.820	2424
832.914	1518
833.009	850
833.104	1613
833.198	2306
833.293	1751
833.387	2706
833.482	1845
833.576	1868
833.670	2731
833.765	1500
833.859	2582
833.954	3381
834.048	2459
834.142	1959
834.237	2138
834.331	1881
834.425	2259
834.519	2246
834.613	3148
834.708	1933
834.802	2260
834.896	1948
834.990	1976
835.084	1862
835.178	2046
835.272	1912
835.366	1704
835.460	2101
835.554	1358
835.648	2253
835.742	1320
835.836	1155
835.930	1373
836.024	2082
836.117	2208
836.211	1775
836.305	2418
836.399	2546
836.493	1087
836.586	1958
836.680	2172
836.774	1772
836.867	1905
836.961	1114
837.055	1098
837.148	872
837.242	1571
837.335	1212
837.429	1395
837.522	803
837.616	2173
837.709	2859
837.803	1634
837.896	2501
837.989	1929
838.083	2240
838.176	1984
838.269	2074
838.363	1969
838.456	1752
838.549	2437
838.642	2334
838.735	4439
838.829	2695
838.922	1304
839.015	1480
839.108	803
839.201	2081
839.294	1804
839.387	2424
839.480	1986
839.573	1766
839.666	1530
839.759	1534
839.852	1688
839.945	1466
840.038	2323
840.131	1154
840.223	640
840.316	2109
840.409	2374
840.502	2050
840.594	1868
840.687	1107
840.780	1448
840.873	1002
840.965	1521
841.058	2137
841.150	2591
841.243	1627
841.336	1471
841.428	2135
841.521	1366
841.613	1006
841.706	1675
841.798	1090
841.890	1579
841.983	1326
842.075	1790
842.167	1126
842.260	1085
842.352	1896
842.444	2035
842.537	2192
842.629	3274
842.721	2127
842.813	2049
842.905	1234
842.997	1817
843.090	1697
843.182	1118
843.274	1850
843.366	3987
843.458	8804
843.550	7902
843.642	2491
843.734	1261
843.826	1534
843.918	1528
844.009	991
844.101	1031
844.193	1161
844.285	430
844.377	1004
844.469	1452
844.560	875
844.652	1101
844.744	1636
844.835	1168
844.927	2206
845.019	771
845.110	1460
845.202	1425
845.293	635
845.385	1141
845.476	1254
845.568	1619
845.659	1060
845.751	1832
845.842	1230
845.934	1332
846.025	614
846.116	1236
846.208	1273
846.299	826
846.390	1309
846.482	1564
846.573	1853
846.664	2256
846.755	1388
846.846	1778
846.937	677
847.029	272
847.120	1276
847.211	522
847.302	1880
847.393	1252
847.484	1719
847.575	925
847.666	817
847.757	609
847.847	1015
847.938	1103
848.029	1236
848.120	1205
848.211	1327
848.302	1161
848.392	1065
848.483	1042
848.574	685
848.664	1222
848.755	1048
848.846	950
848.936	907
849.027	1555
849.118	2140
849.208	1020
849.299	2478
849.389	3467
849.480	6127
849.570	13068
849.661	22241
849.751	44321
849.841	28172
849.932	5315
850.022	2377
850.112	2183
850.203	1864
850.293	1282
850.383	1124
850.474	626
850.564	2188
850.654	1340
850.744	1062
850.834	1328
850.924	1343
851.014	732
851.104	1104
851.194	962
851.284	1707
851.374	1600
851.464	785
851.554	1631
851.644	1462
851.734	1037
851.824	2020
851.914	2545
852.004	4950
852.094	6396
852.183	2109
852.273	1730
852.363	1599
852.452	1795
852.542	860
852.632	819
852.721	1160
852.811	627
852.901	977
852.990	1399
853.080	2052
853.169	1748
853.259	2327
853.348	2397
853.438	2341
853.527	3757
853.617	5246
853.706	8921
853.795	14391
853.885	31284
853.974	60183
854.063	101881
854.152	180350
854.242	119497
854.331	28479
854.420	9893
854.509	6064
854.598	5175
854.687	4163
854.777	2976
854.866	1758
854.955	1828
855.044	1841
855.133	1976
855.222	1696
855.311	1176
855.400	1681
855.488	1349
855.577	389
855.666	1879
855.755	1790
855.844	2061
855.933	1928
856.021	1273
856.110	1530
856.199	881
856.288	522
856.376	1466
856.465	1071
856.554	563
856.642	80
856.731	1481
856.819	1327
856.908	650
856.996	733
857.085	447
857.173	724
857.262	1676
857.350	881
857.438	948
857.527	639
857.615	1117
857.703	1103
857.792	635
857.880	237
857.968	420
858.056	1053
858.145	716
858.233	1551
858.321	255
858.409	1064
858.497	518
858.585	-30
858.673	1863
858.761	766
858.849	933
858.937	252
859.025	659
859.113	1332
859.201	1010
859.289	1012
859.377	1593
859.465	787
859.552	967
859.640	415
859.728	781
859.816	562
859.903	1142
859.991	998
860.079	336
860.166	749
860.254	309
860.342	564
860.429	-184
860.517	1033
860.604	320
860.692	1122
860.779	1602
860.867	1029
860.954	704
861.042	655
861.129	1019
861.216	903
861.304	872
861.391	1009
861.478	776
861.565	1568
861.653	595
861.740	703
861.827	714
861.914	1009
862.001	263
862.089	573
862.176	1118
862.263	394
862.350	790
862.437	1144
862.524	251
862.611	1432
862.698	716
862.785	1337
862.871	467
862.958	769
863.045	773
863.132	729
863.219	1206
863.306	500
863.392	1034
863.479	156
863.566	1009
863.652	1109
863.739	493
863.826	1318
863.912	905
863.999	373
864.086	942
864.172	755
864.259	960
864.345	1142
864.432	2084
864.518	1080
864.604	1761
864.691	1128
864.777	1852
864.863	1591
864.950	2377
865.036	2154
865.122	5206
865.209	5313
865.295	4970
865.381	4468
865.467	4498
865.553	5821
865.639	7204
865.726	10087
865.812	17369
865.898	33638
865.984	52787
866.070	83476
866.156	123146
866.242	55178
866.328	15246
866.414	7206
866.499	5558
866.585	5256
866.671	4191
866.757	3856
866.843	3732
866.928	3014
867.014	3640
867.100	4190
867.186	3493
867.271	3956
867.357	4130
867.442	3487
867.528	3397
867.614	3217
867.699	2963
867.785	3446
867.870	3277
867.956	2313
868.041	3603
868.127	3031
868.212	3391
868.297	3564
868.383	3733
868.468	3308
868.553	4416
868.639	3914
868.724	4171
868.809	6513
868.894	4125
868.979	3106
869.065	2820
869.150	1998
869.235	2775
869.320	3004
869.405	1930
869.490	1851
869.575	2289
869.660	1885
869.745	2667
869.830	2908
869.915	1236
870.000	1954
870.085	2373
870.169	2799
870.254	2905
870.339	2017
870.424	1761
870.509	2909
870.593	3262
870.678	2443
870.763	2178
870.847	2239
870.932	1768
871.016	2749
871.101	2798
871.186	2706
871.270	2891
871.355	2190
871.439	2316
871.523	1901
871.608	2015
871.692	1979
871.777	2704
871.861	2663
871.945	1770
872.030	2475
872.114	1652
872.198	1982
872.282	1485
872.367	1104
872.451	1022
872.535	1654
872.619	1978
872.703	2065
872.787	2034
872.871	2195
872.955	1902
873.039	1090
873.123	875
873.207	2862
873.291	853
873.375	744
873.459	2588
873.543	1927
873.627	1872
873.711	1714
873.794	1082
873.878	1469
873.962	1648
874.045	1454
874.129	1893
874.137	1869
874.213	1633
874.245	1874
874.296	2255
874.352	1050
874.380	469
874.460	685
874.464	693
874.547	1713
874.568	1749
874.631	1845
874.676	2071
874.714	2270
874.784	2044
874.798	2001
874.881	2473
874.892	2261
874.965	745
874.999	1556
875.048	2706
875.107	2073
875.131	1810
875.215	1551
875.215	1550
875.298	848
875.323	1044
875.381	1514
875.430	1335
875.465	1217
875.538	1554
875.548	1593
875.631	1907
875.646	1763
875.714	1055
875.753	1141
875.798	1231
875.861	1391
875.881	1457
875.964	2004
875.968	1949
876.047	925
876.076	1016
876.130	1282
876.183	1224
876.213	1118
876.291	1770
876.296	1819
876.379	1546
876.398	1486
876.462	1313
876.506	1302
876.545	1224
876.613	877
876.628	838
876.711	729
876.721	886
876.794	2177
876.828	1945
876.877	1331
876.935	1037
876.960	1022
877.043	967
877.043	971
877.125	1786
877.150	1729
877.208	1596
877.258	1664
877.291	1699
877.365	1001
877.374	926
877.456	1683
877.472	1509
877.539	688
877.579	1080
877.622	1717
877.687	1962
877.704	1889
877.787	1592
877.794	1542
877.869	1344
877.901	1103
877.952	613
878.008	1332
878.034	1684
878.115	617
878.117	598
878.199	1278
878.222	1305
878.282	1328
878.329	1351
878.364	1394
878.437	1672
878.447	1693
878.529	1447
878.544	1357
878.611	978
878.651	1101
878.694	1232
878.758	1150
878.776	1147
878.858	1110
878.865	1118
878.941	1155
878.972	1043
879.023	852
879.078	810
879.105	950
879.185	1612
879.187	1612
879.269	1521
879.292	1491
879.351	1598
879.399	1230
879.433	1031
879.506	1359
879.516	1398
879.598	1432
879.613	1361
879.680	937
879.720	1088
879.762	1402
879.827	1186
879.844	1042
879.926	1423
879.933	1365
880.007	1255
880.040	1422
880.089	1395
880.147	755
880.171	611
880.253	1617
880.254	1617
880.335	1427
880.360	1382
880.417	1902
880.467	2475
880.499	2638
880.574	3317
880.580	3344
880.662	1980
880.680	1694
880.744	676
880.787	666
880.825	906
880.893	1316
880.907	1314
880.989	800
881.000	766
881.070	1354
881.106	1609
881.152	1505
881.213	988
881.233	873
881.315	919
881.319	937
881.396	1234
881.426	1261
881.478	1360
881.532	1214
881.559	1067
881.639	1348
881.641	1355
881.722	1053
881.745	947
881.803	1035
881.852	1398
881.885	1643
881.958	1980
881.966	1918
882.047	813
882.064	704
882.129	1317
882.171	1558
882.210	1551
882.277	1749
882.291	1777
882.372	1777
882.383	1751
882.454	1194
882.489	1057
882.535	1168
882.596	1255
882.616	1346
882.697	1521
882.702	1518
882.778	1050
882.808	1071
882.859	1132
882.914	885
882.940	809
883.020	852
883.021	856
883.102	1281
883.127	1365
883.183	1337
883.233	1371
883.264	1292
883.339	1350
883.345	1354
883.426	501
883.445	457
883.507	866
883.551	1143
883.587	1121
883.657	1016
883.668	1049
883.749	1527
883.763	1557
883.830	1371
883.869	1123
883.910	722
883.975	428
883.991	526
884.072	1138
884.081	1165
884.152	1191
884.187	1359
884.233	1650
884.292	1799
884.314	1725
884.394	1381
884.398	1342
884.475	632
884.504	673
884.555	718
884.610	430
884.636	407
884.716	524
884.716	529
884.797	1159
884.821	1364
884.877	1297
884.927	1007
884.958	904
885.033	929
885.038	924
885.118	579
885.139	576
885.199	923
885.244	1120
885.279	1180
885.350	1195
885.359	1209
885.439	1688
885.456	1647
885.520	1435
885.561	1530
885.600	1353
885.667	771
885.680	794
885.760	1255
885.773	1300
885.840	850
885.878	563
885.920	659
885.984	1013
886.000	1147
886.080	1580
886.089	1608
886.160	1017
886.195	916
886.240	1234
886.300	1269
886.320	1251
886.400	1675
886.406	1677
886.480	1002
886.511	734
886.560	878
886.616	1103
886.640	1160
886.720	1351
886.722	1354
886.800	1304
886.827	1275
886.879	935
886.932	464
886.959	783
887.038	1884
887.039	1882
887.119	1335
887.143	1121
887.198	1197
887.248	1280
887.278	1254
887.354	1107
887.358	1121
887.437	1292
887.459	1391
887.517	1337
887.564	1217
887.596	1259
887.669	1324
887.676	1324
887.755	1414
887.774	1391
887.835	1391
887.880	1434
887.914	1262
887.985	932
887.994	968
888.073	1190
888.090	1242
888.153	1551
888.195	1767
888.232	1483
888.300	931
888.311	991
888.391	1371
888.405	1444
888.470	1699
888.510	1832
888.549	1718
888.615	1577
888.628	1631
888.708	1935
888.720	1964
888.787	1208
888.825	803
888.866	919
888.930	1104
888.945	1076
889.024	930
889.035	907
889.103	1511
889.140	1841
889.182	1495
889.245	980
889.261	1084
889.340	1585
889.349	1641
889.419	1296
889.454	1125
889.498	1114
889.559	1086
889.577	1187
889.656	1661
889.664	1709
889.735	1827
889.768	1884
889.814	1807
889.873	1696
889.978	1007
890.083	1327
890.187	2049
890.292	1323
890.397	1576
890.501	1084
890.606	1124
890.710	1659
890.815	2176
890.919	1646
891.024	1157
891.128	1399
891.233	1676
891.337	892
891.442	1429
891.546	1280
891.650	758
891.755	1476
891.859	1421
891.963	2007
892.068	2074
892.172	1300
892.276	1554
892.380	1304
892.484	1665
892.589	1290
892.693	1941
892.797	1241
892.901	1013
893.005	-279
893.109	1838
893.213	1840
893.317	1768
893.421	653
893.525	1190
893.629	339
893.733	826
893.837	1826
893.941	1504
894.045	2019
894.148	1139
894.252	3215
894.356	2772
894.460	2377
894.564	1303
894.667	784
894.771	1435
894.875	1302
894.978	1777
895.082	192
895.186	1967
895.289	1772
895.393	1463
895.496	1787
895.600	829
895.703	715
895.807	1364
895.910	1657
896.014	1017
896.117	1246
896.221	1525
896.324	841
896.427	1583
896.531	539
896.634	687
896.737	1574
896.840	2106
896.944	1346
897.047	1460
897.150	1819
897.253	929
897.356	849
897.460	847
897.563	651
897.666	1255
897.769	1076
897.872	1383
897.975	1046
898.078	973
898.181	428
898.284	58
898.387	1654
898.490	1606
898.593	1122
898.695	-41
898.798	912
898.901	1466
899.004	823
899.107	1423
899.209	875
899.312	1948
899.415	393
899.518	1093
899.620	549
899.723	954
899.826	1074
899.928	1308
900.031	1161
900.133	846
900.236	1633
900.338	973
900.441	259
900.543	342
900.646	855
900.748	1566
900.851	632
900.953	1447
901.055	376
901.158	1038
901.260	1462
901.362	1451
901.465	509
901.567	1271
901.669	1174
901.771	484
901.873	1093
901.976	1501
902.078	1405
902.180	703
902.282	1071
902.384	900
902.486	1703
902.588	1476
902.690	595
902.792	255
902.894	1026
902.996	1265
903.098	1112
903.200	1084
903.302	1468
903.404	1472
903.505	913
903.607	511
903.709	1349
903.811	1985
903.913	1857
904.014	887
904.116	1114
904.218	1095
904.319	887
904.421	1386
904.523	772
904.624	577
904.726	816
904.827	481
904.929	41
905.030	560
905.132	1350
905.233	1102
905.335	183
905.436	146
905.537	1117
905.639	1172
905.740	1019
905.841	677
905.943	1507
906.044	1324
906.145	348
906.247	654
906.348	1197
906.449	1536
906.550	716
906.651	1276
906.752	605
906.854	1212
906.955	836
907.056	1239
907.157	1226
907.258	1462
907.359	319
907.460	1291
907.561	667
907.662	1322
907.762	1049
907.863	1375
907.964	1383
908.065	592
908.166	793
908.267	1571
908.367	-35
908.468	665
908.569	763
908.670	1310
908.770	1886
908.871	1327
908.971	787
909.072	1532
909.173	568
909.273	1060
909.374	34
909.474	1670
909.575	1160
909.675	601
909.776	1633
909.876	1083
909.977	1196
910.077	1876
910.177	899
910.278	1875
910.378	1412
910.478	1402
910.579	1725
910.679	1292
910.779	824
910.879	1807
910.980	991
911.080	1306
911.180	983
911.280	1102
911.380	1531
911.480	983
911.580	672
911.680	1626
911.780	1092
911.880	1053
911.980	213
912.080	1043
912.180	799
912.280	1037
912.380	868
912.480	741
912.580	1060
912.679	571
912.779	1552
912.879	538
912.979	754
913.078	358
913.178	-179
913.278	360
913.377	526
913.477	901
913.577	321
913.676	1292
913.776	1192
913.875	1027
913.975	879
914.074	763
914.174	1229
914.273	577
914.373	776
914.472	1326
914.572	739
914.671	1314
914.770	763
914.870	1463
914.969	541
915.068	1298
915.167	1001
915.267	634
915.366	1037
915.465	1376
915.564	952
915.663	1642
915.763	669
915.862	1432
915.961	941
916.060	1106
916.159	813
916.258	-191
916.357	656
916.456	1662
916.555	877
916.654	899
916.752	902
916.851	1080
916.950	323
917.049	416
917.148	501
917.247	1837
917.345	266
917.444	983
917.543	883
917.642	825
917.740	974
917.839	1657
917.937	1261
918.036	1828
918.135	739
918.233	789
918.332	281
918.430	1078
918.529	740
918.627	1143
918.726	696
918.824	1777
918.923	964
919.021	1191
919.119	412
919.218	1058
919.316	737
919.414	1224
919.512	478
919.611	670
919.709	1668
919.807	1113
919.905	1553
920.003	1028
920.102	1474
920.200	1542
920.298	832
920.396	1636
920.494	1179
920.592	407
920.690	1501
920.788	1486
920.886	876
920.984	2387
921.082	861
921.180	1679
921.277	1425
921.375	1580
921.473	1880
921.571	2602
921.669	2194
921.766	2193
921.864	1440
921.962	1899
922.060	1405
922.157	1468
922.255	2675
922.352	2009
922.450	2198
922.548	2280
922.645	2225
922.743	2373
922.840	3955
922.938	4957
923.035	4985
923.133	5368
923.230	5281
923.327	5789
923.425	5714
923.522	5473
923.619	4029
923.717	4879
923.814	4436
923.911	4077
924.008	4574
924.106	4213
924.203	4280
924.300	4536
924.397	3928
924.494	4538
924.591	3878
924.688	4249
924.786	3790
924.883	4637
924.979	4091
925.077	4304
925.173	3612
925.270	3909
925.367	3362
925.464	4294
925.561	4696
925.658	4832
925.755	3784
925.852	4365
925.948	3631
926.045	3368
926.142	3793
926.239	4231
926.335	3181
926.432	4276
926.529	3701
926.625	4090
926.722	4150
926.818	3457
926.915	4574
927.011	4775
927.108	3390
927.204	4058
927.301	3287
927.397	3438
927.494	4464
927.590	3234
927.687	2573
927.783	4610
927.879	3860
927.976	3215
928.072	2647
928.168	3902
928.264	3326
928.361	2914
928.457	3645
928.553	3437
928.649	2032
928.745	3947
928.841	3632
928.937	3264
929.033	3268
929.129	3383
929.225	3337
929.321	4010
929.417	3018
929.513	3752
929.609	3670
929.705	3501
929.801	3605
929.897	3676
929.993	3700
930.089	3344
930.184	3381
930.280	3670
930.376	4023
930.471	4019
930.567	2357
930.663	3505
930.758	2216
930.854	3194
930.950	2797
931.045	3548
931.141	2839
931.236	3229
931.332	3917
931.427	2486
931.523	3223
931.618	3755
931.714	1064
931.809	2535
931.905	3369
932.000	3286
932.095	1567
932.191	3635
932.286	3263
932.381	3684
932.476	2305
932.572	3022
932.667	3011
932.762	3166
932.857	2541
932.952	3647
933.047	2690
933.142	2438
933.237	2921
933.332	2730
933.427	2901
933.522	3471
933.617	2268
933.712	3324
933.807	3320
933.902	3202
933.997	3176
934.092	3506
934.187	1306
934.282	3444
934.376	2085
934.471	3189
934.566	2026
934.661	2595
934.755	2953
934.850	2435
934.945	2613
935.039	2346
935.134	2146
935.228	2499
935.323	2660
935.417	2980
935.512	1961
935.606	1994
935.701	2330
935.795	3121
935.890	3339
935.984	2870
936.079	1518
936.173	1990
936.267	2258
936.362	3296
936.456	2811
936.550	2917
936.644	2858
936.738	1966
936.833	2552
936.927	1841
937.021	1712
937.115	3125
937.209	1935
937.303	2796
937.397	1684
937.491	2362
937.585	1774
937.679	2912
937.773	2116
937.867	2372
937.961	1939
938.055	4040
938.149	2539
938.243	1161
938.337	2088
938.430	1686
938.524	2443
938.618	3035
938.712	2408
938.805	2989
938.899	1629
938.993	3121
939.086	2962
939.180	1687
939.274	1028
939.367	3092
939.461	2883
939.554	1635
939.648	2344
939.741	2396
939.835	2238
939.928	3078
940.022	2073
940.115	2094
940.208	2397
940.302	2844
940.395	2828
940.488	2165
940.582	2134
940.675	1955
940.768	2720
940.861	2230
940.954	2462
941.048	1567
941.141	1655
941.234	1598
941.327	2011
941.420	2924
941.513	1938
941.606	1375
941.699	1932
941.792	1895
941.885	1901
941.978	1954
942.071	2233
942.164	2530
942.257	1199
942.349	1509
942.442	2114
942.535	1858
942.628	2440
942.721	2315
942.813	1637
942.906	1898
942.999	1683
943.091	2101
943.184	1357
943.277	1818
943.369	1950
943.462	1067
943.554	1524
943.647	2068
943.739	1584
943.832	2261
943.924	1458
944.017	1696
944.109	1104
944.201	2167
944.294	1195
944.386	940
944.478	1026
944.571	1783
944.663	1813
944.755	2105
944.847	2127
944.940	1762
945.032	610
945.124	1230
945.216	2099
945.308	1439
945.400	1569
945.492	1242
945.584	1240
945.676	2372
945.768	1999
945.860	2205
945.952	1554
946.044	3002
946.136	1651
946.228	1921
946.320	1643
946.412	2464
946.503	1285
946.595	2758
946.687	1275
946.779	1953
946.870	282
946.962	1525
947.054	1193
947.145	2401
947.237	1765
947.329	931
947.420	823
947.512	2039
947.603	841
947.695	1301
947.786	995
947.878	831
947.969	1202
948.061	1147
948.152	1576
948.243	1573
948.335	257
948.426	1563
948.517	1294
948.609	1823
948.700	1885
948.791	1626
948.882	1464
948.973	672
949.065	1312
949.156	1893
949.247	412
949.338	1866
949.429	1380
949.520	1292
949.611	1036
949.702	2236
949.793	1040
949.884	1600
949.975	957
950.066	1206
950.157	1253
950.247	1661
950.338	1402
950.429	1515
950.520	1653
950.611	630
950.701	1294
950.792	1798
950.883	1697
950.973	1079
951.064	1934
951.155	1773
951.245	1196
951.336	1312
951.427	983
951.517	2820
951.608	1920
951.698	1626
951.788	914
951.879	748
951.969	1151
952.060	1026
952.150	1063
952.240	2460
952.331	718
952.421	1624
952.511	1380
952.602	500
952.692	971
952.782	531
952.872	273
952.962	1397
953.052	1292
953.143	1562
953.233	1475
953.323	1552
953.413	962
953.503	1212
953.593	2002
953.683	1253
953.773	396
953.863	950
953.953	697
954.042	1778
954.132	847
954.222	2017
954.312	692
954.402	1587
954.492	1324
954.581	1430
954.671	1331
954.761	1271
954.850	877
954.940	962
955.030	573
955.119	1395
955.209	684
955.298	844
955.388	426
955.477	1563
955.567	1208
955.656	691
955.746	800
955.835	1226
955.925	880
956.014	1344
956.103	1407
956.193	1918
956.282	1718
956.371	1000
956.461	741
956.550	804
956.639	1530
956.728	1239
956.817	1665
956.906	1297
956.995	850
957.085	1466
957.174	752
957.263	719
957.352	759
957.441	797
957.530	1098
957.619	955
957.708	951
957.796	1372
957.885	2303
957.974	1276
958.063	1207
958.152	1538
958.241	680
958.329	1007
958.418	1097
958.507	36
958.596	1360
958.684	760
958.773	1557
958.861	1991
958.950	679
959.039	1681
959.127	1129
959.216	1263
959.304	1303
959.393	1835
959.481	1097
959.570	1492
959.658	678
959.746	772
959.835	1736
959.923	1885
960.011	2375
960.100	1501
960.188	1088
960.276	1502
960.365	1227
960.453	1018
960.541	921
960.629	477
960.717	1107
960.805	839
960.893	1543
960.981	1218
961.069	1210
961.158	1316
961.245	1340
961.333	1566
961.421	658
961.509	927
961.597	1101
961.685	1431
961.773	868
961.861	1909
961.949	893
962.036	393
962.124	1817
962.212	399
962.299	738
962.387	958
962.475	797
962.562	956
962.650	631
962.738	458
962.825	444
962.913	1637
963.000	805
963.088	1299
963.175	1322
963.263	1228
963.350	942
963.438	1347
963.525	715
963.612	2243
963.700	2291
963.787	5354
963.874	5284
963.962	2249
964.049	1368
964.136	1198
964.223	291
964.310	523
964.398	874
964.485	532
964.572	983
964.659	1033
964.746	1848
964.833	1234
964.920	-3
965.007	1195
965.094	317
965.181	477
965.268	1143
965.355	1065
965.441	927
965.528	1353
965.615	754
965.702	837
965.789	-305
965.875	166
965.962	1122
966.049	920
966.136	1364
966.222	1531
966.309	1286
966.395	1303
966.482	1134
966.569	973
966.655	-76
966.742	1245
966.828	1172
966.915	-315
967.001	849
967.087	758
967.174	140
967.260	984
967.347	816
967.433	1880
967.519	4509
967.605	3312
967.692	944
967.778	-58
967.864	381
967.950	339
968.036	214
968.123	1439
968.209	1196
968.295	75
968.381	1271
968.467	185
968.553	-467
968.639	919
968.725	337
968.811	2433
968.897	1448
968.983	482
969.069	909
969.154	821
969.240	880
969.326	460
969.412	341
969.497	122
969.583	-40
969.669	605
969.755	743
969.840	1147
969.926	612
970.012	1772
970.097	2103
970.183	2905
970.268	1852
970.354	1897
970.439	456
970.525	2872
970.610	1676
970.696	1214
970.781	1169
970.866	353
970.952	564
971.037	733
971.122	-232
971.208	845
971.293	1202
971.378	-34
971.463	600
971.549	1278
971.634	585
971.719	419
971.804	223
971.889	2229
971.974	242
972.059	649
972.144	1060
972.229	334
972.314	449
972.399	476
972.484	-415
972.569	-200
972.654	-687
972.739	1549
972.824	1500
972.908	698
972.993	-63
973.078	393
973.163	207
973.247	540
973.332	-461
973.417	1476
973.501	17
973.586	877
973.671	689
973.755	452
973.840	735
973.924	720
974.009	1149
974.093	454
974.178	386
974.262	1868
974.346	1725
974.431	1377
974.515	-341
974.600	66
974.684	996
974.768	139
974.852	1888
974.937	185
975.021	521
975.105	639
975.189	6
975.273	1057
975.358	415
975.442	234
975.526	163
975.610	-47
975.694	234
975.778	1343
975.862	415
975.946	153
976.030	1340
976.114	225
976.198	-31
976.281	159
976.365	859
976.449	489
976.533	-171
976.617	486
976.700	802
976.784	937
976.868	172
976.951	431
977.035	497
977.119	836
977.202	1032
977.286	1288
977.369	-138
977.453	1114
977.536	1164
977.620	228
977.703	666
977.787	437
977.870	589
977.953	1012
978.037	296
978.120	791
978.203	-346
978.287	2060
978.370	1014
978.453	175
978.536	-373
978.620	1284
978.703	870
978.786	875
978.869	-60
978.952	434
979.035	397
979.118	903
979.201	674
979.284	716
979.367	-356
979.450	28
979.533	-746
979.616	-217
979.699	15
979.782	688
979.865	445
979.948	480
980.030	-340
980.113	574
980.196	-71
980.279	481
980.361	17
980.444	592
980.526	-505
980.609	1518
980.692	1658
980.774	1370
980.857	-148
980.939	675
981.022	188
981.104	593
981.187	349
981.269	1138
981.352	300
981.434	149
981.516	-153
981.599	1030
981.681	876
981.763	781
981.846	238
981.928	781
982.010	523
982.092	33
982.174	917
982.256	-57
982.339	10
982.421	437
982.503	1086
982.585	233
982.667	962
982.749	773
982.831	1000
982.913	-199
982.995	1112
983.077	492
983.158	1141
983.240	184
983.322	1139
983.404	612
983.486	1067
983.568	1180
983.649	-128
983.731	1261
983.813	298
983.894	1079
983.976	590
984.058	1570
984.139	859
984.221	726
984.302	1103
984.384	1533
984.465	599
984.547	1003
984.628	363
984.710	803
984.791	737
984.872	866
984.954	172
985.035	602
985.116	343
985.198	515
985.279	1173
985.360	75
985.441	214
985.522	842
985.604	392
985.685	-729
985.766	533
985.847	1150
985.928	366
986.009	196
986.090	-219
986.171	858
986.252	27
986.333	656
986.414	164
986.495	1466
986.576	586
986.656	1817
986.737	873
986.818	527
986.899	543
986.980	509
987.060	317
987.141	1694
987.222	239
987.302	891
987.383	945
987.464	1023
987.544	889
987.625	892
987.705	1837
987.786	1359
987.866	945
987.947	840
988.027	111
988.108	361
988.188	538
988.268	1219
988.349	486
988.429	1205
988.509	79
988.589	899
988.670	-1202
988.750	1094
988.830	-118
988.910	1441
988.990	554
989.070	76
989.151	791
989.231	132
989.311	1168
989.391	1135
989.471	628
989.551	1462
989.631	129
989.711	791
989.791	430
989.870	198
989.950	1088
990.030	792
990.110	651
990.190	635
990.269	474
990.349	919
990.429	1105
990.509	1099
990.588	-49
990.668	699
990.747	558
990.827	620
990.907	360
990.986	-186
991.066	1072
991.145	-52
991.225	824
991.304	392
991.383	86
991.463	549
991.542	934
991.622	709
991.701	249
991.780	532
991.859	-271
991.939	1155
992.018	544
992.097	384
992.176	372
992.256	119
992.335	-390
992.414	354
992.493	311
992.572	-213
992.651	717
992.730	160
992.809	484
992.888	56
992.967	328
993.046	502
993.125	-688
993.203	657
993.282	130
993.361	527
993.440	122
993.519	-512
993.597	826
993.676	426
993.755	256
993.834	1117
993.912	-689
993.991	729
994.069	-74
994.148	202
994.226	-380
994.305	943
994.384	-711
994.462	1271
994.540	9
994.619	495
994.697	326
994.776	-256
994.854	318
994.932	-15
995.011	1012
995.089	65
995.167	153
995.245	212
995.324	-357
995.402	586
995.480	-118
995.558	127
995.636	57
995.714	-575
995.792	291
995.870	-797
995.948	111
996.026	-477
996.104	-877
996.182	457
996.260	-302
996.338	8
996.416	183
996.494	-109
996.572	493
996.649	-167
996.727	-794
996.805	-423
996.883	-110
996.960	-140
997.038	624
997.116	-191
997.193	74
997.271	232
997.348	65
997.426	-319
997.504	-1420
997.581	-88
997.658	-768
997.736	-818
997.813	-478
997.891	202
997.968	-681
998.046	-41
998.123	-648
998.200	-271
998.277	-861
998.355	-390
998.432	-1559
998.509	-448
998.586	-27
998.663	834
998.741	-11
998.818	-275
998.895	-268
998.972	1022
999.049	-714
999.126	-555
999.203	-188
999.280	-243
999.357	-325
999.434	-672
999.511	-540
999.587	-146
999.664	-825
999.741	129
999.818	34
999.895	-224
999.971	-896
1000.048	-164
1000.125	118
1000.202	-649
1000.278	-63
1000.355	789
1000.431	-35
1000.508	-1124
1000.584	-882
1000.661	15
1000.738	-237
1000.814	-419
1000.890	-670
1000.967	-507
1001.043	-192
1001.120	-1348
1001.196	-965
1001.272	-275
1001.349	-447
1001.425	117
1001.501	-234
1001.577	-1161
1001.654	-663
1001.730	-1232
1001.806	-822
1001.882	-1387
1001.958	-1001
1002.034	-271
1002.110	-336
1002.186	-719
1002.262	-485
1002.338	-720
1002.414	-413
1002.490	65
1002.566	-193
1002.642	-520
1002.718	67
1002.794	-2
1002.870	-646
1002.945	-707
1003.021	-577
1003.097	-1328
1003.173	-115
1003.248	-1180
1003.324	-634
1003.400	-384
1003.475	-1293
1003.551	-866
1003.626	-795
1003.702	-537
1003.777	-873
1003.853	-558
1003.928	-926
1004.004	-452
1004.079	-1092
1004.155	-892
1004.230	-1097
1004.305	45
1004.381	-1220
1004.456	-185
1004.531	-2008
1004.607	-266
1004.682	-569
1004.757	-292
1004.832	-1348
1004.907	-769
1004.982	-1614
1005.057	-537
1005.133	-1347
1005.208	472
1005.283	-1231
1005.358	10
1005.433	-1689
1005.508	-375
1005.583	-1401
1005.657	-963
1005.732	-510
1005.807	-452
1005.882	-845
1005.957	-709
1006.032	-1462
1006.106	-494
1006.181	-735
1006.256	-474
1006.331	-1174
1006.405	-902
1006.480	-686
1006.554	-364
1006.629	-608
1006.704	-807
1006.778	-786
1006.853	-496
1006.927	-1500
1007.002	-1035
1007.076	-9
1007.150	-1352
1007.225	-1201
1007.299	-98
1007.373	-1717
1007.448	31
1007.522	10
1007.596	-1347
1007.671	-970
1007.745	-67
1007.819	-1676
1007.893	-814
1007.967	-854
1008.041	-1387
1008.115	-924
1008.190	-668
1008.264	-346
1008.338	-1301
1008.412	-1340
1008.486	-756
1008.560	-1681
1008.633	-1505
1008.707	-1809
1008.781	-400
1008.855	-928
1008.929	-1057
1009.003	-1787
1009.076	-1096
1009.150	-1344
1009.224	-1054
1009.298	-599
1009.371	-1233
1009.445	-1101
1009.519	-978
1009.592	-1861
1009.666	-439
1009.739	-684
1009.813	-1376
1009.886	-167
1009.960	-1087
1010.033	-622
1010.107	-1542
1010.180	-2174
1010.253	-849
1010.327	-1723
1010.400	-1775
1010.473	-1639
1010.547	848
1010.620	-1901
1010.693	-720
1010.766	-2243
1010.840	-637
1010.913	-1251
1010.986	-405
1011.059	-1657
1011.132	-1723
1011.205	-1228
1011.278	-1480
1011.351	-2216
1011.424	-781
1011.497	-1434
1011.570	-1529
1011.643	-764
1011.716	-1415
1011.789	-1845
1011.862	-1075
1011.934	-851
1012.007	-2289
1012.080	-1940
1012.153	-737
1012.225	-1072
1012.298	-1423
1012.371	-1921
1012.443	-888
1012.516	-2069
1012.588	-662
1012.661	-1328
1012.733	-1330
1012.806	-435
1012.879	-2225
1012.951	-1655
1013.023	-357
1013.096	-1078
1013.168	-2125
1013.241	-1509
1013.313	-69
1013.385	-1342
1013.458	-807
1013.530	-1042
1013.602	-1502
1013.674	-1467
1013.746	-1708
1013.819	-2071
1013.891	-1061
1013.963	-2274
1014.035	-1442
1014.107	-766
1014.179	-1321
1014.251	-1458
1014.323	-1239
1014.395	-1179
1014.467	-1493
1014.539	-1393
1014.611	-806
1014.683	-1535
1014.754	-1532
1014.826	-1302
1014.898	-945
1014.970	-2559
1015.042	-976
1015.113	-1739
1015.185	-1822
1015.257	-1618
1015.328	-738
1015.400	-1563
1015.471	-1234
1015.543	-2140
1015.615	-965
1015.686	-1641
1015.757	-1099
1015.829	-1814
1015.901	-1171
1015.972	-1416
1016.043	-1989
1016.115	-1436
1016.186	-925
1016.257	-2012
1016.328	-987
1016.400	-1520
1016.471	-1266
1016.542	-957
1016.613	-674
1016.685	-816
1016.756	-373
1016.827	-1702
1016.898	-2433
1016.969	-1169
1017.040	-1476
1017.111	-1126
1017.182	-1424
1017.253	-1335
1017.324	-1405
1017.395	-757
1017.466	-838
1017.537	-1809
1017.608	-1723
1017.678	-1969
1017.749	-729
1017.820	-1431
1017.891	-1809
1017.961	-1863
1018.032	-1264
1018.103	-1874
1018.173	-1442
1018.244	-2056
1018.315	-1040
1018.385	-858
1018.456	-1085
1018.526	-1014
1018.597	-874
1018.667	-1461
1018.738	-1197
1018.808	-2305
1018.878	-1893
1018.949	-1631
1019.019	-1765
1019.089	-1716
1019.160	-1248
1019.230	-2515
1019.300	-1154
1019.371	-2082
1019.441	-1260
1019.511	-1470
1019.581	-1977
1019.651	-2101
1019.721	-969
1019.791	-2020
1019.861	-1944
1019.931	-1138
1020.001	-1753
1020.071	-1808
1020.141	-1808
1020.211	-2592
1020.281	-1853
1020.351	-2739
1020.421	-1468
1020.491	-1558
1020.560	-2012
1020.630	-1737
1020.700	-1601
1020.770	-2126
1020.839	-1622
1020.909	-1934
1020.979	-1533
1021.048	-2462
1021.118	-2273
1021.187	-2105
1021.257	-1961
1021.326	-1251
1021.396	-2055
1021.465	-1237
1021.535	-1325
1021.604	-1926
1021.674	-1784
1021.743	-1787
1021.812	-1423
1021.882	-2427
1021.951	-1062
1022.020	-1975
1022.089	-1315
1022.159	-2307
1022.228	-1437
1022.297	-1998
1022.366	-1041
1022.435	-2953
1022.504	-1521
1022.573	-1804
1022.642	-1869
1022.711	-2060
1022.781	-1001
1022.849	-2026
1022.918	-2030
1022.987	-1282
1023.056	-1638
1023.125	-1575
1023.194	-1845
1023.263	-1324
1023.331	-1321
1023.400	-2743
1023.469	-1187
1023.538	-1126
1023.606	-2274
1023.675	-2079
1023.744	-1690
1023.812	-2555
1023.881	-1606
1023.949	-1300
1024.018	-1785
1024.086	-2085
1024.155	-1626
1024.223	-2103
1024.292	-955
1024.360	-1021
1024.429	-1762
1024.497	-2467
1024.565	-1640
1024.634	-2139
1024.702	-1143
1024.770	-1440
1024.838	-1858
1024.907	-748
1024.975	-1601
1025.043	-1305
1025.111	-2645
1025.179	-1558
1025.247	-1780
1025.315	-2589
1025.383	-2329
1025.451	-2236
1025.519	-1802
1025.587	-1785
1025.655	-1598
1025.723	-2080
1025.791	-1396
1025.859	-1947
1025.927	-1231
1025.995	-2876
1026.062	-1983
1026.130	-2655
1026.198	-1548
1026.266	-2722
1026.333	-1539
1026.401	-1535
1026.469	-1397
1026.536	-2441
1026.604	-1917
1026.671	-2757
1026.739	-1703
1026.806	-2332
1026.874	-1809
1026.941	-2312
1027.009	-1651
1027.076	-1680
1027.144	-1330
1027.211	-2504
1027.278	-1249
1027.345	-2031
1027.413	-2551
1027.480	-1492
1027.547	-1764
1027.614	-2222
1027.682	-1872
1027.749	-2565
1027.816	-1356
1027.883	-1927
1027.950	-1947
1028.017	-2682
1028.084	-1728
1028.151	-2980
1028.218	-1846
1028.285	-2219
1028.352	-2156
1028.419	-3029
1028.486	-2121
1028.553	-1643
1028.619	-1528
1028.686	-2287
1028.753	-2361
1028.820	-1837
1028.886	-2485
1028.953	-1991
1029.020	-1603
1029.086	-2191
1029.153	-1702
1029.220	-2479
1029.286	-2184
1029.353	-1905
1029.419	-2632
1029.486	-2630
1029.552	-2387
1029.619	-2185
1029.685	-2062
1029.751	-2143
1029.818	-1540
1029.884	-2275
1029.951	-1030
1030.017	-1829
1030.083	-1289
1030.149	-2308
1030.216	-1942
1030.282	-2323
1030.348	-1670
1030.414	-2172
1030.480	-2452
1030.546	-2762
1030.612	-1539
1030.678	-2006
1030.744	-1375
1030.810	-2237
1030.876	-1291
1030.942	-2362
1031.008	-1264
1031.074	-2343
1031.140	-1370
1031.206	-1128
1031.272	-2219
1031.337	-2929
1031.403	-1327
1031.469	-1729
1031.534	-1968
1031.600	-2192
1031.666	-2187
1031.731	-2316
1031.797	-1872
1031.863	-2010
1031.928	-1903
1031.994	-3154
1032.059	-1933
1032.125	-1912
1032.190	-1531
1032.256	-1726
1032.321	-2213
1032.386	-1991
1032.452	-1121
1032.517	-2256
1032.582	-1464
1032.647	-2264
1032.713	-1966
1032.778	-2007
1032.843	-2537
1032.908	-2766
1032.974	-1233
1033.039	-2565
1033.104	-1826
1033.169	-2480
1033.234	-1710
1033.299	-2155
1033.364	-2353
1033.429	-2052
1033.494	-1179
1033.559	-1721
1033.624	-1341
1033.688	-1807
1033.753	-2217
1033.818	-1574
1033.883	-2325
1033.948	-1929
1034.013	-1451
1034.077	-1603
1034.142	-346
1034.207	-1387
1034.271	-233
1034.336	126
1034.400	900
1034.465	-1524
1034.530	-598
1034.594	-1719
1034.658	-2613
1034.723	-2553
1034.787	-2439
1034.852	-2060
1034.916	-2628
1034.981	-2262
1035.045	-1391
1035.109	-3168
1035.173	-1082
1035.238	-2453
1035.302	-832
1035.366	-2598
1035.430	-2521
1035.495	-2708
1035.559	-1541
1035.623	-2032
1035.687	-1808
1035.751	-3224
1035.815	-1127
1035.879	-1379
1035.943	-1692
1036.007	-2785
1036.071	-2105
1036.135	-2835
1036.198	-1870
1036.262	-2447
1036.326	-2495
1036.390	-2491
1036.454	-2947
1036.517	-2322
1036.581	-1594
1036.645	-2434
1036.709	-826
1036.772	-2320
1036.836	-1918
1036.900	-1984
1036.963	-2563
1037.026	-2721
1037.090	-2392
1037.154	-1761
1037.217	-2417
1037.280	-2659
1037.344	-1674
1037.407	-2274
1037.471	-1372
1037.534	-2577
1037.597	-1905
1037.661	-2520
1037.724	-1334
1037.787	-2125
1037.850	-1974
1037.913	-2827
1037.977	-2177
1038.040	-2497
1038.103	-2120
1038.166	-2898
1038.229	-1610
1038.292	-2106
1038.355	-1435
1038.418	-1847
1038.481	-2044
1038.544	-2088
1038.607	-1860
1038.670	-2087
1038.732	-1465
1038.795	-1983
1038.858	-2085
1038.921	-1987
1038.984	-1967
1039.046	-3010
1039.109	-2147
1039.172	-2240
1039.234	-2408
1039.297	-2407
1039.360	-1838
1039.422	-2903
1039.485	-2071
1039.547	-2563
1039.610	-1601
1039.672	-2194
1039.734	-1973
1039.797	-1549
1039.859	-2288
1039.922	-2291
1039.984	-2391
1040.046	-2517
1040.109	-1987
1040.171	-1997
1040.233	-1808
1040.295	-2424
1040.358	-2292
1040.420	-2787
1040.482	-1734
1040.544	-3363
1040.606	-992
1040.668	-1524
1040.730	-2060
1040.792	-1887
1040.854	-2352
1040.916	-1823
1040.978	-2538
1041.040	-1795
1041.102	-1792
1041.164	-2822
1041.225	-1754
1041.287	-3456
1041.349	-2052
1041.411	-2389
1041.472	-1864
1041.534	-2410
1041.596	-1927
1041.657	-1435
1041.719	-757
1041.781	-2111
1041.842	-2138
1041.904	-1837
1041.965	-2213
1042.027	-2658
1042.088	-2025
1042.150	-2027
1042.211	-2272
1042.272	-2939
1042.334	-2189
1042.395	-3455
1042.456	-2171
1042.518	-2702
1042.579	-2157
1042.640	-2636
1042.701	-2802
1042.763	-2253
1042.824	-1796
1042.885	-2514
1042.946	-2008
1043.007	-1945
1043.068	-1733
1043.129	-2312
1043.190	-2253
1043.251	-2518
1043.312	-1744
1043.373	-2280
1043.434	-2726
1043.495	-1946
1043.556	-1966
1043.616	-2276
1043.677	-1406
1043.738	-2947
1043.799	-1554
1043.859	-2263
1043.920	-2018
1043.981	-2519
1044.041	-1684
1044.102	-2092
1044.162	-1708
1044.223	-1808
1044.284	-3049
1044.344	-1847
1044.405	-1477
1044.465	-1822
1044.525	-1006
1044.586	-1693
1044.646	-2600
1044.707	-1779
1044.767	-3100
1044.827	-2074
1044.887	-1970
1044.948	-1678
1045.008	-1246
1045.068	-2729
1045.128	-2724
1045.188	-3097
1045.249	-1685
1045.309	-2811
1045.369	-1999
1045.429	-2300
1045.489	-1583
1045.549	-2060
1045.609	-2735
1045.669	-2469
1045.729	-1655
1045.789	-2663
1045.848	-1119
1045.908	-1524
1045.968	-1636
1046.028	-2061
1046.088	-1987
1046.147	-2128
1046.207	-2029
1046.267	-1628
1046.326	-1912
1046.386	-2379
1046.446	-1480
1046.505	-1305
1046.565	-1250
1046.624	-1893
1046.684	-146
1046.743	-1267
1046.803	-268
1046.862	-99
1046.922	0
