'Start Wavelength	183.907
'End Wavelength	1046.922
'Gate Delay	5.000
'Gate Width (ms)	1.050
'Laser Output Level	0.000
'X Position	0.000
'Y Position	0.000
'Z Position	0.000
'Grid Point Number	1.000
'Shot Number	100.000
183.907	312.000
183.977	160.000
184.047	-285
184.116	1175
184.186	173
184.256	270
184.325	383
184.395	57
184.465	518
184.534	122
184.604	61
184.674	643
184.743	113
184.813	654
184.883	340
184.952	488
185.022	-6
185.092	70
185.161	-527
185.231	1030
185.301	508
185.370	186
185.440	137
185.509	97
185.579	209
185.649	191
185.718	185
185.788	69
185.857	-58
185.927	-2
185.996	-204
186.066	393
186.136	-112
186.205	171
186.275	-45
186.344	1
186.414	821
186.483	-217
186.553	254
186.622	1282
186.692	-69
186.761	-376
186.831	56
186.900	383
186.970	655
187.039	249
187.109	1157
187.178	884
187.248	88
187.317	858
187.387	223
187.456	179
187.526	1299
187.595	1327
187.664	526
187.734	387
187.803	372
187.873	1669
187.942	1272
188.012	28
188.081	633
188.150	689
188.220	260
188.289	922
188.358	360
188.428	1040
188.497	1175
188.567	735
188.636	460
188.705	21
188.775	585
188.844	475
188.913	707
188.983	551
189.052	547
189.121	1128
189.191	73
189.260	940
189.329	1473
189.399	1083
189.468	923
189.537	418
189.606	344
189.676	1433
189.745	252
189.814	1363
189.883	421
189.953	990
190.022	1597
190.091	3881
190.161	4626
190.230	1750
190.299	1114
190.368	349
190.437	708
190.507	644
190.576	296
190.645	243
190.714	492
190.783	669
190.853	-19
190.922	958
190.991	875
191.060	1163
191.129	789
191.198	1348
191.268	1184
191.337	877
191.406	1266
191.475	902
191.544	-356
191.613	560
191.682	568
191.752	1301
191.821	1079
191.890	323
191.959	690
192.028	830
192.097	265
192.166	327
192.235	982
192.304	1087
192.373	508
192.442	674
192.511	500
192.580	640
192.650	587
192.719	611
192.788	1247
192.857	1236
192.926	522
192.995	930
193.064	1181
193.133	1656
193.202	1580
193.271	1587
193.340	917
193.409	1137
193.478	2563
193.547	2805
193.615	3104
193.684	3417
193.753	2120
193.822	1754
193.891	1609
193.960	446
194.029	1091
194.098	1112
194.167	1139
194.236	1115
194.305	781
194.374	1039
194.443	203
194.512	1453
194.580	1397
194.649	1668
194.718	1234
194.787	1114
194.856	231
194.925	1673
194.994	1190
195.062	2010
195.131	1051
195.200	1392
195.269	2151
195.338	724
195.407	1160
195.475	754
195.544	1391
195.613	1243
195.682	773
195.751	1468
195.819	1453
195.888	756
195.957	2204
196.026	2194
196.094	1828
196.163	2313
196.232	1031
196.301	1059
196.369	1213
196.438	1949
196.507	1194
196.576	1381
196.644	1416
196.713	1100
196.782	1123
196.850	1099
196.919	292
196.988	1357
197.056	563
197.125	947
197.194	1607
197.262	1049
197.331	796
197.400	1129
197.468	884
197.537	297
197.606	1368
197.674	3031
197.743	4791
197.812	3141
197.880	5016
197.949	3224
198.017	3801
198.086	3212
198.155	1277
198.223	2956
198.292	4910
198.360	2883
198.429	2678
198.497	2212
198.566	3400
198.635	5725
198.703	2054
198.772	1946
198.840	6319
198.909	5352
198.977	2181
199.046	2135
199.114	1929
199.183	1687
199.251	1510
199.320	935
199.388	1119
199.457	1459
199.525	1858
199.594	1236
199.662	1851
199.731	1015
199.799	1988
199.867	1062
199.936	1666
200.004	916
200.073	1391
200.141	1207
200.210	818
200.278	542
200.346	1244
200.415	2056
200.483	847
200.552	1608
200.620	1283
200.688	1534
200.757	1313
200.825	1310
200.893	1362
200.962	2147
201.030	1237
201.098	1553
201.167	2512
201.235	1987
201.303	790
201.372	1319
201.440	1443
201.508	1846
201.577	2071
201.645	923
201.713	1708
201.781	1487
201.850	1741
201.918	1788
201.986	1627
202.055	1312
202.123	1243
202.191	2249
202.259	1037
202.327	1903
202.396	1326
202.464	1436
202.532	2073
202.600	5431
202.669	2831
202.737	1106
202.805	1641
202.873	1459
202.941	2034
203.009	1808
203.078	506
203.146	1994
203.214	1592
203.282	1048
203.350	1890
203.418	1348
203.487	1784
203.555	2005
203.623	2561
203.691	2240
203.759	1181
203.827	2180
203.895	1741
203.963	1907
204.031	1440
204.099	2405
204.168	1365
204.236	2065
204.304	2218
204.372	1434
204.440	1244
204.508	1853
204.576	1049
204.644	1312
204.712	1090
204.780	2206
204.848	1680
204.916	1200
204.984	1354
205.052	1513
205.120	1589
205.188	2060
205.256	2164
205.324	2223
205.392	2361
205.460	1932
205.528	2556
205.596	2586
205.664	1912
205.732	2505
205.799	8127
205.867	10673
205.935	3103
206.003	2717
206.071	1823
206.139	2346
206.207	2375
206.275	2647
206.343	1418
206.411	2598
206.478	2912
206.546	2147
206.614	2469
206.682	2510
206.750	1779
206.818	2800
206.885	2349
206.953	1440
207.021	2229
207.089	3123
207.157	1734
207.225	2659
207.292	2687
207.360	2443
207.428	2240
207.496	2358
207.563	2620
207.631	2661
207.699	2168
207.767	2644
207.834	2194
207.902	3097
207.970	1835
208.038	1985
208.105	1979
208.173	3660
208.241	4856
208.309	3907
208.376	3641
208.444	5875
208.512	3789
208.579	2888
208.647	2868
208.715	3024
208.782	2586
208.850	2961
208.918	2865
208.985	2513
209.053	2637
209.120	3227
209.188	2834
209.256	2356
209.323	2683
209.391	3721
209.459	3833
209.526	2913
209.594	3334
209.661	3141
209.729	3119
209.796	2790
209.864	2779
209.932	1697
209.999	3764
210.067	3653
210.134	2845
210.202	3595
210.269	4390
210.337	3733
210.404	2655
210.472	3087
210.539	3820
210.607	3518
210.674	4367
210.742	3633
210.809	3184
210.877	3485
210.944	4243
211.012	2754
211.079	3967
211.146	2580
211.214	3668
211.281	4284
211.349	3586
211.416	3624
211.484	2992
211.551	3220
211.618	3090
211.686	3269
211.753	2747
211.821	4218
211.888	3242
211.955	3055
212.023	3329
212.090	4483
212.157	4576
212.225	5101
212.292	9356
212.359	15152
212.427	26852
212.494	15016
212.561	7136
212.629	6079
212.696	5042
212.763	4423
212.831	4074
212.898	4282
212.965	3620
213.032	4024
213.100	4342
213.167	3497
213.234	4849
213.301	4458
213.369	3839
213.436	3538
213.503	3063
213.570	4507
213.638	4535
213.705	4108
213.772	3251
213.839	4370
213.906	4399
213.973	4060
214.041	3788
214.108	4525
214.175	3830
214.242	3953
214.309	4367
214.376	4184
214.444	3903
214.511	4548
214.578	4566
214.645	4287
214.712	5291
214.779	4404
214.846	3924
214.913	4879
214.980	5277
215.048	4764
215.115	5153
215.182	5481
215.249	4818
215.316	3891
215.383	4087
215.450	3771
215.517	4370
215.584	3884
215.651	3426
215.718	4579
215.785	4468
215.852	4748
215.919	4590
215.986	4715
216.053	4010
216.120	4128
216.187	4739
216.254	5350
216.321	4819
216.388	4862
216.455	4661
216.522	5158
216.589	5464
216.656	7486
216.722	6974
216.789	6322
216.856	6326
216.923	5467
216.990	5457
217.057	5715
217.124	5769
217.191	5615
217.258	6432
217.324	8322
217.391	6917
217.458	6969
217.525	5546
217.592	4982
217.659	4504
217.725	6710
217.792	7181
217.859	7089
217.926	4811
217.993	4913
218.059	4732
218.126	4333
218.193	4062
218.260	4886
218.327	3934
218.393	5153
218.460	4181
218.527	3991
218.594	4546
218.660	7336
218.727	7281
218.794	4927
218.860	4654
218.927	3717
218.994	3958
219.061	4053
219.127	4411
219.194	6304
219.261	3715
219.327	4383
219.394	4093
219.461	2954
219.527	3777
219.594	5978
219.661	3871
219.727	3838
219.794	4839
219.860	4655
219.927	4527
219.994	6889
220.060	8373
220.127	7797
220.193	5582
220.260	6197
220.326	7974
220.393	10518
220.460	11705
220.526	8571
220.593	5992
220.659	7326
220.726	7826
220.792	16616
220.859	13755
220.925	15219
220.992	18766
221.058	20199
221.125	20677
221.191	15431
221.258	7887
221.324	6704
221.391	5713
221.457	5238
221.524	5720
221.590	8216
221.657	21089
221.723	15658
221.789	14305
221.856	12776
221.922	9096
221.989	6793
222.055	5770
222.121	4457
222.188	6451
222.254	5916
222.321	4317
222.387	4789
222.453	3844
222.520	4698
222.586	4186
222.652	3947
222.719	3922
222.785	4559
222.851	3970
222.918	4111
222.984	3528
223.050	4641
223.116	3591
223.183	4820
223.249	3027
223.315	4841
223.382	4226
223.448	3776
223.514	3678
223.580	3899
223.647	4372
223.713	3464
223.779	4180
223.845	4458
223.911	4190
223.978	4267
224.044	4383
224.110	4565
224.176	3768
224.242	3847
224.309	4045
224.375	4467
224.441	2717
224.507	3253
224.573	2938
224.639	4672
224.705	3242
224.772	3078
224.838	3410
224.904	4635
224.970	4251
225.036	3809
225.102	3364
225.168	3876
225.234	3227
225.300	3724
225.366	3490
225.432	4267
225.499	3187
225.565	3637
225.631	5041
225.697	5928
225.763	5386
225.829	7127
225.895	6852
225.961	9390
226.027	7419
226.093	7345
226.159	8907
226.225	11658
226.291	22280
226.357	30623
226.423	18107
226.489	11869
226.554	9335
226.620	8671
226.686	10560
226.752	13290
226.818	21536
226.884	41474
226.950	33233
227.016	15961
227.082	11016
227.148	8411
227.214	8691
227.279	7434
227.345	5628
227.411	5954
227.477	5924
227.543	9691
227.609	10797
227.674	7309
227.740	5779
227.806	7094
227.872	5549
227.938	5429
228.003	6040
228.069	5452
228.135	4005
228.201	4845
228.267	4261
228.332	5164
228.398	6307
228.464	6125
228.530	4076
228.595	4854
228.661	4488
228.727	7240
228.792	5531
228.858	4641
228.924	3816
228.990	7071
229.055	4931
229.121	6371
229.187	4556
229.252	4943
229.318	3912
229.384	5292
229.449	5050
229.515	4099
229.581	2348
229.646	4627
229.712	4711
229.777	9897
229.843	8802
229.909	8446
229.974	8818
230.040	9581
230.105	7503
230.171	8008
230.236	10363
230.302	15311
230.368	11086
230.433	8092
230.499	7470
230.564	8065
230.630	6399
230.695	6488
230.761	5885
230.826	4432
230.892	8705
230.957	5853
231.023	5452
231.088	5501
231.154	5924
231.219	5917
231.284	7223
231.350	7565
231.415	5125
231.481	4949
231.546	5003
231.612	5712
231.677	4674
231.742	4040
231.808	4760
231.873	4865
231.939	3627
232.004	7625
232.069	6877
232.135	4822
232.200	3946
232.265	4397
232.331	4659
232.396	3868
232.461	3944
232.527	4544
232.592	3353
232.657	4741
232.723	5632
232.788	4861
232.853	4190
232.918	4032
232.984	4066
233.049	3797
233.114	4853
233.179	5751
233.245	6462
233.310	6837
233.375	3781
233.440	5225
233.506	4518
233.571	3745
233.636	3125
233.701	3862
233.766	5351
233.832	5810
233.897	4785
233.962	3831
234.027	5353
234.092	4703
234.157	4686
234.222	5396
234.288	6459
234.353	12492
234.418	11077
234.483	10281
234.548	7729
234.613	7407
234.678	7839
234.743	7256
234.808	13166
234.873	9621
234.938	7315
235.004	7052
235.069	7034
235.134	5840
235.199	6630
235.264	6253
235.329	4621
235.394	6290
235.459	6969
235.524	6190
235.589	5791
235.654	6619
235.719	3996
235.784	5652
235.849	6113
235.913	7884
235.978	8527
236.043	8792
236.108	6292
236.173	5129
236.238	6007
236.303	6360
236.368	5271
236.433	7498
236.498	10383
236.563	9901
236.627	18604
236.692	53393
236.757	43407
236.822	18896
236.887	13548
236.952	12211
237.017	10839
237.081	11150
237.146	13774
237.211	26581
237.276	52496
237.341	78134
237.405	38105
237.470	17721
237.535	13664
237.600	10436
237.664	8739
237.729	7648
237.794	9576
237.859	15721
237.923	10765
237.988	7280
238.053	9464
238.118	9348
238.182	18614
238.247	16198
238.312	8373
238.376	7104
238.441	4831
238.506	6502
238.570	4489
238.635	6020
238.700	5466
238.764	4670
238.829	9364
238.893	9973
238.958	8270
239.023	8557
239.087	6440
239.152	6310
239.216	5144
239.281	5908
239.346	5563
239.410	4312
239.475	6183
239.539	16645
239.604	12468
239.668	7490
239.733	5463
239.797	8148
239.862	13461
239.926	14641
239.991	7279
240.055	4965
240.120	4674
240.184	5745
240.249	4570
240.313	4597
240.378	5114
240.442	9419
240.507	13951
240.571	7018
240.635	7997
240.700	9290
240.764	5703
240.829	4964
240.893	3365
240.957	5432
241.022	9370
241.086	13753
241.151	7484
241.215	4426
241.279	6707
241.344	8392
241.408	8299
241.472	8176
241.537	8655
241.601	7972
241.665	6481
241.730	7367
241.794	8095
241.858	7423
241.922	7468
241.987	8062
242.051	6692
242.115	6367
242.179	6517
242.244	6713
242.308	7269
242.372	6777
242.436	7140
242.501	7358
242.565	6418
242.629	6468
242.693	6636
242.757	5866
242.822	6085
242.886	6845
242.950	6479
243.014	6909
243.078	7867
243.142	7896
243.206	6541
243.271	7864
243.335	8473
243.399	15115
243.463	47105
243.527	96001
243.591	33295
243.655	15665
243.719	10684
243.783	11048
243.847	17677
243.911	20605
243.975	17233
244.040	11542
244.104	8882
244.168	7776
244.232	9953
244.296	14269
244.360	18331
244.424	9300
244.488	6900
244.552	6335
244.615	5022
244.679	6305
244.743	7179
244.807	7656
244.871	5349
244.935	5832
244.999	4430
245.063	6274
245.127	6629
245.191	13723
245.255	12360
245.319	8799
245.383	6809
245.446	6505
245.510	4905
245.574	6069
245.638	5737
245.702	5643
245.766	14207
245.829	8541
245.893	6399
245.957	6238
246.021	7292
246.085	7309
246.149	8472
246.212	18158
246.276	25302
246.340	11317
246.404	9014
246.467	8993
246.531	12899
246.595	9281
246.659	7286
246.722	7642
246.786	8704
246.850	10075
246.913	12056
246.977	6522
247.041	6876
247.104	7588
247.168	8404
247.232	16852
247.295	32758
247.359	14997
247.423	8851
247.486	14798
247.550	9198
247.614	7812
247.677	9717
247.741	7325
247.804	6518
247.868	7579
247.932	14472
247.995	29629
248.059	11785
248.122	6641
248.186	9749
248.249	15279
248.313	51828
248.376	50506
248.440	32989
248.503	12614
248.567	12180
248.630	16214
248.694	21444
248.757	29799
248.821	55247
248.884	32004
248.948	30201
249.011	43389
249.075	64391
249.138	51217
249.202	22158
249.265	15864
249.328	16437
249.392	13829
249.455	11798
249.519	10801
249.582	12862
249.645	19442
249.709	15269
249.772	14149
249.835	11984
249.899	11772
249.962	11542
250.025	11349
250.089	23318
250.152	28829
250.215	15281
250.279	12722
250.342	12920
250.405	13274
250.468	12377
250.532	17744
250.595	29961
250.658	97633
250.721	136270
250.785	55503
250.848	29806
250.911	20686
250.974	18425
251.038	23098
251.101	37154
251.164	21331
251.227	22162
251.290	24271
251.354	39921
251.417	130127
251.480	127016
251.543	108367
251.606	207378
251.669	165150
251.732	75327
251.795	66025
251.859	72165
251.922	142956
251.985	83621
252.048	35374
252.111	26302
252.174	24094
252.237	37201
252.300	71772
252.363	90976
252.426	163030
252.489	74450
252.552	35832
252.615	25270
252.678	28333
252.741	56656
252.804	91091
252.867	175615
252.930	98040
252.993	50187
253.056	30770
253.119	22090
253.182	20431
253.245	39107
253.308	25125
253.371	16678
253.434	15903
253.497	15910
253.559	30273
253.622	19125
253.685	21636
253.748	21130
253.811	11867
253.874	13884
253.937	12384
254.000	10908
254.062	21015
254.125	30284
254.188	26255
254.251	22182
254.314	12438
254.376	19988
254.439	20551
254.502	16620
254.565	22090
254.628	33991
254.690	18145
254.753	10415
254.816	9070
254.878	10281
254.941	22223
255.004	21652
255.067	9926
255.129	8881
255.192	6564
255.255	5618
255.317	7452
255.380	4915
255.443	4615
255.505	4466
255.568	5209
255.631	4985
255.693	5970
255.756	3569
255.819	5795
255.881	5018
255.944	4326
256.006	5136
256.069	4671
256.132	5037
256.194	6331
256.257	11882
256.319	8868
256.382	8940
256.444	8987
256.507	7870
256.569	7552
256.632	7516
256.694	11473
256.757	31463
256.819	83369
256.882	35672
256.944	16636
257.007	13128
257.069	12174
257.132	9274
257.194	9132
257.257	7288
257.319	8321
257.381	10301
257.444	24535
257.506	98253
257.569	97661
257.631	41327
257.693	24871
257.756	14431
257.818	11447
257.880	8458
257.943	9062
258.005	7147
258.067	6853
258.130	7081
258.192	8643
258.254	12579
258.317	8711
258.379	8129
258.441	19842
258.503	17254
258.566	17646
258.628	20506
258.690	8319
258.753	9795
258.815	14043
258.877	9958
258.939	8142
259.001	8014
259.064	7510
259.126	8452
259.188	9422
259.250	9019
259.312	9721
259.375	17316
259.437	13481
259.499	7725
259.561	7668
259.623	8204
259.685	7296
259.747	7920
259.809	17049
259.872	26407
259.934	44907
259.996	38496
260.058	12657
260.120	8313
260.182	7845
260.244	6657
260.306	5691
260.368	6653
260.430	6258
260.492	11030
260.554	17816
260.616	12887
260.678	26769
260.740	28376
260.802	8628
260.864	8760
260.926	6752
260.988	7791
261.050	7779
261.112	14832
261.174	32229
261.236	21521
261.298	10141
261.359	13951
261.421	17540
261.483	6432
261.545	7625
261.607	5248
261.669	6192
261.731	9226
261.793	19129
261.854	9941
261.916	8659
261.978	7099
262.040	7707
262.102	5880
262.164	7861
262.225	7171
262.287	6750
262.349	15549
262.411	10929
262.472	6428
262.534	8940
262.596	15582
262.658	7419
262.719	5074
262.781	7749
262.843	14791
262.904	8688
262.966	7958
263.028	12110
263.090	56369
263.151	130207
263.213	40769
263.275	20097
263.336	11008
263.398	8592
263.459	6053
263.521	5958
263.583	13960
263.644	9202
263.706	5220
263.767	3830
263.829	4050
263.891	2825
263.952	3459
264.014	2869
264.075	7014
264.137	15063
264.198	6752
264.260	4044
264.321	4913
264.383	12093
264.444	24611
264.506	8717
264.567	6119
264.629	11880
264.690	19983
264.752	8711
264.813	6024
264.875	5094
264.936	5382
264.998	4779
265.059	4510
265.120	6070
265.182	8920
265.243	43309
265.305	39303
265.366	11801
265.427	6565
265.489	6426
265.550	4611
265.611	5952
265.673	4478
265.734	4977
265.795	4213
265.857	4626
265.918	5594
265.979	13857
266.040	72074
266.102	55500
266.163	15884
266.224	12281
266.286	7777
266.347	4869
266.408	5730
266.469	5318
266.530	4137
266.592	4015
266.653	9069
266.714	14407
266.775	5844
266.836	4805
266.898	3886
266.959	7541
267.020	6054
267.081	5674
267.142	4805
267.203	4072
267.264	3861
267.326	6184
267.387	4700
267.448	3526
267.509	4221
267.570	4627
267.631	3571
267.692	4163
267.753	4825
267.814	4529
267.875	10304
267.936	20095
267.997	10795
268.058	10416
268.119	6107
268.180	5346
268.241	5111
268.302	4633
268.363	4249
268.424	4580
268.485	5092
268.546	4034
268.607	3877
268.668	3955
268.729	3992
268.790	5133
268.851	5073
268.912	12899
268.972	13827
269.033	7664
269.094	3768
269.155	4064
269.216	4169
269.277	4838
269.338	4256
269.398	5490
269.459	5476
269.520	7637
269.581	9285
269.642	9564
269.702	7401
269.763	7097
269.824	5739
269.885	7635
269.945	10413
270.006	6053
270.067	3688
270.128	4356
270.188	4704
270.249	4771
270.310	3104
270.370	4761
270.431	4115
270.492	4127
270.553	5023
270.613	9128
270.674	18796
270.734	8055
270.795	5342
270.856	7839
270.916	5115
270.977	4916
271.038	5736
271.098	6046
271.159	9729
271.219	8298
271.280	4628
271.340	4872
271.401	4555
271.462	9265
271.522	6621
271.583	5159
271.643	5110
271.704	4535
271.764	6634
271.825	14753
271.885	47610
271.946	59681
272.006	19987
272.066	29978
272.127	46614
272.187	14717
272.248	9034
272.308	10376
272.369	34429
272.429	17863
272.489	12829
272.550	13000
272.610	13900
272.671	10251
272.731	8791
272.791	12189
272.852	7421
272.912	7740
272.972	5409
273.033	6186
273.093	6957
273.153	8073
273.214	6137
273.274	7163
273.334	26064
273.394	46386
273.455	16427
273.515	17700
273.575	39180
273.635	14516
273.696	20576
273.756	44059
273.816	15227
273.876	9857
273.936	16655
273.997	24252
274.057	7705
274.117	7567
274.177	12766
274.237	57601
274.297	42056
274.358	24815
274.418	37413
274.478	25332
274.538	10561
274.598	8226
274.658	19917
274.718	24273
274.778	10126
274.838	6832
274.898	13034
274.958	33275
275.018	42536
275.078	26359
275.138	10275
275.198	5787
275.258	5428
275.318	6843
275.378	11782
275.438	12704
275.498	8628
275.558	19430
275.618	38847
275.678	30711
275.738	17968
275.798	13064
275.858	7352
275.918	4849
275.978	6739
276.038	5356
276.098	4648
276.157	11133
276.217	28319
276.277	13331
276.337	9864
276.397	5587
276.457	6636
276.517	4869
276.576	3795
276.636	3474
276.696	7407
276.756	17076
276.815	12671
276.875	5420
276.935	6353
276.995	5993
277.055	4894
277.114	4535
277.174	7681
277.234	24695
277.293	9381
277.353	5342
277.413	4815
277.472	5488
277.532	5589
277.592	5543
277.651	17061
277.711	27270
277.771	10749
277.830	38841
277.890	27098
277.950	22544
278.009	63988
278.069	21529
278.128	22259
278.188	27861
278.248	13489
278.307	32584
278.367	17992
278.426	7112
278.486	5514
278.545	4639
278.605	5270
278.664	5287
278.724	6386
278.783	18779
278.843	46395
278.902	12888
278.962	7671
279.021	7201
279.081	7072
279.140	7622
279.199	7810
279.259	8739
279.318	8085
279.378	11295
279.437	20053
279.496	72119
279.556	150644
279.615	100431
279.675	28127
279.734	19813
279.793	32136
279.853	56665
279.912	20422
279.971	10919
280.031	10423
280.090	25765
280.149	42822
280.208	25190
280.268	102340
280.327	89836
280.386	22052
280.445	21773
280.505	19087
280.564	9737
280.623	8665
280.682	15155
280.742	19710
280.801	7572
280.860	5207
280.919	5394
280.978	4790
281.037	4585
281.097	4303
281.156	4972
281.215	4487
281.274	6559
281.333	31390
281.392	20165
281.451	5431
281.510	5107
281.569	4163
281.628	3990
281.688	3436
281.747	4985
281.806	4837
281.865	3897
281.924	3160
281.983	3724
282.042	2919
282.101	2911
282.160	3134
282.219	3002
282.278	5098
282.337	15588
282.396	8573
282.454	6318
282.513	7548
282.572	24456
282.631	12600
282.690	5150
282.749	4228
282.808	4723
282.867	5164
282.926	5041
282.985	3165
283.043	3646
283.102	3103
283.161	4695
283.220	12903
283.279	26831
283.338	8048
283.396	5099
283.455	4822
283.514	5877
283.573	7869
283.631	6170
283.690	4405
283.749	4854
283.808	10096
283.866	11161
283.925	4154
283.984	4160
284.043	6046
284.101	6149
284.160	3904
284.219	6515
284.277	5254
284.336	9828
284.395	32380
284.453	23680
284.512	8427
284.570	11258
284.629	9605
284.688	7378
284.746	7783
284.805	9131
284.863	10934
284.922	13664
284.981	16778
285.039	24631
285.098	46270
285.156	119144
285.215	251968
285.273	235760
285.332	120829
285.390	60749
285.449	38040
285.507	26201
285.566	18613
285.624	14428
285.683	11627
285.741	9796
285.799	7803
285.858	8144
285.916	7455
285.975	5221
286.033	5137
286.091	5040
286.150	4074
286.208	4539
286.267	5277
286.325	5151
286.383	8658
286.442	7990
286.500	4255
286.558	4694
286.616	4279
286.675	6123
286.733	4362
286.791	5358
286.850	5584
286.908	7906
286.966	12112
287.024	6001
287.083	4551
287.141	3463
287.199	4751
287.257	7104
287.315	5613
287.374	6967
287.432	15071
287.490	10388
287.548	6743
287.606	5649
287.664	6291
287.723	8243
287.781	9880
287.839	7870
287.897	10395
287.955	14980
288.013	25672
288.071	61637
288.129	203391
288.187	398314
288.245	205610
288.303	77403
288.361	43869
288.419	31075
288.477	22442
288.535	17095
288.593	12150
288.651	9280
288.709	6803
288.767	5647
288.825	5740
288.883	4804
288.941	4093
288.999	4950
289.057	3975
289.115	3557
289.173	4132
289.231	4814
289.289	4048
289.346	4634
289.404	4867
289.462	7276
289.520	7019
289.578	4090
289.636	2987
289.694	3651
289.751	2663
289.809	3026
289.867	3221
289.925	4776
289.983	5514
290.040	3407
290.098	3344
290.156	4367
290.214	4512
290.271	3304
290.329	2883
290.387	2414
290.444	2360
290.502	1939
290.560	2631
290.617	3132
290.675	3005
290.733	2566
290.790	2869
290.848	3219
290.906	2659
290.963	3938
291.021	2469
291.078	2695
291.136	5446
291.194	13767
291.251	26514
291.309	7138
291.366	2756
291.424	3379
291.481	2961
291.539	3332
291.596	2554
291.654	2502
291.711	1802
291.769	2918
291.826	6345
291.884	4304
291.941	1712
291.999	2721
292.056	3561
292.114	3184
292.171	2927
292.228	3491
292.286	3970
292.343	7352
292.401	9382
292.458	5378
292.515	3799
292.573	5208
292.630	4635
292.687	4373
292.745	3865
292.802	5392
292.859	14437
292.917	26887
292.974	14004
293.031	5250
293.089	3605
293.146	3172
293.203	2826
293.260	3146
293.318	3611
293.375	5330
293.432	4394
293.489	3094
293.546	3072
293.604	6083
293.661	17853
293.718	46194
293.775	20153
293.832	8844
293.889	6873
293.947	7260
294.004	4873
294.061	6147
294.118	13664
294.175	26110
294.232	28298
294.289	10901
294.346	7054
294.403	7650
294.460	5278
294.517	4357
294.574	3309
294.631	4642
294.688	5750
294.745	15029
294.802	53058
294.859	48717
294.916	17359
294.973	9586
295.030	8128
295.087	7489
295.144	4961
295.201	4131
295.258	4529
295.315	6298
295.372	20826
295.429	37967
295.486	15193
295.542	9693
295.599	22518
295.656	35276
295.713	25729
295.770	35751
295.827	12931
295.883	7204
295.940	6529
295.997	10366
296.054	9248
296.111	4683
296.167	4284
296.224	3336
296.281	3337
296.338	3692
296.394	3735
296.451	5691
296.508	17618
296.564	29807
296.621	18813
296.678	42964
296.734	57467
296.791	19111
296.848	10789
296.904	12137
296.961	24726
297.018	42047
297.074	29761
297.131	10947
297.187	9034
297.244	14733
297.301	45396
297.357	72496
297.414	22984
297.470	10326
297.527	7586
297.583	6336
297.640	6087
297.696	4950
297.753	3254
297.809	3276
297.866	2028
297.922	2918
297.979	2984
298.035	4158
298.092	8005
298.148	24806
298.204	21677
298.261	11096
298.317	19674
298.374	51633
298.430	25369
298.486	10858
298.543	8139
298.599	8276
298.656	10941
298.712	21770
298.768	60616
298.824	42780
298.881	13547
298.937	7564
298.993	6450
299.050	7775
299.106	5890
299.162	5702
299.218	5708
299.275	5240
299.331	6263
299.387	12512
299.443	44947
299.500	40845
299.556	14806
299.612	7464
299.668	7403
299.724	8652
299.780	9048
299.837	6599
299.893	11605
299.949	37133
300.005	40182
300.061	33191
300.117	58765
300.173	25248
300.229	12468
300.285	14002
300.341	15238
300.397	9128
300.453	5691
300.510	4646
300.566	5265
300.622	7002
300.678	17101
300.734	32848
300.790	33050
300.845	42995
300.901	23946
300.957	33648
301.013	24394
301.069	10628
301.125	7415
301.181	7419
301.237	6235
301.293	4552
301.349	3734
301.405	3652
301.461	3919
301.516	5251
301.572	5322
301.628	10252
301.684	8921
301.740	15532
301.796	23695
301.851	15415
301.907	25871
301.963	27671
302.019	48396
302.074	126192
302.130	113912
302.186	47236
302.242	18911
302.297	14344
302.353	14659
302.409	27765
302.464	22137
302.520	18571
302.576	43853
302.631	46617
302.687	23281
302.743	10953
302.798	6402
302.854	6645
302.910	5480
302.965	6466
303.021	12453
303.076	11522
303.132	14629
303.187	17232
303.243	8301
303.299	5395
303.354	3923
303.410	4656
303.465	3705
303.521	3626
303.576	4115
303.632	7080
303.687	13807
303.743	40774
303.798	30446
303.853	10714
303.909	6608
303.964	6550
304.020	10439
304.075	13732
304.130	11783
304.186	21930
304.241	21038
304.297	16362
304.352	8795
304.358	8553
304.407	6588
304.449	6539
304.463	6523
304.518	7257
304.539	6569
304.573	5443
304.629	6783
304.630	6872
304.684	11540
304.720	23905
304.739	30068
304.794	43826
304.811	36973
304.850	19831
304.902	10143
304.905	9575
304.960	7585
304.992	7708
305.015	7804
305.071	7124
305.083	6780
305.126	5459
305.173	4404
305.181	4243
305.236	3232
305.264	3856
305.292	4628
305.347	5964
305.354	6084
305.402	6802
305.445	7459
305.457	7602
305.512	9016
305.535	8879
305.567	8718
305.622	10418
305.626	10743
305.678	20423
305.716	38784
305.733	44829
305.788	49569
305.807	43022
305.843	32139
305.897	44044
305.898	44156
305.953	42180
305.988	27231
306.008	19209
306.063	13047
306.078	11499
306.118	8372
306.168	6422
306.173	6300
306.228	5048
306.259	5007
306.283	5032
306.338	4145
306.349	4255
306.393	5208
306.440	6495
306.448	6655
306.503	6784
306.530	7501
306.558	10251
306.613	20775
306.620	22315
306.668	34191
306.711	46778
306.723	47408
306.778	34655
306.801	26407
306.833	17026
306.888	8661
306.892	8287
306.943	7277
306.982	6396
306.997	6146
307.052	6149
307.072	6188
307.107	6970
307.162	8562
307.163	8581
307.217	11691
307.253	13770
307.272	14171
307.327	14757
307.343	13835
307.381	12124
307.434	11773
307.436	12161
307.491	24595
307.524	34902
307.546	38191
307.600	40560
307.614	37916
307.655	24167
307.704	12387
307.710	12175
307.765	14163
307.795	16656
307.819	19194
307.874	26834
307.885	27097
307.929	24101
307.975	21549
307.984	22722
308.038	34167
308.065	42981
308.093	75946
308.148	156342
308.156	172815
308.202	270308
308.246	334020
308.257	320060
308.312	174835
308.336	119885
308.366	92185
308.421	56231
308.426	52922
308.475	35475
308.517	24001
308.530	22668
308.585	18808
308.607	17562
308.639	17440
308.694	18501
308.697	18591
308.748	26938
308.787	36122
308.803	36204
308.857	29363
308.877	26473
308.912	24907
308.967	25522
308.967	25506
309.021	36201
309.058	45456
309.076	59346
309.130	107307
309.148	125687
309.185	223757
309.238	385175
309.239	386875
309.293	423957
309.328	405392
309.348	347649
309.402	174767
309.418	130391
309.457	93391
309.508	53836
309.511	53071
309.566	43421
309.598	38279
309.620	40068
309.674	46029
309.688	47778
309.729	46588
309.778	42275
309.783	41604
309.837	33545
309.868	29485
309.892	37270
309.946	57901
309.959	63595
310.001	85553
310.049	106130
310.055	102190
310.109	59081
310.139	35390
310.163	28543
310.218	17059
310.229	14828
310.272	12363
310.319	10221
310.326	10077
310.381	8985
310.409	8602
310.435	8514
310.489	8117
310.499	8060
310.543	8441
310.589	8871
310.598	8883
310.652	8932
310.679	8806
310.706	8125
310.760	6776
310.769	6542
310.814	6515
310.859	6662
310.868	6754
310.923	7050
310.948	7172
310.977	8011
311.031	9740
311.038	9951
311.085	9438
311.128	8679
311.139	8582
311.193	8197
311.218	7920
311.247	7696
311.301	7288
311.308	7205
311.356	7349
311.398	7661
311.410	7612
311.464	6958
311.488	6755
311.518	7035
311.572	7359
311.578	7386
311.626	10575
311.668	13335
311.680	13145
311.734	12009
311.758	11480
311.788	11383
311.842	11102
311.847	11042
311.896	13809
311.937	16183
311.950	16125
312.004	15641
312.027	15358
312.058	13181
312.112	9232
312.117	8814
312.165	8572
312.207	8325
312.297	12652
312.386	10790
312.476	9645
312.566	20166
312.656	11278
312.745	8496
312.835	8758
312.925	9367
313.015	9301
313.104	7996
313.194	7709
313.284	8483
313.374	12480
313.463	11171
313.553	7540
313.643	8507
313.732	7351
313.822	7155
313.912	8650
314.001	10248
314.091	11352
314.180	13979
314.270	13092
314.360	14157
314.449	11785
314.539	8763
314.628	7841
314.718	9704
314.808	11323
314.897	8108
314.987	8090
315.076	10635
315.166	13763
315.255	12219
315.345	13031
315.434	12241
315.524	10812
315.613	12702
315.703	15215
315.792	18632
315.881	44036
315.971	22038
316.060	22916
316.150	27764
316.239	26259
316.328	11914
316.418	8833
316.507	9984
316.597	12371
316.686	11620
316.775	15541
316.865	25202
316.954	9375
317.043	7335
317.133	8356
317.222	8304
317.311	7091
317.400	7957
317.490	11288
317.579	14318
317.668	9893
317.757	14371
317.847	26119
317.936	77812
318.025	44005
318.114	24017
318.203	19004
318.293	27459
318.382	61156
318.471	43308
318.560	56056
318.649	83698
318.738	21312
318.828	13832
318.917	17208
319.006	18463
319.095	35343
319.184	100978
319.273	59681
319.362	34516
319.451	13325
319.540	11384
319.629	24141
319.718	43096
319.807	22038
319.896	36868
319.985	125431
320.074	51217
320.163	15397
320.252	19593
320.341	18602
320.430	16901
320.519	22126
320.608	14599
320.697	12875
320.786	12375
320.875	14175
320.964	19270
321.053	28790
321.142	39877
321.230	45701
321.319	31496
321.408	72030
321.497	33116
321.586	30080
321.675	32592
321.764	31235
321.852	22508
321.941	41490
322.030	31472
322.119	30502
322.207	74699
322.296	46000
322.385	27117
322.474	31582
322.562	89434
322.651	49233
322.740	35388
322.829	55255
322.917	38666
323.006	26236
323.095	26741
323.183	18322
323.272	23617
323.361	40880
323.449	88966
323.538	37239
323.626	69203
323.715	45712
323.804	23323
323.892	59283
323.981	39808
324.069	17273
324.158	34234
324.246	29885
324.335	17188
324.424	28272
324.512	11793
324.601	14067
324.689	17589
324.778	26538
324.866	30362
324.954	11057
325.043	11921
325.131	21307
325.220	30084
325.308	33324
325.397	25929
325.485	16929
325.574	9820
325.662	9639
325.750	10271
325.839	10037
325.927	7655
326.015	11225
326.104	14314
326.192	16000
326.280	8720
326.369	8615
326.457	13519
326.545	23474
326.634	11980
326.722	6918
326.810	7648
326.898	8475
326.987	10156
327.075	21396
327.163	21056
327.251	9888
327.340	10827
327.428	12322
327.516	7651
327.604	8989
327.692	8089
327.781	9876
327.869	13817
327.957	9881
328.045	10622
328.133	7712
328.221	8438
328.309	8086
328.397	8816
328.485	10631
328.574	14116
328.662	47718
328.750	28427
328.838	11282
328.926	8063
329.014	7777
329.102	12964
329.190	27223
329.278	19738
329.366	8037
329.454	7906
329.542	8049
329.630	7974
329.718	9546
329.806	13165
329.893	15277
329.981	21145
330.069	43726
330.157	151566
330.245	430895
330.333	250249
330.421	46692
330.509	25683
330.597	59077
330.684	42197
330.772	17063
330.860	20010
330.948	23623
331.036	11723
331.123	7233
331.211	7388
331.299	10110
331.387	20608
331.475	34392
331.562	11882
331.650	7199
331.738	9781
331.825	10330
331.913	6934
332.001	6422
332.089	10472
332.176	17381
332.264	33756
332.352	25811
332.439	12327
332.527	8941
332.614	7978
332.702	9093
332.790	8306
332.877	19937
332.965	28671
333.052	11598
333.140	10850
333.228	20838
333.315	9064
333.403	10095
333.490	21679
333.578	17260
333.665	24628
333.753	16273
333.840	8774
333.928	11936
334.015	25527
334.103	41074
334.190	116501
334.278	36002
334.365	15987
334.452	12938
334.540	10900
334.627	13595
334.715	17954
334.802	32422
334.889	110383
334.977	102649
335.064	22720
335.151	14262
335.239	14055
335.326	19604
335.413	65190
335.501	89555
335.588	16718
335.675	13193
335.762	17341
335.850	25653
335.937	22147
336.024	45747
336.111	125688
336.199	58834
336.286	18362
336.373	12778
336.460	9599
336.547	8803
336.635	11419
336.722	11183
336.809	9005
336.896	14510
336.983	42339
337.070	96272
337.157	137143
337.245	78339
337.332	46949
337.419	11233
337.506	7685
337.593	11510
337.680	34671
337.767	88416
337.854	29027
337.941	31131
338.028	31140
338.115	13082
338.202	16202
338.289	27113
338.376	69266
338.463	28782
338.550	54212
338.637	56289
338.724	20565
338.811	23482
338.898	7715
338.984	7596
339.071	9736
339.158	10283
339.245	28444
339.332	20019
339.419	21085
339.506	16690
339.593	5889
339.679	7148
339.766	6908
339.853	9955
339.940	21247
340.027	9004
340.113	7792
340.200	12210
340.287	9847
340.374	10053
340.460	19538
340.547	8694
340.634	14146
340.720	53291
340.807	36463
340.894	8236
340.980	7649
341.067	7115
341.154	7901
341.240	11828
341.327	28445
341.414	11083
341.500	13191
341.587	8490
341.674	6951
341.760	17783
341.847	23332
341.933	8869
342.020	4744
342.106	5414
342.193	7500
342.279	14754
342.366	11429
342.452	19936
342.539	11192
342.625	23780
342.712	61714
342.798	27167
342.885	11609
342.971	4539
343.058	4870
343.144	5488
343.230	5519
343.317	6495
343.403	6826
343.490	5322
343.576	5567
343.662	6885
343.749	8587
343.835	10129
343.921	21392
344.008	107269
344.094	277834
344.180	68499
344.267	22916
344.353	73795
344.439	80867
344.525	31620
344.612	19527
344.698	19126
344.784	12312
344.870	7128
344.957	6508
345.043	11414
345.129	8459
345.215	17730
345.301	11585
345.387	7488
345.474	4873
345.560	5736
345.646	6566
345.732	6987
345.818	8740
345.904	8993
345.990	8676
346.076	10204
346.162	14520
346.249	8046
346.335	5897
346.421	8109
346.507	27817
346.593	111654
346.679	30283
346.765	8704
346.851	7841
346.937	7881
347.023	6546
347.108	8001
347.194	7444
347.280	7980
347.366	9950
347.452	29150
347.538	131277
347.624	96545
347.710	78069
347.796	14736
347.882	7870
347.967	7443
348.053	9258
348.139	6615
348.225	5730
348.311	6212
348.397	5788
348.482	7938
348.568	9497
348.654	6604
348.740	9236
348.825	12897
348.911	15643
348.997	54139
349.083	125120
349.168	20755
349.254	9888
349.340	8633
349.425	5512
349.511	9442
349.597	10432
349.682	20916
349.768	73364
349.854	39901
349.939	8301
350.025	6400
350.110	6446
350.196	5599
350.282	4746
350.367	5301
350.453	9308
350.538	8517
350.624	9511
350.709	9609
350.795	5302
350.880	5732
350.966	6742
351.051	10609
351.137	6916
351.222	7378
351.308	20908
351.393	64203
351.479	19782
351.564	8395
351.649	6429
351.735	5652
351.820	4550
351.906	6347
351.991	9074
352.076	36719
352.162	62801
352.247	13974
352.332	9352
352.418	17762
352.503	22711
352.588	83700
352.673	75124
352.759	17970
352.844	9276
352.929	10444
353.014	13011
353.100	11203
353.185	25486
353.270	27078
353.355	22881
353.441	8970
353.526	9579
353.611	17513
353.696	22822
353.781	13103
353.866	7671
353.952	7970
354.037	17755
354.122	40867
354.207	37632
354.292	15794
354.377	7310
354.462	6795
354.547	9601
354.632	10400
354.717	16723
354.802	32755
354.887	12402
354.972	7140
355.057	5405
355.142	5076
355.227	8697
355.312	12459
355.397	27174
355.482	64651
355.567	36335
355.652	23917
355.737	25025
355.822	81239
355.907	74855
355.991	13371
356.076	7475
356.161	7146
356.246	6436
356.331	7588
356.416	18660
356.501	125867
356.585	152027
356.670	24807
356.755	14587
356.840	22346
356.924	94857
357.009	322587
357.094	132078
357.179	27565
357.263	17527
357.348	16581
357.433	16899
357.517	15170
357.602	13127
357.687	11115
357.771	21285
357.856	56397
357.941	37197
358.025	64954
358.110	306324
358.195	162300
358.279	25669
358.364	17278
358.448	50666
358.533	152130
358.617	116419
358.702	112928
358.787	43633
358.871	22039
358.956	20281
359.040	8663
359.125	6749
359.209	7528
359.294	23551
359.378	45062
359.462	20865
359.547	12649
359.631	7980
359.716	6517
359.800	7445
359.885	10804
359.969	7850
360.053	6616
360.138	7544
360.222	11229
360.306	21289
360.391	17764
360.475	27388
360.559	65107
360.644	57342
360.728	45925
360.812	66810
360.896	208439
360.981	87379
361.065	43200
361.149	12733
361.233	12116
361.318	9936
361.402	11235
361.486	10067
361.570	7737
361.654	12347
361.739	27483
361.823	119510
361.907	212288
361.991	43579
362.075	21148
362.159	43694
362.243	36095
362.327	36468
362.411	40371
362.495	23399
362.580	14512
362.664	11118
362.748	12142
362.832	17855
362.916	31299
363.000	73525
363.084	168600
363.168	255099
363.252	67837
363.336	24178
363.420	28408
363.503	95369
363.587	110261
363.671	24122
363.755	16992
363.839	23725
363.923	14313
364.007	26227
364.091	32911
364.175	47471
364.258	164630
364.342	135771
364.426	136819
364.510	78354
364.594	40018
364.677	40854
364.761	173330
364.845	139968
364.929	40454
365.013	33169
365.096	26727
365.180	32893
365.264	42452
365.347	150183
365.431	67122
365.515	18071
365.598	9842
365.682	10419
365.766	18076
365.849	20942
365.933	12505
366.017	14663
366.100	12608
366.184	6189
366.267	7311
366.351	7517
366.435	6580
366.518	5994
366.602	5311
366.685	6513
366.769	8129
366.852	16252
366.936	25366
367.019	15944
367.103	14144
367.186	21479
367.270	9066
367.353	4826
367.436	6948
367.520	5912
367.603	9100
367.687	13401
367.770	25513
367.853	15856
367.937	49997
368.020	97437
368.104	23067
368.187	17802
368.270	27938
368.353	24722
368.437	31673
368.520	51400
368.603	36144
368.687	55480
368.770	122248
368.853	31742
368.936	25849
369.020	25574
369.103	10769
369.186	7845
369.269	9126
369.352	16753
369.436	23711
369.519	15742
369.602	9974
369.685	10261
369.768	10029
369.851	8645
369.934	6816
370.018	9820
370.101	20066
370.184	17644
370.267	13188
370.350	23619
370.433	35287
370.516	92206
370.599	122461
370.682	35227
370.765	55738
370.848	71673
370.931	144688
371.014	58883
371.097	11859
371.180	8557
371.263	6665
371.346	4787
371.429	6168
371.511	7191
371.594	13622
371.677	23786
371.760	25774
371.843	22470
371.926	104776
372.009	270899
372.091	90627
372.174	52638
372.257	139340
372.340	59119
372.423	35547
372.505	37627
372.588	18181
372.671	36033
372.754	135424
372.836	76906
372.919	46539
373.002	85270
373.085	29419
373.167	21069
373.250	55728
373.332	135649
373.415	160968
373.498	355159
373.580	138880
373.663	152401
373.746	234433
373.828	57424
373.911	23232
373.993	24529
374.076	83710
374.159	76235
374.241	33950
374.324	112056
374.406	81277
374.489	91415
374.571	295792
374.654	134632
374.736	54215
374.819	175839
374.901	243646
374.983	268491
375.066	52855
375.148	20227
375.231	70632
375.313	132486
375.395	51088
375.478	13224
375.560	9763
375.643	14501
375.725	44784
375.807	215875
375.890	174061
375.972	53604
376.054	34986
376.136	43265
376.219	21297
376.301	53728
376.383	193345
376.465	80678
376.548	40591
376.630	49544
376.712	160665
376.794	83639
376.877	11993
376.959	7068
377.041	9960
377.123	19762
377.205	21074
377.287	6713
377.369	6604
377.452	7134
377.534	7073
377.616	6671
377.698	6891
377.780	4291
377.862	7378
377.944	6361
378.026	5248
378.108	5407
378.190	5783
378.272	5594
378.354	4462
378.436	4992
378.518	12172
378.600	38643
378.682	32312
378.764	77640
378.846	68930
378.928	18840
379.010	26497
379.091	14354
379.173	7351
379.255	6393
379.337	10487
379.419	34306
379.501	114762
379.583	51947
379.664	12892
379.746	26573
379.828	74428
379.910	105808
379.991	100923
380.073	20167
380.155	10682
380.237	8836
380.318	6713
380.400	7120
380.482	15733
380.564	26539
380.645	32312
380.727	32073
380.809	15854
380.890	11913
380.972	9852
381.053	8175
381.135	9792
381.217	22950
381.298	82290
381.380	43909
381.461	31305
381.543	146988
381.624	204612
381.706	42057
381.787	19887
381.869	21312
381.951	60287
382.032	256766
382.113	175339
382.195	38517
382.276	24614
382.358	55021
382.439	151131
382.521	156281
382.602	249852
382.684	112500
382.765	189460
382.846	191442
382.928	190370
383.009	114791
383.090	85460
383.172	276320
383.253	423814
383.334	174731
383.416	221522
383.497	124361
383.578	48560
383.659	79913
383.741	255689
383.822	631352
383.903	354396
383.984	147059
384.066	266953
384.147	178999
384.228	37509
384.309	25268
384.390	21374
384.471	16284
384.553	15676
384.634	20637
384.715	22579
384.796	12964
384.877	15137
384.958	66439
385.039	93708
385.120	33938
385.201	15599
385.282	18110
385.363	18156
385.444	15544
385.525	30009
385.606	115097
385.687	112010
385.768	27439
385.849	27328
385.930	112534
386.011	225803
386.092	68596
386.173	16988
386.254	13498
386.335	13097
386.416	14262
386.496	45188
386.577	83455
386.658	32413
386.739	19619
386.820	17431
386.901	14140
386.981	13013
387.062	9973
387.143	18515
387.224	74188
387.304	77730
387.385	27428
387.466	18941
387.547	22649
387.627	16660
387.708	27743
387.789	130263
387.869	184927
387.950	54341
388.031	12480
388.111	12476
388.192	27851
388.273	37191
388.353	21765
388.434	14210
388.514	25048
388.595	123607
388.676	178968
388.756	84619
388.837	71113
388.917	49232
388.998	12760
389.078	10650
389.159	9522
389.239	9050
389.320	14716
389.400	13675
389.480	29217
389.561	87589
389.641	47232
389.722	15027
389.802	24276
389.883	34424
389.963	104437
390.043	71694
390.124	20468
390.204	28122
390.284	88902
390.365	65663
390.445	71707
390.525	220254
390.605	217305
390.686	63031
390.766	21910
390.846	11852
390.927	8891
391.007	9957
391.087	11349
391.167	14534
391.247	11774
391.328	16988
391.408	23048
391.488	17049
391.568	7670
391.648	11879
391.728	17451
391.808	16413
391.888	18727
391.969	42462
392.049	80837
392.129	37548
392.209	35016
392.289	102331
392.369	62891
392.449	43845
392.529	28195
392.609	24102
392.689	28913
392.769	96936
392.849	93826
392.929	59350
393.009	139310
393.089	122590
393.169	97225
393.248	267218
393.328	920943
393.408	1065280
393.488	351789
393.568	105414
393.648	53801
393.728	34512
393.807	25289
393.887	23094
393.967	20919
394.047	23539
394.127	29186
394.206	44530
394.286	136283
394.366	584924
394.446	709727
394.525	201858
394.605	54577
394.685	37754
394.764	60517
394.844	97155
394.924	70826
395.003	27365
395.083	17954
395.163	17032
395.242	16014
395.322	16830
395.402	13262
395.481	18432
395.561	43244
395.640	107578
395.720	95534
395.799	124729
395.879	99315
395.958	67934
396.038	207027
396.117	755839
396.197	920342
396.276	328728
396.356	108200
396.435	70832
396.515	48696
396.594	51865
396.673	86107
396.753	273475
396.832	870990
396.912	725571
396.991	198842
397.070	57861
397.150	31649
397.229	22947
397.308	28065
397.388	53115
397.467	32515
397.546	14854
397.625	11002
397.705	14545
397.784	15159
397.863	9831
397.942	8109
398.022	10452
398.101	33644
398.180	97397
398.259	51093
398.338	14312
398.417	11550
398.497	8734
398.576	9024
398.655	6549
398.734	6866
398.813	8130
398.892	31201
398.971	103042
399.050	51569
399.129	9695
399.208	5497
399.287	6416
399.366	4452
399.445	5619
399.524	5890
399.603	5016
399.682	11893
399.761	34622
399.840	108436
399.919	84011
399.998	12814
400.077	5139
400.156	4978
400.235	8726
400.313	5847
400.392	8140
400.471	35077
400.550	68133
400.629	20413
400.708	9123
400.786	10392
400.865	25181
400.944	25294
401.023	12588
401.102	3772
401.180	4023
401.259	5405
401.338	6671
401.416	8465
401.495	8601
401.574	8047
401.652	6113
401.731	9581
401.810	12402
401.888	7190
401.967	4169
402.046	7099
402.124	8337
402.203	11318
402.281	6993
402.360	13048
402.438	31591
402.517	21812
402.596	9175
402.674	8852
402.753	5493
402.831	5460
402.910	8584
402.988	35656
403.066	150886
403.145	97949
403.223	42267
403.302	132063
403.380	102763
403.459	103437
403.537	45336
403.615	14816
403.694	5197
403.772	5104
403.850	4126
403.929	4144
404.007	5971
404.085	17408
404.164	27044
404.242	10930
404.320	22716
404.398	88076
404.477	106392
404.555	199616
404.633	194931
404.711	73616
404.789	46699
404.868	16978
404.946	9628
405.024	5560
405.102	4667
405.180	4125
405.258	3840
405.336	4944
405.415	4849
405.493	13837
405.571	17705
405.649	5814
405.727	4114
405.805	8237
405.883	9521
405.961	10224
406.039	10809
406.117	5747
406.195	8959
406.273	37577
406.351	164932
406.429	110671
406.507	18814
406.585	5934
406.663	6715
406.740	8936
406.818	7864
406.896	5960
406.974	7077
407.052	12338
407.130	86725
407.208	144984
407.285	31726
407.363	5506
407.441	5826
407.519	5603
407.596	6646
407.674	17069
407.752	64759
407.830	68025
407.907	23114
407.985	11271
408.063	6186
408.141	3513
408.218	10130
408.296	12509
408.373	10409
408.451	7867
408.529	6413
408.606	3670
408.684	2992
408.762	3169
408.839	3190
408.917	3202
408.994	4003
409.072	4378
409.149	4611
409.227	6780
409.304	9671
409.382	7448
409.459	8717
409.537	11676
409.614	12744
409.692	10251
409.769	9978
409.846	12750
409.924	16838
410.001	15552
410.079	11409
410.156	8820
410.233	9091
410.311	8342
410.388	6422
410.465	7329
410.543	8747
410.620	5609
410.697	5425
410.775	6771
410.852	3448
410.929	6990
411.006	10406
411.083	6164
411.161	17520
411.238	18732
411.315	8901
411.392	4109
411.469	8403
411.547	11029
411.624	6066
411.701	5403
411.778	6248
411.855	12827
411.932	8820
412.009	4212
412.086	4213
412.163	4851
412.240	6590
412.317	9198
412.394	7785
412.471	3641
412.548	2772
412.625	3616
412.702	6150
412.779	11789
412.856	9415
412.933	2953
413.010	3612
413.087	6146
413.164	34296
413.241	55781
413.318	14522
413.395	8137
413.471	12592
413.548	6296
413.625	4340
413.702	5857
413.779	5347
413.855	2334
413.932	2039
414.009	2456
414.086	3073
414.162	3196
414.239	6251
414.316	30004
414.393	82394
414.469	33146
414.546	4802
414.623	2624
414.699	3114
414.776	5808
414.853	4024
414.929	3458
415.006	3811
415.082	5230
415.159	4218
415.236	3849
415.312	3666
415.389	7946
415.465	11468
415.542	6205
415.618	3483
415.695	8290
415.771	5328
415.848	3948
415.924	4426
416.000	3490
416.077	3279
416.153	1648
416.230	1455
416.306	2037
416.383	2015
416.459	2431
416.535	1759
416.612	2423
416.688	2656
416.764	2709
416.841	2373
416.917	2805
416.993	2969
417.069	4547
417.146	7008
417.222	12620
417.298	6790
417.374	3079
417.451	3696
417.527	5226
417.603	6221
417.679	4907
417.755	3122
417.831	2413
417.908	2412
417.984	2341
418.060	2224
418.136	8337
418.212	13179
418.288	5365
418.364	3958
418.440	2801
418.516	6393
418.592	9854
418.668	14387
418.744	23457
418.820	19740
418.896	5286
418.972	2440
419.048	3284
419.124	10923
419.200	8895
419.276	3081
419.352	1204
419.428	1935
419.504	2845
419.579	5576
419.655	3726
419.731	3444
419.807	14232
419.883	27451
419.959	20736
420.034	6708
420.110	10389
420.186	49085
420.262	42377
420.337	8885
420.413	5887
420.489	3661
420.565	4130
420.640	4062
420.716	5291
420.792	2794
420.867	4596
420.943	3984
421.019	8044
421.094	7753
421.170	4683
421.245	4637
421.321	5654
421.397	5842
421.472	12513
421.548	36268
421.623	28853
421.699	10197
421.774	9477
421.850	8732
421.925	13934
422.001	14771
422.076	13321
422.152	16369
422.227	24650
422.302	30968
422.378	43101
422.453	78989
422.529	180331
422.604	490484
422.679	796833
422.755	606276
422.830	243416
422.905	95082
422.981	51974
423.056	33878
423.131	23269
423.207	18285
423.282	16528
423.357	22197
423.432	17516
423.508	16830
423.583	28656
423.658	23677
423.733	10166
423.808	10290
423.883	10582
423.959	9824
424.034	7699
424.109	7286
424.184	5202
424.259	4634
424.334	4063
424.409	3436
424.484	3611
424.559	5004
424.634	3589
424.709	5319
424.784	7384
424.859	6062
424.934	6407
425.009	30205
425.084	57882
425.159	24237
425.234	5298
425.309	3470
425.384	10321
425.459	20365
425.534	7414
425.609	3881
425.683	3276
425.758	3195
425.833	4447
425.908	5052
425.983	16546
426.058	57285
426.132	29338
426.207	6418
426.282	9390
426.357	7505
426.431	3081
426.506	2872
426.581	4645
426.655	3002
426.730	3133
426.805	3301
426.879	4102
426.954	4159
427.029	8653
427.103	46810
427.178	138725
427.253	71113
427.327	9566
427.402	10656
427.476	24537
427.551	12791
427.625	5550
427.700	5599
427.774	3537
427.849	5407
427.923	3300
427.998	3478
428.072	4572
428.147	12147
428.221	45679
428.296	161182
428.370	99228
428.444	15441
428.519	13399
428.593	24025
428.667	19411
428.742	24519
428.816	24449
428.890	92771
428.965	167095
429.039	55988
429.113	27841
429.188	10750
429.262	4571
429.336	8855
429.410	26949
429.485	20636
429.559	20322
429.633	16048
429.707	6464
429.781	18828
429.855	100900
429.930	166835
430.004	80484
430.078	100723
430.152	93294
430.226	205730
430.300	240379
430.374	45481
430.448	13967
430.522	34019
430.596	92697
430.670	58652
430.744	150605
430.818	246114
430.892	55240
430.966	9727
431.040	5122
431.114	3116
431.188	2718
431.262	3850
431.336	3965
431.410	11777
431.484	29627
431.557	18390
431.631	4537
431.705	6536
431.779	26048
431.853	138339
431.927	111425
432.000	14604
432.074	4244
432.148	5785
432.222	4475
432.295	3064
432.369	2907
432.443	6718
432.516	46437
432.590	136569
432.664	57855
432.737	7699
432.811	2534
432.885	1885
432.958	2272
433.032	2114
433.106	1794
433.179	1052
433.253	1477
433.326	1372
433.400	1357
433.473	2219
433.547	882
433.620	2327
433.694	5932
433.767	6481
433.841	2418
433.914	1301
433.988	1591
434.061	2154
434.134	1542
434.208	683
434.281	1370
434.355	727
434.428	2090
434.501	893
434.575	1982
434.648	2095
434.721	822
434.795	1481
434.868	46
434.941	955
435.014	-86
435.088	1413
435.161	2923
435.234	5327
435.307	8250
435.381	3980
435.454	2702
435.527	4454
435.600	4473
435.673	4637
435.746	3698
435.819	3967
435.892	2877
435.966	2574
436.039	3100
436.112	2660
436.185	1514
436.258	1410
436.331	624
436.404	760
436.477	988
436.550	1580
436.623	662
436.696	1250
436.769	1955
436.842	1852
436.915	2332
436.987	3292
437.060	1460
437.133	927
437.206	1460
437.279	1026
437.352	1695
437.425	1375
437.498	2447
437.570	6861
437.643	6730
437.716	1384
437.789	1479
437.861	6349
437.934	21857
438.007	10963
438.080	2423
438.152	3685
438.225	7601
438.298	57311
438.370	188222
438.443	87075
438.516	22063
438.588	4652
438.661	1471
438.734	2360
438.806	3497
438.879	4247
438.951	5483
439.024	11472
439.096	3774
439.169	1839
439.241	682
439.314	1084
439.386	3467
439.459	7460
439.531	11720
439.604	4299
439.676	1327
439.749	1511
439.821	713
439.893	1483
439.966	1450
440.038	3661
440.110	4065
440.183	1969
440.255	1589
440.327	4632
440.400	22996
440.472	110319
440.544	80242
440.617	10896
440.689	7850
440.761	10315
440.833	17387
440.905	10955
440.978	3047
441.050	1239
441.122	1913
441.194	1747
441.266	1238
441.338	2014
441.411	4251
441.483	30993
441.555	53094
441.627	12543
441.699	7121
441.771	5672
441.843	1737
441.915	1888
441.987	1662
442.059	2083
442.131	3341
442.203	5823
442.275	7682
442.347	7450
442.419	11814
442.491	55704
442.563	148537
442.635	69027
442.706	30817
442.778	20749
442.850	5468
442.922	3774
442.994	4967
443.066	7398
443.137	6687
443.209	5373
443.281	10347
443.353	21637
443.425	75679
443.496	270108
443.568	266729
443.640	98055
443.711	20770
443.783	9334
443.855	6326
443.926	3498
443.998	4674
444.070	4981
444.141	4320
444.213	7346
444.285	7298
444.356	7631
444.428	6174
444.499	2846
444.571	1805
444.642	2339
444.714	3122
444.785	7077
444.857	9194
444.928	18963
445.000	10433
445.071	14502
445.143	16483
445.214	14105
445.285	21795
445.357	57788
445.428	174620
445.500	421325
445.571	254883
445.642	128784
445.714	49755
445.785	34539
445.856	11882
445.928	9610
445.999	8807
446.070	7467
446.141	6415
446.213	9500
446.284	6223
446.355	4633
446.426	2816
446.497	4502
446.569	6931
446.640	8143
446.711	6365
446.782	2701
446.853	4462
446.924	3644
446.995	3204
447.066	4211
447.138	6074
447.209	2807
447.280	261
447.351	829
447.422	1101
447.493	2964
447.564	3213
447.635	5494
447.706	2064
447.777	1396
447.847	277
447.918	823
447.989	3201
448.060	5132
448.131	12251
448.202	8898
448.273	6928
448.344	2605
448.414	2272
448.485	1206
448.556	800
448.627	702
448.698	1079
448.768	1134
448.839	1487
448.910	6306
448.981	4793
449.051	2238
449.122	1379
449.193	484
449.263	1609
449.334	1602
449.405	2098
449.475	8310
449.546	5252
449.616	7622
449.687	5627
449.758	2864
449.828	1435
449.899	1571
449.969	831
450.040	2011
450.110	3144
450.181	2909
450.251	2258
450.322	1489
450.392	1862
450.463	2248
450.533	1630
450.604	2426
450.674	908
450.744	2024
450.815	2064
450.885	2004
450.955	1581
451.026	1152
451.096	1401
451.166	1547
451.237	8388
451.307	17839
451.377	5730
451.447	1597
451.518	1400
451.588	1519
451.658	1582
451.728	3691
451.799	19880
451.869	18002
451.939	3078
452.009	1299
452.079	962
452.149	1851
452.219	4663
452.289	23337
452.360	13089
452.430	2505
452.500	2452
452.570	3975
452.640	6048
452.710	17615
452.780	25207
452.850	15901
452.920	14666
452.990	5674
453.060	3268
453.129	4546
453.199	5802
453.269	22754
453.339	43253
453.409	63799
453.479	72686
453.549	103224
453.619	106973
453.688	33984
453.758	5601
453.828	2134
453.898	2427
453.968	1937
454.037	1862
454.087	1326
454.107	1082
454.168	1314
454.177	1329
454.247	1701
454.249	1698
454.316	1133
454.330	1517
454.386	2846
454.411	6403
454.456	11396
454.492	13068
454.525	14399
454.574	6569
454.595	3256
454.655	2148
454.665	2063
454.734	3140
454.736	3349
454.804	8540
454.817	11646
454.873	21806
454.898	22320
454.943	21624
454.979	14047
455.013	7634
455.060	4650
455.082	4120
455.141	6673
455.152	6893
455.221	18473
455.222	18821
455.291	26672
455.303	24879
455.360	16865
455.384	23597
455.430	37482
455.465	31499
455.499	24811
455.546	24056
455.569	22116
455.627	11655
455.638	10071
455.707	2713
455.708	2730
455.777	1620
455.789	1784
455.846	2319
455.869	2261
455.916	2138
455.950	2196
455.985	2116
456.031	2518
456.054	2632
456.112	2182
456.124	2212
456.193	2304
456.193	2273
456.262	4351
456.274	4784
456.332	6331
456.355	6593
456.401	5456
456.436	4179
456.470	3068
456.516	1797
456.540	1446
456.597	1339
456.609	1301
456.678	1637
456.678	1624
456.747	1479
456.759	1480
456.817	1235
456.840	1186
456.886	1197
456.920	1353
456.955	1540
457.001	2021
457.024	2872
457.082	4933
457.093	5248
457.162	8565
457.163	8637
457.232	9121
457.243	8777
457.301	4248
457.324	2509
457.370	1707
457.405	1659
457.439	1520
457.485	1988
457.508	2285
457.566	2456
457.577	2478
457.646	3594
457.647	3618
457.715	4496
457.727	4733
457.784	6377
457.808	8499
457.853	12267
457.889	15741
457.922	17647
457.969	12654
457.991	11293
458.050	11561
458.060	11608
458.129	17170
458.130	17393
458.198	25117
458.211	23551
458.267	14993
458.292	11593
458.336	7509
458.372	6631
458.405	6791
458.453	8338
458.474	9683
458.533	15622
458.543	16334
458.611	32532
458.614	32805
458.680	31310
458.694	27226
458.749	13266
458.775	9987
458.818	6417
458.855	5740
458.887	5500
458.936	5047
458.955	4790
459.016	5173
459.024	5147
459.093	5045
459.097	5028
459.162	4934
459.177	5042
459.230	5145
459.257	5259
459.299	5502
459.338	5620
459.368	5828
459.418	6641
459.437	6506
459.499	4980
459.505	4901
459.574	4619
459.579	4591
459.643	4214
459.659	4168
459.711	4256
459.740	4589
459.780	5330
459.820	5695
459.849	5946
459.900	6905
459.917	6821
459.981	6480
459.986	6400
460.054	5026
460.061	4868
460.123	4721
460.141	4990
460.191	5668
460.222	5850
460.260	6023
460.302	6679
460.328	6762
460.382	5739
460.397	5593
460.462	5320
460.465	5385
460.534	7810
460.543	8121
460.602	18084
460.623	22161
460.671	32989
460.703	47695
460.739	54346
460.783	54765
460.808	49208
460.864	13570
460.876	9541
460.944	6676
460.945	6628
461.013	5840
461.024	5709
461.081	5387
461.104	5398
461.150	5301
461.184	5286
461.218	5402
461.264	5052
461.286	5107
461.345	5551
461.355	5606
461.423	6495
461.425	6506
461.491	7228
461.505	7490
461.559	14941
461.585	18387
461.628	32765
461.665	46423
461.696	53313
461.745	66587
461.764	56047
461.825	13440
461.832	12666
461.901	8010
461.905	7844
461.969	7250
461.985	7077
462.037	7053
462.065	7161
462.105	8877
462.145	10526
462.173	16111
462.225	26836
462.241	30638
462.305	47265
462.310	45790
462.378	21086
462.385	18013
462.446	9271
462.465	7171
462.514	7554
462.545	7734
462.582	7494
462.625	7394
462.650	7595
462.705	7889
462.718	8271
462.785	10611
462.786	10734
462.854	17414
462.865	18575
462.922	24418
462.945	26830
462.990	18277
463.025	10770
463.058	9415
463.104	7990
463.126	7797
463.184	7449
463.194	7598
463.262	8572
463.264	8612
463.330	9085
463.344	9110
463.398	10317
463.424	10923
463.466	11818
463.504	12731
463.533	12289
463.583	11366
463.601	11776
463.663	13088
463.669	13479
463.737	18058
463.743	18448
463.805	29663
463.823	32942
463.873	53731
463.903	66814
463.940	74179
463.982	82754
464.008	64282
464.062	22050
464.076	19879
464.142	9782
464.144	9754
464.211	9618
464.221	9642
464.279	9614
464.301	9457
464.347	10380
464.381	11308
464.414	14138
464.461	17650
464.482	18467
464.540	21237
464.550	20105
464.617	11175
464.620	10859
464.685	10743
464.699	10722
464.753	11422
464.779	11755
464.820	13251
464.859	14647
464.888	16276
464.938	18819
464.956	19376
465.018	21563
465.023	21035
465.091	13451
465.098	12656
465.158	12254
465.177	12122
465.226	12786
465.257	13200
465.293	13721
465.336	14279
465.361	14895
465.416	16159
465.428	18038
465.495	28351
465.496	28583
465.563	57699
465.575	62751
465.631	81896
465.654	90003
465.698	53828
465.734	22756
465.765	18748
465.813	13114
465.833	12886
465.893	12601
465.900	12726
465.968	13578
465.972	13616
466.035	12867
466.052	12648
466.102	12789
466.131	12805
466.170	12930
466.210	13074
466.237	13628
466.290	14588
466.304	14794
466.369	15575
466.372	15665
466.439	17530
466.449	17770
466.506	19050
466.528	19507
466.573	27983
466.607	34228
466.641	53162
466.687	79454
466.708	90718
466.766	121683
466.775	112070
466.842	37694
466.845	34089
466.909	22924
466.925	20317
466.977	19489
467.004	19041
467.044	19851
467.083	20595
467.111	20914
467.163	21398
467.178	21657
467.242	22532
467.245	22552
467.312	22101
467.321	22000
467.379	23974
467.400	24621
467.446	27661
467.480	29768
467.559	25812
467.638	20305
467.717	19780
467.796	21350
467.875	21175
467.955	23657
468.034	36331
468.113	92102
468.192	146748
468.271	38525
468.350	17477
468.429	19135
468.508	17990
468.588	17865
468.667	18941
468.746	18223
468.825	19485
468.904	17149
468.983	21806
469.062	39272
469.141	54985
469.220	19411
469.299	17175
469.378	18250
469.456	17256
469.535	17544
469.614	16334
469.693	19429
469.772	28553
469.851	47075
469.930	32583
470.009	14872
470.088	14337
470.166	13617
470.245	16093
470.324	16140
470.403	15274
470.482	15267
470.560	13490
470.639	14612
470.718	15659
470.797	16149
470.875	19942
470.954	31753
471.033	40031
471.111	14917
471.190	12701
471.269	13333
471.347	13540
471.426	15233
471.505	18449
471.583	18215
471.662	15082
471.740	14441
471.819	14652
471.898	14774
471.976	13571
472.055	14693
472.133	17095
472.212	28490
472.290	33436
472.369	19386
472.447	14418
472.526	12861
472.604	13830
472.683	13438
472.761	14560
472.839	13555
472.918	14972
472.996	15332
473.075	20077
473.153	19768
473.231	15208
473.310	18981
473.388	19281
473.466	16182
473.545	14737
473.623	15480
473.701	16462
473.780	14719
473.858	12535
473.936	15247
474.014	13513
474.093	16457
474.171	30574
474.249	50003
474.327	33602
474.405	12704
474.484	12803
474.562	11939
474.640	13756
474.718	15796
474.796	15424
474.874	14356
474.952	12222
475.030	13074
475.108	13461
475.187	16000
475.265	16584
475.343	20635
475.421	23830
475.499	16442
475.577	15879
475.655	23833
475.733	54234
475.811	109672
475.889	97303
475.966	68106
476.044	17369
476.122	20570
476.200	23922
476.278	22287
476.356	17908
476.434	19811
476.512	21687
476.590	26100
476.667	25190
476.745	17266
476.823	16289
476.901	18820
476.979	21070
477.056	19136
477.134	18526
477.212	17670
477.290	16484
477.367	16545
477.445	17196
477.523	17245
477.601	16112
477.678	17184
477.756	22951
477.834	29549
477.911	18242
477.989	17398
478.066	18068
478.144	21249
478.222	20120
478.299	24398
478.377	27209
478.454	16715
478.532	15093
478.609	14722
478.687	16186
478.764	14425
478.842	14746
478.919	15444
478.997	16044
479.074	15857
479.152	20904
479.229	31783
479.307	20295
479.384	13920
479.461	13844
479.539	17467
479.616	22446
479.694	18275
479.771	21067
479.848	22035
479.926	31298
480.003	36434
480.080	15486
480.157	15007
480.235	15575
480.312	15797
480.389	21395
480.467	38708
480.544	53734
480.621	24754
480.698	21595
480.775	24321
480.853	26862
480.930	20717
481.007	21012
481.084	26038
481.161	26857
481.238	27670
481.315	19390
481.392	18259
481.470	17434
481.547	18333
481.624	19203
481.701	19181
481.778	20211
481.855	23663
481.932	34709
482.009	62831
482.086	45988
482.163	19129
482.240	21273
482.317	29317
482.393	31143
482.470	20583
482.547	20370
482.624	17896
482.701	18645
482.778	18468
482.855	15626
482.932	15528
483.009	16032
483.085	17326
483.162	19226
483.239	19953
483.316	15688
483.393	16023
483.469	16866
483.546	21162
483.623	24842
483.699	18158
483.776	17479
483.853	20266
483.930	27930
484.006	76765
484.083	149406
484.160	51576
484.236	39623
484.313	36927
484.389	31382
484.466	27316
484.543	25630
484.619	26761
484.696	28144
484.772	34264
484.849	41542
484.925	27929
485.002	26248
485.078	29439
485.155	30937
485.231	26542
485.308	27181
485.384	28976
485.461	37481
485.537	77774
485.614	107992
485.690	32354
485.766	25308
485.843	25156
485.919	28296
485.995	30275
486.072	23762
486.148	24279
486.224	23211
486.301	25837
486.377	32216
486.453	31350
486.530	26993
486.606	29973
486.682	36766
486.758	59633
486.835	82576
486.911	50732
486.987	97682
487.063	71191
487.139	49483
487.215	43199
487.292	30082
487.368	24703
487.444	28332
487.520	31540
487.596	30236
487.672	31987
487.748	57402
487.824	90503
487.900	64374
487.976	33805
488.052	33923
488.128	37481
488.204	32914
488.280	29591
488.356	33342
488.432	84558
488.508	160247
488.584	43370
488.660	21721
488.736	22015
488.812	20479
488.888	24231
488.964	27581
489.039	42952
489.115	68227
489.191	56530
489.267	26917
489.343	27061
489.418	21550
489.494	19925
489.570	19355
489.646	21097
489.722	22300
489.797	24021
489.873	40373
489.949	112594
490.024	105373
490.100	23872
490.176	19994
490.251	22702
490.327	25093
490.403	21136
490.478	18011
490.554	16952
490.629	17362
490.705	17079
490.781	19090
490.856	21681
490.932	21623
491.007	20150
491.083	21890
491.158	22848
491.234	30728
491.309	83433
491.385	99045
491.460	26398
491.536	24950
491.611	19182
491.686	18926
491.762	20281
491.837	32234
491.913	59697
491.988	87413
492.063	92218
492.139	65565
492.214	43955
492.289	17270
492.365	14700
492.440	19364
492.515	24343
492.590	24442
492.666	18040
492.741	26789
492.816	54253
492.891	27740
492.967	15157
493.042	14327
493.117	14022
493.192	15053
493.267	18449
493.342	42464
493.418	68821
493.493	25580
493.568	14201
493.643	14258
493.718	21488
493.793	36852
493.868	30556
493.943	15970
494.018	15529
494.093	17423
494.168	17623
494.243	12006
494.318	12034
494.393	13838
494.468	12875
494.543	12356
494.618	13944
494.693	14458
494.768	16150
494.842	16422
494.917	11962
494.992	12688
495.067	12316
495.142	11221
495.217	12791
495.292	13737
495.366	16430
495.441	24213
495.516	31000
495.591	31104
495.665	59931
495.740	135425
495.815	101997
495.890	32267
495.964	26849
496.039	27397
496.114	26369
496.188	27408
496.263	28050
496.338	26749
496.412	32182
496.487	36394
496.561	29826
496.636	30660
496.710	29284
496.785	32935
496.860	42487
496.934	30825
497.009	28957
497.083	29492
497.158	30921
497.232	37974
497.307	46248
497.381	36923
497.455	46545
497.530	67736
497.604	45294
497.679	45278
497.753	70016
497.827	93001
497.902	72277
497.976	78582
498.050	138252
498.125	479422
498.199	574639
498.273	103688
498.348	71586
498.422	62567
498.496	58199
498.570	55155
498.645	49110
498.719	50471
498.793	57366
498.867	83729
498.941	102796
499.016	193872
499.090	565097
499.164	250638
499.238	38653
499.312	30821
499.386	32538
499.460	35433
499.534	33565
499.609	40418
499.683	67223
499.757	61779
499.831	91199
499.905	364390
499.979	420898
500.053	89048
500.127	77259
500.201	38365
500.275	32475
500.349	32062
500.422	35531
500.496	41323
500.570	64543
500.644	190878
500.718	445768
500.792	122112
500.866	35133
500.940	52068
501.013	41070
501.087	35344
501.161	47222
501.235	69840
501.309	163664
501.382	407288
501.456	398993
501.530	88921
501.603	175043
501.677	73787
501.751	29689
501.825	34171
501.898	60009
501.972	192399
502.046	138154
502.119	36170
502.193	72257
502.266	211127
502.340	113653
502.413	86333
502.487	208525
502.561	135858
502.634	36906
502.708	22479
502.781	21480
502.855	19276
502.928	18646
503.002	20330
503.075	18569
503.149	23297
503.222	23735
503.295	25414
503.369	31700
503.442	41374
503.516	123308
503.589	366678
503.662	260195
503.736	72795
503.809	172916
503.882	143981
503.956	172797
504.029	175034
504.102	54628
504.175	60273
504.249	41885
504.322	35990
504.395	32910
504.468	21344
504.542	24727
504.615	17172
504.688	15313
504.761	15881
504.834	20631
504.907	18085
504.980	22997
505.053	21871
505.127	17526
505.200	27472
505.273	39777
505.346	23875
505.419	17710
505.492	16920
505.565	14032
505.638	13988
505.711	15231
505.784	15066
505.857	13773
505.930	15732
506.003	14377
506.076	17679
506.149	24381
506.221	36502
506.294	25729
506.367	61050
506.440	225031
506.513	136462
506.586	37044
506.659	20958
506.731	15141
506.804	16953
506.877	22358
506.950	22683
507.022	14418
507.095	23895
507.168	30245
507.241	14998
507.313	10945
507.386	13000
507.459	15471
507.531	12069
507.604	11933
507.677	12284
507.749	10083
507.822	14039
507.894	18536
507.967	23535
508.040	17059
508.112	14155
508.185	15608
508.257	12711
508.330	17083
508.402	15595
508.475	16752
508.547	18534
508.620	18241
508.692	38321
508.765	20328
508.837	13458
508.909	13004
508.982	12821
509.054	13487
509.127	11388
509.199	11831
509.271	11777
509.344	11050
509.416	11866
509.488	11922
509.560	13390
509.633	11156
509.705	13375
509.777	15029
509.849	16338
509.922	15166
509.994	13361
510.066	12687
510.138	13039
510.210	19354
510.283	19427
510.355	18024
510.427	14911
510.499	13071
510.571	13809
510.643	13395
510.715	16944
510.787	16784
510.859	15852
510.931	19634
511.003	17855
511.076	19349
511.148	14428
511.219	15496
511.291	30645
511.363	44169
511.435	15762
511.507	11777
511.579	13176
511.651	13253
511.723	12761
511.795	12043
511.867	13300
511.939	18133
512.010	52707
512.082	42048
512.154	13923
512.226	13444
512.298	14521
512.369	20031
512.441	17859
512.513	16830
512.585	13823
512.656	14925
512.728	17578
512.800	13943
512.871	13992
512.943	14199
513.015	11696
513.086	11876
513.158	12889
513.230	13749
513.301	16342
513.373	18115
513.444	12707
513.516	11612
513.588	12074
513.659	11844
513.731	14202
513.802	12829
513.874	19257
513.945	31810
514.016	21187
514.088	13823
514.159	12466
514.231	15440
514.302	19968
514.374	17094
514.445	19617
514.516	53809
514.588	41681
514.659	21440
514.730	51354
514.802	32799
514.873	19968
514.944	24986
515.016	21296
515.087	20796
515.158	32023
515.229	55569
515.301	24918
515.372	32425
515.443	28925
515.514	20840
515.585	15024
515.656	14332
515.728	13346
515.799	11863
515.870	12635
515.941	12972
516.012	12321
516.083	13271
516.154	15129
516.225	17187
516.296	17113
516.367	15780
516.438	15184
516.509	18418
516.580	22659
516.651	49720
516.722	172707
516.793	158977
516.864	39622
516.935	38730
517.006	37366
517.077	44056
517.148	67835
517.219	163777
517.289	390084
517.360	299293
517.431	107751
517.502	28186
517.573	25542
517.643	24658
517.714	25021
517.785	25800
517.856	25190
517.926	29511
517.997	29861
518.068	32031
518.138	38465
518.209	44878
518.280	107663
518.350	433420
518.421	352892
518.492	53629
518.562	34331
518.633	36914
518.703	30633
518.774	39965
518.845	71110
518.915	83838
518.986	48032
519.056	38106
519.127	42373
519.197	70811
519.268	215423
519.338	171500
519.408	42146
519.479	28992
519.549	28807
519.620	22347
519.690	19810
519.760	20193
519.831	17804
519.901	20749
519.971	17390
520.042	21284
520.112	26857
520.182	22222
520.253	22840
520.323	20288
520.393	21424
520.463	30057
520.534	24263
520.604	44390
520.674	30197
520.744	28463
520.814	42863
520.885	47249
520.955	65101
521.025	267921
521.095	121909
521.165	25285
521.235	23178
521.305	20012
521.375	16495
521.445	17045
521.515	17949
521.585	20292
521.655	20512
521.725	19464
521.795	21392
521.865	17781
521.935	32760
522.005	32271
522.075	17773
522.145	19810
522.215	23624
522.285	35474
522.355	47971
522.424	99874
522.494	87048
522.564	29438
522.634	31870
522.704	69422
522.774	51597
522.843	20223
522.913	15988
522.983	17697
523.053	17135
523.122	16633
523.192	16689
523.262	33653
523.331	53012
523.401	19663
523.471	12488
523.540	15605
523.610	11900
523.680	13456
523.749	16125
523.819	21227
523.888	24065
523.958	14838
524.027	16098
524.097	20585
524.166	14988
524.236	15358
524.305	18625
524.375	16363
524.444	14270
524.514	16758
524.583	17616
524.653	24287
524.722	27468
524.791	17120
524.861	16659
524.930	14190
524.999	14491
525.069	20257
525.138	21561
525.207	29148
525.277	17808
525.346	16391
525.415	16141
525.484	15661
525.554	22755
525.623	21742
525.692	17032
525.761	18890
525.830	16876
525.900	18285
525.969	27548
526.038	33801
526.107	43605
526.176	121769
526.245	149750
526.314	62644
526.383	69162
526.452	113006
526.522	136925
526.591	240750
526.660	80285
526.729	41181
526.797	36619
526.867	51358
526.935	188383
527.004	376369
527.073	331952
527.142	53827
527.211	22779
527.280	18163
527.349	18048
527.418	13375
527.487	15242
527.555	11869
527.624	12248
527.693	11929
527.762	12341
527.831	11127
527.899	13227
527.968	12738
528.037	12223
528.106	13586
528.174	21649
528.243	25514
528.312	31635
528.380	38131
528.449	19126
528.518	13048
528.586	9706
528.655	11678
528.723	11180
528.792	11393
528.861	12893
528.929	13128
528.998	13349
529.066	11015
529.135	10397
529.203	11141
529.272	10516
529.340	11939
529.409	12904
529.477	12249
529.545	18462
529.614	21403
529.682	20767
529.751	28869
529.819	24137
529.887	18070
529.956	11800
530.024	13785
530.092	10891
530.161	11622
530.229	15244
530.297	13101
530.365	11929
530.434	9418
530.502	10144
530.570	11034
530.638	9459
530.707	11642
530.775	14215
530.843	10090
530.911	11363
530.979	10707
531.047	11177
531.115	12101
531.183	11560
531.252	12167
531.320	13470
531.388	11083
531.456	11577
531.524	9954
531.592	12227
531.660	13396
531.728	11161
531.796	12032
531.864	10575
531.932	12138
532.000	11777
532.067	12115
532.135	12641
532.203	13970
532.271	14511
532.339	17773
532.407	33335
532.475	33436
532.542	17899
532.610	16844
532.678	18241
532.746	43014
532.814	149337
532.881	69587
532.949	16536
533.017	13756
533.084	13194
533.152	12339
533.220	12315
533.287	11941
533.355	11959
533.423	12229
533.490	11251
533.558	12140
533.625	12973
533.693	14245
533.761	13426
533.828	14496
533.896	13207
533.963	17371
534.031	23682
534.098	28227
534.166	22733
534.233	13353
534.300	14427
534.368	15768
534.435	13378
534.503	13477
534.570	14195
534.637	13767
534.705	14551
534.772	16011
534.840	18604
534.907	50994
534.974	110708
535.041	32135
535.109	23168
535.176	13072
535.243	11914
535.310	11273
535.378	10834
535.445	11673
535.512	10480
535.579	11792
535.646	11680
535.714	12073
535.781	14046
535.848	14693
535.915	16179
535.982	15298
536.049	14933
536.116	15631
536.183	13934
536.250	14722
536.317	13937
536.384	15751
536.451	17949
536.518	17451
536.585	14492
536.652	19176
536.719	19789
536.786	18147
536.853	16076
536.920	21155
536.987	29917
537.053	24514
537.120	60027
537.187	91811
537.254	17840
537.321	13625
537.388	12872
537.454	12024
537.521	11690
537.588	11320
537.654	13508
537.721	14263
537.788	14810
537.855	11407
537.921	12859
537.988	12008
538.055	12891
538.121	12867
538.188	12868
538.254	14815
538.321	23538
538.388	20644
538.454	13900
538.521	12472
538.587	12406
538.654	11678
538.720	11606
538.787	11382
538.853	12569
538.920	16842
538.986	18907
539.053	15280
539.119	14496
539.185	12775
539.252	14006
539.318	17343
539.385	17604
539.451	14698
539.517	15554
539.583	15124
539.650	24910
539.716	64866
539.782	33251
539.849	14046
539.915	13875
539.981	13448
540.047	13300
540.114	14892
540.180	15314
540.246	13490
540.312	15717
540.378	23836
540.444	27499
540.510	24115
540.576	61722
540.643	40058
540.709	14306
540.775	13653
540.841	14437
540.907	19942
540.973	29721
541.039	18974
541.105	19244
541.171	13994
541.237	13073
541.303	14154
541.369	15721
541.435	15373
541.500	21568
541.566	18701
541.632	13302
541.698	12032
541.764	12765
541.830	12676
541.896	12529
541.961	13630
542.027	13164
542.093	12373
542.159	12467
542.224	13171
542.290	17519
542.356	22678
542.421	28108
542.487	18243
542.553	15296
542.618	17541
542.684	13829
542.750	13424
542.815	15605
542.881	21534
542.947	51546
543.012	59960
543.078	15657
543.143	12704
543.209	14830
543.274	12806
543.340	14733
543.405	20299
543.471	40116
543.536	18922
543.602	13587
543.667	13137
543.732	13006
543.798	12271
543.863	13187
543.928	12426
543.994	11152
544.059	12507
544.124	11820
544.190	11422
544.255	13252
544.320	13125
544.386	11150
544.451	15453
544.516	16651
544.581	15522
544.646	31066
544.712	67281
544.777	27043
544.842	20641
544.907	23680
544.972	19951
545.037	19058
545.102	21175
545.168	20782
545.233	21400
545.298	20968
545.363	24464
545.428	22691
545.493	28020
545.558	50458
545.623	40652
545.688	22609
545.753	20207
545.818	20542
545.883	20467
545.947	19542
546.012	23358
546.077	24245
546.142	20794
546.207	18885
546.272	21873
546.337	23213
546.401	21508
546.466	20595
546.531	19843
546.596	21217
546.661	20084
546.725	20869
546.790	19770
546.855	20909
546.919	19504
546.984	22296
547.049	23637
547.113	29447
547.178	25305
547.243	26852
547.307	28790
547.372	32413
547.436	40356
547.501	28556
547.565	28598
547.630	29439
547.695	32044
547.759	41365
547.823	34553
547.888	26912
547.952	27498
548.017	28011
548.081	32913
548.146	47468
548.210	40851
548.274	28693
548.339	27965
548.403	26340
548.468	25878
548.532	26015
548.596	26175
548.660	26949
548.725	28411
548.789	34960
548.853	37158
548.917	29780
548.982	40651
549.046	43107
549.110	26548
549.174	25837
549.238	24910
549.303	25662
549.367	27979
549.431	26674
549.495	27367
549.559	27006
549.623	27504
549.687	32188
549.751	37875
549.815	37011
549.879	36335
549.943	32392
550.007	36511
550.071	36607
550.135	36768
550.199	34851
550.263	33287
550.327	34491
550.391	46527
550.455	35997
550.519	34072
550.582	35244
550.646	39531
550.710	46306
550.774	38870
550.838	38716
550.901	40727
550.965	43073
551.029	44292
551.093	50381
551.156	60309
551.220	101973
551.284	116513
551.347	64141
551.411	111888
551.475	129888
551.538	46284
551.602	38494
551.666	35698
551.729	34395
551.793	34556
551.856	33124
551.920	32431
551.983	32803
552.047	32102
552.110	31186
552.174	32178
552.237	31659
552.301	30681
552.364	29485
552.428	30310
552.491	29692
552.554	31164
552.618	31233
552.681	32702
552.745	30944
552.808	34445
552.871	41917
552.934	36515
552.998	33700
553.061	34514
553.124	32223
553.187	29886
553.251	33154
553.314	33722
553.377	33215
553.440	37040
553.503	57839
553.567	116627
553.630	52507
553.693	32533
553.756	31785
553.819	29037
553.882	29059
553.945	30157
554.008	28825
554.071	27636
554.134	28150
554.197	27422
554.260	24901
554.323	28241
554.386	28281
554.449	28649
554.512	29666
554.575	27454
554.638	29342
554.701	27793
554.764	27231
554.827	27970
554.889	26115
554.952	24554
555.015	24215
555.078	24724
555.141	25734
555.203	24110
555.266	25320
555.329	26090
555.391	23928
555.454	24401
555.517	25449
555.580	23357
555.642	22123
555.705	22911
555.768	22953
555.830	23492
555.893	22275
555.955	22101
556.018	22061
556.080	21807
556.143	22219
556.206	21220
556.268	23264
556.330	23369
556.393	22287
556.455	23561
556.518	33244
556.580	35489
556.643	20914
556.705	20874
556.767	20250
556.830	22307
556.892	20563
556.955	25625
557.017	24338
557.079	21842
557.142	19494
557.204	20757
557.266	29344
557.328	33578
557.391	20163
557.453	18762
557.515	19830
557.577	21905
557.639	23181
557.701	19620
557.764	18851
557.826	20461
557.888	24159
557.950	22504
558.012	22335
558.074	26460
558.136	41979
558.198	114241
558.260	78581
558.322	27567
558.384	26471
558.446	29601
558.508	31775
558.570	39163
558.632	46686
558.694	67754
558.756	70336
558.818	159726
558.880	573264
558.942	322692
559.003	129153
559.065	100888
559.127	37446
559.189	34220
559.251	36389
559.312	41961
559.374	81174
559.436	308641
559.498	291291
559.559	51640
559.621	35861
559.683	37614
559.744	55130
559.806	133072
559.868	297550
559.929	102764
559.991	41961
560.052	46565
560.114	103479
560.176	109402
560.237	59196
560.299	124068
560.360	55951
560.422	26216
560.483	24552
560.545	22383
560.606	22341
560.667	22019
560.729	21300
560.790	19482
560.852	20742
560.913	21256
560.974	19536
561.036	19163
561.097	20016
561.158	19975
561.220	20452
561.281	18906
561.342	20427
561.403	22451
561.465	22577
561.526	34161
561.587	53111
561.648	27883
561.709	20735
561.771	19552
561.832	19586
561.893	19418
561.954	18885
562.015	18963
562.076	18483
562.137	19829
562.198	19179
562.259	18140
562.320	18188
562.381	18639
562.442	22314
562.503	23177
562.564	19581
562.625	19150
562.686	19012
562.747	20135
562.808	20533
562.869	21370
562.930	27468
562.991	25784
563.051	23654
563.112	21973
563.173	20917
563.234	19329
563.294	19777
563.355	18617
563.416	19421
563.477	19932
563.537	20546
563.598	21225
563.659	21109
563.720	20496
563.780	19820
563.841	20637
563.901	21260
563.962	21592
564.023	21029
564.083	21084
564.144	21501
564.204	21730
564.265	21385
564.325	24619
564.386	45894
564.446	45159
564.507	21477
564.567	20007
564.628	19788
564.688	19572
564.749	20382
564.809	23431
564.869	28589
564.930	20582
564.990	19599
565.050	18752
565.111	20105
565.171	19126
565.231	18918
565.292	18450
565.352	18546
565.412	19374
565.472	20203
565.532	20423
565.593	20509
565.653	19484
565.713	20174
565.773	20752
565.833	22492
565.893	26415
565.953	22517
566.013	21587
566.074	22367
566.134	30405
566.194	45921
566.254	45168
566.314	31864
566.374	26455
566.434	25923
566.494	27263
566.554	26458
566.614	27949
566.673	27910
566.733	30494
566.793	32293
566.853	33369
566.913	32871
566.973	34485
567.033	34453
567.092	33671
567.152	32676
567.212	35209
567.272	35503
567.331	39311
567.391	38502
567.451	39544
567.511	49424
567.570	51033
567.630	36621
567.690	34906
567.749	34735
567.809	36525
567.868	40537
567.928	46180
567.988	53245
568.047	58038
568.107	68866
568.166	87647
568.226	124079
568.285	174692
568.345	182014
568.404	161438
568.464	141905
568.523	129488
568.582	125752
568.642	131501
568.701	150265
568.761	196459
568.820	281057
568.879	327665
568.939	290307
568.998	229568
569.057	180996
569.116	147582
569.176	120051
569.235	99949
569.294	85170
569.353	73093
569.413	65012
569.472	61240
569.531	51953
569.590	46770
569.649	42561
569.708	39283
569.767	37325
569.827	38038
569.886	35464
569.945	30348
570.004	30337
570.063	27983
570.122	27262
570.181	28132
570.240	30136
570.299	28309
570.358	28633
570.417	25047
570.475	22031
570.534	22663
570.593	21068
570.652	21652
570.711	22629
570.770	21386
570.829	24270
570.887	21216
570.946	21263
571.005	19332
571.064	18059
571.122	20327
571.181	23285
571.240	18843
571.299	18533
571.357	20465
571.416	20468
571.475	23019
571.533	23711
571.592	18471
571.650	20311
571.709	17483
571.768	17400
571.826	16652
571.885	15807
571.943	16027
572.002	17418
572.060	17236
572.119	15664
572.177	15363
572.236	15035
572.294	15532
572.352	14587
572.411	14700
572.469	14839
572.528	14688
572.586	15082
572.644	16684
572.703	19369
572.761	17846
572.819	15888
572.877	14825
572.936	13590
572.994	13936
573.052	14129
573.110	14781
573.169	14142
573.227	13861
573.285	13708
573.343	13857
573.401	14163
573.459	14155
573.517	13517
573.576	13652
573.634	13654
573.692	14089
573.750	13647
573.808	14553
573.866	15108
573.924	19835
573.982	19705
574.040	15010
574.098	14550
574.155	12222
574.213	12326
574.271	13184
574.329	12912
574.387	13469
574.445	11902
574.503	12630
574.560	11955
574.618	11373
574.676	11854
574.734	12299
574.792	11896
574.849	12183
574.907	11007
574.965	11736
575.022	11717
575.080	11097
575.138	12119
575.195	12762
575.253	12212
575.311	12672
575.368	11753
575.426	11275
575.483	12362
575.541	12028
575.598	12484
575.656	12877
575.713	12402
575.771	11578
575.828	11668
575.886	13217
575.943	13580
576.001	13200
576.058	13379
576.115	13969
576.173	16726
576.230	19238
576.287	17898
576.345	15086
576.402	14783
576.459	14091
576.517	14805
576.574	17233
576.631	17019
576.688	15449
576.746	14112
576.803	13957
576.860	13017
576.917	13173
576.974	13510
577.031	13256
577.089	13303
577.146	14389
577.203	14156
577.260	14446
577.317	15160
577.374	17959
577.431	17122
577.488	14167
577.545	13513
577.602	13048
577.659	13653
577.716	13581
577.773	12613
577.830	12874
577.886	13556
577.943	13100
578.000	13283
578.057	13876
578.114	14012
578.171	13819
578.227	16409
578.284	17421
578.341	16632
578.398	15509
578.454	15450
578.511	17125
578.568	20871
578.625	17135
578.681	13992
578.738	11811
578.794	13142
578.851	13146
578.908	13038
578.964	13332
579.021	13367
579.077	12947
579.134	12419
579.190	12901
579.247	12235
579.303	12216
579.360	11584
579.416	11762
579.473	11857
579.529	12159
579.586	11693
579.642	12610
579.698	12971
579.755	14033
579.811	13002
579.867	12623
579.924	11343
579.980	13686
580.036	14447
580.093	15746
580.149	18283
580.205	22238
580.261	20547
580.317	18245
580.374	17833
580.430	20632
580.486	18260
580.542	15859
580.598	13819
580.619	13644
580.654	13347
580.692	13480
580.710	13563
580.765	12927
580.767	12914
580.823	13909
580.838	13753
580.879	13384
580.911	13226
580.935	13124
580.984	12424
580.991	12329
581.047	13651
581.057	13869
581.103	14881
581.130	15396
581.159	15947
581.203	16372
581.215	16484
581.270	16288
581.276	16260
581.326	16098
581.349	15773
581.382	15308
581.422	15303
581.438	15274
581.494	16416
581.494	16402
581.550	15323
581.567	15223
581.606	15023
581.640	15642
581.661	16025
581.713	16270
581.717	16291
581.773	15529
581.786	15593
581.829	15800
581.859	15878
581.885	15995
581.932	15645
581.940	15562
581.996	15348
582.004	15295
582.052	15010
582.077	15081
582.107	15210
582.150	15046
582.163	14988
582.219	15914
582.223	15899
582.274	15643
582.296	15963
582.330	16562
582.368	16817
582.386	16911
582.441	15753
582.441	15750
582.497	15448
582.514	15738
582.552	16530
582.587	17009
582.608	17253
582.659	16423
582.663	16346
582.719	16950
582.732	16938
582.774	16991
582.805	17111
582.830	17278
582.877	17704
582.885	17746
582.941	17212
582.950	17284
582.996	17715
583.023	18282
583.052	18956
583.095	19383
583.107	19608
583.162	21475
583.168	21625
583.218	22260
583.240	21820
583.273	21033
583.313	19742
583.328	19288
583.384	19582
583.385	19561
583.439	19202
583.458	18975
583.494	18389
583.531	18349
583.549	18438
583.603	17982
583.605	17965
583.660	18926
583.676	18908
583.715	18951
583.748	19630
583.770	20096
583.820	20718
583.825	20775
583.881	19608
583.893	19743
583.936	20172
583.965	19917
583.991	19701
584.038	19635
584.046	19631
584.101	20651
584.110	20617
584.156	20587
584.183	20805
584.211	20870
584.255	20751
584.266	20818
584.321	20322
584.328	20499
584.376	21860
584.400	22101
584.431	22419
584.472	22084
584.486	21933
584.541	21992
584.545	21981
584.596	22200
584.617	22711
584.651	23912
584.689	24246
584.706	24190
584.761	24582
584.762	24569
584.816	24462
584.834	24642
584.871	25227
584.906	25992
584.926	26338
584.978	26037
584.980	26060
585.035	27702
585.051	28069
585.090	29037
585.123	29606
585.145	30026
585.195	30711
585.200	30830
585.254	32217
585.267	32790
585.309	35041
585.340	36710
585.364	37777
585.412	39203
585.419	39450
585.473	41549
585.484	41799
585.528	45323
585.556	49380
585.583	57920
585.628	76365
585.637	85727
585.692	155345
585.700	169813
585.747	237362
585.772	238787
585.801	181056
585.845	85226
585.856	73657
585.910	47995
585.917	45539
585.965	42541
585.989	41481
586.019	40899
586.061	40350
586.074	40337
586.128	40157
586.133	40117
586.183	41076
586.205	42218
586.237	43937
586.277	44808
586.292	44967
586.346	45134
586.349	45104
586.401	45601
586.421	45855
586.455	47101
586.493	48993
586.509	51206
586.564	60632
586.565	60942
586.618	83049
586.637	86219
586.672	78690
586.709	65459
586.727	60563
586.781	55881
586.781	55943
586.835	54507
586.853	54223
586.889	55102
586.925	55896
586.944	56431
586.996	57670
586.998	57803
587.052	60727
587.068	61288
587.106	62452
587.140	63672
587.161	64739
587.212	67233
587.215	67464
587.269	70640
587.284	71256
587.323	72667
587.356	74166
587.377	75883
587.427	79253
587.431	79586
587.485	83650
587.499	84516
587.539	88399
587.571	91450
587.593	93645
587.643	98667
587.648	99371
587.702	105214
587.715	106793
587.755	113620
587.786	118520
587.810	122097
587.858	128999
587.864	130237
587.917	141156
587.930	143889
587.971	155636
588.001	164186
588.025	172000
588.073	186705
588.079	189276
588.133	211440
588.145	216454
588.187	237973
588.217	253267
588.241	269144
588.288	301211
588.295	306768
588.348	352987
588.360	362735
588.402	408878
588.431	442631
588.456	479849
588.503	553544
588.510	567464
588.564	679858
588.575	704258
588.617	837173
588.646	933279
588.671	1058537
588.718	1310413
588.725	1371068
588.778	1851991
588.789	1951680
588.832	2451018
588.861	2776302
588.886	2871998
588.932	2918952
588.939	2874115
588.993	2375227
589.004	2322858
589.047	2771980
589.075	3033659
589.100	2872775
589.147	2402627
589.154	2332682
589.207	1758314
589.218	1645370
589.261	1474928
589.290	1373367
589.314	1394253
589.361	1454153
589.368	1497850
589.421	1870368
589.433	1952929
589.475	2419686
589.504	2727954
589.528	2751001
589.576	2644360
589.582	2643710
589.635	2697012
589.647	2695063
589.689	2317096
589.718	1976444
589.742	1677658
589.790	1094192
589.795	1062960
589.849	783515
589.861	721486
589.902	614161
589.932	535545
589.955	491427
590.004	399360
590.009	394223
590.062	336234
590.075	321921
590.115	292230
590.146	269571
590.168	258800
590.218	233682
590.222	232495
590.275	212119
590.289	206609
590.328	195256
590.360	185265
590.381	180065
590.431	166945
590.435	166679
590.488	156384
590.503	153402
590.541	148046
590.574	142660
590.594	140061
590.645	132307
590.647	132349
590.700	125696
590.716	123402
590.753	120829
590.787	117930
590.806	116116
590.859	110389
590.859	110613
590.912	107457
590.930	106236
590.965	104606
591.001	102606
591.018	101687
591.071	97692
591.072	97398
591.124	95797
591.143	94913
591.177	94253
591.214	93101
591.230	93022
591.283	91796
591.285	91490
591.336	90356
591.356	89631
591.389	87928
591.427	85273
591.442	84994
591.495	83054
591.498	82679
591.547	81729
591.569	80972
591.600	80130
591.640	78444
591.653	78617
591.706	78450
591.711	78196
591.759	79665
591.782	80192
591.811	81808
591.853	83375
591.864	82544
591.917	76983
591.924	75954
591.969	74773
591.995	73759
592.022	74666
592.066	75572
592.075	76074
592.127	77736
592.137	77846
592.180	82994
592.208	85788
592.233	82548
592.279	75526
592.285	75537
592.338	73764
592.350	73124
592.390	71235
592.421	69423
592.443	69413
592.491	68648
592.495	68970
592.548	70312
592.562	70451
592.600	69550
592.633	68347
592.653	68147
592.704	66683
592.705	67073
592.775	67311
592.846	67589
592.916	66556
592.987	68932
593.058	67222
593.128	64893
593.199	64480
593.270	62808
593.341	63828
593.411	63030
593.482	62253
593.553	62232
593.623	62235
593.694	62479
593.764	65665
593.835	62720
593.906	60721
593.976	61199
594.047	62300
594.117	68698
594.188	72267
594.258	61515
594.329	59417
594.399	60351
594.470	60809
594.540	60057
594.611	61640
594.681	59617
594.751	61765
594.822	64352
594.892	65954
594.963	66998
595.033	66132
595.103	66846
595.174	69742
595.244	80660
595.314	99226
595.384	70961
595.455	66561
595.525	68166
595.595	68257
595.665	68873
595.736	68101
595.806	68975
595.876	68228
595.946	67426
596.016	67195
596.087	69806
596.157	69472
596.227	68634
596.297	71933
596.367	75472
596.437	79714
596.507	88663
596.577	102601
596.647	79916
596.717	76413
596.787	76636
596.857	77313
596.927	78145
596.997	77266
597.067	77142
597.137	81745
597.207	81194
597.277	80188
597.347	78746
597.417	77722
597.487	76511
597.557	78355
597.626	79630
597.696	82361
597.766	87845
597.836	99568
597.906	81824
597.975	72999
598.045	73450
598.115	74004
598.185	76584
598.254	82777
598.324	87445
598.394	87198
598.464	87404
598.533	85909
598.603	80889
598.672	80525
598.742	81110
598.812	80777
598.881	81491
598.951	80701
599.020	79747
599.090	81092
599.159	84172
599.229	79939
599.299	78608
599.368	79937
599.437	79469
599.507	76741
599.576	76526
599.646	75555
599.715	76917
599.785	74846
599.854	75395
599.924	77853
599.993	76865
600.062	73645
600.132	74401
600.201	77740
600.270	84783
600.340	88519
600.409	84000
600.478	84860
600.547	85368
600.617	85334
600.686	74527
600.755	70043
600.824	67812
600.894	67234
600.963	66510
601.032	65802
601.101	66209
601.170	63411
601.239	62976
601.308	66151
601.378	66550
601.447	63869
601.516	62739
601.585	65721
601.654	70174
601.723	66640
601.792	65098
601.861	67131
601.930	70092
601.999	74206
602.068	68371
602.137	74605
602.206	74995
602.275	71018
602.343	73230
602.412	74064
602.481	70537
602.550	70121
602.619	70207
602.688	72498
602.756	73436
602.825	72167
602.894	74015
602.963	75072
603.032	74810
603.100	75084
603.169	73537
603.238	75502
603.307	73973
603.375	73196
603.444	76054
603.513	75705
603.581	76318
603.650	77842
603.719	73923
603.787	75226
603.856	75247
603.924	77524
603.993	79187
604.061	79500
604.130	82393
604.198	84092
604.267	85633
604.335	85345
604.404	84727
604.472	86541
604.541	87433
604.609	87382
604.678	87181
604.746	88573
604.815	91169
604.883	93092
604.951	91034
605.020	91825
605.088	92048
605.156	94109
605.225	94424
605.293	93449
605.361	93675
605.429	94964
605.498	95459
605.566	97180
605.634	101075
605.702	104038
605.771	107799
605.839	108027
605.907	103783
605.975	101955
606.043	101210
606.111	98914
606.180	99888
606.248	98541
606.316	100853
606.384	99870
606.452	104075
606.520	102167
606.588	99894
606.656	96806
606.724	96247
606.792	92278
606.860	83988
606.928	78577
606.996	75566
607.064	73634
607.132	75063
607.200	78598
607.267	81199
607.335	80979
607.403	84491
607.471	83019
607.539	80895
607.607	80392
607.674	71687
607.742	73442
607.810	73865
607.878	72055
607.946	72644
608.013	75295
608.081	76960
608.149	78120
608.216	77336
608.284	81819
608.352	80590
608.419	81467
608.487	90910
608.555	84743
608.622	79046
608.690	82481
608.757	88677
608.825	92615
608.893	91471
608.960	91553
609.028	94164
609.095	97562
609.163	87834
609.230	78354
609.298	72345
609.365	71791
609.432	76790
609.500	82793
609.567	91833
609.635	103235
609.702	109517
609.769	107982
609.837	92718
609.904	77932
609.971	79441
610.039	87796
610.106	110983
610.173	202666
610.241	471132
610.308	381610
610.375	140342
610.442	90425
610.509	78595
610.577	77516
610.644	79485
610.711	80045
610.778	83185
610.845	83630
610.912	89134
610.980	92497
611.047	97746
611.114	95166
611.181	88234
611.248	86618
611.315	91805
611.382	90732
611.449	95319
611.516	96249
611.583	95649
611.650	96260
611.717	98004
611.784	99638
611.851	106018
611.918	117008
611.984	135205
612.051	192587
612.118	386556
612.185	977897
612.252	839601
612.319	190068
612.386	131237
612.452	119279
612.519	114334
612.586	121095
612.653	117883
612.719	113365
612.786	108415
612.853	100695
612.919	97553
612.986	98387
613.053	95029
613.120	89928
613.186	85635
613.253	88894
613.319	86234
613.386	86895
613.453	88847
613.519	91670
613.586	94412
613.652	105049
613.719	96868
613.785	97027
613.852	91192
613.918	89369
613.985	90370
614.051	98587
614.118	114582
614.184	120922
614.250	88874
614.317	89195
614.383	88028
614.449	89221
614.516	88896
614.582	91648
614.648	89076
614.715	88414
614.781	86946
614.847	88661
614.914	91117
614.980	88179
615.046	86781
615.112	87453
615.179	88858
615.245	95650
615.311	105349
615.377	133838
615.443	155857
615.509	115996
615.575	103813
615.642	99219
615.708	101637
615.774	109244
615.840	122934
615.906	143528
615.972	190359
616.038	327541
616.104	594479
616.170	1219713
616.236	1358384
616.302	313428
616.368	184209
616.434	139806
616.500	126118
616.565	130317
616.631	157659
616.697	140400
616.763	134842
616.829	181329
616.895	314241
616.961	345508
617.026	170341
617.092	110211
617.158	102195
617.224	98994
617.289	94061
617.355	90170
617.421	91393
617.487	90950
617.552	86213
617.618	83061
617.684	82481
617.749	85752
617.815	82168
617.880	79139
617.946	79654
618.012	80415
618.077	82251
618.143	79327
618.208	80641
618.274	83003
618.339	88301
618.405	77183
618.470	75710
618.536	77341
618.601	80329
618.667	80240
618.732	72992
618.798	69786
618.863	69589
618.928	70352
618.994	71875
619.059	74243
619.124	82583
619.190	76696
619.255	71263
619.320	70727
619.386	70156
619.451	69556
619.516	68168
619.581	67800
619.647	71302
619.712	70823
619.777	68800
619.842	68851
619.907	70807
619.972	70483
620.038	71158
620.103	69513
620.168	68277
620.233	68650
620.298	67827
620.363	69631
620.428	69003
620.493	71915
620.558	70377
620.623	70942
620.688	70982
620.753	70045
620.818	71260
620.883	72378
620.948	71737
621.013	71877
621.078	71994
621.143	72014
621.207	75148
621.272	74140
621.337	75330
621.402	77942
621.467	88655
621.532	93999
621.596	82106
621.661	78453
621.726	74440
621.791	76435
621.855	76563
621.920	77975
621.985	78142
622.049	84388
622.114	81631
622.179	79973
622.243	84948
622.308	85189
622.373	86870
622.437	87266
622.502	80496
622.566	79780
622.631	82699
622.695	81703
622.760	82318
622.824	81289
622.889	79521
622.953	82844
623.018	93614
623.082	96929
623.147	83383
623.211	80234
623.276	81450
623.340	78374
623.404	75195
623.469	74944
623.533	76830
623.597	75768
623.662	75816
623.726	72465
623.790	69507
623.854	69511
623.919	71445
623.983	69003
624.047	71045
624.111	69542
624.176	71016
624.240	73971
624.304	78358
624.368	71535
624.432	70421
624.496	72645
624.560	74229
624.625	77307
624.689	73153
624.753	72764
624.817	73623
624.881	70827
624.945	66604
625.009	65784
625.073	64904
625.137	69046
625.201	74021
625.265	75188
625.329	67048
625.393	69807
625.456	67266
625.520	68930
625.584	74007
625.648	79713
625.712	98080
625.776	171988
625.839	206796
625.903	114468
625.967	67326
626.031	85015
626.095	132424
626.158	80584
626.222	58082
626.286	54179
626.349	52140
626.413	51672
626.477	53887
626.540	50617
626.604	50849
626.668	50385
626.731	49332
626.795	52067
626.858	53226
626.922	50477
626.986	49440
627.049	48170
627.113	49642
627.176	48178
627.240	46171
627.303	47509
627.366	48224
627.430	48286
627.493	47814
627.557	50951
627.620	49555
627.684	49514
627.747	50188
627.810	48457
627.874	45858
627.937	44144
628.000	47161
628.064	46283
628.127	40253
628.190	42175
628.253	42525
628.317	40916
628.380	39573
628.443	39041
628.506	41017
628.569	38607
628.632	36843
628.696	37274
628.759	37478
628.822	35776
628.885	35077
628.948	35036
629.011	35115
629.074	35283
629.137	33761
629.200	33955
629.263	38036
629.326	33619
629.389	32820
629.452	33874
629.515	35635
629.578	33097
629.641	34904
629.704	35046
629.767	35354
629.830	32249
629.892	32657
629.955	32289
630.018	34028
630.081	32594
630.144	36301
630.207	33692
630.269	34251
630.332	34961
630.395	33809
630.458	30347
630.520	30679
630.583	31589
630.646	28953
630.708	30269
630.771	29833
630.834	30303
630.896	29928
630.959	28798
631.021	28800
631.084	30504
631.146	31573
631.209	34444
631.272	29327
631.334	30282
631.397	29275
631.459	28356
631.522	29940
631.584	30547
631.646	31587
631.709	31583
631.771	35735
631.834	34189
631.896	29668
631.958	27865
632.021	28766
632.083	27855
632.145	29012
632.208	26693
632.270	28617
632.332	27184
632.395	26417
632.457	28189
632.519	27893
632.581	26999
632.643	26989
632.706	28376
632.768	25933
632.830	26290
632.892	25532
632.954	27613
633.016	28203
633.078	25844
633.141	25862
633.203	26213
633.265	26257
633.327	25893
633.389	24991
633.451	27780
633.513	30095
633.575	31136
633.637	28368
633.698	27817
633.760	26452
633.822	27201
633.884	27411
633.946	26573
634.008	27394
634.070	26792
634.132	29230
634.193	30592
634.255	30540
634.317	30525
634.379	31201
634.441	28821
634.502	28777
634.564	26537
634.626	25795
634.687	24822
634.749	24566
634.811	24816
634.873	22146
634.934	23998
634.996	24750
635.057	23819
635.119	23662
635.181	25228
635.242	25378
635.304	22264
635.365	25371
635.427	24484
635.488	24237
635.550	23921
635.611	25206
635.673	23398
635.734	28215
635.796	26778
635.857	29194
635.918	27241
635.980	30220
636.041	30142
636.102	31787
636.164	31544
636.225	29730
636.286	28139
636.348	26954
636.409	24846
636.470	22768
636.531	23729
636.593	26155
636.654	26639
636.715	22009
636.776	22355
636.838	19377
636.899	21589
636.960	21618
637.021	20050
637.082	20328
637.143	21193
637.204	19560
637.265	20121
637.326	20298
637.387	19919
637.448	18784
637.509	20277
637.570	19484
637.631	20459
637.692	20028
637.753	18523
637.814	19329
637.875	17946
637.936	20095
637.997	19202
638.058	19320
638.119	20011
638.179	19100
638.240	18835
638.301	19009
638.362	18392
638.423	19431
638.483	19638
638.544	17466
638.605	19298
638.666	18109
638.726	19288
638.787	18605
638.848	18182
638.908	18255
638.969	17838
639.030	18169
639.090	16592
639.151	16966
639.211	18811
639.272	20120
639.332	27012
639.393	22576
639.453	18601
639.514	18968
639.574	18338
639.635	17462
639.695	17785
639.756	16988
639.816	17538
639.877	18434
639.937	23096
639.997	29227
640.058	18813
640.118	17139
640.178	15710
640.239	15309
640.299	16108
640.359	15329
640.420	16832
640.480	17034
640.540	17857
640.600	18414
640.661	18961
640.721	18031
640.781	22086
640.841	20276
640.901	17755
640.961	16925
641.021	17052
641.082	18074
641.142	21879
641.202	17721
641.262	14709
641.322	16133
641.382	15374
641.442	16003
641.502	16266
641.562	17140
641.622	15218
641.682	16143
641.742	17260
641.802	17152
641.861	16841
641.921	16996
641.981	17038
642.041	17292
642.101	18357
642.161	15565
642.221	14469
642.280	15463
642.340	14709
642.400	14403
642.460	16511
642.519	15359
642.579	15448
642.639	15858
642.698	14086
642.758	16742
642.818	15184
642.877	15842
642.937	15950
642.997	17413
643.056	19953
643.116	16344
643.175	16927
643.235	15406
643.294	15977
643.354	16835
643.414	17062
643.473	19723
643.532	23716
643.592	29942
643.651	44447
643.711	76264
643.770	139793
643.830	316634
643.889	817346
643.948	294509
644.008	43468
644.067	27022
644.126	21429
644.186	18130
644.245	17019
644.304	15017
644.363	16380
644.423	14644
644.482	15473
644.541	16101
644.600	13694
644.659	17878
644.719	20569
644.778	28892
644.837	41342
644.896	74940
644.955	184523
645.014	95490
645.073	24150
645.132	17971
645.191	18433
645.250	15850
645.309	17295
645.368	17242
645.427	19005
645.486	24610
645.545	45028
645.604	21420
645.663	16745
645.722	15213
645.781	16673
645.840	17677
645.898	20781
645.957	28125
646.016	39345
646.075	69122
646.134	131883
646.192	312271
646.251	627026
646.310	131526
646.369	29727
646.427	22856
646.486	19042
646.545	16294
646.603	16023
646.662	13891
646.721	13844
646.779	13177
646.838	13807
646.896	16047
646.955	19472
647.014	27103
647.072	42360
647.131	110728
647.189	81907
647.248	17332
647.306	14079
647.365	13453
647.423	11079
647.481	13598
647.540	10083
647.598	11517
647.657	11317
647.715	12450
647.773	11257
647.832	12481
647.890	10866
647.948	10659
648.007	12769
648.065	10638
648.123	11567
648.181	12775
648.240	11718
648.298	12382
648.356	11230
648.414	12446
648.472	12191
648.531	12340
648.589	11346
648.647	11826
648.705	10434
648.763	11349
648.821	11947
648.879	11660
648.937	12370
648.995	14843
649.053	15885
649.111	21674
649.169	34019
649.227	55636
649.285	102939
649.343	304700
649.401	223615
649.459	42722
649.516	30203
649.574	17693
649.632	25130
649.690	32298
649.748	22040
649.806	24014
649.863	38787
649.921	75235
649.979	74545
650.037	16371
650.094	10140
650.152	11992
650.210	10140
650.268	11806
650.325	11340
650.383	12636
650.440	9445
650.498	10283
650.556	9760
650.613	9155
650.671	9684
650.728	9867
650.786	10998
650.843	10994
650.901	9217
650.958	9095
651.016	9868
651.073	8662
651.131	7898
651.188	8623
651.246	10094
651.303	9358
651.360	9976
651.418	8963
651.475	9446
651.532	7050
651.590	9007
651.647	8020
651.704	9760
651.762	8467
651.819	9387
651.876	8060
651.933	9102
651.990	8941
652.048	7174
652.105	8000
652.162	8711
652.219	8389
652.276	8835
652.333	8673
652.390	7318
652.448	8665
652.505	7437
652.562	9082
652.619	7808
652.676	11081
652.733	11843
652.790	8472
652.847	5917
652.904	8450
652.961	8105
653.017	6758
653.074	7672
653.131	6918
653.188	6988
653.245	7498
653.302	8395
653.359	7700
653.415	8231
653.472	7879
653.529	8862
653.586	6638
653.642	7766
653.699	7394
653.756	7845
653.813	7788
653.869	7722
653.926	6524
653.983	7728
654.039	7924
654.096	7011
654.152	8643
654.209	5708
654.266	8237
654.322	7343
654.379	9195
654.435	9395
654.492	9588
654.548	10912
654.605	16758
654.661	12212
654.717	8884
654.774	9019
654.830	8375
654.887	7774
654.943	8434
655.000	10104
655.056	8918
655.112	9251
655.168	8415
655.225	8509
655.281	9812
655.337	9972
655.394	17491
655.450	14957
655.506	11412
655.562	16401
655.618	17943
655.675	7551
655.731	8495
655.787	7246
655.843	8543
655.899	6651
655.955	7716
656.011	7626
656.067	6655
656.123	8227
656.179	8215
656.235	8684
656.291	6638
656.347	8324
656.403	7159
656.459	8076
656.515	9047
656.571	9328
656.627	7604
656.683	8178
656.739	8792
656.795	7151
656.850	7942
656.906	9272
656.962	8946
657.018	7486
657.074	8286
657.129	9201
657.185	10286
657.241	14396
657.297	13220
657.352	8640
657.408	7379
657.464	8890
657.519	8007
657.575	6130
657.630	7097
657.686	7227
657.742	7287
657.797	7856
657.853	7658
657.908	8938
657.964	7054
658.019	7876
658.075	7554
658.130	8235
658.186	7349
658.241	8015
658.297	6084
658.352	8700
658.407	7504
658.463	6611
658.518	8283
658.573	7835
658.629	6909
658.684	7517
658.739	7015
658.795	6550
658.850	7273
658.905	6509
658.960	7217
659.016	6124
659.071	7163
659.126	8054
659.181	7174
659.236	10433
659.291	11810
659.346	8556
659.401	8369
659.457	8484
659.512	9233
659.567	9244
659.622	7087
659.677	7108
659.732	6213
659.787	6940
659.842	8988
659.897	11023
659.952	8854
660.007	7976
660.061	7386
660.116	7501
660.171	6903
660.226	7386
660.281	7808
660.336	6568
660.391	6990
660.445	7313
660.500	7638
660.555	7577
660.610	7162
660.664	7673
660.719	6265
660.774	7274
660.828	7547
660.883	7576
660.938	7745
660.992	6230
661.047	7526
661.101	6893
661.156	7450
661.211	6625
661.265	6849
661.320	6840
661.374	8349
661.429	6975
661.483	7593
661.538	7624
661.592	7826
661.647	8018
661.701	7956
661.755	7968
661.810	8513
661.864	7864
661.919	7174
661.973	8093
662.027	7862
662.081	6950
662.136	6459
662.190	7936
662.244	8722
662.299	7597
662.353	8036
662.407	7116
662.461	7368
662.515	9117
662.569	8558
662.624	9431
662.678	8829
662.732	8052
662.786	7439
662.840	7988
662.894	8944
662.948	7819
663.002	6929
663.056	8131
663.110	7362
663.164	7633
663.218	7572
663.272	7443
663.326	8040
663.380	8593
663.434	8970
663.488	8061
663.542	8830
663.595	8117
663.649	7193
663.703	7760
663.757	8340
663.811	7750
663.864	7868
663.918	7949
663.972	7242
664.026	7946
664.079	7372
664.133	8501
664.187	7485
664.240	6668
664.294	6823
664.348	7887
664.401	8423
664.455	7502
664.508	7581
664.562	8188
664.615	7273
664.669	8604
664.722	7613
664.776	7414
664.829	8064
664.883	8275
664.936	8535
664.990	8458
665.043	8276
665.097	9708
665.150	11688
665.203	9039
665.257	8719
665.310	9844
665.363	9299
665.417	9785
665.470	9526
665.523	9207
665.576	8595
665.630	8788
665.683	9164
665.736	9206
665.789	9667
665.842	9048
665.895	9203
665.949	9440
666.002	8522
666.055	9019
666.108	9795
666.161	9075
666.214	9669
666.267	9984
666.320	9636
666.373	9872
666.426	8703
666.479	8695
666.532	9806
666.585	10451
666.638	11956
666.691	10025
666.744	10698
666.796	10611
666.849	9863
666.902	9170
666.955	8909
667.008	8315
667.060	7949
667.113	7470
667.166	8514
667.219	8193
667.271	9551
667.324	9138
667.377	8298
667.430	8488
667.482	9315
667.535	9796
667.587	8927
667.640	9276
667.693	10114
667.745	11839
667.798	14067
667.850	9556
667.903	9975
667.955	9974
668.008	9766
668.060	11349
668.113	11328
668.165	11367
668.218	10915
668.270	10708
668.322	10955
668.375	10111
668.427	10257
668.479	10105
668.532	9281
668.584	10876
668.636	10045
668.689	10759
668.741	10233
668.793	10432
668.845	9436
668.898	10037
668.950	9205
669.002	10787
669.054	10294
669.106	10568
669.158	11004
669.211	10085
669.263	9614
669.315	11238
669.367	11148
669.419	10573
669.471	11848
669.523	10011
669.575	13789
669.627	12587
669.679	10010
669.731	10054
669.783	11228
669.835	10731
669.886	10339
669.938	10286
669.990	9969
670.042	9619
670.094	9569
670.146	9884
670.197	10771
670.249	11688
670.301	12539
670.353	15220
670.404	18870
670.456	24407
670.508	34935
670.560	53408
670.611	87262
670.663	146536
670.715	306712
670.766	626936
670.818	253637
670.869	41310
670.921	21967
670.972	17386
671.024	14635
671.075	13451
671.127	12376
671.178	11449
671.230	11881
671.281	11344
671.333	10696
671.384	12436
671.436	12633
671.487	14518
671.538	15662
671.590	18437
671.641	22797
671.692	31817
671.744	55525
671.795	50774
671.846	24014
671.897	14835
671.949	14385
672.000	12603
672.051	11533
672.102	12256
672.153	11135
672.204	12209
672.256	11378
672.307	11569
672.358	11232
672.409	11935
672.460	10477
672.511	9806
672.562	10613
672.613	10489
672.664	10972
672.715	10613
672.766	11131
672.817	9954
672.868	9686
672.919	10610
672.970	10043
673.021	10611
673.071	10019
673.122	10620
673.173	9650
673.224	9692
673.275	10780
673.326	9485
673.376	9386
673.427	10137
673.478	9149
673.528	10028
673.579	9054
673.630	9837
673.680	9782
673.731	8291
673.782	8798
673.832	9705
673.883	10700
673.934	10303
673.984	9421
674.035	9866
674.085	9681
674.136	10148
674.186	9837
674.237	10758
674.287	15721
674.338	13142
674.388	9898
674.438	9312
674.489	9170
674.539	10408
674.589	10502
674.640	10635
674.690	10419
674.740	10895
674.791	12014
674.841	11290
674.891	10889
674.942	10452
674.992	9727
675.042	9534
675.092	8768
675.142	10147
675.193	10048
675.243	9410
675.293	9819
675.343	10502
675.393	10365
675.443	10498
675.493	9460
675.543	8368
675.593	10760
675.643	10791
675.693	10098
675.743	10522
675.793	8665
675.843	8138
675.893	9255
675.943	10204
675.993	9202
676.043	8985
676.093	9405
676.142	9120
676.192	10254
676.242	9199
676.292	8732
676.341	9141
676.391	9810
676.441	8039
676.491	8037
676.540	9204
676.590	8456
676.640	8428
676.689	8738
676.739	7446
676.789	8280
676.838	8867
676.888	8620
676.937	7903
676.987	8335
677.037	8270
677.086	7380
677.136	7913
677.185	7963
677.235	7535
677.284	6989
677.333	8203
677.383	7608
677.432	7292
677.482	8019
677.531	7694
677.580	7572
677.630	7183
677.679	7203
677.728	8590
677.778	7466
677.827	7313
677.876	7966
677.925	7242
677.975	7718
678.024	8980
678.073	8076
678.122	9627
678.171	9143
678.220	10087
678.269	9807
678.319	10360
678.368	9128
678.417	9163
678.466	9759
678.515	10496
678.564	10112
678.613	8929
678.662	8646
678.711	8633
678.760	9277
678.809	9599
678.857	9311
678.906	8999
678.955	9110
679.004	9475
679.053	9441
679.102	8965
679.151	9106
679.199	8456
679.248	7887
679.297	9140
679.346	10102
679.394	9360
679.443	8073
679.492	9047
679.540	8865
679.589	9087
679.638	8671
679.686	8021
679.735	7820
679.784	9026
679.832	9886
679.881	8358
679.929	7928
679.978	7285
680.026	8125
680.075	8415
680.123	7518
680.172	7596
680.220	7253
680.268	7586
680.317	8248
680.365	7717
680.414	6586
680.462	7746
680.510	8739
680.559	7530
680.607	7419
680.655	7505
680.703	7500
680.752	8349
680.800	7049
680.848	7458
680.896	6841
680.945	6561
680.993	7608
681.041	8244
681.089	7693
681.137	7442
681.185	6545
681.233	7374
681.258	7951
681.281	8497
681.329	7098
681.377	6473
681.380	6523
681.425	7364
681.473	9231
681.502	8867
681.521	8608
681.569	8931
681.617	7447
681.624	7407
681.665	7130
681.713	7780
681.745	7640
681.761	7568
681.809	7235
681.857	8311
681.867	7969
681.904	6774
681.952	6956
681.989	7153
682.000	7205
682.048	6919
682.096	7342
682.111	7312
682.143	7227
682.191	6615
682.233	7027
682.239	7088
682.286	7754
682.334	7137
682.354	7033
682.382	6885
682.430	7648
682.476	8673
682.477	8693
682.525	6561
682.572	7163
682.598	6972
682.620	6814
682.667	6182
682.715	7016
682.720	6990
682.763	6693
682.810	7216
682.841	6849
682.857	6632
682.905	7158
682.952	6863
682.963	6883
683.000	6984
683.047	6897
683.085	7363
683.095	7471
683.142	7154
683.190	6371
683.206	6321
683.237	6268
683.284	6835
683.328	6683
683.332	6659
683.379	6711
683.426	6346
683.449	6527
683.473	6750
683.521	6549
683.568	6616
683.571	6592
683.615	6179
683.662	6553
683.693	6487
683.709	6450
683.757	5944
683.804	5726
683.814	5836
683.851	6147
683.898	6211
683.936	5653
683.945	5545
683.992	5620
684.039	6517
684.057	6568
684.086	6569
684.133	6255
684.179	6356
684.180	6355
684.227	6868
684.274	6671
684.300	6507
684.321	6361
684.368	6017
684.415	6895
684.422	6852
684.462	6523
684.509	5224
684.543	5992
684.556	6270
684.603	6318
684.649	5948
684.665	5747
684.696	5400
684.743	6280
684.786	6611
684.790	6631
684.837	5711
684.883	6279
684.908	6815
684.930	7382
684.977	8351
685.023	7723
685.029	7609
685.070	6411
685.117	6561
685.150	6427
685.164	6461
685.210	7303
685.257	8366
685.272	8174
685.303	7554
685.350	6359
685.393	6592
685.396	6628
685.443	6382
685.490	7101
685.514	7151
685.536	7132
685.583	7347
685.629	7085
685.636	7041
685.675	6780
685.722	6599
685.757	7521
685.768	7791
685.815	6833
685.861	7141
685.878	7045
685.908	6969
685.954	6290
686.000	7646
686.000	7667
686.047	7166
686.093	8431
686.121	8272
686.139	8179
686.185	7418
686.232	7236
686.242	7281
686.278	7304
686.324	7163
686.363	6552
686.370	6449
686.416	6329
686.463	6604
686.484	6734
686.509	6898
686.555	6533
686.601	6014
686.606	6073
686.647	6526
686.693	6848
686.727	6264
686.739	6091
686.785	6817
686.831	6395
686.848	6511
686.877	6596
686.923	6245
686.969	5567
686.969	5563
687.015	6380
687.061	5956
687.090	6072
687.107	6163
687.153	6779
687.199	6092
687.211	5983
687.245	5523
687.291	5682
687.332	6291
687.336	6387
687.382	6416
687.428	6948
687.453	6448
687.474	5822
687.520	5876
687.565	5825
687.574	5791
687.611	5997
687.657	5710
687.695	6714
687.702	6897
687.748	7210
687.794	7606
687.816	7412
687.839	7066
687.885	6474
687.931	6360
687.937	6375
687.976	6420
688.022	5763
688.058	6195
688.067	6335
688.113	6026
688.158	6307
688.179	6121
688.204	5864
688.249	5846
688.295	5909
688.300	5948
688.340	6579
688.386	6972
688.421	7103
688.431	7020
688.477	6076
688.522	5972
688.542	6068
688.567	6509
688.613	6513
688.658	6520
688.663	6609
688.703	6743
688.749	6184
688.784	6062
688.794	6151
688.839	6130
688.884	6583
688.905	6410
688.930	6003
688.975	6195
689.020	5852
689.026	5914
689.065	6643
689.110	6342
689.146	6666
689.155	6706
689.201	6048
689.246	6078
689.267	5976
689.291	5933
689.336	6317
689.381	6474
689.388	6453
689.426	6219
689.471	6004
689.509	5892
689.516	5894
689.561	5461
689.606	5776
689.630	5931
689.651	6061
689.696	5889
689.741	5823
689.750	5942
689.785	6545
689.830	6288
689.871	6155
689.875	6112
689.920	5893
689.965	6276
689.992	5961
690.010	5949
690.054	6559
690.099	6857
690.112	6879
690.144	6491
690.189	5922
690.233	5281
690.233	5284
690.278	5648
690.323	5726
690.354	5780
690.367	5827
690.412	6016
690.457	6674
690.474	6579
690.501	6222
690.546	6213
690.590	5624
690.595	5619
690.635	5885
690.680	6232
690.716	6319
690.724	6410
690.769	6969
690.813	8018
690.836	8204
690.857	8575
690.902	9276
690.946	10576
690.957	10890
690.991	14140
691.035	19315
691.077	24800
691.080	24857
691.124	22442
691.168	19316
691.198	17836
691.213	16533
691.257	12863
691.301	9794
691.318	8436
691.346	7928
691.390	6871
691.434	6380
691.439	6298
691.478	6254
691.522	6672
691.559	6632
691.567	6604
691.611	6822
691.655	6477
691.680	6249
691.699	6189
691.743	7091
691.787	6690
691.800	6718
691.831	6712
691.875	6707
691.919	6726
691.921	6719
691.964	6831
692.008	6981
692.041	7219
692.052	7278
692.096	6471
692.139	7000
692.162	6794
692.183	6511
692.227	6645
692.271	6458
692.282	6327
692.315	6238
692.359	6468
692.402	6653
692.403	6662
692.447	6427
692.490	6685
692.523	6957
692.534	7022
692.578	6862
692.622	6881
692.643	6861
692.666	6798
692.709	6591
692.753	6144
692.763	6115
692.797	6183
692.840	6090
692.884	6370
692.884	6382
692.928	6541
692.971	6652
693.004	6771
693.015	6769
693.059	6786
693.102	6470
693.124	6506
693.146	6705
693.189	6825
693.233	7328
693.245	7434
693.276	7567
693.320	7478
693.363	7103
693.365	7102
693.407	7837
693.450	8315
693.485	8631
693.493	8793
693.537	9608
693.580	10676
693.605	11365
693.624	12660
693.667	15574
693.710	18439
693.725	19595
693.753	25774
693.797	35708
693.840	47144
693.845	48086
693.883	44516
693.926	38943
693.966	34661
693.970	33827
694.013	25058
694.056	16878
694.086	11226
694.099	10931
694.142	10084
694.185	9278
694.206	8719
694.229	8369
694.272	7961
694.315	7497
694.326	7391
694.358	7570
694.401	7447
694.444	7753
694.446	7747
694.487	7709
694.530	7614
694.566	7484
694.573	7416
694.616	7189
694.659	6463
694.686	6213
694.702	6250
694.745	6260
694.787	6122
694.806	6204
694.830	6419
694.873	6561
694.916	6781
694.926	6768
694.959	6624
695.002	6597
695.044	6645
695.046	6626
695.087	6429
695.130	6503
695.166	6432
695.172	6458
695.215	6384
695.258	6483
695.286	6492
695.301	6508
695.343	6556
695.386	6734
695.406	6753
695.428	6703
695.471	6451
695.514	6355
695.526	6301
695.556	6570
695.599	6943
695.641	7451
695.646	7464
695.684	7029
695.726	6663
695.766	6196
695.769	6211
695.811	6492
695.854	6675
695.886	6868
695.896	6889
695.938	6622
695.981	6341
696.005	6307
696.023	6444
696.065	6752
696.108	7076
696.125	7152
696.150	7081
696.192	6927
696.235	6752
696.245	6710
696.277	6923
696.319	6960
696.361	7352
696.365	7354
696.404	7170
696.446	7020
696.485	6830
696.488	6873
696.530	7210
696.572	7557
696.604	7911
696.614	7858
696.656	7388
696.698	6935
696.724	6671
696.740	6783
696.783	6953
696.825	7354
696.844	7423
696.867	7229
696.909	6915
696.951	6535
696.964	6423
696.992	6696
697.034	6876
697.076	7332
697.083	7362
697.118	7332
697.160	7460
697.202	7439
697.203	7423
697.244	7423
697.286	7291
697.323	7214
697.327	7207
697.369	6981
697.411	6700
697.442	6635
697.453	6736
697.494	6859
697.536	7081
697.562	7216
697.578	7224
697.620	7145
697.661	7064
697.682	7019
697.703	7147
697.744	7390
697.786	7658
697.801	7711
697.828	7756
697.869	7822
697.911	7857
697.921	7848
697.952	7747
697.994	7686
698.035	7551
698.040	7513
698.077	7030
698.118	6526
698.160	5971
698.160	5954
698.201	6385
698.243	6874
698.279	7304
698.284	7331
698.325	7367
698.367	7446
698.399	7450
698.408	7467
698.449	7489
698.491	7515
698.518	7505
698.532	7482
698.573	7357
698.614	7257
698.638	7173
698.656	7292
698.697	7514
698.738	7755
698.757	7848
698.779	7941
698.820	8084
698.862	8222
698.877	8258
698.903	8403
698.944	8601
698.985	8798
698.996	8834
699.026	8498
699.067	8006
699.116	7403
699.235	7609
699.354	7883
699.474	7705
699.593	7692
699.713	8969
699.832	7567
699.951	8063
700.070	7445
700.190	8085
700.309	8492
700.428	7852
700.547	7250
700.667	7287
700.786	7707
700.905	7298
701.024	7576
701.143	7682
701.262	6932
701.381	7584
701.500	7639
701.619	8348
701.738	7315
701.857	7214
701.976	6617
702.095	6483
702.214	7845
702.333	8343
702.452	7896
702.571	6360
702.690	6940
702.809	6745
702.928	6741
703.047	6908
703.165	6969
703.284	6880
703.403	6637
703.522	7561
703.640	6637
703.759	7350
703.878	8236
703.997	6329
704.115	6349
704.234	6481
704.353	7087
704.471	6936
704.590	5571
704.708	6111
704.827	5825
704.946	6531
705.064	5939
705.183	6086
705.301	7783
705.420	10532
705.538	9587
705.656	8875
705.775	7532
705.893	11792
706.012	13041
706.130	8273
706.249	8127
706.367	8934
706.485	8327
706.604	8491
706.722	7823
706.840	9780
706.958	10330
707.077	8834
707.195	7744
707.313	7939
707.431	7015
707.549	7751
707.668	6844
707.786	8486
707.904	7236
708.022	7166
708.140	7571
708.258	7173
708.376	7338
708.494	6894
708.612	8104
708.730	10782
708.848	10731
708.966	9828
709.084	9416
709.202	9531
709.320	8985
709.438	9696
709.556	8659
709.674	8478
709.791	9304
709.909	9172
710.027	8707
710.145	9446
710.263	9171
710.380	9066
710.498	8551
710.616	9163
710.733	8145
710.851	9310
710.969	8548
711.086	8356
711.204	9015
711.322	9141
711.439	8335
711.557	9045
711.674	8028
711.792	7947
711.909	8199
712.027	9187
712.144	7812
712.262	8676
712.379	8874
712.497	12570
712.614	12175
712.732	11381
712.849	9713
712.966	10060
713.084	11665
713.201	10575
713.318	11785
713.436	9488
713.553	10331
713.670	10882
713.787	11279
713.905	10574
714.022	10001
714.139	10093
714.256	11351
714.373	13027
714.490	18874
714.608	36070
714.725	147367
714.842	177712
714.959	17691
715.076	11333
715.193	9367
715.310	10422
715.427	9137
715.544	9022
715.661	9354
715.778	9069
715.895	9609
716.011	10196
716.128	9486
716.245	8612
716.362	10009
716.479	9346
716.596	8385
716.713	8845
716.829	8747
716.946	8363
717.063	8507
717.180	8436
717.296	8372
717.413	8417
717.530	7933
717.646	8423
717.763	7793
717.880	8498
717.996	7840
718.113	8556
718.229	7502
718.346	7867
718.462	7077
718.579	8493
718.695	12127
718.812	10342
718.928	8485
719.045	8163
719.161	6537
719.277	7841
719.394	7655
719.510	8091
719.626	7282
719.743	9042
719.859	9735
719.975	14735
720.092	39985
720.208	95106
720.324	17184
720.440	8292
720.557	8441
720.673	10394
720.789	12940
720.905	19360
721.021	10395
721.137	7410
721.253	6754
721.369	6938
721.486	6784
721.602	8387
721.718	6583
721.834	6749
721.950	6846
722.066	6075
722.181	5597
722.297	7184
722.413	6496
722.529	6844
722.645	6799
722.761	5988
722.877	5319
722.993	5674
723.108	6347
723.224	6699
723.340	6066
723.456	6424
723.571	5997
723.687	6627
723.803	6938
723.918	5726
724.034	6168
724.150	5526
724.265	5673
724.381	8916
724.497	10213
724.612	6667
724.728	5510
724.843	5287
724.959	5661
725.074	9106
725.190	10759
725.305	5859
725.421	5167
725.536	5412
725.651	4759
725.767	6173
725.882	4194
725.997	6052
726.113	5188
726.228	4404
726.343	5386
726.459	4336
726.574	4537
726.689	5139
726.804	3519
726.920	5489
727.035	5761
727.150	5261
727.265	4286
727.380	5679
727.495	4780
727.610	5309
727.725	5946
727.841	5525
727.956	7453
728.071	7940
728.186	4292
728.301	4839
728.416	4378
728.531	4746
728.645	4559
728.760	5235
728.875	4828
728.990	5511
729.105	4517
729.220	4356
729.335	4313
729.449	4387
729.564	4934
729.679	4265
729.794	3729
729.908	4423
730.023	4597
730.138	4564
730.253	3963
730.367	4326
730.482	4098
730.596	3659
730.711	4391
730.826	4613
730.940	4822
731.055	4735
731.169	4046
731.284	4210
731.398	3628
731.513	5153
731.627	4110
731.742	5535
731.856	4458
731.970	3527
732.085	4176
732.199	5907
732.313	7172
732.428	16676
732.542	47768
732.656	33630
732.771	6880
732.885	6080
732.999	5052
733.113	5929
733.227	4569
733.342	4914
733.456	4531
733.570	5139
733.684	3567
733.798	4767
733.912	5217
734.026	4172
734.140	3850
734.254	5010
734.368	6255
734.482	6946
734.596	3263
734.710	4682
734.824	4763
734.938	4057
735.052	3785
735.166	5605
735.280	5072
735.393	4759
735.507	4008
735.621	5666
735.735	6933
735.849	4733
735.962	3956
736.076	4875
736.190	4699
736.303	4895
736.417	5856
736.531	4796
736.644	3503
736.758	3422
736.872	3819
736.985	3975
737.099	3949
737.212	3704
737.326	3849
737.439	4579
737.553	3609
737.666	4369
737.780	3411
737.893	4549
738.007	2591
738.120	3581
738.233	4752
738.347	4214
738.460	3586
738.573	3985
738.687	3610
738.800	4546
738.913	4761
739.026	4340
739.140	3544
739.253	4223
739.366	3775
739.479	3287
739.592	3337
739.705	4766
739.818	3316
739.932	3337
740.045	3891
740.158	4571
740.271	3504
740.384	4233
740.497	3832
740.610	4395
740.723	4147
740.836	4014
740.949	3481
741.062	4888
741.174	4266
741.287	4131
741.400	2900
741.513	3827
741.626	4598
741.739	4535
741.851	3473
741.964	3244
742.077	3642
742.189	3522
742.302	4521
742.415	5067
742.527	4061
742.640	4220
742.753	3259
742.865	3789
742.978	3029
743.090	3904
743.203	3082
743.316	3243
743.428	2632
743.541	3644
743.653	2088
743.766	3147
743.878	2980
743.990	3862
744.103	3403
744.215	3000
744.327	2978
744.440	4523
744.552	5733
744.664	3130
744.777	2103
744.889	3128
745.001	2557
745.113	2370
745.226	2144
745.338	3809
745.450	2941
745.562	2434
745.674	3259
745.786	3557
745.898	2932
746.010	2599
746.122	2805
746.234	3052
746.347	2724
746.459	3439
746.570	2124
746.682	3543
746.794	2978
746.906	2687
747.018	3015
747.130	3149
747.242	2656
747.354	3126
747.466	2611
747.577	3000
747.689	2506
747.801	3397
747.913	2549
748.024	2639
748.136	2530
748.248	2447
748.359	2384
748.471	3339
748.583	2522
748.694	2537
748.806	2917
748.918	4037
749.029	3332
749.141	3196
749.252	2115
749.364	3262
749.475	4462
749.587	4642
749.698	2837
749.809	2778
749.921	2432
750.032	3223
750.144	1672
750.255	2225
750.366	1731
750.478	2524
750.589	3121
750.700	2909
750.811	3083
750.923	4272
751.034	4987
751.145	6412
751.256	2586
751.367	2462
751.479	2545
751.590	2756
751.701	1788
751.812	2395
751.923	2252
752.034	3054
752.145	2923
752.256	2685
752.367	2192
752.478	3471
752.589	2340
752.700	2242
752.811	2032
752.922	1953
753.032	3222
753.143	3495
753.254	2657
753.365	3512
753.476	1884
753.586	2634
753.697	2268
753.808	2108
753.919	1903
754.029	3115
754.140	2292
754.251	3323
754.361	1374
754.472	2879
754.582	2344
754.693	2846
754.804	2622
754.914	2765
755.025	2459
755.135	2821
755.246	2505
755.356	2924
755.466	3212
755.577	2592
755.687	2674
755.798	2023
755.908	1739
756.018	1998
756.129	2418
756.239	2885
756.349	2311
756.460	2648
756.570	2982
756.680	3399
756.790	2157
756.900	3960
757.011	2733
757.121	3287
757.231	2563
757.341	3036
757.451	2369
757.561	2562
757.671	2472
757.781	3154
757.891	3205
758.001	3396
758.111	2368
758.221	3426
758.331	2035
758.441	3335
758.551	2753
758.661	3741
758.771	3887
758.880	3253
758.990	2815
759.100	3777
759.210	3233
759.320	3887
759.429	3162
759.539	2857
759.649	3445
759.758	3738
759.868	3992
759.978	3474
760.087	3728
760.197	4748
760.307	3663
760.416	3933
760.526	3494
760.635	3862
760.745	3479
760.854	4364
760.964	4539
761.073	4641
761.182	4388
761.292	5039
761.401	3492
761.511	4743
761.620	4186
761.729	5715
761.839	5035
761.948	4513
762.057	4820
762.166	5371
762.276	4241
762.385	5282
762.494	5204
762.603	5459
762.712	5811
762.822	5998
762.931	6190
763.040	5696
763.149	6610
763.258	6617
763.367	6267
763.476	6747
763.585	7648
763.694	8243
763.803	7649
763.912	9150
764.021	8607
764.130	9566
764.238	9894
764.347	10638
764.456	10569
764.565	12239
764.674	12424
764.783	14405
764.891	14771
765.000	17995
765.109	18925
765.217	22615
765.326	25919
765.435	32512
765.543	40268
765.652	48746
765.761	66617
765.869	95570
765.978	149073
766.086	253557
766.195	468578
766.303	918245
766.412	1230852
766.520	1192518
766.629	747672
766.737	339734
766.846	193223
766.954	125160
767.062	89174
767.171	66931
767.279	51218
767.387	40352
767.496	34478
767.604	30125
767.712	26502
767.820	23626
767.928	22881
768.037	19560
768.145	18703
768.253	19365
768.361	17597
768.469	17945
768.577	17450
768.685	19615
768.793	20251
768.901	22493
769.009	25313
769.117	31319
769.225	41041
769.333	60999
769.441	97524
769.549	180909
769.657	389014
769.765	865853
769.873	1086935
769.981	723636
770.088	265126
770.196	128013
770.304	80204
770.412	56653
770.519	41981
770.627	32393
770.735	25325
770.842	22109
770.950	19281
771.058	17345
771.165	16146
771.273	14638
771.380	12708
771.488	11471
771.595	10406
771.703	10125
771.810	8947
771.918	8809
772.025	8559
772.133	8430
772.240	7826
772.348	7789
772.455	6529
772.562	6513
772.670	6420
772.777	6974
772.884	6520
772.991	6550
773.099	5988
773.206	6015
773.313	6236
773.420	5433
773.528	5739
773.635	5312
773.742	5693
773.849	5338
773.956	4850
774.063	4514
774.170	4374
774.277	5904
774.384	4486
774.491	4000
774.598	4795
774.705	5077
774.812	4737
774.919	4340
775.026	4425
775.133	5652
775.239	4355
775.346	4187
775.453	3176
775.560	3122
775.667	4176
775.773	3942
775.880	4156
775.987	3537
776.093	4214
776.200	4338
776.307	3294
776.413	3536
776.520	3182
776.627	3359
776.733	3578
776.840	3041
776.946	4051
777.053	3082
777.159	3917
777.266	2714
777.372	4062
777.478	3910
777.585	3729
777.691	3925
777.798	2526
777.904	3530
778.010	3737
778.117	2953
778.223	2618
778.329	2866
778.435	2600
778.542	3825
778.648	1993
778.754	3047
778.860	2774
778.966	2306
779.072	2554
779.178	3214
779.284	2558
779.391	2977
779.497	2520
779.603	6130
779.708	8062
779.815	19038
779.920	70691
780.026	113012
780.132	14180
780.238	4604
780.344	3000
780.450	3316
780.556	2328
780.661	2536
780.767	1851
780.873	2938
780.979	2583
781.085	2254
781.190	1989
781.296	2354
781.402	1329
781.507	2455
781.613	2520
781.719	2088
781.824	2060
781.930	2299
782.035	2179
782.141	3177
782.246	1997
782.352	2283
782.457	1522
782.563	2286
782.668	2360
782.773	2487
782.879	1806
782.984	3043
783.090	2777
783.195	3059
783.300	1761
783.405	2846
783.511	1373
783.616	2246
783.721	2023
783.826	2055
783.932	1536
784.037	2594
784.142	1761
784.247	2214
784.352	1775
784.457	1594
784.562	942
784.667	2413
784.772	1141
784.877	1672
784.982	2281
785.087	1676
785.192	1240
785.297	1426
785.402	1504
785.507	2014
785.611	1418
785.716	2026
785.821	1706
785.926	2188
786.031	1113
786.135	1657
786.240	1422
786.345	1280
786.450	1548
786.554	1591
786.659	1169
786.763	978
786.868	2108
786.973	2143
787.077	1239
787.182	1821
787.286	344
787.391	2068
787.495	756
787.600	818
787.704	1056
787.809	1581
787.913	1544
788.017	1571
788.122	1494
788.226	1547
788.330	933
788.435	1256
788.539	406
788.643	1330
788.747	597
788.852	1722
788.956	1121
789.060	1583
789.164	1051
789.268	1243
789.372	1427
789.476	1092
789.580	595
789.684	904
789.788	1231
789.892	711
789.996	1134
790.100	914
790.204	924
790.308	1142
790.412	863
790.516	1928
790.620	700
790.724	1411
790.828	915
790.931	532
791.035	1905
791.139	525
791.242	253
791.346	1299
791.450	1241
791.554	1631
791.657	1322
791.761	1528
791.864	1516
791.968	918
792.072	1405
792.175	1461
792.279	584
792.382	1702
792.486	1075
792.589	833
792.693	697
792.796	665
792.899	906
793.003	1293
793.106	657
793.209	1157
793.313	1372
793.416	793
793.519	1149
793.623	2617
793.726	2210
793.829	933
793.932	951
794.035	1562
794.138	1437
794.242	2485
794.345	1905
794.448	4404
794.551	9184
794.654	33384
794.757	54410
794.860	7712
794.963	2343
795.066	625
795.169	1647
795.272	1431
795.375	2024
795.477	480
795.580	483
795.683	933
795.786	684
795.889	204
795.991	1503
796.094	2041
796.197	-554
796.300	1417
796.402	174
796.505	261
796.608	799
796.710	1546
796.813	167
796.915	1078
797.018	750
797.120	343
797.223	-785
797.326	1284
797.428	33
797.530	245
797.633	-183
797.735	1064
797.838	1170
797.940	1514
798.042	-174
798.145	110
798.247	572
798.349	36
798.452	1794
798.554	757
798.656	-355
798.758	976
798.860	508
798.962	877
799.065	512
799.167	820
799.269	704
799.371	1561
799.473	565
799.575	1033
799.677	512
799.779	1415
799.881	687
799.983	818
800.085	97
800.187	518
800.289	68
800.390	661
800.492	422
800.594	1901
800.696	-534
800.798	1166
800.899	215
801.001	1497
801.103	161
801.205	615
801.306	-1166
801.408	-1079
801.509	191
801.611	982
801.713	651
801.814	-110
801.916	371
802.017	695
802.119	176
802.220	543
802.322	-922
802.423	1380
802.525	-240
802.626	401
802.727	412
802.829	418
802.930	-1347
803.031	1099
803.133	-218
803.234	96
803.335	295
803.436	353
803.538	21
803.639	305
803.740	-10
803.841	-89
803.942	-2
804.043	518
804.144	-771
804.245	-1
804.346	-698
804.447	-263
804.548	245
804.649	1877
804.750	113
804.851	-226
804.952	-160
805.053	159
805.154	-282
805.255	146
805.355	138
805.456	-178
805.557	-756
805.658	-676
805.758	157
805.859	647
805.960	-891
806.061	143
806.161	-325
806.262	79
806.362	-382
806.463	372
806.564	222
806.664	-697
806.765	-46
806.865	282
806.966	-494
807.066	8
807.166	-39
807.267	297
807.367	-968
807.468	-1023
807.568	-1059
807.668	-67
807.769	-290
807.869	243
807.969	489
808.069	532
808.170	-227
808.270	119
808.370	122
808.470	473
808.570	65
808.670	886
808.770	-65
808.870	212
808.970	-294
809.070	-407
809.170	-583
809.271	95
809.370	219
809.470	-348
809.570	-640
809.670	-1095
809.770	190
809.870	740
809.970	-469
810.070	-191
810.169	-32
810.269	-1251
810.369	1300
810.469	-127
810.568	-132
810.668	-817
810.768	158
810.867	341
810.967	24
811.066	404
811.166	-692
811.265	45
811.365	-1295
811.464	-194
811.564	-460
811.663	-82
811.763	-1063
811.862	389
811.962	634
812.061	281
812.160	-696
812.260	110
812.359	246
812.458	21
812.557	-97
812.657	228
812.756	209
812.855	102
812.954	-271
813.053	582
813.153	-539
813.252	711
813.351	-535
813.450	-434
813.549	227
813.648	61
813.747	-203
813.846	996
813.945	-79
814.044	274
814.143	-562
814.242	435
814.341	-645
814.439	1049
814.538	139
814.637	-30
814.736	-101
814.835	443
814.933	-476
815.032	-746
815.131	-279
815.229	946
815.328	1039
815.427	1307
815.525	709
815.624	1032
815.722	150
815.821	1215
815.919	851
816.018	602
816.116	1506
816.215	738
816.313	1310
816.412	1249
816.510	887
816.609	2074
816.707	1324
816.805	1762
816.904	718
817.002	2289
817.100	1750
817.198	2114
817.296	2010
817.395	3039
817.493	4283
817.591	4035
817.689	6089
817.787	8942
817.885	15121
817.983	30609
818.081	66119
818.179	163701
818.277	396075
818.375	331072
818.473	80082
818.571	28396
818.669	17673
818.767	16033
818.865	16287
818.963	20608
819.061	31722
819.158	58072
819.256	127056
819.354	291557
819.452	604177
819.549	389830
819.647	102599
819.745	38554
819.842	22486
819.940	16848
820.038	11184
820.135	9435
820.233	7373
820.330	5053
820.428	4016
820.525	4542
820.623	2561
820.720	2542
820.818	2679
820.915	2374
821.012	2167
821.110	1482
821.207	805
821.304	1122
821.402	1732
821.499	1520
821.596	549
821.693	1367
821.791	1594
821.888	964
821.985	2510
822.082	2328
822.179	780
822.276	810
822.373	743
822.470	494
822.567	535
822.664	902
822.761	806
822.858	101
822.955	-553
823.052	640
823.149	-71
823.246	-98
823.343	1043
823.440	528
823.536	-282
823.633	658
823.730	-229
823.827	24
823.923	-504
824.020	820
824.117	-521
824.213	-581
824.310	422
824.407	53
824.503	479
824.600	-49
824.696	-103
824.793	190
824.889	-748
824.986	405
825.082	-967
825.179	403
825.275	-820
825.371	-370
825.468	-445
825.564	-714
825.660	312
825.757	-60
825.853	5
825.949	-265
826.045	-492
826.142	-490
826.238	89
826.334	-520
826.430	-1286
826.526	475
826.622	-532
826.718	-344
826.814	-862
826.910	1028
827.006	-355
827.102	69
827.198	467
827.294	-156
827.390	-709
827.486	346
827.582	-1180
827.678	-1171
827.774	-282
827.869	-700
827.965	-257
828.061	-676
828.157	-1082
828.252	-92
828.348	-1516
828.444	685
828.539	-342
828.635	-115
828.731	370
828.826	-163
828.922	-709
829.017	-81
829.113	-247
829.208	-16
829.304	-611
829.399	774
829.495	-380
829.590	392
829.685	-1230
829.781	-207
829.876	-400
829.971	-505
830.066	-496
830.162	-601
830.257	-1490
830.352	-1084
830.447	-296
830.543	-218
830.638	-824
830.733	520
830.828	-573
830.923	238
831.018	306
831.113	212
831.208	-696
831.303	-302
831.398	-498
831.493	-310
831.588	-362
831.683	-874
831.778	-740
831.873	-90
831.967	-420
832.062	-1194
832.157	-1133
832.252	270
832.346	-1161
832.441	121
832.536	267
832.631	929
832.725	232
832.820	-631
832.914	-1493
833.009	-1189
833.104	-578
833.198	-644
833.293	-1060
833.387	433
833.482	-840
833.576	-841
833.670	318
833.765	-157
833.859	-1716
833.954	313
834.048	-1056
834.142	-177
834.237	-801
834.331	-759
834.425	-981
834.519	-1235
834.613	97
834.708	-1295
834.802	-215
834.896	-429
834.990	-512
835.084	44
835.178	1
835.272	-204
835.366	-665
835.460	-136
835.554	-1276
835.648	-400
835.742	-1195
835.836	-352
835.930	-1183
836.024	96
836.117	-181
836.211	-260
836.305	910
836.399	1284
836.493	-1490
836.586	-307
836.680	-1078
836.774	-311
836.867	-154
836.961	-1447
837.055	-1355
837.148	-204
837.242	-730
837.335	-1177
837.429	-145
837.522	988
837.616	-530
837.709	1700
837.803	-151
837.896	525
837.989	-849
838.083	312
838.176	1479
838.269	776
838.363	-346
838.456	-902
838.549	-1012
838.642	-240
838.735	2274
838.829	1918
838.922	-769
839.015	-516
839.108	-1204
839.201	-169
839.294	-549
839.387	-755
839.480	-379
839.573	-59
839.666	337
839.759	-288
839.852	-1321
839.945	-1102
840.038	-933
840.131	-980
840.223	-1378
840.316	-560
840.409	-1290
840.502	-648
840.594	-234
840.687	-1289
840.780	-630
840.873	-289
840.965	-839
841.058	-535
841.150	1068
841.243	-215
841.336	-181
841.428	-442
841.521	-1144
841.613	-553
841.706	-456
841.798	-1660
841.890	-418
841.983	-1082
842.075	121
842.167	-918
842.260	-958
842.352	1052
842.444	170
842.537	2011
842.629	2642
842.721	-398
842.813	-1002
842.905	-1520
842.997	-60
843.090	378
843.182	311
843.274	1531
843.366	5958
843.458	11669
843.550	6823
843.642	-231
843.734	346
843.826	23
843.918	-585
844.009	13
844.101	-943
844.193	-567
844.285	-818
844.377	254
844.469	-376
844.560	-1288
844.652	-1024
844.744	-87
844.835	-1115
844.927	-191
845.019	-360
845.110	297
845.202	-1117
845.293	-312
845.385	-786
845.476	-495
845.568	-834
845.659	-816
845.751	-1131
845.842	-145
845.934	-820
846.025	-498
846.116	-398
846.208	-371
846.299	-1537
846.390	-164
846.482	69
846.573	-405
846.664	-182
846.755	32
846.846	411
846.937	-890
847.029	-1083
847.120	-181
847.211	-1124
847.302	177
847.393	-1839
847.484	-743
847.575	-1162
847.666	-995
847.757	-470
847.847	-238
847.938	-20
848.029	-294
848.120	-1085
848.211	-712
848.302	-1351
848.392	-911
848.483	-458
848.574	-787
848.664	-968
848.755	-180
848.846	-1220
848.936	-601
849.027	-1431
849.118	-607
849.208	-762
849.299	-401
849.389	-184
849.480	434
849.570	1191
849.661	4015
849.751	8803
849.841	3559
849.932	-841
850.022	-737
850.112	-585
850.203	-25
850.293	-1619
850.383	-801
850.474	-1250
850.564	-531
850.654	-1013
850.744	-207
850.834	-1437
850.924	-288
851.014	-419
851.104	-1414
851.194	-871
851.284	-787
851.374	-473
851.464	21
851.554	-854
851.644	-124
851.734	749
851.824	-53
851.914	-810
852.004	383
852.094	-318
852.183	-829
852.273	-1182
852.363	-799
852.452	-1855
852.542	-753
852.632	-1612
852.721	-646
852.811	-958
852.901	-546
852.990	-958
853.080	152
853.169	-659
853.259	-597
853.348	-863
853.438	-311
853.527	31
853.617	-14
853.706	1646
853.795	3196
853.885	9466
853.974	20073
854.063	34001
854.152	64940
854.242	28701
854.331	2402
854.420	50
854.509	302
854.598	-301
854.687	160
854.777	-259
854.866	-883
854.955	38
855.044	-469
855.133	-1179
855.222	-390
855.311	-879
855.400	-387
855.488	-1094
855.577	-232
855.666	-641
855.755	-138
855.844	-492
855.933	-736
856.021	-777
856.110	151
856.199	-1334
856.288	-1256
856.376	-794
856.465	-1370
856.554	-455
856.642	-867
856.731	-1391
856.819	-155
856.908	-1290
856.996	-553
857.085	-1006
857.173	49
857.262	-728
857.350	-179
857.438	-1416
857.527	68
857.615	-1078
857.703	-111
857.792	-1704
857.880	-870
857.968	-1027
858.056	-798
858.145	-572
858.233	-700
858.321	-1347
858.409	-495
858.497	-1645
858.585	-1094
858.673	-1183
858.761	-1197
858.849	-1119
858.937	-599
859.025	-1291
859.113	-746
859.201	-1379
859.289	-446
859.377	-169
859.465	251
859.552	-1195
859.640	-882
859.728	-954
859.816	-137
859.903	-778
859.991	-931
860.079	-454
860.166	-766
860.254	-637
860.342	-824
860.429	-1083
860.517	-1098
860.604	-12
860.692	-1223
860.779	-1329
860.867	-855
860.954	-1768
861.042	-178
861.129	-600
861.216	-1236
861.304	-1857
861.391	-883
861.478	-847
861.565	-1010
861.653	-1093
861.740	-855
861.827	-1520
861.914	-724
862.001	-1029
862.089	-1137
862.176	-1206
862.263	-1279
862.350	-1479
862.437	-1320
862.524	-1236
862.611	-1105
862.698	-565
862.785	-708
862.871	-611
862.958	-1402
863.045	-1203
863.132	-271
863.219	-1809
863.306	-1570
863.392	-1241
863.479	-1450
863.566	-826
863.652	71
863.739	-1668
863.826	-786
863.912	-1312
863.999	-784
864.086	-1176
864.172	-645
864.259	-1232
864.345	-277
864.432	-671
864.518	-227
864.604	-1263
864.691	-27
864.777	-392
864.863	-798
864.950	-769
865.036	-407
865.122	-559
865.209	-30
865.295	-760
865.381	-290
865.467	-1082
865.553	45
865.639	-680
865.726	1265
865.812	3197
865.898	8401
865.984	13508
866.070	24228
866.156	33960
866.242	8804
866.328	1160
866.414	-28
866.499	-602
866.585	287
866.671	-453
866.757	-644
866.843	-246
866.928	-598
867.014	-887
867.100	280
867.186	-973
867.271	-466
867.357	258
867.442	1300
867.528	-712
867.614	-402
867.699	-400
867.785	-346
867.870	-625
867.956	210
868.041	-319
868.127	43
868.212	368
868.297	-515
868.383	-536
868.468	-22
868.553	225
868.639	761
868.724	1559
868.809	1986
868.894	-493
868.979	305
869.065	-367
869.150	-1488
869.235	-1132
869.320	-34
869.405	-1352
869.490	-1097
869.575	-980
869.660	-17
869.745	-831
869.830	-1125
869.915	-399
870.000	-431
870.085	-1150
870.169	-765
870.254	-575
870.339	-627
870.424	-1812
870.509	-924
870.593	-843
870.678	-884
870.763	-1150
870.847	-951
870.932	-1145
871.016	-202
871.101	-1003
871.186	-730
871.270	-912
871.355	-174
871.439	-936
871.523	-1114
871.608	-1406
871.692	-306
871.777	-1082
871.861	-851
871.945	-1011
872.030	-671
872.114	-1710
872.198	-1242
872.282	-1525
872.367	-872
872.451	-1330
872.535	-259
872.619	-1296
872.703	-785
872.787	-1025
872.871	-665
872.955	-790
873.039	-990
873.123	-982
873.207	-650
873.291	-1418
873.375	-1299
873.459	-804
873.543	-1049
873.627	-1110
873.711	-1244
873.794	-937
873.878	-524
873.962	-1041
874.045	-422
874.129	-1338
874.137	-1350
874.213	-1467
874.245	-1218
874.296	-816
874.352	-753
874.380	-729
874.460	-779
874.464	-781
874.547	-1130
874.568	-1043
874.631	-808
874.676	-730
874.714	-661
874.784	-353
874.798	-295
874.881	181
874.892	-47
874.965	-1647
874.999	-1037
875.048	-158
875.107	-596
875.131	-786
875.215	-574
875.215	-574
875.298	-861
875.323	-745
875.381	-492
875.430	-172
875.465	64
875.538	-862
875.548	-985
875.631	-1285
875.646	-1203
875.714	-814
875.753	-785
875.798	-779
875.861	-768
875.881	-776
875.964	-915
875.968	-889
876.047	-281
876.076	-281
876.130	-358
876.183	-746
876.213	-954
876.291	-574
876.296	-544
876.379	-746
876.398	-821
876.462	-1131
876.506	-818
876.545	-538
876.613	-840
876.628	-886
876.711	-834
876.721	-833
876.794	-903
876.828	-857
876.877	-845
876.935	-525
876.960	-358
877.043	-174
877.043	-175
877.125	-253
877.150	-138
877.208	42
877.258	-277
877.291	-477
877.365	-296
877.374	-285
877.456	-262
877.472	-301
877.539	-407
877.579	-718
877.622	-1018
877.687	-177
877.704	38
877.787	196
877.794	172
877.869	-183
877.901	-148
877.952	18
878.008	47
878.034	30
878.115	-1113
878.117	-1132
878.199	-671
878.222	-719
878.282	-899
878.329	-446
878.364	-135
878.437	-307
878.447	-315
878.529	-796
878.544	-700
878.611	-370
878.651	-520
878.694	-665
878.758	-798
878.776	-863
878.858	-771
878.865	-786
878.941	-728
878.972	-610
879.023	-373
879.078	-380
879.105	-424
879.185	-66
879.187	-62
879.269	-641
879.292	-660
879.351	-436
879.399	-372
879.433	-326
879.506	-79
879.516	-76
879.598	-676
879.613	-704
879.680	-748
879.720	-772
879.762	-793
879.827	-822
879.844	-809
879.926	-544
879.933	-545
880.007	-457
880.040	-388
880.089	-469
880.147	-511
880.171	-435
880.253	-4
880.254	-3
880.335	406
880.360	303
880.417	385
880.467	1194
880.499	1734
880.574	2244
880.580	2198
880.662	639
880.680	267
880.744	-452
880.787	-241
880.825	-112
880.893	-917
880.907	-1025
880.989	-365
881.000	-310
881.070	-77
881.106	-246
881.152	-556
881.213	-559
881.233	-449
881.315	221
881.319	217
881.396	-100
881.426	-217
881.478	-393
881.532	-350
881.559	-346
881.639	-144
881.641	-133
881.722	-229
881.745	-250
881.803	-199
881.852	-235
881.885	-405
881.958	-585
881.966	-587
882.047	-328
882.064	-316
882.129	190
882.171	406
882.210	369
882.277	783
882.291	840
882.372	72
882.383	45
882.454	-100
882.489	-404
882.535	-583
882.596	-338
882.616	-251
882.697	-66
882.702	-46
882.778	-1
882.808	-152
882.859	-291
882.914	-314
882.940	-257
883.020	-338
883.021	-335
883.102	173
883.127	39
883.183	-56
883.233	211
883.264	143
883.339	-345
883.345	-359
883.426	-555
883.445	-518
883.507	-213
883.551	-201
883.587	-295
883.657	-250
883.668	-195
883.749	-37
883.763	-40
883.830	-380
883.869	-352
883.910	-68
883.975	-187
883.991	-331
884.072	-162
884.081	-224
884.152	-183
884.187	84
884.233	328
884.292	7
884.314	-177
884.394	-130
884.398	-161
884.475	-770
884.504	-853
884.555	-415
884.610	-131
884.636	-261
884.716	-364
884.716	-355
884.797	182
884.821	477
884.877	216
884.927	-273
884.958	-82
885.033	643
885.038	625
885.118	-267
885.139	-377
885.199	-156
885.244	-101
885.279	-6
885.350	421
885.359	434
885.439	240
885.456	153
885.520	-193
885.561	-189
885.600	166
885.667	522
885.680	456
885.760	64
885.773	60
885.840	692
885.878	746
885.920	581
885.984	459
886.000	414
886.080	355
886.089	327
886.160	-20
886.195	-184
886.240	7
886.300	245
886.320	266
886.400	415
886.406	411
886.480	265
886.511	246
886.560	429
886.616	574
886.640	419
886.720	-149
886.722	-163
886.800	234
886.827	294
886.879	271
886.932	320
886.959	368
887.038	597
887.039	603
887.119	510
887.143	493
887.198	403
887.248	273
887.278	335
887.354	523
887.358	547
887.437	1018
887.459	1054
887.517	695
887.564	605
887.596	653
887.669	438
887.676	404
887.755	129
887.774	7
887.835	361
887.880	771
887.914	564
887.985	-160
887.994	-119
888.073	448
888.090	538
888.153	520
888.195	528
888.232	594
888.300	646
888.311	730
888.391	1285
888.405	1383
888.470	788
888.510	407
888.549	399
888.615	346
888.628	423
888.708	926
888.720	974
888.787	415
888.825	168
888.866	435
888.930	771
888.945	763
889.024	750
889.035	734
889.103	609
889.140	552
889.182	808
889.245	1168
889.261	1136
889.340	968
889.349	942
889.419	264
889.454	-79
889.498	89
889.559	315
889.577	491
889.656	1257
889.664	1329
889.735	1008
889.768	848
889.814	895
889.873	952
889.978	198
890.083	1305
890.187	1023
890.292	669
890.397	994
890.501	1020
890.606	921
890.710	1010
890.815	317
890.919	587
891.024	107
891.128	653
891.233	1316
891.337	1412
891.442	410
891.546	689
891.650	328
891.755	424
891.859	1016
891.963	977
892.068	365
892.172	843
892.276	153
892.380	725
892.484	217
892.589	1028
892.693	345
892.797	540
892.901	742
893.005	541
893.109	-13
893.213	1279
893.317	603
893.421	1407
893.525	833
893.629	258
893.733	383
893.837	526
893.941	472
894.045	931
894.148	189
894.252	1882
894.356	477
894.460	1340
894.564	112
894.667	203
894.771	-56
894.875	194
894.978	272
895.082	222
895.186	1032
895.289	1125
895.393	921
895.496	482
895.600	550
895.703	497
895.807	782
895.910	380
896.014	148
896.117	492
896.221	1252
896.324	777
896.427	755
896.531	313
896.634	70
896.737	720
896.840	132
896.944	627
897.047	96
897.150	911
897.253	21
897.356	1761
897.460	588
897.563	1102
897.666	145
897.769	781
897.872	1015
897.975	1197
898.078	-174
898.181	215
898.284	709
898.387	1215
898.490	590
898.593	476
898.695	-97
898.798	598
898.901	713
899.004	1294
899.107	641
899.209	758
899.312	726
899.415	606
899.518	450
899.620	422
899.723	1013
899.826	1152
899.928	486
900.031	1234
900.133	475
900.236	1355
900.338	79
900.441	1271
900.543	300
900.646	844
900.748	695
900.851	490
900.953	718
901.055	1095
901.158	-143
901.260	402
901.362	263
901.465	296
901.567	908
901.669	1142
901.771	414
901.873	757
901.976	195
902.078	617
902.180	356
902.282	1274
902.384	371
902.486	1078
902.588	1055
902.690	1447
902.792	471
902.894	1470
902.996	584
903.098	691
903.200	606
903.302	1125
903.404	947
903.505	275
903.607	1080
903.709	810
903.811	810
903.913	1254
904.014	60
904.116	570
904.218	301
904.319	924
904.421	889
904.523	996
904.624	280
904.726	853
904.827	71
904.929	-159
905.030	287
905.132	336
905.233	759
905.335	849
905.436	0
905.537	1082
905.639	306
905.740	1370
905.841	795
905.943	498
906.044	1309
906.145	697
906.247	406
906.348	331
906.449	729
906.550	883
906.651	261
906.752	560
906.854	324
906.955	607
907.056	1145
907.157	982
907.258	994
907.359	1398
907.460	160
907.561	1015
907.662	608
907.762	660
907.863	-279
907.964	375
908.065	293
908.166	83
908.267	1091
908.367	175
908.468	570
908.569	1753
908.670	1338
908.770	992
908.871	1258
908.971	230
909.072	2341
909.173	607
909.273	179
909.374	301
909.474	117
909.575	430
909.675	-404
909.776	718
909.876	-190
909.977	825
910.077	-64
910.177	1118
910.278	763
910.378	1123
910.478	1022
910.579	571
910.679	-897
910.779	1233
910.879	869
910.980	969
911.080	351
911.180	283
911.280	113
911.380	522
911.480	411
911.580	283
911.680	-2
911.780	50
911.880	-13
911.980	794
912.080	-6
912.180	606
912.280	420
912.380	1095
912.480	582
912.580	542
912.679	416
912.779	1217
912.879	218
912.979	-38
913.078	556
913.178	87
913.278	24
913.377	517
913.477	250
913.577	694
913.676	674
913.776	677
913.875	310
913.975	146
914.074	-222
914.174	803
914.273	288
914.373	528
914.472	470
914.572	482
914.671	458
914.770	471
914.870	325
914.969	284
915.068	556
915.167	517
915.267	-421
915.366	350
915.465	1050
915.564	648
915.663	583
915.763	-127
915.862	525
915.961	554
916.060	300
916.159	587
916.258	-141
916.357	964
916.456	766
916.555	549
916.654	289
916.752	767
916.851	18
916.950	196
917.049	515
917.148	-37
917.247	1033
917.345	-347
917.444	-129
917.543	297
917.642	191
917.740	-32
917.839	-109
917.937	672
918.036	617
918.135	570
918.233	221
918.332	-869
918.430	-807
918.529	-79
918.627	-31
918.726	133
918.824	-37
918.923	1270
919.021	-31
919.119	492
919.218	122
919.316	534
919.414	689
919.512	705
919.611	268
919.709	21
919.807	-104
919.905	664
920.003	162
920.102	-888
920.200	123
920.298	-10
920.396	273
920.494	1363
920.592	431
920.690	327
920.788	-176
920.886	1395
920.984	198
921.082	-1068
921.180	-100
921.277	606
921.375	-54
921.473	874
921.571	-97
921.669	328
921.766	206
921.864	465
921.962	-377
922.060	319
922.157	349
922.255	381
922.352	903
922.450	471
922.548	293
922.645	719
922.743	277
922.840	981
922.938	-271
923.035	1469
923.133	629
923.230	1173
923.327	1537
923.425	931
923.522	170
923.619	1225
923.717	7
923.814	315
923.911	-518
924.008	1005
924.106	807
924.203	686
924.300	62
924.397	729
924.494	1478
924.591	1383
924.688	382
924.786	319
924.883	692
924.979	763
925.077	838
925.173	749
925.270	170
925.367	243
925.464	1260
925.561	323
925.658	1253
925.755	967
925.852	1128
925.948	516
926.045	785
926.142	831
926.239	674
926.335	477
926.432	1023
926.529	959
926.625	420
926.722	596
926.818	497
926.915	500
927.011	457
927.108	1372
927.204	309
927.301	296
927.397	383
927.494	586
927.590	823
927.687	-182
927.783	-172
927.879	156
927.976	249
928.072	500
928.168	580
928.264	1060
928.361	48
928.457	767
928.553	1220
928.649	906
928.745	-23
928.841	292
928.937	656
929.033	483
929.129	279
929.225	1400
929.321	1169
929.417	174
929.513	329
929.609	220
929.705	75
929.801	772
929.897	-30
929.993	66
930.089	-191
930.184	589
930.280	-200
930.376	994
930.471	836
930.567	688
930.663	-384
930.758	-25
930.854	-102
930.950	719
931.045	60
931.141	73
931.236	1219
931.332	521
931.427	370
931.523	144
931.618	-247
931.714	682
931.809	709
931.905	718
932.000	58
932.095	184
932.191	-551
932.286	472
932.381	410
932.476	434
932.572	139
932.667	1157
932.762	758
932.857	-2
932.952	-330
933.047	442
933.142	-419
933.237	678
933.332	76
933.427	646
933.522	9
933.617	768
933.712	728
933.807	1099
933.902	9
933.997	1312
934.092	-128
934.187	-314
934.282	799
934.376	271
934.471	-92
934.566	660
934.661	-363
934.755	254
934.850	334
934.945	1208
935.039	493
935.134	487
935.228	613
935.323	-9
935.417	436
935.512	-204
935.606	-371
935.701	689
935.795	512
935.890	-247
935.984	17
936.079	-267
936.173	591
936.267	-226
936.362	357
936.456	476
936.550	752
936.644	252
936.738	620
936.833	379
936.927	-102
937.021	984
937.115	317
937.209	-148
937.303	1745
937.397	185
937.491	-77
937.585	-68
937.679	-66
937.773	-94
937.867	308
937.961	1055
938.055	440
938.149	718
938.243	664
938.337	578
938.430	-418
938.524	1110
938.618	614
938.712	684
938.805	24
938.899	1124
938.993	650
939.086	643
939.180	240
939.274	691
939.367	275
939.461	805
939.554	-365
939.648	62
939.741	557
939.835	-200
939.928	588
940.022	560
940.115	-302
940.208	787
940.302	247
940.395	815
940.488	-516
940.582	101
940.675	-352
940.768	251
940.861	-412
940.954	-33
941.048	292
941.141	940
941.234	1560
941.327	1680
941.420	1420
941.513	1026
941.606	74
941.699	1396
941.792	-278
941.885	478
941.978	208
942.071	1028
942.164	-108
942.257	354
942.349	779
942.442	444
942.535	-393
942.628	-151
942.721	627
942.813	14
942.906	373
942.999	1242
943.091	-267
943.184	579
943.277	63
943.369	547
943.462	422
943.554	933
943.647	268
943.739	553
943.832	344
943.924	307
944.017	446
944.109	-159
944.201	440
944.294	355
944.386	-301
944.478	209
944.571	907
944.663	407
944.755	699
944.847	696
944.940	42
945.032	194
945.124	-3
945.216	883
945.308	273
945.400	307
945.492	-277
945.584	441
945.676	475
945.768	970
945.860	741
945.952	798
946.044	119
946.136	242
946.228	419
946.320	506
946.412	-144
946.503	404
946.595	416
946.687	577
946.779	952
946.870	-192
946.962	-25
947.054	508
947.145	747
947.237	306
947.329	773
947.420	79
947.512	142
947.603	231
947.695	1302
947.786	132
947.878	16
947.969	262
948.061	-99
948.152	456
948.243	-57
948.335	386
948.426	-398
948.517	272
948.609	540
948.700	672
948.791	184
948.882	-7
948.973	846
949.065	507
949.156	89
949.247	-236
949.338	-345
949.429	-553
949.520	322
949.611	125
949.702	923
949.793	349
949.884	-479
949.975	-123
950.066	-597
950.157	-273
950.247	-173
950.338	938
950.429	104
950.520	14
950.611	798
950.701	1169
950.792	-100
950.883	1220
950.973	346
951.064	798
951.155	352
951.245	169
951.336	-2
951.427	641
951.517	692
951.608	7
951.698	428
951.788	-112
951.879	-688
951.969	295
952.060	24
952.150	-471
952.240	-136
952.331	-576
952.421	-201
952.511	180
952.602	526
952.692	84
952.782	464
952.872	-147
952.962	-143
953.052	263
953.143	-938
953.233	-336
953.323	952
953.413	-10
953.503	199
953.593	620
953.683	-265
953.773	641
953.863	-127
953.953	-218
954.042	-204
954.132	-354
954.222	69
954.312	511
954.402	196
954.492	1021
954.581	3060
954.671	1456
954.761	304
954.850	712
954.940	-343
955.030	220
955.119	-331
955.209	152
955.298	-137
955.388	931
955.477	-143
955.567	-507
955.656	371
955.746	675
955.835	169
955.925	-340
956.014	159
956.103	-538
956.193	-45
956.282	-496
956.371	84
956.461	663
956.550	-189
956.639	169
956.728	161
956.817	-385
956.906	-205
956.995	885
957.085	-639
957.174	86
957.263	-551
957.352	-197
957.441	119
957.530	119
957.619	-220
957.708	-245
957.796	334
957.885	224
957.974	-1038
958.063	188
958.152	-573
958.241	-62
958.329	-360
958.418	-21
958.507	-705
958.596	516
958.684	-1006
958.773	61
958.861	336
958.950	829
959.039	834
959.127	494
959.216	690
959.304	191
959.393	-473
959.481	769
959.570	689
959.658	577
959.746	741
959.835	1047
959.923	3637
960.011	2229
960.100	321
960.188	1119
960.276	-592
960.365	293
960.453	-385
960.541	-439
960.629	-767
960.717	173
960.805	96
960.893	470
960.981	13
961.069	287
961.158	-155
961.245	-484
961.333	-369
961.421	-888
961.509	-488
961.597	95
961.685	-1056
961.773	-287
961.861	-146
961.949	-53
962.036	76
962.124	349
962.212	-493
962.299	-27
962.387	-420
962.475	-1082
962.562	-838
962.650	671
962.738	-107
962.825	140
962.913	422
963.000	-798
963.088	-25
963.175	-292
963.263	-1020
963.350	754
963.438	290
963.525	533
963.612	3142
963.700	6942
963.787	20841
963.874	14190
963.962	693
964.049	994
964.136	214
964.223	-684
964.310	-119
964.398	38
964.485	173
964.572	1056
964.659	2059
964.746	3527
964.833	845
964.920	-92
965.007	-423
965.094	-109
965.181	-620
965.268	6
965.355	-10
965.441	-192
965.528	-1040
965.615	151
965.702	-498
965.789	-565
965.875	-471
965.962	-622
966.049	-368
966.136	-280
966.222	-451
966.309	-91
966.395	-1327
966.482	0
966.569	-331
966.655	-1041
966.742	-261
966.828	370
966.915	-1068
967.001	545
967.087	-836
967.174	-268
967.260	1075
967.347	2321
967.433	4616
967.519	14694
967.605	7070
967.692	422
967.778	-12
967.864	-307
967.950	-697
968.036	-474
968.123	-109
968.209	-998
968.295	-1353
968.381	548
968.467	234
968.553	-405
968.639	315
968.725	-206
968.811	2055
968.897	2701
968.983	-196
969.069	-1069
969.154	-88
969.240	-804
969.326	-1330
969.412	-642
969.497	-975
969.583	-225
969.669	-784
969.755	-278
969.840	-665
969.926	143
970.012	184
970.097	-400
970.183	203
970.268	396
970.354	794
970.439	2709
970.525	8759
970.610	4163
970.696	400
970.781	-255
970.866	-938
970.952	209
971.037	-593
971.122	-479
971.208	-885
971.293	-415
971.378	-1165
971.463	-376
971.549	-936
971.634	-260
971.719	294
971.804	940
971.889	2056
971.974	-46
972.059	-498
972.144	-717
972.229	-1116
972.314	-73
972.399	-547
972.484	-294
972.569	-257
972.654	1029
972.739	3091
972.824	5780
972.908	2108
972.993	-280
973.078	-788
973.163	-285
973.247	-954
973.332	-1558
973.417	-79
973.501	-782
973.586	-768
973.671	-815
973.755	-26
973.840	823
973.924	558
974.009	310
974.093	-640
974.178	1476
974.262	1702
974.346	4515
974.431	748
974.515	-595
974.600	-773
974.684	-142
974.768	-495
974.852	798
974.937	-824
975.021	-34
975.105	-964
975.189	-747
975.273	-640
975.358	-1199
975.442	-732
975.526	-41
975.610	-1060
975.694	-746
975.778	-453
975.862	-311
975.946	-1179
976.030	143
976.114	-978
976.198	-580
976.281	-942
976.365	-262
976.449	-566
976.533	-213
976.617	-1196
976.700	-196
976.784	-174
976.868	252
976.951	1298
977.035	1816
977.119	282
977.202	272
977.286	-1157
977.369	-54
977.453	-487
977.536	-869
977.620	-1034
977.703	-242
977.787	-1221
977.870	-487
977.953	309
978.037	-1182
978.120	1473
978.203	1781
978.287	4176
978.370	2668
978.453	74
978.536	-389
978.620	821
978.703	2431
978.786	1488
978.869	-1057
978.952	-1382
979.035	667
979.118	-209
979.201	-845
979.284	-893
979.367	-397
979.450	-436
979.533	-530
979.616	-760
979.699	-722
979.782	-295
979.865	-482
979.948	-434
980.030	-909
980.113	-494
980.196	-770
980.279	-463
980.361	-478
980.444	-1285
980.526	320
980.609	-1113
980.692	-949
980.774	-983
980.857	-376
980.939	-564
981.022	-174
981.104	-1056
981.187	-335
981.269	-389
981.352	-1100
981.434	-897
981.516	-1601
981.599	315
981.681	179
981.763	-806
981.846	209
981.928	-1098
982.010	-709
982.092	-1690
982.174	-279
982.256	-417
982.339	122
982.421	-543
982.503	-719
982.585	-641
982.667	-622
982.749	-181
982.831	-978
982.913	-1398
982.995	444
983.077	-1493
983.158	923
983.240	-222
983.322	-117
983.404	127
983.486	-905
983.568	-1373
983.649	-571
983.731	-493
983.813	-1172
983.894	-369
983.976	-1540
984.058	-584
984.139	-243
984.221	-674
984.302	81
984.384	-569
984.465	-730
984.547	-752
984.628	-864
984.710	-1200
984.791	-784
984.872	-1543
984.954	-918
985.035	-798
985.116	-715
985.198	-692
985.279	752
985.360	-930
985.441	-795
985.522	-1036
985.604	-1292
985.685	-2354
985.766	48
985.847	-66
985.928	-615
986.009	-746
986.090	-922
986.171	-1084
986.252	-907
986.333	-947
986.414	-760
986.495	-676
986.576	-713
986.656	-493
986.737	-567
986.818	-972
986.899	-1069
986.980	-1090
987.060	-195
987.141	-1111
987.222	-730
987.302	-1242
987.383	359
987.464	-859
987.544	89
987.625	-1038
987.705	-1208
987.786	-556
987.866	-1143
987.947	-1149
988.027	-618
988.108	-387
988.188	-399
988.268	-1167
988.349	-545
988.429	-621
988.509	-438
988.589	-1557
988.670	-1395
988.750	89
988.830	-558
988.910	-1008
988.990	-165
989.070	-323
989.151	-807
989.231	-1943
989.311	-790
989.391	-551
989.471	-764
989.551	-925
989.631	-1600
989.711	-67
989.791	-933
989.870	-1302
989.950	37
990.030	-1151
990.110	-873
990.190	-1426
990.269	-1222
990.349	-1158
990.429	-565
990.509	-485
990.588	-1158
990.668	-1559
990.747	-729
990.827	-897
990.907	-598
990.986	-1144
991.066	-570
991.145	-1500
991.225	-724
991.304	-1085
991.383	-1048
991.463	-983
991.542	-793
991.622	-1110
991.701	-901
991.780	-1336
991.859	-916
991.939	-1411
992.018	-868
992.097	-683
992.176	-890
992.256	-865
992.335	-713
992.414	-732
992.493	-641
992.572	-1525
992.651	176
992.730	-755
992.809	-880
992.888	-1228
992.967	-923
993.046	-1395
993.125	-707
993.203	-1263
993.282	-1399
993.361	-786
993.440	-333
993.519	-1475
993.597	-613
993.676	-1314
993.755	-401
993.834	-1639
993.912	-1192
993.991	-361
994.069	-519
994.148	-1262
994.226	-1655
994.305	-870
994.384	-1243
994.462	-652
994.540	-1674
994.619	-1270
994.697	-791
994.776	-687
994.854	-626
994.932	-1328
995.011	-461
995.089	-2285
995.167	-931
995.245	-1186
995.324	-1198
995.402	-335
995.480	-1339
995.558	-832
995.636	-1017
995.714	-856
995.792	-45
995.870	-1502
995.948	-1383
996.026	-977
996.104	-910
996.182	-533
996.260	-1499
996.338	-1007
996.416	-946
996.494	-1369
996.572	-289
996.649	-1373
996.727	-1841
996.805	-1381
996.883	-1092
996.960	-625
997.038	-522
997.116	-278
997.193	-936
997.271	-188
997.348	-693
997.426	-1481
997.504	-1332
997.581	-1291
997.658	-1304
997.736	-1134
997.813	-1049
997.891	92
997.968	-1691
998.046	-1545
998.123	-1402
998.200	-508
998.277	-1427
998.355	-319
998.432	-1259
998.509	-1006
998.586	-692
998.663	-1024
998.741	-1422
998.818	-1548
998.895	-666
998.972	-1324
999.049	-228
999.126	-1097
999.203	-1131
999.280	-644
999.357	-2374
999.434	-2172
999.511	-421
999.587	-864
999.664	-1556
999.741	-722
999.818	153
999.895	-1089
999.971	-1193
1000.048	-847
1000.125	-994
1000.202	-1565
1000.278	-812
1000.355	-1125
1000.431	-263
1000.508	-1982
1000.584	-437
1000.661	-1120
1000.738	-977
1000.814	-1217
1000.890	-1184
1000.967	-1902
1001.043	-150
1001.120	-1889
1001.196	-1120
1001.272	-856
1001.349	-1173
1001.425	-985
1001.501	-1576
1001.577	-2051
1001.654	-912
1001.730	-1622
1001.806	-1446
1001.882	-2098
1001.958	-1066
1002.034	-1425
1002.110	-1867
1002.186	-1434
1002.262	-1411
1002.338	-1693
1002.414	-1148
1002.490	-862
1002.566	-1023
1002.642	-2569
1002.718	-1080
1002.794	-1443
1002.870	-1387
1002.945	-1722
1003.021	-579
1003.097	-1923
1003.173	-641
1003.248	-2134
1003.324	-716
1003.400	-1116
1003.475	-1328
1003.551	-2146
1003.626	-1013
1003.702	-1007
1003.777	-788
1003.853	-1624
1003.928	-1205
1004.004	-1394
1004.079	-1021
1004.155	-1331
1004.230	-1857
1004.305	-1163
1004.381	-2483
1004.456	-928
1004.531	-1585
1004.607	-1762
1004.682	-1101
1004.757	-1062
1004.832	-1370
1004.907	-1385
1004.982	-576
1005.057	-1013
1005.133	-1199
1005.208	-1302
1005.283	-1574
1005.358	-1129
1005.433	-777
1005.508	-1149
1005.583	-1163
1005.657	-1702
1005.732	-542
1005.807	-1756
1005.882	-1664
1005.957	-1900
1006.032	-1985
1006.106	-1351
1006.181	-1027
1006.256	-1445
1006.331	-2436
1006.405	-1431
1006.480	-1377
1006.554	-1300
1006.629	-1065
1006.704	-1555
1006.778	-975
1006.853	-1656
1006.927	-1252
1007.002	-1610
1007.076	-770
1007.150	-1247
1007.225	-1489
1007.299	-1357
1007.373	-1700
1007.448	-1845
1007.522	-1443
1007.596	-1318
1007.671	-1908
1007.745	-1317
1007.819	-1680
1007.893	-934
1007.967	-1108
1008.041	-2014
1008.115	-605
1008.190	-1930
1008.264	-1361
1008.338	-2140
1008.412	-1504
1008.486	-1603
1008.560	-1408
1008.633	-2543
1008.707	-1511
1008.781	-1413
1008.855	-1192
1008.929	-1473
1009.003	-1786
1009.076	-1940
1009.150	-567
1009.224	-1890
1009.298	-1002
1009.371	-2566
1009.445	-1473
1009.519	-1704
1009.592	-1994
1009.666	-1332
1009.739	-860
1009.813	-2436
1009.886	-1180
1009.960	-2335
1010.033	-1331
1010.107	-1188
1010.180	-2163
1010.253	-1753
1010.327	-2173
1010.400	-1943
1010.473	-2454
1010.547	-522
1010.620	-1110
1010.693	-1222
1010.766	-1593
1010.840	-966
1010.913	-1745
1010.986	-2177
1011.059	-642
1011.132	-1572
1011.205	-927
1011.278	-1531
1011.351	-1409
1011.424	-1590
1011.497	-2015
1011.570	-1613
1011.643	-1356
1011.716	-1330
1011.789	-1901
1011.862	-1346
1011.934	-1114
1012.007	-2118
1012.080	-684
1012.153	-2021
1012.225	-1528
1012.298	-2104
1012.371	-1388
1012.443	-994
1012.516	-1784
1012.588	-1318
1012.661	-785
1012.733	-987
1012.806	-1451
1012.879	-1413
1012.951	-1446
1013.023	-2021
1013.096	-1399
1013.168	-1880
1013.241	25
1013.313	-1599
1013.385	-1085
1013.458	-1936
1013.530	-1055
1013.602	-1643
1013.674	-923
1013.746	-1701
1013.819	-1725
1013.891	-1824
1013.963	-1242
1014.035	-2178
1014.107	-1339
1014.179	-1476
1014.251	-1422
1014.323	-1331
1014.395	-1204
1014.467	-1584
1014.539	-948
1014.611	-1220
1014.683	-1099
1014.754	-1286
1014.826	-1261
1014.898	-1280
1014.970	-1556
1015.042	-1503
1015.113	-1727
1015.185	-1812
1015.257	-1548
1015.328	-2180
1015.400	-1687
1015.471	-1315
1015.543	-2306
1015.615	-1285
1015.686	-190
1015.757	-956
1015.829	-1139
1015.901	-2594
1015.972	-1427
1016.043	-2596
1016.115	-1242
1016.186	-1258
1016.257	-1942
1016.328	-1210
1016.400	-1420
1016.471	-2337
1016.542	-1459
1016.613	-1636
1016.685	-1384
1016.756	-1372
1016.827	-1014
1016.898	-1425
1016.969	-1408
1017.040	-1903
1017.111	-2279
1017.182	-940
1017.253	-1920
1017.324	-1194
1017.395	-1879
1017.466	-1328
1017.537	-890
1017.608	-1563
1017.678	-1227
1017.749	-2263
1017.820	-1449
1017.891	-1806
1017.961	-1257
1018.032	-1423
1018.103	-982
1018.173	-2022
1018.244	-936
1018.315	-1595
1018.385	-1801
1018.456	-1271
1018.526	-1625
1018.597	-1417
1018.667	-835
1018.738	-2242
1018.808	-1300
1018.878	-2297
1018.949	-1280
1019.019	-2292
1019.089	-1281
1019.160	-906
1019.230	-1846
1019.300	-1359
1019.371	-1643
1019.441	-815
1019.511	-1507
1019.581	-1754
1019.651	-599
1019.721	-1553
1019.791	-1760
1019.861	-2315
1019.931	-1144
1020.001	-2541
1020.071	-589
1020.141	-1820
1020.211	-1159
1020.281	-1549
1020.351	-856
1020.421	-2066
1020.491	-1415
1020.560	-2002
1020.630	-1519
1020.700	-2362
1020.770	-1745
1020.839	-2072
1020.909	-1244
1020.979	-2157
1021.048	-1579
1021.118	-1635
1021.187	-1385
1021.257	-1512
1021.326	-881
1021.396	-2192
1021.465	-1050
1021.535	-1359
1021.604	-2181
1021.674	-1416
1021.743	-1661
1021.812	-1450
1021.882	-2349
1021.951	-1485
1022.020	-903
1022.089	-1418
1022.159	-1388
1022.228	-1293
1022.297	-2178
1022.366	-1565
1022.435	-1819
1022.504	-2448
1022.573	-1770
1022.642	-989
1022.711	-1473
1022.781	-1307
1022.849	-1249
1022.918	-1555
1022.987	-875
1023.056	-1892
1023.125	-1200
1023.194	-1314
1023.263	-2115
1023.331	-1251
1023.400	-1292
1023.469	-1938
1023.538	-1752
1023.606	-2103
1023.675	-2014
1023.744	-2050
1023.812	-2377
1023.881	-2117
1023.949	-1699
1024.018	-1194
1024.086	-1630
1024.155	-1932
1024.223	-1728
1024.292	-817
1024.360	-1407
1024.429	-2024
1024.497	-2503
1024.565	-1995
1024.634	-1192
1024.702	-1743
1024.770	-1728
1024.838	-2339
1024.907	-1513
1024.975	-1999
1025.043	-1872
1025.111	-2223
1025.179	-2027
1025.247	-2832
1025.315	-2381
1025.383	-2113
1025.451	-2178
1025.519	-1775
1025.587	-1954
1025.655	-1451
1025.723	-1367
1025.791	-1431
1025.859	-1718
1025.927	-1772
1025.995	-1087
1026.062	-2118
1026.130	-1211
1026.198	-1284
1026.266	-1602
1026.333	-1837
1026.401	-1299
1026.469	-1001
1026.536	-1460
1026.604	-2040
1026.671	-1729
1026.739	-1808
1026.806	-1873
1026.874	-2118
1026.941	-2237
1027.009	-2574
1027.076	-1766
1027.144	-1863
1027.211	-2035
1027.278	-1721
1027.345	-1758
1027.413	-2001
1027.480	-1865
1027.547	-1754
1027.614	-1834
1027.682	-1807
1027.749	-1355
1027.816	-1560
1027.883	-1548
1027.950	-2399
1028.017	-1970
1028.084	-1143
1028.151	-2551
1028.218	-1792
1028.285	-1954
1028.352	-1737
1028.419	-2928
1028.486	-2011
1028.553	-2341
1028.619	-2278
1028.686	-1604
1028.753	-1967
1028.820	-1644
1028.886	-2202
1028.953	-2455
1029.020	-1884
1029.086	-2378
1029.153	-1448
1029.220	-1780
1029.286	-1676
1029.353	-1846
1029.419	-2604
1029.486	-1313
1029.552	-1917
1029.619	-1821
1029.685	-2368
1029.751	-2388
1029.818	-1492
1029.884	-2413
1029.951	-1429
1030.017	-1801
1030.083	-1710
1030.149	-1584
1030.216	-2462
1030.282	-1759
1030.348	-2154
1030.414	-1355
1030.480	-3020
1030.546	-1745
1030.612	-1571
1030.678	-1793
1030.744	-2316
1030.810	-1867
1030.876	-2000
1030.942	-2250
1031.008	-1721
1031.074	-2248
1031.140	-1155
1031.206	-1564
1031.272	-1587
1031.337	-1706
1031.403	-2265
1031.469	-2080
1031.534	-2269
1031.600	-966
1031.666	-2783
1031.731	-1460
1031.797	-2426
1031.863	-1636
1031.928	-2003
1031.994	-1848
1032.059	-2330
1032.125	-1840
1032.190	-2731
1032.256	-1639
1032.321	-3127
1032.386	-2651
1032.452	-1802
1032.517	-1851
1032.582	-2305
1032.647	-1986
1032.713	-2579
1032.778	-1898
1032.843	-2323
1032.908	-1884
1032.974	-2457
1033.039	-1594
1033.104	-1957
1033.169	-1702
1033.234	-2342
1033.299	-1330
1033.364	-1227
1033.429	-1959
1033.494	-2232
1033.559	-1826
1033.624	-2347
1033.688	-2114
1033.753	-2375
1033.818	-1495
1033.883	-1815
1033.948	-1211
1034.013	-2090
1034.077	-2107
1034.142	-2062
1034.207	-1666
1034.271	-1469
1034.336	-986
1034.400	-2145
1034.465	-1714
1034.530	-2065
1034.594	-2206
1034.658	-2738
1034.723	-2046
1034.787	-2115
1034.852	-1736
1034.916	-1902
1034.981	-2464
1035.045	-1990
1035.109	-1487
1035.173	-1549
1035.238	-2057
1035.302	-1887
1035.366	-1707
1035.430	-1921
1035.495	-2579
1035.559	-2577
1035.623	-1997
1035.687	-2718
1035.751	-2515
1035.815	-2151
1035.879	-2068
1035.943	-1809
1036.007	-2214
1036.071	-2492
1036.135	-1636
1036.198	-2263
1036.262	-2273
1036.326	-1640
1036.390	-2216
1036.454	-1910
1036.517	-2086
1036.581	-2121
1036.645	-1440
1036.709	-1722
1036.772	-2523
1036.836	-1916
1036.900	-1937
1036.963	-1576
1037.026	-1311
1037.090	-1899
1037.154	-2121
1037.217	-1634
1037.280	-2113
1037.344	-2962
1037.407	-2436
1037.471	-2524
1037.534	-2196
1037.597	-2263
1037.661	-1620
1037.724	-2066
1037.787	-2634
1037.850	-2245
1037.913	-1679
1037.977	-2083
1038.040	-1957
1038.103	-2320
1038.166	-2313
1038.229	-2320
1038.292	-1990
1038.355	-1357
1038.418	-2172
1038.481	-1294
1038.544	-1862
1038.607	-2249
1038.670	-991
1038.732	-2361
1038.795	-1069
1038.858	-1539
1038.921	-2523
1038.984	-1423
1039.046	-2001
1039.109	-2438
1039.172	-1994
1039.234	-1951
1039.297	-2470
1039.360	-2483
1039.422	-2131
1039.485	-2099
1039.547	-1941
1039.610	-2305
1039.672	-1761
1039.734	-1852
1039.797	-2225
1039.859	-2476
1039.922	-1974
1039.984	-2539
1040.046	-2364
1040.109	-2069
1040.171	-1669
1040.233	-1788
1040.295	-2023
1040.358	-1872
1040.420	-2473
1040.482	-2991
1040.544	-1586
1040.606	-1894
1040.668	-2209
1040.730	-1755
1040.792	-1437
1040.854	-1951
1040.916	-2291
1040.978	-2288
1041.040	-1255
1041.102	-2469
1041.164	-2611
1041.225	-2413
1041.287	-2847
1041.349	-2164
1041.411	-2363
1041.472	-1833
1041.534	-2343
1041.596	-2060
1041.657	-1711
1041.719	-2315
1041.781	-2604
1041.842	-2584
1041.904	-2349
1041.965	-2373
1042.027	-1289
1042.088	-1033
1042.150	-1576
1042.211	-1362
1042.272	-2047
1042.334	-1667
1042.395	-2095
1042.456	-1838
1042.518	-2076
1042.579	-1994
1042.640	-1519
1042.701	-1689
1042.763	-1515
1042.824	-3176
1042.885	-2250
1042.946	-2257
1043.007	-1837
1043.068	-1946
1043.129	-1987
1043.190	-2345
1043.251	-2077
1043.312	-2007
1043.373	-2022
1043.434	-1672
1043.495	-2146
1043.556	-1699
1043.616	-1617
1043.677	-1803
1043.738	-1486
1043.799	-2317
1043.859	-1560
1043.920	-2725
1043.981	-3092
1044.041	-1533
1044.102	-2124
1044.162	-2303
1044.223	-2104
1044.284	-1534
1044.344	-1882
1044.405	-1512
1044.465	-1779
1044.525	-1412
1044.586	-1718
1044.646	-2072
1044.707	-1784
1044.767	-1915
1044.827	-1728
1044.887	-1483
1044.948	-1092
1045.008	-1687
1045.068	-1576
1045.128	-2252
1045.188	-1948
1045.249	-1719
1045.309	-2208
1045.369	-1523
1045.429	-1356
1045.489	-1995
1045.549	-1474
1045.609	-2146
1045.669	-1670
1045.729	-1456
1045.789	-1796
1045.848	-1192
1045.908	-1817
1045.968	-1067
1046.028	-1025
1046.088	-1477
1046.147	-1639
1046.207	-2081
1046.267	-2192
1046.326	-1977
1046.386	-1852
1046.446	-1802
1046.505	-602
1046.565	-777
1046.624	-525
1046.684	-1107
1046.743	-818
1046.803	-903
1046.862	110
1046.922	0
