'Start Wavelength	183.907
'End Wavelength	1046.922
'Gate Delay	5.000
'Gate Width (ms)	1.050
'Laser Output Level	0.000
'X Position	0.000
'Y Position	0.000
'Z Position	0.000
'Grid Point Number	1.000
'Shot Number	100.000
183.907	433.000
183.977	-242.000
184.047	162
184.116	470
184.186	815
184.256	-125
184.325	-68
184.395	-184
184.465	-15
184.534	348
184.604	-665
184.674	764
184.743	-72
184.813	365
184.883	-257
184.952	239
185.022	-197
185.092	820
185.161	316
185.231	-342
185.301	131
185.370	479
185.440	286
185.509	-83
185.579	-53
185.649	178
185.718	202
185.788	2
185.857	79
185.927	-476
185.996	165
186.066	-3
186.136	344
186.205	-62
186.275	311
186.344	723
186.414	376
186.483	132
186.553	571
186.622	834
186.692	-190
186.761	-540
186.831	732
186.900	-86
186.970	731
187.039	65
187.109	67
187.178	467
187.248	-6
187.317	666
187.387	434
187.456	-299
187.526	546
187.595	193
187.664	445
187.734	470
187.803	419
187.873	52
187.942	421
188.012	662
188.081	41
188.150	-373
188.220	219
188.289	256
188.358	171
188.428	297
188.497	18
188.567	124
188.636	406
188.705	539
188.775	-250
188.844	106
188.913	360
188.983	650
189.052	85
189.121	640
189.191	533
189.260	143
189.329	953
189.399	358
189.468	420
189.537	432
189.606	112
189.676	659
189.745	286
189.814	244
189.883	219
189.953	423
190.022	1
190.091	600
190.161	522
190.230	500
190.299	373
190.368	-445
190.437	166
190.507	65
190.576	326
190.645	107
190.714	-22
190.783	-195
190.853	36
190.922	264
190.991	-852
191.060	606
191.129	297
191.198	446
191.268	-805
191.337	-61
191.406	1027
191.475	116
191.544	328
191.613	-538
191.682	-104
191.752	-76
191.821	292
191.890	826
191.959	179
192.028	403
192.097	762
192.166	-226
192.235	686
192.304	716
192.373	-370
192.442	207
192.511	194
192.580	323
192.650	762
192.719	-581
192.788	-318
192.857	1049
192.926	-114
192.995	876
193.064	1064
193.133	712
193.202	775
193.271	1249
193.340	391
193.409	397
193.478	1022
193.547	1332
193.615	975
193.684	976
193.753	1242
193.822	1493
193.891	601
193.960	938
194.029	1051
194.098	398
194.167	340
194.236	378
194.305	244
194.374	112
194.443	626
194.512	261
194.580	310
194.649	923
194.718	1196
194.787	534
194.856	-502
194.925	1015
194.994	556
195.062	328
195.131	361
195.200	7
195.269	345
195.338	-241
195.407	316
195.475	667
195.544	1171
195.613	882
195.682	701
195.751	602
195.819	847
195.888	15
195.957	1269
196.026	752
196.094	823
196.163	924
196.232	576
196.301	995
196.369	916
196.438	1080
196.507	409
196.576	537
196.644	121
196.713	838
196.782	-92
196.850	901
196.919	578
196.988	211
197.056	151
197.125	-203
197.194	157
197.262	-434
197.331	-34
197.400	57
197.468	756
197.537	-50
197.606	435
197.674	1152
197.743	1625
197.812	659
197.880	1719
197.949	1319
198.017	2169
198.086	1550
198.155	1164
198.223	680
198.292	1810
198.360	1057
198.429	1349
198.497	590
198.566	1805
198.635	1534
198.703	855
198.772	672
198.840	2916
198.909	2819
198.977	1041
199.046	1467
199.114	889
199.183	1331
199.251	556
199.320	1035
199.388	86
199.457	671
199.525	417
199.594	-64
199.662	654
199.731	1374
199.799	787
199.867	1062
199.936	962
200.004	353
200.073	657
200.141	248
200.210	184
200.278	272
200.346	199
200.415	1375
200.483	528
200.552	1080
200.620	443
200.688	953
200.757	512
200.825	587
200.893	588
200.962	910
201.030	-51
201.098	527
201.167	754
201.235	686
201.303	384
201.372	259
201.440	541
201.508	1243
201.577	250
201.645	-385
201.713	92
201.781	848
201.850	1294
201.918	1104
201.986	691
202.055	960
202.123	119
202.191	1040
202.259	873
202.327	547
202.396	564
202.464	583
202.532	849
202.600	2868
202.669	1433
202.737	502
202.805	1266
202.873	174
202.941	1544
203.009	132
203.078	400
203.146	1351
203.214	826
203.282	163
203.350	1494
203.418	605
203.487	700
203.555	941
203.623	1242
203.691	-134
203.759	254
203.827	815
203.895	615
203.963	411
204.031	347
204.099	591
204.168	119
204.236	778
204.304	1619
204.372	278
204.440	979
204.508	447
204.576	341
204.644	376
204.712	807
204.780	1170
204.848	810
204.916	778
204.984	448
205.052	546
205.120	780
205.188	403
205.256	182
205.324	426
205.392	-226
205.460	1338
205.528	271
205.596	615
205.664	905
205.732	700
205.799	2679
205.867	4664
205.935	1300
206.003	1739
206.071	418
206.139	854
206.207	1329
206.275	892
206.343	1275
206.411	874
206.478	1133
206.546	547
206.614	927
206.682	740
206.750	207
206.818	1003
206.885	1798
206.953	-17
207.021	854
207.089	480
207.157	406
207.225	1120
207.292	703
207.360	718
207.428	493
207.496	761
207.563	991
207.631	1253
207.699	507
207.767	1219
207.834	302
207.902	736
207.970	516
208.038	709
208.105	1264
208.173	758
208.241	1455
208.309	1721
208.376	1301
208.444	2649
208.512	1586
208.579	461
208.647	1492
208.715	1329
208.782	1276
208.850	-163
208.918	984
208.985	613
209.053	1610
209.120	1041
209.188	801
209.256	1037
209.323	956
209.391	1178
209.459	1616
209.526	992
209.594	1557
209.661	1401
209.729	1115
209.796	1292
209.864	1294
209.932	527
209.999	1774
210.067	937
210.134	1402
210.202	794
210.269	1154
210.337	2228
210.404	924
210.472	1148
210.539	1410
210.607	1696
210.674	1295
210.742	1006
210.809	996
210.877	2040
210.944	1808
211.012	711
211.079	2486
211.146	614
211.214	906
211.281	1824
211.349	1434
211.416	1375
211.484	1825
211.551	756
211.618	1612
211.686	1543
211.753	1080
211.821	2399
211.888	565
211.955	1385
212.023	1649
212.090	2055
212.157	1328
212.225	2165
212.292	4143
212.359	7200
212.427	16307
212.494	6460
212.561	3993
212.629	1925
212.696	1934
212.763	2641
212.831	2033
212.898	1382
212.965	1384
213.032	1095
213.100	1390
213.167	2325
213.234	2461
213.301	2224
213.369	1351
213.436	1636
213.503	2039
213.570	1061
213.638	1864
213.705	1205
213.772	601
213.839	1483
213.906	1691
213.973	1836
214.041	1936
214.108	1441
214.175	1631
214.242	1979
214.309	1465
214.376	1057
214.444	920
214.511	1487
214.578	1611
214.645	2498
214.712	1603
214.779	1849
214.846	1605
214.913	1990
214.980	1506
215.048	1709
215.115	1623
215.182	2067
215.249	1787
215.316	1572
215.383	1639
215.450	2094
215.517	1564
215.584	1797
215.651	1804
215.718	1352
215.785	2159
215.852	2707
215.919	1658
215.986	1497
216.053	1901
216.120	1327
216.187	2217
216.254	2853
216.321	1786
216.388	1480
216.455	1578
216.522	2273
216.589	2680
216.656	4010
216.722	3913
216.789	2378
216.856	2919
216.923	3124
216.990	1883
217.057	1891
217.124	3151
217.191	2129
217.258	3079
217.324	3414
217.391	3637
217.458	2303
217.525	2097
217.592	2288
217.659	2471
217.725	2611
217.792	3174
217.859	2734
217.926	1736
217.993	1548
218.059	1187
218.126	2181
218.193	1289
218.260	1751
218.327	802
218.393	1264
218.460	544
218.527	267
218.594	2040
218.660	3307
218.727	2451
218.794	956
218.860	2103
218.927	1253
218.994	690
219.061	1600
219.127	1591
219.194	3115
219.261	1533
219.327	1552
219.394	1536
219.461	1129
219.527	1268
219.594	3066
219.661	1700
219.727	1373
219.794	1978
219.860	1398
219.927	1690
219.994	2404
220.060	3683
220.127	3248
220.193	2549
220.260	2967
220.326	4653
220.393	5761
220.460	6149
220.526	4726
220.593	3777
220.659	3920
220.726	3790
220.792	9508
220.859	6964
220.925	9779
220.992	10309
221.058	11185
221.125	11612
221.191	8446
221.258	3825
221.324	3923
221.391	2702
221.457	2485
221.524	2028
221.590	3733
221.657	11766
221.723	7349
221.789	6680
221.856	5257
221.922	2601
221.989	2268
222.055	1443
222.121	958
222.188	3107
222.254	2230
222.321	1385
222.387	982
222.453	1336
222.520	1544
222.586	1864
222.652	1308
222.719	1381
222.785	1294
222.851	869
222.918	1697
222.984	1030
223.050	740
223.116	450
223.183	2152
223.249	812
223.315	1394
223.382	1085
223.448	1117
223.514	939
223.580	1236
223.647	932
223.713	400
223.779	1060
223.845	1068
223.911	943
223.978	738
224.044	2133
224.110	1027
224.176	1484
224.242	839
224.309	982
224.375	539
224.441	1025
224.507	374
224.573	512
224.639	1085
224.705	769
224.772	1143
224.838	1124
224.904	2348
224.970	1184
225.036	1648
225.102	1186
225.168	1452
225.234	1835
225.300	1809
225.366	1452
225.432	1253
225.499	1054
225.565	999
225.631	1303
225.697	1429
225.763	3080
225.829	1956
225.895	2599
225.961	3465
226.027	4066
226.093	3523
226.159	4788
226.225	7540
226.291	13186
226.357	16948
226.423	9368
226.489	6931
226.554	4653
226.620	4973
226.686	6402
226.752	9158
226.818	15379
226.884	22691
226.950	19170
227.016	10052
227.082	6643
227.148	4428
227.214	4300
227.279	3882
227.345	2905
227.411	2598
227.477	2819
227.543	4445
227.609	4212
227.674	3201
227.740	1956
227.806	2707
227.872	2465
227.938	2224
228.003	3700
228.069	2148
228.135	1574
228.201	1830
228.267	1625
228.332	1958
228.398	2185
228.464	1806
228.530	1139
228.595	1761
228.661	1425
228.727	3250
228.792	2246
228.858	1353
228.924	1240
228.990	3603
229.055	2069
229.121	2411
229.187	1586
229.252	2342
229.318	513
229.384	1551
229.449	1428
229.515	338
229.581	803
229.646	2053
229.712	1576
229.777	5295
229.843	4246
229.909	3730
229.974	3258
230.040	2869
230.105	2440
230.171	2932
230.236	4200
230.302	4689
230.368	3009
230.433	2550
230.499	2867
230.564	3146
230.630	2054
230.695	1818
230.761	1661
230.826	1448
230.892	3449
230.957	1062
231.023	2103
231.088	1602
231.154	2639
231.219	2399
231.284	3388
231.350	3395
231.415	988
231.481	1698
231.546	1471
231.612	1873
231.677	898
231.742	552
231.808	2846
231.873	801
231.939	661
232.004	3278
232.069	3241
232.135	1702
232.200	2518
232.265	1157
232.331	1470
232.396	666
232.461	1414
232.527	1242
232.592	368
232.657	791
232.723	3861
232.788	1983
232.853	1538
232.918	703
232.984	1245
233.049	2116
233.114	3837
233.179	2576
233.245	5768
233.310	6072
233.375	1738
233.440	2131
233.506	1811
233.571	1530
233.636	1133
233.701	1327
233.766	3765
233.832	4697
233.897	2192
233.962	849
234.027	2783
234.092	3208
234.157	2904
234.222	2602
234.288	3982
234.353	13671
234.418	10729
234.483	6031
234.548	4151
234.613	3808
234.678	3509
234.743	4626
234.808	14185
234.873	6734
234.938	3690
235.004	2519
235.069	3469
235.134	1657
235.199	2612
235.264	2533
235.329	1668
235.394	2869
235.459	3527
235.524	3159
235.589	3196
235.654	2416
235.719	1879
235.784	2084
235.849	3218
235.913	7502
235.978	8303
236.043	7686
236.108	3481
236.173	3774
236.238	3518
236.303	3594
236.368	2983
236.433	6323
236.498	9624
236.563	7668
236.627	15172
236.692	35829
236.757	29122
236.822	14128
236.887	10603
236.952	8890
237.017	7492
237.081	8372
237.146	11133
237.211	22965
237.276	37307
237.341	49188
237.405	29406
237.470	14369
237.535	10436
237.600	6884
237.664	5711
237.729	5062
237.794	7154
237.859	11372
237.923	8613
237.988	4630
238.053	7460
238.118	7582
238.182	19837
238.247	13819
238.312	8311
238.376	5861
238.441	4273
238.506	4572
238.570	1844
238.635	3254
238.700	2372
238.764	2554
238.829	8314
238.893	9343
238.958	3767
239.023	4355
239.087	2793
239.152	3367
239.216	2159
239.281	3396
239.346	2558
239.410	2161
239.475	3529
239.539	19358
239.604	11080
239.668	4062
239.733	2832
239.797	4681
239.862	9757
239.926	13816
239.991	5732
240.055	3310
240.120	3625
240.184	2555
240.249	1845
240.313	2712
240.378	2396
240.442	12354
240.507	15723
240.571	4891
240.635	7397
240.700	9018
240.764	3420
240.829	2595
240.893	2264
240.957	3483
241.022	11828
241.086	15738
241.151	6319
241.215	2626
241.279	5116
241.344	7847
241.408	3804
241.472	2988
241.537	3878
241.601	3142
241.665	2844
241.730	2478
241.794	3548
241.858	3292
241.922	2912
241.987	2734
242.051	2374
242.115	2436
242.179	2864
242.244	2241
242.308	3671
242.372	3604
242.436	4216
242.501	3431
242.565	2303
242.629	1987
242.693	2881
242.757	1859
242.822	1739
242.886	3945
242.950	3780
243.014	3241
243.078	4067
243.142	3885
243.206	4219
243.271	5343
243.335	4383
243.399	8789
243.463	29385
243.527	51319
243.591	14471
243.655	7942
243.719	4678
243.783	5427
243.847	9188
243.911	10805
243.975	12648
244.040	6478
244.104	4343
244.168	4251
244.232	6051
244.296	7921
244.360	8014
244.424	4659
244.488	3759
244.552	4112
244.615	2955
244.679	2667
244.743	3619
244.807	2841
244.871	2371
244.935	2693
244.999	2275
245.063	3098
245.127	3978
245.191	6739
245.255	5247
245.319	4626
245.383	2948
245.446	5105
245.510	1997
245.574	2804
245.638	2942
245.702	2767
245.766	8616
245.829	5329
245.893	4357
245.957	3363
246.021	3881
246.085	3675
246.149	5184
246.212	13517
246.276	16263
246.340	6881
246.404	5733
246.467	6106
246.531	7670
246.595	6359
246.659	5974
246.722	4943
246.786	5870
246.850	6589
246.913	7258
246.977	3445
247.041	4398
247.104	4825
247.168	4435
247.232	12340
247.295	23597
247.359	9448
247.423	5753
247.486	9961
247.550	6774
247.614	4691
247.677	6239
247.741	3848
247.804	4127
247.868	5970
247.932	12530
247.995	21023
248.059	6973
248.122	3812
248.186	7610
248.249	14232
248.313	40792
248.376	35754
248.440	23486
248.503	8042
248.567	8297
248.630	11211
248.694	14469
248.757	20830
248.821	40568
248.884	22745
248.948	22743
249.011	31523
249.075	47185
249.138	33355
249.202	13909
249.265	9818
249.328	15107
249.392	9377
249.455	7836
249.519	5789
249.582	7828
249.645	13636
249.709	10363
249.772	11285
249.835	7057
249.899	8067
249.962	7064
250.025	5864
250.089	16496
250.152	18364
250.215	9672
250.279	7569
250.342	7988
250.405	8310
250.468	7599
250.532	9889
250.595	19317
250.658	63018
250.721	78749
250.785	28913
250.848	16517
250.911	11091
250.974	10754
251.038	15605
251.101	23397
251.164	13314
251.227	13774
251.290	13971
251.354	24776
251.417	82782
251.480	69370
251.543	62759
251.606	131901
251.669	89980
251.732	40553
251.795	40217
251.859	44683
251.922	86760
251.985	44552
252.048	20258
252.111	14977
252.174	15779
252.237	27538
252.300	50947
252.363	61036
252.426	99049
252.489	41741
252.552	22679
252.615	17042
252.678	20417
252.741	42661
252.804	59777
252.867	107454
252.930	58178
252.993	30040
253.056	19619
253.119	15133
253.182	13227
253.245	21602
253.308	15822
253.371	14696
253.434	13030
253.497	12084
253.559	22118
253.622	15197
253.685	21409
253.748	16754
253.811	9908
253.874	15687
253.937	12564
254.000	9808
254.062	17607
254.125	21859
254.188	21596
254.251	15212
254.314	9094
254.376	18406
254.439	15794
254.502	14666
254.565	18680
254.628	27352
254.690	14224
254.753	8122
254.816	8055
254.878	10549
254.941	18717
255.004	14946
255.067	9010
255.129	7159
255.192	5162
255.255	3861
255.317	5789
255.380	3303
255.443	3427
255.505	3254
255.568	3055
255.631	2762
255.693	3592
255.756	2467
255.819	3269
255.881	2641
255.944	2679
256.006	3013
256.069	3879
256.132	3383
256.194	6518
256.257	15516
256.319	10200
256.382	8354
256.444	5196
256.507	3853
256.569	3811
256.632	5674
256.694	11445
256.757	28066
256.819	56585
256.882	24114
256.944	10563
257.007	8296
257.069	9109
257.132	6091
257.194	5788
257.257	5104
257.319	4763
257.381	8117
257.444	23735
257.506	70601
257.569	64930
257.631	30078
257.693	17434
257.756	10105
257.818	9813
257.880	6526
257.943	5972
258.005	4099
258.067	3735
258.130	4262
258.192	5800
258.254	11762
258.317	5232
258.379	5536
258.441	12814
258.503	10227
258.566	19959
258.628	17982
258.690	5149
258.753	7116
258.815	9808
258.877	6093
258.939	4924
259.001	4070
259.064	3536
259.126	5510
259.188	7746
259.250	5537
259.312	6288
259.375	11863
259.437	6472
259.499	4145
259.561	3742
259.623	4420
259.685	3875
259.747	6025
259.809	20751
259.872	28498
259.934	48786
259.996	29869
260.058	9041
260.120	4792
260.182	4867
260.244	3499
260.306	2681
260.368	3671
260.430	3484
260.492	7953
260.554	12143
260.616	8750
260.678	25351
260.740	24460
260.802	6572
260.864	5314
260.926	4464
260.988	5341
261.050	5501
261.112	12280
261.174	31446
261.236	19186
261.298	7176
261.359	15543
261.421	16636
261.483	5177
261.545	5159
261.607	2685
261.669	5070
261.731	10663
261.793	19302
261.854	6123
261.916	5185
261.978	4429
262.040	5295
262.102	5216
262.164	8183
262.225	4610
262.287	4679
262.349	10454
262.411	5768
262.472	5021
262.534	11278
262.596	16420
262.658	6065
262.719	3982
262.781	7675
262.843	16762
262.904	6757
262.966	7180
263.028	10540
263.090	47785
263.151	73744
263.213	21768
263.275	11005
263.336	6088
263.398	5063
263.459	2776
263.521	4271
263.583	9818
263.644	5234
263.706	3108
263.767	2085
263.829	2333
263.891	2579
263.952	1533
264.014	1613
264.075	4957
264.137	7896
264.198	4756
264.260	2172
264.321	2588
264.383	8603
264.444	13871
264.506	3913
264.567	3461
264.629	7921
264.690	9387
264.752	4672
264.813	3748
264.875	1592
264.936	2730
264.998	2801
265.059	2508
265.120	3514
265.182	7432
265.243	34224
265.305	25011
265.366	6753
265.427	4025
265.489	3356
265.550	2798
265.611	3798
265.673	2469
265.734	1884
265.795	2546
265.857	2370
265.918	4319
265.979	13251
266.040	50363
266.102	32760
266.163	10898
266.224	7982
266.286	4343
266.347	3376
266.408	3777
266.469	3723
266.530	3674
266.592	2951
266.653	7396
266.714	9026
266.775	3094
266.836	2564
266.898	1918
266.959	4766
267.020	1632
267.081	3105
267.142	1653
267.203	2252
267.264	2136
267.326	3376
267.387	1832
267.448	1166
267.509	2698
267.570	2548
267.631	1598
267.692	1259
267.753	2406
267.814	1367
267.875	7783
267.936	10291
267.997	6044
268.058	4729
268.119	2918
268.180	3219
268.241	1777
268.302	2519
268.363	1503
268.424	2278
268.485	2772
268.546	1585
268.607	1246
268.668	1922
268.729	2045
268.790	2043
268.851	2505
268.912	8377
268.972	7577
269.033	2884
269.094	1769
269.155	2302
269.216	2497
269.277	3376
269.338	1962
269.398	1931
269.459	2624
269.520	4656
269.581	4631
269.642	5458
269.702	3421
269.763	3948
269.824	3254
269.885	4399
269.945	5677
270.006	2435
270.067	1187
270.128	990
270.188	1820
270.249	1367
270.310	1097
270.370	2730
270.431	2669
270.492	1588
270.553	2844
270.613	6706
270.674	10785
270.734	3771
270.795	3061
270.856	5313
270.916	2553
270.977	2779
271.038	3204
271.098	3300
271.159	5721
271.219	4231
271.280	2486
271.340	1536
271.401	4455
271.462	8582
271.522	4656
271.583	3381
271.643	3420
271.704	2149
271.764	3819
271.825	11882
271.885	34051
271.946	33468
272.006	11580
272.066	20796
272.127	25468
272.187	7943
272.248	5559
272.308	7603
272.369	20542
272.429	8472
272.489	9125
272.550	7386
272.610	8953
272.671	5726
272.731	9423
272.791	10405
272.852	6117
272.912	5655
272.972	2653
273.033	3308
273.093	6221
273.153	5017
273.214	4465
273.274	4788
273.334	18491
273.394	24274
273.455	9629
273.515	12972
273.575	20886
273.635	9908
273.696	18072
273.756	25002
273.816	9951
273.876	7875
273.936	21500
273.997	24272
274.057	6764
274.117	5663
274.177	10746
274.237	37499
274.297	27119
274.358	20626
274.418	21581
274.478	13623
274.538	6468
274.598	8526
274.658	28275
274.718	26718
274.778	9750
274.838	7552
274.898	19941
274.958	39308
275.018	30723
275.078	16019
275.138	7742
275.198	5192
275.258	4193
275.318	6952
275.378	9496
275.438	8876
275.498	8139
275.558	24212
275.618	33617
275.678	15423
275.738	11931
275.798	7671
275.858	4373
275.918	3066
275.978	4911
276.038	3721
276.098	2857
276.157	9824
276.217	17408
276.277	6981
276.337	5514
276.397	3993
276.457	4351
276.517	3076
276.576	3687
276.636	2915
276.696	5649
276.756	12696
276.815	6714
276.875	4951
276.935	5568
276.995	4151
277.055	1848
277.114	2947
277.174	6373
277.234	12904
277.293	5347
277.353	3731
277.413	2750
277.472	3126
277.532	3602
277.592	5915
277.651	20907
277.711	21466
277.771	11143
277.830	34269
277.890	20933
277.950	25825
278.009	48606
278.069	17494
278.128	24114
278.188	22875
278.248	14283
278.307	31180
278.367	14134
278.426	6414
278.486	4301
278.545	3259
278.605	3965
278.664	3513
278.724	5287
278.783	15372
278.843	23142
278.902	8256
278.962	6278
279.021	7409
279.081	14449
279.140	11839
279.199	8546
279.259	7881
279.318	8962
279.378	13284
279.437	26522
279.496	71826
279.556	171214
279.615	106881
279.675	36568
279.734	25354
279.793	36076
279.853	37588
279.912	15936
279.971	10989
280.031	10727
280.090	16518
280.149	23880
280.208	37004
280.268	124539
280.327	90826
280.386	25748
280.445	20552
280.505	14356
280.564	10561
280.623	8286
280.682	11779
280.742	12956
280.801	4873
280.860	3803
280.919	4092
280.978	3701
281.037	3591
281.097	2748
281.156	4471
281.215	3297
281.274	5212
281.333	17646
281.392	9289
281.451	3136
281.510	2564
281.569	2342
281.628	2963
281.688	2721
281.747	3580
281.806	2113
281.865	2758
281.924	2523
281.983	1918
282.042	1690
282.101	1998
282.160	1475
282.219	2251
282.278	3433
282.337	9277
282.396	4475
282.454	3511
282.513	4027
282.572	13411
282.631	5894
282.690	2715
282.749	1373
282.808	3619
282.867	3098
282.926	2600
282.985	1580
283.043	1459
283.102	2139
283.161	3632
283.220	9152
283.279	13266
283.338	4863
283.396	2582
283.455	4116
283.514	3234
283.573	5538
283.631	3885
283.690	3465
283.749	3107
283.808	7377
283.866	5807
283.925	3004
283.984	3569
284.043	3899
284.101	4492
284.160	3824
284.219	4886
284.277	4494
284.336	7894
284.395	19706
284.453	11673
284.512	6660
284.570	8438
284.629	6770
284.688	6407
284.746	7231
284.805	9074
284.863	11951
284.922	14946
284.981	20526
285.039	30840
285.098	55433
285.156	105261
285.215	148742
285.273	142655
285.332	87759
285.390	51813
285.449	33822
285.507	24088
285.566	18791
285.624	14347
285.683	11251
285.741	8838
285.799	7585
285.858	6497
285.916	5352
285.975	4600
286.033	3632
286.091	3291
286.150	2977
286.208	4020
286.267	4201
286.325	4028
286.383	5592
286.442	4006
286.500	2643
286.558	2767
286.616	2997
286.675	4334
286.733	3668
286.791	3244
286.850	4601
286.908	5056
286.966	5960
287.024	2568
287.083	2921
287.141	2377
287.199	3045
287.257	4010
287.315	4736
287.374	3944
287.432	8358
287.490	4653
287.548	3367
287.606	2928
287.664	3227
287.723	5204
287.781	4912
287.839	4304
287.897	5292
287.955	7056
288.013	13516
288.071	34270
288.129	103132
288.187	184045
288.245	82801
288.303	32330
288.361	18142
288.419	13374
288.477	10642
288.535	7768
288.593	6658
288.651	3898
288.709	2725
288.767	3230
288.825	2730
288.883	2661
288.941	2371
288.999	2170
289.057	2391
289.115	2168
289.173	1423
289.231	1395
289.289	1807
289.346	2303
289.404	3797
289.462	4880
289.520	4242
289.578	1899
289.636	1078
289.694	2064
289.751	937
289.809	1467
289.867	1307
289.925	3005
289.983	2012
290.040	1503
290.098	979
290.156	1795
290.214	1718
290.271	863
290.329	1357
290.387	980
290.444	1164
290.502	525
290.560	1784
290.617	1045
290.675	1589
290.733	1288
290.790	1198
290.848	1301
290.906	1175
290.963	1651
291.021	1121
291.078	1422
291.136	2244
291.194	7849
291.251	10704
291.309	2163
291.366	1983
291.424	1180
291.481	1456
291.539	1959
291.596	2147
291.654	763
291.711	1312
291.769	2587
291.826	3883
291.884	2006
291.941	895
291.999	1337
292.056	1974
292.114	1087
292.171	978
292.228	1802
292.286	2109
292.343	5150
292.401	5198
292.458	2873
292.515	2215
292.573	3174
292.630	3303
292.687	1991
292.745	2782
292.802	3833
292.859	9460
292.917	14758
292.974	6428
293.031	2795
293.089	2397
293.146	1137
293.203	1991
293.260	887
293.318	1771
293.375	2615
293.432	1290
293.489	1817
293.546	2307
293.604	4781
293.661	13807
293.718	23385
293.775	10128
293.832	5567
293.889	4327
293.947	5269
294.004	2849
294.061	3229
294.118	8462
294.175	13515
294.232	13216
294.289	5330
294.346	3692
294.403	4192
294.460	3573
294.517	2609
294.574	1925
294.631	2219
294.688	4504
294.745	9663
294.802	27093
294.859	21740
294.916	8803
294.973	5931
295.030	3990
295.087	3363
295.144	2885
295.201	3184
295.258	2479
295.315	4535
295.372	13018
295.429	16573
295.486	7480
295.542	4343
295.599	12190
295.656	14987
295.713	12966
295.770	15400
295.827	5696
295.883	4575
295.940	3996
295.997	5859
296.054	4817
296.111	3283
296.167	2299
296.224	1265
296.281	1481
296.338	1717
296.394	2843
296.451	3669
296.508	9085
296.564	13707
296.621	11893
296.678	24997
296.734	27372
296.791	9904
296.848	6050
296.904	7406
296.961	14060
297.018	19939
297.074	11106
297.131	6480
297.187	5859
297.244	8312
297.301	25071
297.357	31740
297.414	10395
297.470	5241
297.527	3361
297.583	3137
297.640	2257
297.696	2285
297.753	1931
297.809	1079
297.866	947
297.922	2363
297.979	1386
298.035	1832
298.092	5434
298.148	12585
298.204	9289
298.261	6746
298.317	12145
298.374	24835
298.430	13637
298.486	7283
298.543	5726
298.599	6068
298.656	6338
298.712	11883
298.768	22778
298.824	13167
298.881	5279
298.937	2545
298.993	3949
299.050	2679
299.106	3349
299.162	2653
299.218	3464
299.275	2368
299.331	3774
299.387	8446
299.443	24460
299.500	19931
299.556	8455
299.612	4447
299.668	3554
299.724	4557
299.780	4970
299.837	4508
299.893	6936
299.949	20310
300.005	19377
300.061	19466
300.117	29065
300.173	13042
300.229	7007
300.285	8935
300.341	8569
300.397	4965
300.453	2558
300.510	3136
300.566	2628
300.622	4531
300.678	10961
300.734	18722
300.790	18322
300.845	19650
300.901	12744
300.957	18815
301.013	12030
301.069	5237
301.125	3766
301.181	3619
301.237	3306
301.293	2043
301.349	1200
301.405	1430
301.461	2104
301.516	3521
301.572	3344
301.628	5975
301.684	5710
301.740	8152
301.796	12494
301.851	8840
301.907	15480
301.963	14663
302.019	30242
302.074	63346
302.130	55757
302.186	25838
302.242	10143
302.297	8098
302.353	8150
302.409	14496
302.464	11686
302.520	10272
302.576	23136
302.631	22419
302.687	12656
302.743	5988
302.798	3647
302.854	2944
302.910	3290
302.965	4713
303.021	8442
303.076	7253
303.132	8593
303.187	9430
303.243	4841
303.299	3319
303.354	2577
303.410	2805
303.465	1628
303.521	1714
303.576	2297
303.632	3546
303.687	8577
303.743	19765
303.798	14425
303.853	5978
303.909	3469
303.964	3343
304.020	6357
304.075	7351
304.130	7899
304.186	12633
304.241	12811
304.297	8568
304.352	5165
304.358	4977
304.407	3446
304.449	3324
304.463	3286
304.518	3179
304.539	3144
304.573	3086
304.629	4203
304.630	4262
304.684	7216
304.720	13785
304.739	17029
304.794	21773
304.811	18718
304.850	10914
304.902	5465
304.905	5152
304.960	3443
304.992	4371
305.015	5012
305.071	4185
305.083	4034
305.126	3453
305.173	2192
305.181	2013
305.236	1384
305.264	2229
305.292	3090
305.347	3281
305.354	3309
305.402	3405
305.445	4107
305.457	4317
305.512	6317
305.535	5943
305.567	5473
305.622	6705
305.626	6929
305.678	13348
305.716	23991
305.733	27247
305.788	26031
305.807	22980
305.843	18336
305.897	24869
305.898	24930
305.953	21356
305.988	14689
306.008	11205
306.063	7280
306.078	6602
306.118	5421
306.168	3638
306.173	3512
306.228	3015
306.259	2920
306.283	2903
306.338	2799
306.349	3006
306.393	4015
306.440	4978
306.448	5117
306.503	4892
306.530	5549
306.558	7704
306.613	14110
306.620	14921
306.668	20432
306.711	26185
306.723	26112
306.778	18668
306.801	14439
306.833	9992
306.888	4863
306.892	4660
306.943	4095
306.982	3349
306.997	3224
307.052	3238
307.072	3486
307.107	4294
307.162	5489
307.163	5507
307.217	8512
307.253	9564
307.272	9468
307.327	9178
307.343	8963
307.381	8501
307.434	8129
307.436	8438
307.491	17084
307.524	23926
307.546	25017
307.600	23320
307.614	21461
307.655	14210
307.704	8582
307.710	8644
307.765	10399
307.795	12343
307.819	14716
307.874	21530
307.885	21862
307.929	18126
307.975	15966
307.984	17104
308.038	27696
308.065	34558
308.093	57684
308.148	113335
308.156	123084
308.202	175203
308.246	208855
308.257	198535
308.312	113083
308.336	77351
308.366	59888
308.421	35828
308.426	33598
308.475	22562
308.517	16205
308.530	15463
308.585	12847
308.607	12426
308.639	13264
308.694	13743
308.697	13883
308.748	23372
308.787	30921
308.803	30105
308.857	24069
308.877	21713
308.912	21108
308.967	21788
308.967	21774
309.021	31183
309.058	38945
309.076	49703
309.130	87207
309.148	100407
309.185	164466
309.238	265348
309.239	266437
309.293	283346
309.328	275366
309.348	237464
309.402	122101
309.418	90873
309.457	66988
309.508	40880
309.511	40475
309.566	36385
309.598	34579
309.620	38151
309.674	48718
309.688	51492
309.729	49065
309.778	42766
309.783	41952
309.837	32453
309.868	27097
309.892	31399
309.946	43058
309.959	46198
310.001	55684
310.049	64090
310.055	61646
310.109	35814
310.139	21677
310.163	18121
310.218	12024
310.229	10891
310.272	9448
310.319	7934
310.326	7821
310.381	7085
310.409	6800
310.435	6600
310.489	5946
310.499	5870
310.543	6259
310.589	6694
310.598	6649
310.652	6114
310.679	5875
310.706	5470
310.760	4423
310.769	4288
310.814	4297
310.859	4239
310.868	4210
310.923	3970
310.948	3869
310.977	4513
311.031	5871
311.038	6035
311.085	5524
311.128	4895
311.139	4889
311.193	4829
311.218	4801
311.247	4506
311.301	3933
311.308	3847
311.356	4054
311.398	4281
311.410	4251
311.464	4027
311.488	3897
311.518	4214
311.572	4823
311.578	4878
311.626	6276
311.668	7503
311.680	7492
311.734	7289
311.758	7170
311.788	7023
311.842	6760
311.847	6711
311.896	8412
311.937	9891
311.950	9869
312.004	9612
312.027	9462
312.058	8104
312.112	5646
312.117	5388
312.165	5584
312.207	5734
312.297	6492
312.386	6158
312.476	6533
312.566	13752
312.656	6568
312.745	4041
312.835	5333
312.925	5294
313.015	5283
313.104	5755
313.194	4306
313.284	5466
313.374	6325
313.463	5617
313.553	3869
313.643	4474
313.732	3858
313.822	3660
313.912	4636
314.001	5412
314.091	6026
314.180	7527
314.270	8060
314.360	6997
314.449	7969
314.539	4878
314.628	4498
314.718	5736
314.808	6029
314.897	4410
314.987	4026
315.076	6448
315.166	8174
315.255	7011
315.345	7768
315.434	7793
315.524	7127
315.613	9323
315.703	11907
315.792	19055
315.881	52918
315.971	25028
316.060	16084
316.150	19753
316.239	19374
316.328	8273
316.418	5006
316.507	5072
316.597	8063
316.686	7953
316.775	9809
316.865	20042
316.954	5752
317.043	4947
317.133	5184
317.222	4367
317.311	4726
317.400	4405
317.490	8540
317.579	9647
317.668	7352
317.757	13530
317.847	31485
317.936	98615
318.025	46577
318.114	22693
318.203	14674
318.293	18221
318.382	27803
318.471	22034
318.560	28664
318.649	46163
318.738	11707
318.828	9801
318.917	10037
319.006	11912
319.095	28360
319.184	60601
319.273	38141
319.362	21231
319.451	8065
319.540	8017
319.629	19123
319.718	28170
319.807	13034
319.896	25951
319.985	75261
320.074	30106
320.163	9685
320.252	13500
320.341	10792
320.430	9468
320.519	14163
320.608	9158
320.697	6469
320.786	7093
320.875	10500
320.964	13873
321.053	20699
321.142	30404
321.230	31361
321.319	23529
321.408	47552
321.497	20256
321.586	20172
321.675	21669
321.764	21749
321.852	16720
321.941	28725
322.030	20048
322.119	23804
322.207	50949
322.296	30564
322.385	18567
322.474	23177
322.562	62022
322.651	31369
322.740	24408
322.829	29646
322.917	27266
323.006	18886
323.095	15670
323.183	12918
323.272	21730
323.361	35070
323.449	85445
323.538	31975
323.626	57521
323.715	36073
323.804	18122
323.892	53272
323.981	31851
324.069	10658
324.158	27522
324.246	26526
324.335	12407
324.424	16716
324.512	7214
324.601	10006
324.689	18581
324.778	30750
324.866	21391
324.954	7498
325.043	8240
325.131	13132
325.220	21210
325.308	23242
325.397	18651
325.485	12421
325.574	4675
325.662	4304
325.750	5793
325.839	4921
325.927	5068
326.015	6384
326.104	10644
326.192	14975
326.280	4521
326.369	5088
326.457	8986
326.545	14849
326.634	6689
326.722	3908
326.810	5117
326.898	3793
326.987	6258
327.075	15595
327.163	14642
327.251	6892
327.340	10379
327.428	14645
327.516	5159
327.604	4253
327.692	4710
327.781	5998
327.869	9644
327.957	7165
328.045	7617
328.133	5017
328.221	5867
328.309	4998
328.397	5157
328.485	6926
328.574	10807
328.662	33654
328.750	19456
328.838	7524
328.926	5028
329.014	5354
329.102	8329
329.190	18016
329.278	11650
329.366	5141
329.454	4417
329.542	4640
329.630	4559
329.718	5945
329.806	7625
329.893	8233
329.981	10935
330.069	22489
330.157	73848
330.245	145045
330.333	77258
330.421	17667
330.509	16447
330.597	42681
330.684	27568
330.772	10163
330.860	11040
330.948	12492
331.036	6265
331.123	3652
331.211	4136
331.299	5386
331.387	13017
331.475	18834
331.562	7776
331.650	3868
331.738	4535
331.825	6620
331.913	3942
332.001	3552
332.089	5653
332.176	11596
332.264	26333
332.352	20479
332.439	7278
332.527	5433
332.614	4261
332.702	6200
332.790	6169
332.877	14230
332.965	25622
333.052	9080
333.140	11166
333.228	21903
333.315	6511
333.403	6374
333.490	16436
333.578	16953
333.665	26835
333.753	14200
333.840	5530
333.928	7373
334.015	16949
334.103	31258
334.190	78811
334.278	21530
334.365	9330
334.452	6614
334.540	5374
334.627	7250
334.715	10754
334.802	24343
334.889	101644
334.977	98175
335.064	13406
335.151	7395
335.239	7317
335.326	11310
335.413	40549
335.501	48822
335.588	9635
335.675	6700
335.762	8683
335.850	12046
335.937	12073
336.024	29730
336.111	99022
336.199	39763
336.286	8292
336.373	5763
336.460	4436
336.547	5444
336.635	6816
336.722	6317
336.809	5958
336.896	9015
336.983	27463
337.070	58547
337.157	80054
337.245	65140
337.332	44510
337.419	6733
337.506	4803
337.593	6967
337.680	21061
337.767	48593
337.854	17845
337.941	18093
338.028	21512
338.115	8830
338.202	10282
338.289	21015
338.376	61781
338.463	22552
338.550	32725
338.637	29895
338.724	12714
338.811	17727
338.898	4894
338.984	5313
339.071	6049
339.158	8039
339.245	19867
339.332	11687
339.419	14403
339.506	13215
339.593	3112
339.679	4164
339.766	4200
339.853	8300
339.940	14755
340.027	5987
340.113	5541
340.200	7585
340.287	6417
340.374	8572
340.460	12070
340.547	6096
340.634	11776
340.720	41280
340.807	23243
340.894	5295
340.980	5982
341.067	4431
341.154	5608
341.240	10082
341.327	19520
341.414	6976
341.500	6853
341.587	5111
341.674	5145
341.760	13826
341.847	15585
341.933	6013
342.020	2973
342.106	2986
342.193	6606
342.279	11231
342.366	8737
342.452	13681
342.539	8628
342.625	20612
342.712	43353
342.798	18469
342.885	7500
342.971	3464
343.058	3197
343.144	3324
343.230	3747
343.317	4302
343.403	3991
343.490	3177
343.576	2451
343.662	4435
343.749	5770
343.835	7846
343.921	15415
344.008	77019
344.094	151077
344.180	36258
344.267	15825
344.353	42147
344.439	42755
344.525	21609
344.612	13406
344.698	12519
344.784	7962
344.870	4183
344.957	4642
345.043	7788
345.129	8047
345.215	12527
345.301	6453
345.387	4480
345.474	3213
345.560	3430
345.646	5151
345.732	5525
345.818	5908
345.904	5547
345.990	6683
346.076	5371
346.162	9414
346.249	5588
346.335	3891
346.421	6318
346.507	19859
346.593	56460
346.679	15387
346.765	5269
346.851	5275
346.937	4958
347.023	3862
347.108	6361
347.194	5105
347.280	3891
347.366	6430
347.452	20887
347.538	72949
347.624	54230
347.710	39958
347.796	8354
347.882	4804
347.967	5247
348.053	5713
348.139	4873
348.225	4648
348.311	5256
348.397	4529
348.482	6349
348.568	6617
348.654	3918
348.740	4917
348.825	5901
348.911	10885
348.997	35692
349.083	63505
349.168	11643
349.254	6101
349.340	5452
349.425	3906
349.511	6398
349.597	7713
349.682	16413
349.768	41198
349.854	19735
349.939	5757
350.025	4151
350.110	4429
350.196	3263
350.282	3114
350.367	3651
350.453	7899
350.538	7847
350.624	6212
350.709	5834
350.795	3603
350.880	4009
350.966	6080
351.051	7804
351.137	5883
351.222	5331
351.308	17157
351.393	39211
351.479	11207
351.564	4619
351.649	4982
351.735	3614
351.820	3768
351.906	4747
351.991	7202
352.076	28754
352.162	37407
352.247	8512
352.332	7150
352.418	12727
352.503	16477
352.588	57683
352.673	45178
352.759	11923
352.844	6870
352.929	7397
353.014	8738
353.100	6105
353.185	8761
353.270	16378
353.355	15052
353.441	6176
353.526	7681
353.611	15671
353.696	16551
353.781	10407
353.866	4942
353.952	6886
354.037	16750
354.122	33266
354.207	29422
354.292	11542
354.377	5689
354.462	5653
354.547	7907
354.632	6492
354.717	8659
354.802	7919
354.887	4333
354.972	4389
355.057	3008
355.142	3950
355.227	7015
355.312	10997
355.397	26589
355.482	51313
355.567	25435
355.652	18482
355.737	20669
355.822	53949
355.907	42023
355.991	9230
356.076	5300
356.161	5624
356.246	4327
356.331	6405
356.416	15943
356.501	85513
356.585	85322
356.670	14426
356.755	10445
356.840	16118
356.924	66791
357.009	203581
357.094	81418
357.179	20763
357.263	12775
357.348	13716
357.433	12790
357.517	11751
357.602	9296
357.687	8774
357.771	14663
357.856	36375
357.941	25033
358.025	56107
358.110	198569
358.195	96119
358.279	17287
358.364	14162
358.448	45647
358.533	103141
358.617	75864
358.702	70484
358.787	27763
358.871	17902
358.956	13114
359.040	5890
359.125	5202
359.209	6944
359.294	20471
359.378	28532
359.462	13972
359.547	7942
359.631	5462
359.716	4661
359.800	5649
359.885	7550
359.969	6392
360.053	5064
360.138	5690
360.222	9517
360.306	16930
360.391	12906
360.475	26480
360.559	49161
360.644	44690
360.728	31594
360.812	51048
360.896	125045
360.981	54764
361.065	25928
361.149	9283
361.233	7968
361.318	7360
361.402	8213
361.486	7888
361.570	6007
361.654	9321
361.739	24294
361.823	87213
361.907	122569
361.991	24862
362.075	16463
362.159	34256
362.243	23328
362.327	19125
362.411	17005
362.495	11406
362.580	8070
362.664	5515
362.748	6719
362.832	9060
362.916	14108
363.000	35752
363.084	94258
363.168	142874
363.252	38092
363.336	14476
363.420	20133
363.503	59118
363.587	61604
363.671	15296
363.755	11352
363.839	15310
363.923	9392
364.007	18931
364.091	20972
364.175	28336
364.258	92247
364.342	63730
364.426	47637
364.510	26482
364.594	19651
364.677	29656
364.761	109259
364.845	78173
364.929	30038
365.013	24500
365.096	20718
365.180	23410
365.264	29205
365.347	87286
365.431	37350
365.515	11309
365.598	7534
365.682	7712
365.766	10618
365.849	11169
365.933	8734
366.017	9654
366.100	6774
366.184	4194
366.267	5169
366.351	6055
366.435	4995
366.518	4325
366.602	3985
366.685	4654
366.769	6630
366.852	10803
366.936	17819
367.019	11326
367.103	8375
367.186	11992
367.270	5380
367.353	4112
367.436	4758
367.520	4920
367.603	6879
367.687	11059
367.770	19880
367.853	11644
367.937	31917
368.020	47830
368.104	15449
368.187	15561
368.270	20235
368.353	17714
368.437	22494
368.520	44275
368.603	30613
368.687	42194
368.770	69909
368.853	19858
368.936	17922
369.020	15573
369.103	8812
369.186	5493
369.269	6980
369.352	14656
369.436	17393
369.519	11967
369.602	6290
369.685	6739
369.768	7690
369.851	6728
369.934	5067
370.018	8200
370.101	16203
370.184	12109
370.267	9807
370.350	17122
370.433	24427
370.516	57354
370.599	68774
370.682	28597
370.765	42760
370.848	50164
370.931	86764
371.014	31693
371.097	7835
371.180	7048
371.263	4704
371.346	3935
371.429	4704
371.511	6180
371.594	10557
371.677	15762
371.760	16474
371.843	18570
371.926	77041
372.009	158718
372.091	53181
372.174	36031
372.257	75008
372.340	30487
372.423	24440
372.505	23850
372.588	12220
372.671	32050
372.754	87507
372.836	44153
372.919	30533
373.002	50270
373.085	19601
373.167	18196
373.250	41390
373.332	78794
373.415	113544
373.498	220140
373.580	86492
373.663	112683
373.746	144375
373.828	36012
373.911	16235
373.993	18048
374.076	51422
374.159	44748
374.241	28269
374.324	76114
374.406	49581
374.489	67368
374.571	166315
374.654	69093
374.736	39857
374.819	108649
374.901	158120
374.983	155767
375.066	30796
375.148	13665
375.231	45710
375.313	75678
375.395	28924
375.478	9353
375.560	6849
375.643	10824
375.725	37796
375.807	137857
375.890	105654
375.972	42759
376.054	25509
376.136	35832
376.219	17815
376.301	43423
376.383	116927
376.465	47350
376.548	33855
376.630	39570
376.712	99687
376.794	45982
376.877	7097
376.959	5765
377.041	6983
377.123	11722
377.205	12745
377.287	4457
377.369	4479
377.452	5602
377.534	5413
377.616	4378
377.698	5152
377.780	5297
377.862	5528
377.944	5486
378.026	3434
378.108	3826
378.190	4839
378.272	4103
378.354	3982
378.436	3971
378.518	9103
378.600	25107
378.682	24143
378.764	53618
378.846	38703
378.928	13613
379.010	17586
379.091	9824
379.173	6243
379.255	5379
379.337	9646
379.419	29079
379.501	73166
379.583	28310
379.664	9594
379.746	23954
379.828	54103
379.910	70242
379.991	57125
380.073	11801
380.155	8520
380.237	6824
380.318	5110
380.400	6359
380.482	14452
380.564	21389
380.645	18158
380.727	16618
380.809	10990
380.890	8257
380.972	6170
381.053	6655
381.135	8184
381.217	22296
381.298	54795
381.380	27574
381.461	27329
381.543	107320
381.624	125457
381.706	25264
381.787	14529
381.869	16602
381.951	50676
382.032	167727
382.113	107279
382.195	26429
382.276	17494
382.358	35665
382.439	88389
382.521	102400
382.602	156915
382.684	82579
382.765	147184
382.846	173793
382.928	225891
383.009	131358
383.090	123076
383.172	353066
383.253	451389
383.334	170491
383.416	152881
383.497	86347
383.578	56101
383.659	113513
383.741	335266
383.822	664062
383.903	349303
383.984	133687
384.066	184559
384.147	112710
384.228	29132
384.309	21852
384.390	16546
384.471	13284
384.553	13426
384.634	18022
384.715	17758
384.796	11174
384.877	15715
384.958	51715
385.039	59009
385.120	22145
385.201	12179
385.282	14594
385.363	13290
385.444	13468
385.525	25585
385.606	69415
385.687	57032
385.768	16371
385.849	23495
385.930	82969
386.011	129775
386.092	36811
386.173	11834
386.254	9410
386.335	8902
386.416	10776
386.496	35258
386.577	52144
386.658	19015
386.739	12233
386.820	11071
386.901	8828
386.981	8346
387.062	6617
387.143	16053
387.224	52985
387.304	45443
387.385	16693
387.466	11124
387.547	11566
387.627	9328
387.708	23383
387.789	89826
387.869	98564
387.950	26755
388.031	7481
388.111	7137
388.192	15934
388.273	21024
388.353	13120
388.434	9501
388.514	21493
388.595	81029
388.676	102761
388.756	52859
388.837	52540
388.917	29855
388.998	8119
389.078	7102
389.159	7988
389.239	6975
389.320	10961
389.400	9235
389.480	20565
389.561	50594
389.641	24146
389.722	11106
389.802	16969
389.883	23383
389.963	58137
390.043	35307
390.124	12865
390.204	23603
390.284	63173
390.365	40723
390.445	52208
390.525	144546
390.605	128593
390.686	36116
390.766	11854
390.846	7560
390.927	5991
391.007	6568
391.087	7571
391.167	6811
391.247	6032
391.328	9861
391.408	14079
391.488	8627
391.568	4369
391.648	9343
391.728	12225
391.808	12260
391.888	14610
391.969	30460
392.049	44336
392.129	20022
392.209	24455
392.289	56655
392.369	31440
392.449	24100
392.529	16210
392.609	15007
392.689	21043
392.769	57700
392.849	47649
392.929	37952
393.009	79596
393.089	65282
393.169	66642
393.248	200305
393.328	576180
393.408	607761
393.488	184460
393.568	53763
393.648	28011
393.728	19657
393.807	14888
393.887	15350
393.967	13747
394.047	17467
394.127	22788
394.206	39707
394.286	127985
394.366	433079
394.446	463369
394.525	129932
394.605	36782
394.685	27009
394.764	41260
394.844	58789
394.924	40576
395.003	17831
395.083	13614
395.163	12192
395.242	12431
395.322	12185
395.402	9601
395.481	13919
395.561	31915
395.640	68887
395.720	55426
395.799	75575
395.879	64140
395.958	62042
396.038	189278
396.117	547359
396.197	607838
396.276	212989
396.356	72977
396.435	45926
396.515	32986
396.594	38421
396.673	63975
396.753	213369
396.832	550071
396.912	436380
396.991	107568
397.070	32393
397.150	18529
397.229	14604
397.308	17796
397.388	22742
397.467	13247
397.546	7880
397.625	6781
397.705	11146
397.784	10495
397.863	6421
397.942	5196
398.022	6887
398.101	22914
398.180	54642
398.259	26845
398.338	9440
398.417	7221
398.497	5543
398.576	6664
398.655	4483
398.734	4283
398.813	5382
398.892	21981
398.971	60438
399.050	27621
399.129	5275
399.208	3645
399.287	4610
399.366	3401
399.445	3455
399.524	3509
399.603	3848
399.682	10236
399.761	26014
399.840	67215
399.919	46298
399.998	8130
400.077	3522
400.156	2989
400.235	5880
400.313	4040
400.392	6544
400.471	30742
400.550	44646
400.629	12070
400.708	6593
400.786	5665
400.865	14302
400.944	13697
401.023	7769
401.102	2674
401.180	2480
401.259	3693
401.338	3777
401.416	7121
401.495	5239
401.574	4509
401.652	4264
401.731	6596
401.810	4773
401.888	2929
401.967	2164
402.046	4104
402.124	5949
402.203	7432
402.281	5168
402.360	6984
402.438	16787
402.517	10673
402.596	4690
402.674	4150
402.753	3332
402.831	3562
402.910	4369
402.988	16958
403.066	40447
403.145	21613
403.223	17200
403.302	34064
403.380	24655
403.459	22535
403.537	8312
403.615	5159
403.694	2246
403.772	3873
403.850	3336
403.929	3656
404.007	3450
404.085	8057
404.164	6815
404.242	7439
404.320	24668
404.398	59999
404.477	64683
404.555	139906
404.633	122475
404.711	51312
404.789	22891
404.868	7720
404.946	3984
405.024	3067
405.102	4052
405.180	2669
405.258	1852
405.336	3830
405.415	3705
405.493	8371
405.571	6509
405.649	2322
405.727	2737
405.805	5435
405.883	5503
405.961	5159
406.039	6339
406.117	3248
406.195	9230
406.273	35388
406.351	114184
406.429	64783
406.507	11241
406.585	4663
406.663	5550
406.740	7778
406.818	5844
406.896	4219
406.974	4793
407.052	13212
407.130	69676
407.208	91485
407.285	19225
407.363	4233
407.441	4438
407.519	4544
407.596	6811
407.674	20152
407.752	58486
407.830	45075
407.907	12551
407.985	5367
408.063	2906
408.141	2621
408.218	5523
408.296	5243
408.373	4657
408.451	5961
408.529	5125
408.606	2665
408.684	2189
408.762	2486
408.839	1481
408.917	2024
408.994	2185
409.072	1953
409.149	3465
409.227	4889
409.304	4836
409.382	3318
409.459	4006
409.537	6022
409.614	6889
409.692	4347
409.769	4989
409.846	6072
409.924	7710
410.001	6569
410.079	6272
410.156	6130
410.233	4910
410.311	3886
410.388	2650
410.465	5399
410.543	4028
410.620	3793
410.697	4899
410.775	5476
410.852	2051
410.929	5988
411.006	6843
411.083	4863
411.161	10511
411.238	9560
411.315	5359
411.392	3661
411.469	5871
411.547	6001
411.624	3239
411.701	3420
411.778	4666
411.855	11048
411.932	6257
412.009	2810
412.086	3268
412.163	3815
412.240	4494
412.317	6321
412.394	4266
412.471	3034
412.548	2628
412.625	3217
412.702	4501
412.779	8524
412.856	6273
412.933	2759
413.010	2422
413.087	8614
413.164	31009
413.241	38920
413.318	9190
413.395	7719
413.471	9093
413.548	4647
413.625	4211
413.702	3904
413.779	3480
413.855	2924
413.932	1100
414.009	1393
414.086	2159
414.162	2914
414.239	6691
414.316	30115
414.393	59839
414.469	19620
414.546	3718
414.623	3128
414.699	2514
414.776	3777
414.853	1974
414.929	3178
415.006	3040
415.082	3668
415.159	3349
415.236	3113
415.312	3856
415.389	7787
415.465	9389
415.542	4711
415.618	3036
415.695	6723
415.771	4107
415.848	3838
415.924	3856
416.000	3022
416.077	2931
416.153	1169
416.230	627
416.306	1541
416.383	1884
416.459	2645
416.535	1614
416.612	1636
416.688	2387
416.764	2072
416.841	2045
416.917	2671
416.993	2272
417.069	3872
417.146	7216
417.222	10457
417.298	5825
417.374	2694
417.451	4088
417.527	5334
417.603	4891
417.679	4117
417.755	3547
417.831	2297
417.908	1969
417.984	1402
418.060	2007
418.136	8708
418.212	11061
418.288	4302
418.364	3414
418.440	3022
418.516	5881
418.592	6396
418.668	13638
418.744	20321
418.820	13255
418.896	3627
418.972	1349
419.048	3164
419.124	9879
419.200	7063
419.276	3371
419.352	1027
419.428	2067
419.504	3292
419.579	4166
419.655	3141
419.731	4144
419.807	13933
419.883	23823
419.959	15891
420.034	4650
420.110	11687
420.186	38049
420.262	27354
420.337	6088
420.413	5130
420.489	2399
420.565	2901
420.640	2146
420.716	2913
420.792	1282
420.867	3800
420.943	2537
421.019	6154
421.094	4746
421.170	3277
421.245	1667
421.321	3460
421.397	3894
421.472	12691
421.548	31882
421.623	18565
421.699	6875
421.774	6182
421.850	4674
421.925	9446
422.001	8663
422.076	7559
422.152	8609
422.227	13923
422.302	16768
422.378	23862
422.453	44929
422.529	100570
422.604	229092
422.679	362934
422.755	247352
422.830	85990
422.905	35611
422.981	19652
423.056	13653
423.131	10564
423.207	8664
423.282	8967
423.357	15196
423.432	10232
423.508	9983
423.583	20669
423.658	14351
423.733	6101
423.808	6795
423.883	7854
423.959	6663
424.034	4395
424.109	3772
424.184	3270
424.259	2820
424.334	2233
424.409	1690
424.484	2810
424.559	3413
424.634	2588
424.709	5281
424.784	6131
424.859	3846
424.934	7772
425.009	28634
425.084	44716
425.159	15212
425.234	3287
425.309	2399
425.384	11862
425.459	16968
425.534	5273
425.609	2470
425.683	1990
425.758	2856
425.833	2541
425.908	4381
425.983	19221
426.058	46444
426.132	19020
426.207	3534
426.282	6804
426.357	3743
426.431	2276
426.506	2370
426.581	2513
426.655	2283
426.730	2670
426.805	2626
426.879	2807
426.954	3651
427.029	7870
427.103	43589
427.178	98630
427.253	41582
427.327	6356
427.402	7733
427.476	18909
427.551	8065
427.625	3695
427.700	3775
427.774	2103
427.849	3169
427.923	1928
427.998	1707
428.072	3438
428.147	7906
428.221	33886
428.296	75739
428.370	30560
428.444	5885
428.519	6412
428.593	12647
428.667	10888
428.742	12638
428.816	15767
428.890	54444
428.965	69801
429.039	23053
429.113	14681
429.188	5415
429.262	2300
429.336	7564
429.410	20996
429.485	12492
429.559	11227
429.633	8178
429.707	3399
429.781	12592
429.855	58425
429.930	74637
430.004	41122
430.078	57999
430.152	57759
430.226	108409
430.300	92069
430.374	15160
430.448	7582
430.522	22992
430.596	57229
430.670	38588
430.744	96395
430.818	124264
430.892	27337
430.966	5687
431.040	3595
431.114	1424
431.188	1733
431.262	1770
431.336	2243
431.410	7737
431.484	16595
431.557	10942
431.631	2114
431.705	3486
431.779	19180
431.853	65107
431.927	36928
432.000	4619
432.074	2353
432.148	3453
432.222	2329
432.295	1310
432.369	2221
432.443	6105
432.516	38761
432.590	95144
432.664	33735
432.737	4461
432.811	2090
432.885	1309
432.958	1833
433.032	1252
433.106	691
433.179	1813
433.253	1865
433.326	1679
433.400	190
433.473	1163
433.547	694
433.620	1949
433.694	4970
433.767	4851
433.841	1602
433.914	1493
433.988	1758
434.061	1892
434.134	1735
434.208	469
434.281	1052
434.355	436
434.428	2252
434.501	1506
434.575	1356
434.648	774
434.721	746
434.795	764
434.868	771
434.941	446
435.014	271
435.088	1522
435.161	3505
435.234	4987
435.307	5951
435.381	3037
435.454	2389
435.527	2263
435.600	2237
435.673	2570
435.746	1802
435.819	1609
435.892	2438
435.966	1873
436.039	1753
436.112	1440
436.185	246
436.258	168
436.331	532
436.404	898
436.477	679
436.550	152
436.623	1429
436.696	1163
436.769	2041
436.842	1432
436.915	2373
436.987	2596
437.060	1214
437.133	1178
437.206	836
437.279	1197
437.352	763
437.425	78
437.498	1760
437.570	6325
437.643	4748
437.716	1574
437.789	1029
437.861	4719
437.934	13094
438.007	4666
438.080	1279
438.152	2312
438.225	8251
438.298	49124
438.370	124613
438.443	51367
438.516	12796
438.588	2525
438.661	1488
438.734	1471
438.806	3366
438.879	2659
438.951	4497
439.024	6256
439.096	1975
439.169	992
439.241	482
439.314	894
439.386	2168
439.459	4911
439.531	6710
439.604	3071
439.676	2060
439.749	1426
439.821	953
439.893	1621
439.966	703
440.038	2084
440.110	2948
440.183	1154
440.255	1637
440.327	3447
440.400	21117
440.472	81371
440.544	49630
440.617	7364
440.689	4830
440.761	6959
440.833	10574
440.905	6097
440.978	436
441.050	1037
441.122	1314
441.194	587
441.266	649
441.338	1316
441.411	4670
441.483	27719
441.555	35117
441.627	7085
441.699	3499
441.771	2943
441.843	1169
441.915	1405
441.987	1089
442.059	334
442.131	2331
442.203	3987
442.275	4377
442.347	4365
442.419	7860
442.491	33689
442.563	59871
442.635	23657
442.706	17439
442.778	11617
442.850	2888
442.922	1164
442.994	2457
443.066	4214
443.137	3177
443.209	3063
443.281	5734
443.353	12430
443.425	47038
443.496	125660
443.568	102374
443.640	32837
443.711	8118
443.783	3546
443.855	2285
443.926	1362
443.998	2611
444.070	3142
444.141	2532
444.213	4643
444.285	5192
444.356	3892
444.428	3677
444.499	1185
444.571	804
444.642	1010
444.714	1659
444.785	3708
444.857	4866
444.928	9467
445.000	6089
445.071	7556
445.143	8240
445.214	5617
445.285	11602
445.357	32806
445.428	99684
445.500	181500
445.571	106263
445.642	48043
445.714	20798
445.785	16788
445.856	5702
445.928	6536
445.999	5702
446.070	3831
446.141	4458
446.213	4751
446.284	2010
446.355	2578
446.426	1188
446.497	1230
446.569	3667
446.640	5934
446.711	4639
446.782	1446
446.853	2716
446.924	3608
446.995	1973
447.066	1380
447.138	3715
447.209	1593
447.280	578
447.351	685
447.422	917
447.493	1218
447.564	3038
447.635	4373
447.706	1834
447.777	351
447.847	1229
447.918	38
447.989	2479
448.060	2810
448.131	6901
448.202	5680
448.273	4885
448.344	1555
448.414	2126
448.485	1271
448.556	323
448.627	474
448.698	1125
448.768	100
448.839	752
448.910	3278
448.981	2964
449.051	1372
449.122	363
449.193	916
449.263	876
449.334	1081
449.405	2554
449.475	6502
449.546	3560
449.616	3753
449.687	3321
449.758	1089
449.828	993
449.899	910
449.969	766
450.040	858
450.110	1890
450.181	1866
450.251	960
450.322	1253
450.392	1280
450.463	679
450.533	598
450.604	524
450.674	555
450.744	374
450.815	68
450.885	1002
450.955	1546
451.026	-134
451.096	517
451.166	645
451.237	4443
451.307	9069
451.377	3368
451.447	363
451.518	659
451.588	171
451.658	1034
451.728	2446
451.799	10460
451.869	9553
451.939	2042
452.009	1349
452.079	951
452.149	1028
452.219	3194
452.289	12046
452.360	6964
452.430	1097
452.500	2020
452.570	2102
452.640	3841
452.710	8633
452.780	13359
452.850	11314
452.920	10035
452.990	3346
453.060	2482
453.129	3143
453.199	4159
453.269	14791
453.339	27379
453.409	40017
453.479	45118
453.549	59541
453.619	60230
453.688	19700
453.758	3689
453.828	1931
453.898	1042
453.968	1047
454.037	1608
454.087	955
454.107	680
454.168	392
454.177	337
454.247	574
454.249	591
454.316	755
454.330	1037
454.386	2116
454.411	3602
454.456	5922
454.492	6783
454.525	7547
454.574	4057
454.595	2547
454.655	1595
454.665	1450
454.734	1599
454.736	1678
454.804	4048
454.817	5475
454.873	11089
454.898	11061
454.943	10681
454.979	7284
455.013	4282
455.060	2309
455.082	1578
455.141	2572
455.152	2742
455.221	9010
455.222	9133
455.291	16227
455.303	17174
455.360	20277
455.384	29414
455.430	44526
455.465	32666
455.499	21395
455.546	14188
455.569	10931
455.627	6848
455.638	6154
455.707	1509
455.708	1519
455.777	637
455.789	775
455.846	1529
455.869	1307
455.916	726
455.950	839
455.985	1034
456.031	1094
456.054	1017
456.112	1224
456.124	1291
456.193	328
456.193	313
456.262	1343
456.274	1474
456.332	2217
456.355	2189
456.401	1827
456.436	1596
456.470	1326
456.516	833
456.540	697
456.597	766
456.609	731
456.678	872
456.678	864
456.747	539
456.759	616
456.817	877
456.840	629
456.886	154
456.920	196
456.955	323
457.001	660
457.024	782
457.082	1426
457.093	1575
457.162	2593
457.163	2606
457.232	2845
457.243	2664
457.301	1427
457.324	1161
457.370	898
457.405	1198
457.439	1624
457.485	1413
457.508	1238
457.566	1194
457.577	1223
457.646	1716
457.647	1733
457.715	2863
457.727	3186
457.784	5292
457.808	6445
457.853	8168
457.889	9750
457.922	9896
457.969	7157
457.991	6916
458.050	8865
458.060	9213
458.129	13483
458.130	13614
458.198	15151
458.211	14196
458.267	8334
458.292	5930
458.336	3682
458.372	3307
458.405	4012
458.453	6064
458.474	7595
458.533	12215
458.543	12824
458.611	22631
458.614	22812
458.680	17105
458.694	14536
458.749	6772
458.775	4861
458.818	3397
458.855	2661
458.887	2334
458.936	1916
458.955	1772
459.016	2350
459.024	2406
459.093	2324
459.097	2315
459.162	2045
459.177	2102
459.230	2616
459.257	3021
459.299	3422
459.338	3611
459.368	3709
459.418	3585
459.437	3358
459.499	2618
459.505	2580
459.574	2640
459.579	2620
459.643	1925
459.659	1769
459.711	2082
459.740	2245
459.780	2300
459.820	2956
459.849	3375
459.900	3431
459.917	3426
459.981	4018
459.986	4054
460.054	3915
460.061	3929
460.123	3954
460.141	3938
460.191	4627
460.222	5279
460.260	5588
460.302	5932
460.328	5848
460.382	5661
460.397	5639
460.462	4582
460.465	4628
460.534	7043
460.543	7328
460.602	18500
460.623	23117
460.671	37230
460.703	52161
460.739	54967
460.783	48213
460.808	38684
460.864	8779
460.876	6481
460.944	3128
460.945	3101
461.013	3219
461.024	3286
461.081	3107
461.104	3042
461.150	2859
461.184	2757
461.218	2901
461.264	2925
461.286	2943
461.345	3320
461.355	3294
461.423	3092
461.425	3069
461.491	2931
461.505	3099
461.559	4580
461.585	5157
461.628	8293
461.665	11685
461.696	13603
461.745	17693
461.764	16045
461.825	5952
461.832	5537
461.901	3301
461.905	3200
461.969	2700
461.985	2633
462.037	2851
462.065	3066
462.105	3000
462.145	3004
462.173	4517
462.225	6943
462.241	7353
462.305	10447
462.310	10311
462.378	7393
462.385	6842
462.446	3307
462.465	2546
462.514	2956
462.545	3461
462.582	3459
462.625	3317
462.650	3285
462.705	3030
462.718	3086
462.785	3421
462.786	3431
462.854	4073
462.865	4217
462.922	5796
462.945	6417
462.990	5221
463.025	3914
463.058	3404
463.104	2580
463.126	2333
463.184	2522
463.194	2744
463.262	3648
463.264	3686
463.330	3107
463.344	2914
463.398	3645
463.424	4205
463.466	3853
463.504	3451
463.533	3875
463.583	4249
463.601	4186
463.663	3958
463.669	4013
463.737	5132
463.743	5213
463.805	7942
463.823	8789
463.873	11823
463.903	13750
463.940	15297
463.982	17370
464.008	14795
464.062	7716
464.076	7128
464.142	4292
464.144	4255
464.211	3556
464.221	3452
464.279	3839
464.301	4037
464.347	4090
464.381	4069
464.414	4403
464.461	5002
464.482	5473
464.540	6601
464.550	6518
464.617	5828
464.620	5796
464.685	6288
464.699	6389
464.753	7038
464.779	7403
464.820	8040
464.859	8708
464.888	8392
464.938	7438
464.956	7607
465.018	8428
465.023	8319
465.091	6656
465.098	6483
465.158	6313
465.177	6261
465.226	6607
465.257	6805
465.293	6778
465.336	6712
465.361	7239
465.416	8432
465.428	8865
465.495	11133
465.496	11178
465.563	15782
465.575	16589
465.631	19550
465.654	20923
465.698	15633
465.734	10593
465.765	9096
465.813	7028
465.833	6971
465.893	7031
465.900	7114
465.968	7692
465.972	7725
466.035	7668
466.052	7629
466.102	8134
466.131	8403
466.170	8316
466.210	8164
466.237	8398
466.290	8878
466.304	8883
466.369	8773
466.372	8807
466.439	9489
466.449	9553
466.506	10181
466.528	10420
466.573	12224
466.607	13552
466.641	18637
466.687	25663
466.708	28073
466.766	34808
466.775	32971
466.842	18473
466.845	17752
466.909	13365
466.925	12354
466.977	11681
467.004	11297
467.044	11891
467.083	12438
467.111	12846
467.163	13575
467.178	14014
467.242	15750
467.245	15717
467.312	14513
467.321	14333
467.379	13772
467.400	13527
467.446	13338
467.480	13160
467.559	13152
467.638	11142
467.717	11018
467.796	12505
467.875	13639
467.955	12423
468.034	13853
468.113	27049
468.192	37156
468.271	17958
468.350	10210
468.429	11373
468.508	10989
468.588	9845
468.667	10332
468.746	10230
468.825	10014
468.904	8347
468.983	9723
469.062	12532
469.141	15688
469.220	9261
469.299	8716
469.378	8365
469.456	11206
469.535	11426
469.614	10251
469.693	9512
469.772	12346
469.851	13377
469.930	13195
470.009	9344
470.088	9475
470.166	11004
470.245	13811
470.324	17462
470.403	15395
470.482	10628
470.560	10117
470.639	10158
470.718	11217
470.797	9731
470.875	9729
470.954	12063
471.033	14502
471.111	7886
471.190	6929
471.269	6957
471.347	7234
471.426	6505
471.505	8620
471.583	9879
471.662	10317
471.740	8453
471.819	9016
471.898	7558
471.976	7847
472.055	7372
472.133	9019
472.212	11392
472.290	9913
472.369	7950
472.447	7477
472.526	7127
472.604	7741
472.683	8441
472.761	8319
472.839	7850
472.918	8730
472.996	7502
473.075	9128
473.153	8869
473.231	7249
473.310	7636
473.388	9268
473.466	7368
473.545	9737
473.623	12800
473.701	13000
473.780	8243
473.858	6683
473.936	8700
474.014	7907
474.093	8624
474.171	11723
474.249	14363
474.327	12675
474.405	6615
474.484	7440
474.562	7848
474.640	8329
474.718	7592
474.796	8730
474.874	8228
474.952	8355
475.030	7761
475.108	7813
475.187	9656
475.265	10407
475.343	12483
475.421	12972
475.499	9179
475.577	8805
475.655	9131
475.733	15854
475.811	24072
475.889	23789
475.966	20535
476.044	8039
476.122	8489
476.200	10079
476.278	8724
476.356	8040
476.434	7013
476.512	7940
476.590	9676
476.667	9985
476.745	6742
476.823	7513
476.901	6346
476.979	7030
477.056	7047
477.134	7960
477.212	7459
477.290	7642
477.367	6782
477.445	6479
477.523	6244
477.601	6338
477.678	6514
477.756	7809
477.834	7809
477.911	7680
477.989	7286
478.066	6535
478.144	6831
478.222	7928
478.299	10097
478.377	11578
478.454	6719
478.532	6349
478.609	6396
478.687	7050
478.764	6103
478.842	6992
478.919	7838
478.997	7793
479.074	5491
479.152	5912
479.229	8141
479.307	6492
479.384	5450
479.461	5805
479.539	5216
479.616	7916
479.694	5424
479.771	6590
479.848	6708
479.926	8130
480.003	10039
480.080	7423
480.157	5532
480.235	6600
480.312	5807
480.389	6723
480.467	8645
480.544	12368
480.621	8247
480.698	6870
480.775	6844
480.853	8252
480.930	6253
481.007	6889
481.084	7775
481.161	10262
481.238	9131
481.315	6368
481.392	4836
481.470	5626
481.547	5879
481.624	6308
481.701	5186
481.778	6843
481.855	6805
481.932	9055
482.009	13503
482.086	12825
482.163	5738
482.240	7945
482.317	11889
482.393	11857
482.470	6205
482.547	6597
482.624	5574
482.701	7245
482.778	6182
482.855	5141
482.932	6493
483.009	5411
483.085	6317
483.162	9821
483.239	9444
483.316	5798
483.393	6943
483.469	5798
483.546	6470
483.623	7805
483.699	6387
483.776	5588
483.853	6566
483.930	8010
484.006	19511
484.083	35605
484.160	27237
484.236	33064
484.313	30314
484.389	21530
484.466	19298
484.543	17771
484.619	17421
484.696	19317
484.772	18845
484.849	20210
484.925	17076
485.002	17317
485.078	17301
485.155	17258
485.231	16691
485.308	16074
485.384	16386
485.461	18538
485.537	26488
485.614	33125
485.690	19288
485.766	15521
485.843	15284
485.919	21639
485.995	26426
486.072	16605
486.148	14031
486.224	13947
486.301	15568
486.377	17621
486.453	18259
486.530	17375
486.606	20202
486.682	23846
486.758	25834
486.835	29772
486.911	23611
486.987	33779
487.063	45313
487.139	56051
487.215	45695
487.292	25955
487.368	17429
487.444	18891
487.520	22430
487.596	24201
487.672	26246
487.748	51005
487.824	84183
487.900	52701
487.976	23178
488.052	19820
488.128	22779
488.204	19579
488.280	15864
488.356	17301
488.432	27804
488.508	45248
488.584	25634
488.660	15617
488.736	15394
488.812	15930
488.888	20015
488.964	23492
489.039	46413
489.115	83382
489.191	66644
489.267	19620
489.343	15332
489.418	13317
489.494	12555
489.570	11927
489.646	13824
489.722	13349
489.797	13661
489.873	15305
489.949	32159
490.024	34546
490.100	14934
490.176	12650
490.251	14700
490.327	20171
490.403	15901
490.478	12162
490.554	10757
490.629	11932
490.705	11034
490.781	11157
490.856	11291
490.932	13025
491.007	13859
491.083	13585
491.158	11984
491.234	13651
491.309	24638
491.385	30452
491.460	14597
491.536	12625
491.611	12077
491.686	13155
491.762	17522
491.837	31043
491.913	55117
491.988	74155
492.063	110786
492.139	42578
492.214	19415
492.289	12579
492.365	9957
492.440	11994
492.515	12140
492.590	11533
492.666	10069
492.741	11274
492.816	16540
492.891	13622
492.967	11062
493.042	10218
493.117	10971
493.192	12337
493.267	18484
493.342	59270
493.418	105260
493.493	30158
493.568	9877
493.643	9541
493.718	10944
493.793	14939
493.868	19293
493.943	15187
494.018	11940
494.093	9903
494.168	9710
494.243	8442
494.318	9340
494.393	8882
494.468	8732
494.543	8519
494.618	10009
494.693	10212
494.768	8352
494.842	9359
494.917	8459
494.992	9327
495.067	9116
495.142	8192
495.217	8606
495.292	9923
495.366	10715
495.441	13616
495.516	15655
495.591	21191
495.665	57494
495.740	160872
495.815	121042
495.890	20352
495.964	11754
496.039	13764
496.114	11671
496.188	14455
496.263	14832
496.338	12342
496.412	13122
496.487	15706
496.561	15936
496.636	18903
496.710	15132
496.785	15657
496.860	17032
496.934	15515
497.009	15576
497.083	16308
497.158	18401
497.232	21186
497.307	22671
497.381	21865
497.455	22622
497.530	27420
497.604	25395
497.679	24752
497.753	32144
497.827	41831
497.902	41327
497.976	46083
498.050	63298
498.125	192262
498.199	294049
498.273	80495
498.348	54501
498.422	46963
498.496	43142
498.570	42947
498.645	34194
498.719	30708
498.793	30575
498.867	35838
498.941	41662
499.016	75680
499.090	218299
499.164	156249
499.238	23223
499.312	18122
499.386	20409
499.460	20412
499.534	16058
499.609	18713
499.683	21448
499.757	23011
499.831	32157
499.905	123397
499.979	188886
500.053	37474
500.127	27836
500.201	24708
500.275	17568
500.349	14518
500.422	15123
500.496	20474
500.570	37675
500.644	81031
500.718	157990
500.792	73251
500.866	14854
500.940	15053
501.013	14491
501.087	13029
501.161	20105
501.235	28002
501.309	38501
501.382	111653
501.456	156291
501.530	36393
501.603	41586
501.677	29677
501.751	9926
501.825	12894
501.898	16917
501.972	46192
502.046	49984
502.119	13516
502.193	21882
502.266	53020
502.340	44109
502.413	22104
502.487	48692
502.561	35971
502.634	15845
502.708	11557
502.781	9403
502.855	9465
502.928	6967
503.002	7572
503.075	6914
503.149	7064
503.222	7964
503.295	7860
503.369	9906
503.442	11826
503.516	30419
503.589	90324
503.662	86819
503.736	26373
503.809	40463
503.882	49816
503.956	46114
504.029	66116
504.102	37173
504.175	48154
504.249	26214
504.322	15249
504.395	12547
504.468	9722
504.542	7775
504.615	7661
504.688	7218
504.761	6423
504.834	7837
504.907	10278
504.980	17567
505.053	11840
505.127	9764
505.200	15354
505.273	10370
505.346	8796
505.419	6052
505.492	6699
505.565	6460
505.638	5411
505.711	4976
505.784	5144
505.857	5869
505.930	6930
506.003	4902
506.076	6968
506.149	7261
506.221	9486
506.294	9063
506.367	15424
506.440	60227
506.513	61662
506.586	12759
506.659	8863
506.731	6249
506.804	7943
506.877	11153
506.950	10018
507.022	5285
507.095	6511
507.168	10305
507.241	7157
507.313	6246
507.386	6262
507.459	9713
507.531	7976
507.604	5903
507.677	6717
507.749	5248
507.822	7774
507.894	14050
507.967	20667
508.040	13168
508.112	9723
508.185	8724
508.257	8486
508.330	12576
508.402	10518
508.475	8291
508.547	9657
508.620	8741
508.692	12520
508.765	10726
508.837	7452
508.909	7540
508.982	7327
509.054	8537
509.127	7942
509.199	7028
509.271	6280
509.344	7321
509.416	7573
509.488	6558
509.560	7849
509.633	7987
509.705	8833
509.777	9604
509.849	12056
509.922	11942
509.994	8652
510.066	8666
510.138	8605
510.210	15406
510.283	15893
510.355	13864
510.427	11493
510.499	11339
510.571	10645
510.643	10282
510.715	15294
510.787	14710
510.859	11471
510.931	11216
511.003	13935
511.076	16235
511.148	9662
511.219	9701
511.291	13049
511.363	17106
511.435	10569
511.507	7662
511.579	8864
511.651	9337
511.723	9331
511.795	8401
511.867	8147
511.939	9056
512.010	14609
512.082	18381
512.154	9149
512.226	9814
512.298	11977
512.369	19570
512.441	16117
512.513	15003
512.585	13291
512.656	12801
512.728	12646
512.800	10985
512.871	9696
512.943	10785
513.015	9908
513.086	9690
513.158	11426
513.230	10983
513.301	14985
513.373	17878
513.444	12352
513.516	9954
513.588	10770
513.659	10061
513.731	13255
513.802	11656
513.874	18960
513.945	40568
514.016	23833
514.088	10741
514.159	10151
514.231	13279
514.302	19139
514.374	14395
514.445	12965
514.516	19700
514.588	20237
514.659	12543
514.730	18171
514.802	21158
514.873	16015
514.944	21285
515.016	18281
515.087	17214
515.158	16882
515.229	24208
515.301	19651
515.372	26625
515.443	25413
515.514	18484
515.585	13685
515.656	13006
515.728	12885
515.799	11381
515.870	11924
515.941	11909
516.012	10558
516.083	14100
516.154	14810
516.225	19693
516.296	19729
516.367	17696
516.438	19528
516.509	22859
516.580	30233
516.651	70736
516.722	287515
516.793	262098
516.864	44395
516.935	33594
517.006	34439
517.077	42986
517.148	83648
517.219	271980
517.289	660082
517.360	243815
517.431	74068
517.502	21861
517.573	17763
517.643	16169
517.714	16543
517.785	18328
517.856	18697
517.926	23153
517.997	26699
518.068	32929
518.138	45815
518.209	61429
518.280	178130
518.350	725907
518.421	614227
518.492	84650
518.562	33175
518.633	25472
518.703	21732
518.774	28662
518.845	50027
518.915	60516
518.986	30086
519.056	21849
519.127	30756
519.197	45726
519.268	83394
519.338	82700
519.408	20088
519.479	22593
519.549	21379
519.620	13869
519.690	10540
519.760	10421
519.831	10331
519.901	11884
519.971	9574
520.042	8937
520.112	10973
520.182	12376
520.253	16036
520.323	11152
520.393	13721
520.463	26007
520.534	16540
520.604	32545
520.674	23296
520.744	13029
520.814	30321
520.885	42467
520.955	24062
521.025	82840
521.095	68245
521.165	12886
521.235	10257
521.305	8903
521.375	8972
521.445	9771
521.515	11979
521.585	15363
521.655	16483
521.725	11851
521.795	12595
521.865	7472
521.935	11431
522.005	12970
522.075	8306
522.145	8709
522.215	9639
522.285	12192
522.355	15016
522.424	25606
522.494	29619
522.564	18130
522.634	23606
522.704	78839
522.774	60299
522.843	11831
522.913	9740
522.983	12643
523.053	11902
523.122	10108
523.192	12850
523.262	36469
523.331	64318
523.401	17636
523.471	8698
523.540	8618
523.610	6792
523.680	6969
523.749	7057
523.819	8377
523.888	9181
523.958	7468
524.027	8195
524.097	7949
524.166	7760
524.236	7975
524.305	9655
524.375	6624
524.444	6397
524.514	8213
524.583	7445
524.653	8313
524.722	11303
524.791	7030
524.861	8216
524.930	5843
524.999	6441
525.069	10937
525.138	8724
525.207	9360
525.277	9001
525.346	7232
525.415	8026
525.484	7676
525.554	7646
525.623	9379
525.692	10186
525.761	9907
525.830	9640
525.900	10243
525.969	14848
526.038	21299
526.107	32231
526.176	99555
526.245	117212
526.314	45876
526.383	55049
526.452	89979
526.522	112647
526.591	179348
526.660	70663
526.729	38476
526.797	29542
526.867	45553
526.935	191612
527.004	365054
527.073	282110
527.142	40250
527.211	15782
527.280	12476
527.349	13769
527.418	9194
527.487	9185
527.555	6152
527.624	6006
527.693	5970
527.762	7411
527.831	5422
527.899	6840
527.968	5898
528.037	5029
528.106	8052
528.174	14932
528.243	14422
528.312	13428
528.380	25885
528.449	11794
528.518	7753
528.586	5637
528.655	6473
528.723	4960
528.792	5719
528.861	5565
528.929	5081
528.998	5929
529.066	5816
529.135	6380
529.203	6726
529.272	7039
529.340	9145
529.409	10320
529.477	8234
529.545	8077
529.614	12085
529.682	9946
529.751	13980
529.819	14616
529.887	12952
529.956	10736
530.024	11160
530.092	8852
530.161	10164
530.229	15057
530.297	12835
530.365	11228
530.434	10270
530.502	9784
530.570	9876
530.638	7277
530.707	9800
530.775	10763
530.843	7484
530.911	9654
530.979	8884
531.047	9814
531.115	10516
531.183	8888
531.252	10022
531.320	8919
531.388	7259
531.456	9104
531.524	8371
531.592	10052
531.660	11819
531.728	9837
531.796	9646
531.864	9980
531.932	9956
532.000	10275
532.067	10467
532.135	12949
532.203	13619
532.271	14391
532.339	18268
532.407	41156
532.475	40922
532.542	18448
532.610	17135
532.678	19558
532.746	46903
532.814	173165
532.881	83168
532.949	17952
533.017	12913
533.084	11599
533.152	10950
533.220	11338
533.287	11425
533.355	11893
533.423	10800
533.490	10597
533.558	9772
533.625	11161
533.693	12009
533.761	11056
533.828	12516
533.896	12941
533.963	19132
534.031	25956
534.098	29388
534.166	21556
534.233	12124
534.300	12670
534.368	13649
534.435	12187
534.503	12353
534.570	14043
534.637	13237
534.705	12431
534.772	13445
534.840	17289
534.907	44429
534.974	88522
535.041	23714
535.109	12883
535.176	10289
535.243	9896
535.310	9716
535.378	10030
535.445	8721
535.512	8470
535.579	8938
535.646	8724
535.714	8905
535.781	11010
535.848	11356
535.915	11223
535.982	11594
536.049	13478
536.116	12999
536.183	11574
536.250	11451
536.317	10996
536.384	12541
536.451	15715
536.518	17734
536.585	12944
536.652	15372
536.719	19814
536.786	16818
536.853	13983
536.920	17710
536.987	24864
537.053	23581
537.120	64341
537.187	108762
537.254	17126
537.321	9525
537.388	11008
537.454	7349
537.521	7216
537.588	7665
537.654	10076
537.721	10208
537.788	10627
537.855	7816
537.921	8894
537.988	9613
538.055	10251
538.121	8976
538.188	9270
538.254	13777
538.321	25255
538.388	21097
538.454	10058
538.521	9525
538.587	7885
538.654	7437
538.720	8567
538.787	8027
538.853	8196
538.920	9540
538.986	9829
539.053	10040
539.119	9783
539.185	9443
539.252	10386
539.318	14857
539.385	15970
539.451	10901
539.517	12141
539.583	11859
539.650	18953
539.716	64199
539.782	36997
539.849	9898
539.915	10099
539.981	9359
540.047	11562
540.114	10332
540.180	11216
540.246	10675
540.312	13199
540.378	23498
540.444	29862
540.510	22893
540.576	70987
540.643	43875
540.709	9814
540.775	8847
540.841	8635
540.907	11132
540.973	18306
541.039	18516
541.105	18156
541.171	11151
541.237	9474
541.303	10400
541.369	11750
541.435	13599
541.500	21992
541.566	18534
541.632	10149
541.698	7640
541.764	8337
541.830	7189
541.896	7517
541.961	8239
542.027	8971
542.093	8534
542.159	9679
542.224	9817
542.290	15404
542.356	21019
542.421	29297
542.487	16838
542.553	10606
542.618	10792
542.684	10064
542.750	10119
542.815	10355
542.881	14660
542.947	50364
543.012	70949
543.078	12860
543.143	8861
543.209	9407
543.274	8941
543.340	10797
543.405	18007
543.471	46346
543.536	16760
543.602	8584
543.667	7185
543.732	9010
543.798	7057
543.863	8588
543.928	7553
543.994	6733
544.059	8602
544.124	8962
544.190	7874
544.255	8303
544.320	8485
544.386	9727
544.451	12477
544.516	14514
544.581	13972
544.646	28140
544.712	76130
544.777	24454
544.842	10723
544.907	10453
544.972	10414
545.037	9353
545.102	10502
545.168	10664
545.233	11608
545.298	11139
545.363	13070
545.428	14758
545.493	21101
545.558	51197
545.623	36828
545.688	11913
545.753	10520
545.818	9487
545.883	11393
545.947	10019
546.012	10414
546.077	11793
546.142	11249
546.207	10182
546.272	14272
546.337	16231
546.401	13199
546.466	12216
546.531	10458
546.596	12292
546.661	12068
546.725	12321
546.790	9561
546.855	11348
546.919	10961
546.984	11885
547.049	12783
547.113	14792
547.178	13712
547.243	15421
547.307	16501
547.372	18201
547.436	21580
547.501	17634
547.565	17331
547.630	20286
547.695	20986
547.759	20688
547.823	19272
547.888	17106
547.952	16872
548.017	16941
548.081	20365
548.146	23633
548.210	22636
548.274	18752
548.339	18859
548.403	18196
548.468	16042
548.532	15415
548.596	17514
548.660	16484
548.725	18400
548.789	19799
548.853	22506
548.917	18603
548.982	19699
549.046	24248
549.110	15999
549.174	15711
549.238	16219
549.303	17460
549.367	18287
549.431	18687
549.495	16714
549.559	17145
549.623	18374
549.687	21891
549.751	26357
549.815	25880
549.879	24195
549.943	21326
550.007	22443
550.071	24098
550.135	25536
550.199	24139
550.263	20857
550.327	21349
550.391	24575
550.455	24840
550.519	22705
550.582	24552
550.646	28840
550.710	36369
550.774	26427
550.838	26262
550.901	26249
550.965	29236
551.029	29016
551.093	33713
551.156	37543
551.220	50132
551.284	64129
551.347	40817
551.411	44852
551.475	62197
551.538	33419
551.602	29078
551.666	24656
551.729	22641
551.793	23567
551.856	22993
551.920	23091
551.983	24077
552.047	23101
552.110	23016
552.174	22994
552.237	24692
552.301	22999
552.364	22271
552.428	20547
552.491	21142
552.554	23216
552.618	23110
552.681	24219
552.745	24656
552.808	31083
552.871	44796
552.934	37997
552.998	28954
553.061	26778
553.124	25634
553.187	24350
553.251	25923
553.314	27251
553.377	26232
553.440	30727
553.503	62771
553.567	150502
553.630	57685
553.693	25042
553.756	23543
553.819	23086
553.882	21787
553.945	22216
554.008	23199
554.071	21322
554.134	22588
554.197	20518
554.260	21175
554.323	22226
554.386	22083
554.449	22193
554.512	21435
554.575	20897
554.638	21871
554.701	21770
554.764	20728
554.827	20171
554.889	19618
554.952	18561
555.015	18960
555.078	18276
555.141	20115
555.203	18758
555.266	18951
555.329	18496
555.391	17925
555.454	18984
555.517	19448
555.580	18308
555.642	16777
555.705	16013
555.768	17343
555.830	17483
555.893	16925
555.955	15689
556.018	16274
556.080	15738
556.143	16629
556.206	15959
556.268	15362
556.330	16240
556.393	17585
556.455	15283
556.518	18284
556.580	22615
556.643	15265
556.705	14050
556.767	13513
556.830	15000
556.892	15766
556.955	21504
557.017	21541
557.079	15546
557.142	13995
557.204	16661
557.266	25420
557.328	31103
557.391	15019
557.453	13256
557.515	13406
557.577	14912
557.639	17996
557.701	13686
557.764	12796
557.826	12898
557.888	14896
557.950	14737
558.012	15270
558.074	17945
558.136	31170
558.198	87412
558.260	57372
558.322	19224
558.384	18357
558.446	21117
558.508	23891
558.570	28275
558.632	39274
558.694	64801
558.756	62166
558.818	130503
558.880	447677
558.942	248578
559.003	99550
559.065	75031
559.127	27764
559.189	25759
559.251	26826
559.312	32604
559.374	62504
559.436	240326
559.498	221279
559.559	37915
559.621	25897
559.683	25291
559.744	35711
559.806	92734
559.868	220489
559.929	72567
559.991	26223
560.052	30019
560.114	75283
560.176	79132
560.237	43024
560.299	91423
560.360	39771
560.422	14627
560.483	13420
560.545	11760
560.606	10681
560.667	10713
560.729	10923
560.790	9253
560.852	9129
560.913	10132
560.974	10433
561.036	9167
561.097	10902
561.158	10400
561.220	11250
561.281	9765
561.342	11095
561.403	12565
561.465	14222
561.526	26750
561.587	54137
561.648	23717
561.709	12013
561.771	10946
561.832	10841
561.893	9880
561.954	10146
562.015	10752
562.076	10045
562.137	10369
562.198	10538
562.259	9516
562.320	10308
562.381	11895
562.442	15610
562.503	16152
562.564	9965
562.625	10486
562.686	9475
562.747	10368
562.808	11257
562.869	9504
562.930	11628
562.991	10196
563.051	10895
563.112	10208
563.173	10982
563.234	9460
563.294	10600
563.355	10318
563.416	10801
563.477	9288
563.537	10434
563.598	10450
563.659	10143
563.720	10948
563.780	10170
563.841	12051
563.901	10888
563.962	10063
564.023	11067
564.083	10652
564.144	11603
564.204	10312
564.265	10826
564.325	11168
564.386	17247
564.446	20945
564.507	11396
564.567	10214
564.628	10622
564.688	10111
564.749	9853
564.809	11665
564.869	13514
564.930	12796
564.990	12129
565.050	10631
565.111	11474
565.171	11255
565.231	11330
565.292	12604
565.352	11032
565.412	11311
565.472	12000
565.532	12916
565.593	12854
565.653	11840
565.713	12443
565.773	14092
565.833	14906
565.893	20038
565.953	15939
566.013	13644
566.074	15037
566.134	16588
566.194	20317
566.254	25536
566.314	20354
566.374	17712
566.434	17668
566.494	18395
566.554	19345
566.614	19557
566.673	19907
566.733	21318
566.793	23526
566.853	24597
566.913	24617
566.973	24819
567.033	25655
567.092	25993
567.152	24298
567.212	25634
567.272	25735
567.331	27427
567.391	27533
567.451	29178
567.511	32087
567.570	32538
567.630	28412
567.690	25968
567.749	26366
567.809	27902
567.868	30779
567.928	34764
567.988	39910
568.047	45752
568.107	55761
568.166	69893
568.226	97745
568.285	134308
568.345	145870
568.404	132235
568.464	120403
568.523	110948
568.582	109330
568.642	114340
568.701	127011
568.761	157938
568.820	216940
568.879	251730
568.939	228376
568.998	191396
569.057	156370
569.116	129905
569.176	108427
569.235	90795
569.294	79126
569.353	67594
569.413	60035
569.472	53530
569.531	47249
569.590	41932
569.649	38601
569.708	34907
569.767	32403
569.827	31763
569.886	30341
569.945	25728
570.004	25183
570.063	22917
570.122	22240
570.181	22518
570.240	21554
570.299	21153
570.358	21424
570.417	18916
570.475	17637
570.534	16982
570.593	17569
570.652	16204
570.711	16686
570.770	15951
570.829	16131
570.887	15500
570.946	16287
571.005	13943
571.064	12917
571.122	13877
571.181	14902
571.240	12666
571.299	12404
571.357	11667
571.416	12438
571.475	12124
571.533	14283
571.592	11842
571.650	12070
571.709	10281
571.768	10416
571.826	10765
571.885	10493
571.943	9966
572.002	10072
572.060	9831
572.119	8949
572.177	9737
572.236	9514
572.294	9785
572.352	8923
572.411	9907
572.469	9237
572.528	9716
572.586	9779
572.644	10626
572.703	13890
572.761	10501
572.819	10364
572.877	9191
572.936	9452
572.994	8513
573.052	9130
573.110	9428
573.169	9152
573.227	8897
573.285	8627
573.343	7961
573.401	7961
573.459	7888
573.517	8345
573.576	8647
573.634	8900
573.692	9774
573.750	9340
573.808	7804
573.866	9144
573.924	9158
573.982	11440
574.040	8133
574.098	8452
574.155	8114
574.213	8791
574.271	8432
574.329	8189
574.387	7597
574.445	8465
574.503	7256
574.560	7797
574.618	7578
574.676	6882
574.734	7404
574.792	7740
574.849	7347
574.907	8082
574.965	6794
575.022	6499
575.080	7161
575.138	7468
575.195	7881
575.253	8110
575.311	8720
575.368	8814
575.426	6659
575.483	7962
575.541	6925
575.598	6833
575.656	7533
575.713	8067
575.771	6398
575.828	6546
575.886	7826
575.943	8266
576.001	7218
576.058	7550
576.115	8630
576.173	8534
576.230	10011
576.287	10290
576.345	9902
576.402	8950
576.459	8125
576.517	7495
576.574	8381
576.631	8413
576.688	9450
576.746	7700
576.803	7930
576.860	8308
576.917	7382
576.974	8068
577.031	7652
577.089	7865
577.146	7754
577.203	8134
577.260	8611
577.317	8946
577.374	8581
577.431	9382
577.488	8186
577.545	8606
577.602	8443
577.659	8677
577.716	8968
577.773	10263
577.830	8644
577.886	8470
577.943	8470
578.000	8643
578.057	8960
578.114	9854
578.171	10465
578.227	12962
578.284	13973
578.341	13883
578.398	11811
578.454	11334
578.511	11053
578.568	10620
578.625	9750
578.681	9547
578.738	8607
578.794	9351
578.851	9168
578.908	9455
578.964	7797
579.021	9306
579.077	8420
579.134	8268
579.190	8064
579.247	8419
579.303	8149
579.360	8560
579.416	9203
579.473	8660
579.529	7962
579.586	8790
579.642	9344
579.698	9155
579.755	10193
579.811	9781
579.867	9731
579.924	9574
579.980	10642
580.036	11939
580.093	13040
580.149	17760
580.205	21457
580.261	19350
580.317	16142
580.374	14723
580.430	13317
580.486	12957
580.542	11664
580.598	11494
580.619	11608
580.654	11820
580.692	11151
580.710	10843
580.765	9703
580.767	9680
580.823	10490
580.838	10332
580.879	9964
580.911	9877
580.935	9832
580.984	9983
580.991	10018
581.047	11025
581.057	10887
581.103	10327
581.130	10714
581.159	11156
581.203	11922
581.215	12143
581.270	13567
581.276	13329
581.326	11191
581.349	11024
581.382	10780
581.422	10630
581.438	10593
581.494	11337
581.494	11319
581.550	10438
581.567	10831
581.606	11675
581.640	11259
581.661	11029
581.713	11600
581.717	11656
581.773	10503
581.786	10530
581.829	10696
581.859	11024
581.885	11272
581.932	10566
581.940	10467
581.996	10820
582.004	10915
582.052	11399
582.077	10927
582.107	10414
582.150	10711
582.163	10809
582.219	10566
582.223	10616
582.274	11269
582.296	11285
582.330	11345
582.368	11380
582.386	11434
582.441	10827
582.441	10829
582.497	11454
582.514	11472
582.552	11664
582.587	12014
582.608	12240
582.659	12436
582.663	12430
582.719	12639
582.732	12353
582.774	11788
582.805	12126
582.830	12326
582.877	12342
582.885	12345
582.941	12946
582.950	12979
582.996	13162
583.023	13384
583.052	13703
583.095	14850
583.107	15193
583.162	16204
583.168	16340
583.218	17341
583.240	16762
583.273	15893
583.313	15590
583.328	15475
583.384	14672
583.385	14638
583.439	13556
583.458	13583
583.494	13733
583.531	13473
583.549	13382
583.603	13439
583.605	13435
583.660	12540
583.676	12621
583.715	12777
583.748	12667
583.770	12641
583.820	12793
583.825	12811
583.881	13865
583.893	13618
583.936	12624
583.965	13077
583.991	13423
584.038	13564
584.046	13620
584.101	12727
584.110	12865
584.156	13387
584.183	13218
584.211	13052
584.255	13129
584.266	13145
584.321	13883
584.328	13887
584.376	13803
584.400	13732
584.431	13770
584.472	13658
584.486	13552
584.541	14407
584.545	14450
584.596	14855
584.617	14677
584.651	14655
584.689	15433
584.706	15733
584.761	15061
584.762	15076
584.816	15381
584.834	15303
584.871	15310
584.906	15843
584.926	16094
584.978	16167
584.980	16153
585.035	15935
585.051	16170
585.090	17034
585.123	17327
585.145	17393
585.195	17823
585.200	17873
585.254	19534
585.267	19834
585.309	21217
585.340	22711
585.364	23357
585.412	22978
585.419	22860
585.473	22409
585.484	22655
585.528	24573
585.556	26581
585.583	29350
585.628	36536
585.637	38944
585.692	63201
585.700	69844
585.747	105275
585.772	100562
585.801	82001
585.845	44584
585.856	37465
585.910	26500
585.917	25712
585.965	23314
585.989	23193
586.019	23041
586.061	22393
586.074	22263
586.128	22644
586.133	22748
586.183	23765
586.205	23839
586.237	23772
586.277	23853
586.292	23746
586.346	23676
586.349	23709
586.401	24014
586.421	24478
586.455	24937
586.493	25545
586.509	26243
586.564	28173
586.565	28324
586.618	34518
586.637	36007
586.672	35504
586.709	31067
586.727	29176
586.781	29169
586.781	29126
586.835	29868
586.853	30018
586.889	29998
586.925	29849
586.944	29932
586.996	31597
586.998	31587
587.052	32988
587.068	33580
587.106	34448
587.140	34770
587.161	34936
587.212	36359
587.215	36376
587.269	38046
587.284	38702
587.323	40007
587.356	41040
587.377	41655
587.427	44247
587.431	44333
587.485	46773
587.499	47230
587.539	48287
587.571	50282
587.593	51683
587.643	55155
587.648	55328
587.702	58051
587.715	59039
587.755	61895
587.786	64582
587.810	66374
587.858	70776
587.864	71188
587.917	77632
587.930	79319
587.971	84691
588.001	88826
588.025	91924
588.073	100936
588.079	101944
588.133	113346
588.145	116184
588.187	125301
588.217	133326
588.241	140623
588.288	156732
588.295	158722
588.348	180603
588.360	185909
588.402	206135
588.431	222494
588.456	237368
588.503	269868
588.510	274680
588.564	320064
588.575	331238
588.617	378211
588.646	412760
588.671	451432
588.718	529289
588.725	545823
588.778	681038
588.789	705715
588.832	857926
588.861	950996
588.886	1012022
588.932	1107973
588.939	1102812
588.993	1046931
589.004	1044589
589.047	1066398
589.075	1078543
589.100	998126
589.147	823813
589.154	806978
589.207	655700
589.218	624094
589.261	572490
589.290	542303
589.314	543702
589.361	558949
589.368	569782
589.421	675228
589.433	697074
589.475	860924
589.504	963715
589.528	1009467
589.576	1079355
589.582	1070892
589.635	1017290
589.647	1005473
589.689	822284
589.718	672170
589.742	591225
589.790	418068
589.795	406889
589.849	313780
589.861	293683
589.902	250192
589.932	222007
589.955	203916
590.004	170572
590.009	167424
590.062	143857
590.075	139069
590.115	124199
590.146	114541
590.168	108517
590.218	97934
590.222	96742
590.275	87811
590.289	86014
590.328	79936
590.360	75927
590.381	72797
590.431	66842
590.435	66168
590.488	60536
590.503	59462
590.541	56687
590.574	54454
590.594	52551
590.645	49366
590.647	49012
590.700	45644
590.716	45069
590.753	42959
590.787	41347
590.806	40419
590.859	38800
590.859	38574
590.912	36560
590.930	36021
590.965	34920
591.001	34431
591.018	33581
591.071	31557
591.072	31698
591.124	30108
591.143	29781
591.177	29290
591.214	29249
591.230	28900
591.283	28079
591.285	28181
591.336	27571
591.356	27534
591.389	27078
591.427	26797
591.442	25924
591.495	22968
591.498	22879
591.547	22818
591.569	23031
591.600	22452
591.640	21888
591.653	21649
591.706	21057
591.711	21105
591.759	20721
591.782	20681
591.811	20622
591.853	20839
591.864	20469
591.917	18953
591.924	18842
591.969	18604
591.995	18631
592.022	18304
592.066	17959
592.075	17845
592.127	17846
592.137	17926
592.180	18507
592.208	19080
592.233	18400
592.279	17229
592.285	17055
592.338	16418
592.350	16370
592.390	15801
592.421	15499
592.443	15419
592.491	15561
592.495	15454
592.548	15154
592.562	15156
592.600	14510
592.633	14109
592.653	14002
592.704	13861
592.705	13945
592.775	14291
592.846	14104
592.916	13964
592.987	14708
593.058	14712
593.128	13772
593.199	12299
593.270	13177
593.341	12552
593.411	12296
593.482	12316
593.553	12693
593.623	12109
593.694	12344
593.764	12713
593.835	12227
593.906	10207
593.976	11398
594.047	11549
594.117	13105
594.188	13350
594.258	11602
594.329	11027
594.399	11201
594.470	10890
594.540	11000
594.611	11508
594.681	11721
594.751	11595
594.822	11602
594.892	12814
594.963	11782
595.033	11999
595.103	11932
595.174	11547
595.244	14345
595.314	18450
595.384	12593
595.455	11151
595.525	11942
595.595	10718
595.665	12297
595.736	11684
595.806	11330
595.876	10724
595.946	11126
596.016	11138
596.087	11274
596.157	11395
596.227	11270
596.297	11109
596.367	11835
596.437	12229
596.507	13702
596.577	16921
596.647	13757
596.717	12145
596.787	12013
596.857	12952
596.927	12391
596.997	12138
597.067	13271
597.137	13539
597.207	14019
597.277	11922
597.347	12119
597.417	12493
597.487	12477
597.557	12938
597.626	12691
597.696	13143
597.766	14365
597.836	16487
597.906	13801
597.975	11143
598.045	11188
598.115	12094
598.185	12093
598.254	12685
598.324	14463
598.394	14033
598.464	14485
598.533	14413
598.603	12540
598.672	13454
598.742	12888
598.812	12581
598.881	13045
598.951	12742
599.020	12358
599.090	12655
599.159	13559
599.229	13836
599.299	12548
599.368	13148
599.437	13241
599.507	12334
599.576	12928
599.646	13577
599.715	14011
599.785	12489
599.854	12254
599.924	13166
599.993	12339
600.062	12346
600.132	13312
600.201	12719
600.270	14338
600.340	15051
600.409	13500
600.478	13954
600.547	13960
600.617	14530
600.686	12954
600.755	12706
600.824	12766
600.894	11989
600.963	12376
601.032	12770
601.101	12097
601.170	10840
601.239	11414
601.308	12811
601.378	12672
601.447	12187
601.516	12131
601.585	13268
601.654	13091
601.723	13116
601.792	12423
601.861	13861
601.930	15652
601.999	16212
602.068	14640
602.137	14650
602.206	13579
602.275	14338
602.343	15353
602.412	16225
602.481	13771
602.550	13804
602.619	14235
602.688	14478
602.756	13965
602.825	14884
602.894	14215
602.963	14043
603.032	14829
603.100	14106
603.169	13579
603.238	14497
603.307	14384
603.375	14154
603.444	14801
603.513	14605
603.581	13520
603.650	14964
603.719	13334
603.787	13292
603.856	13612
603.924	13156
603.993	14392
604.061	13501
604.130	14831
604.198	15109
604.267	15050
604.335	14893
604.404	14240
604.472	14490
604.541	15632
604.609	15477
604.678	15153
604.746	15248
604.815	16581
604.883	15949
604.951	15873
605.020	16771
605.088	16089
605.156	14975
605.225	15120
605.293	15006
605.361	14833
605.429	16020
605.498	15685
605.566	15875
605.634	16472
605.702	16833
605.771	15572
605.839	16238
605.907	16130
605.975	16286
606.043	16420
606.111	15555
606.180	16874
606.248	17338
606.316	17753
606.384	16410
606.452	16334
606.520	16834
606.588	16093
606.656	13352
606.724	13558
606.792	12881
606.860	12279
606.928	10654
606.996	11036
607.064	10968
607.132	11087
607.200	10280
607.267	11858
607.335	11388
607.403	11690
607.471	11080
607.539	11513
607.607	11587
607.674	10435
607.742	10850
607.810	11391
607.878	11096
607.946	10565
608.013	10383
608.081	11326
608.149	11592
608.216	11777
608.284	12140
608.352	11850
608.419	11594
608.487	13326
608.555	12627
608.622	10644
608.690	11562
608.757	12493
608.825	12967
608.893	13253
608.960	13574
609.028	13904
609.095	14275
609.163	12826
609.230	11461
609.298	10615
609.365	9925
609.432	11486
609.500	11620
609.567	13325
609.635	14601
609.702	15627
609.769	15990
609.837	14655
609.904	13251
609.971	15233
610.039	18661
610.106	26283
610.173	47612
610.241	112537
610.308	148351
610.375	104062
610.442	29509
610.509	17032
610.577	14078
610.644	13179
610.711	12409
610.778	12215
610.845	12683
610.912	13846
610.980	14737
611.047	17695
611.114	16305
611.181	12672
611.248	12257
611.315	14157
611.382	12422
611.449	13426
611.516	14524
611.583	13249
611.650	14533
611.717	14717
611.784	14934
611.851	16797
611.918	19174
611.984	23574
612.051	34056
612.118	68403
612.185	179337
612.252	167982
612.319	32620
612.386	20578
612.452	17768
612.519	16329
612.586	16465
612.653	17994
612.719	15342
612.786	15063
612.853	13778
612.919	13000
612.986	14433
613.053	13072
613.120	12213
613.186	11888
613.253	13307
613.319	11735
613.386	11973
613.453	14073
613.519	13703
613.586	15034
613.652	20377
613.719	17915
613.785	16585
613.852	13612
613.918	12768
613.985	15432
614.051	20075
614.118	37589
614.184	46629
614.250	16839
614.317	12510
614.383	13213
614.449	12560
614.516	12309
614.582	13035
614.648	12658
614.715	13161
614.781	11923
614.847	11829
614.914	14357
614.980	12898
615.046	12488
615.112	13208
615.179	13421
615.245	14761
615.311	18132
615.377	26313
615.443	33904
615.509	21075
615.575	16832
615.642	15761
615.708	16859
615.774	18287
615.840	21409
615.906	26941
615.972	42040
616.038	73442
616.104	128795
616.170	243330
616.236	293093
616.302	61789
616.368	30073
616.434	23027
616.500	19818
616.565	19959
616.631	24784
616.697	22503
616.763	20135
616.829	27772
616.895	49442
616.961	57815
617.026	27824
617.092	16135
617.158	14351
617.224	12977
617.289	12923
617.355	11626
617.421	12214
617.487	13011
617.552	11763
617.618	10270
617.684	10270
617.749	12724
617.815	10276
617.880	10642
617.946	10562
618.012	11248
618.077	10660
618.143	10649
618.208	11369
618.274	11548
618.339	11652
618.405	10504
618.470	10725
618.536	10659
618.601	10277
618.667	10463
618.732	9969
618.798	9775
618.863	9542
618.928	9328
618.994	10738
619.059	10176
619.124	13580
619.190	11855
619.255	10211
619.320	9462
619.386	8865
619.451	8804
619.516	9625
619.581	9413
619.647	9122
619.712	9220
619.777	8406
619.842	9201
619.907	9008
619.972	10095
620.038	9626
620.103	8984
620.168	8439
620.233	9458
620.298	8658
620.363	8443
620.428	8604
620.493	8926
620.558	9329
620.623	9207
620.688	8942
620.753	10148
620.818	8631
620.883	9545
620.948	9550
621.013	9214
621.078	9367
621.143	8033
621.207	11210
621.272	10409
621.337	10553
621.402	9899
621.467	11590
621.532	12132
621.596	10417
621.661	10154
621.726	9719
621.791	9244
621.855	10607
621.920	10966
621.985	9751
622.049	11843
622.114	10871
622.179	10245
622.243	10395
622.308	9999
622.373	11481
622.437	11305
622.502	9313
622.566	11285
622.631	9291
622.695	10812
622.760	10549
622.824	10641
622.889	10796
622.953	11703
623.018	14453
623.082	16826
623.147	11582
623.211	10439
623.276	10410
623.340	9421
623.404	9388
623.469	9978
623.533	9594
623.597	9884
623.662	9843
623.726	8800
623.790	8811
623.854	8390
623.919	8491
623.983	7416
624.047	8427
624.111	9289
624.176	9411
624.240	9002
624.304	11171
624.368	8964
624.432	9329
624.496	9976
624.560	10916
624.625	11632
624.689	9389
624.753	9823
624.817	9218
624.881	8586
624.945	9192
625.009	8510
625.073	9236
625.137	8812
625.201	11346
625.265	13009
625.329	9090
625.393	9645
625.456	9842
625.520	9990
625.584	10208
625.648	11789
625.712	14439
625.776	23941
625.839	32044
625.903	17249
625.967	9345
626.031	12147
626.095	18736
626.158	11055
626.222	7173
626.286	7259
626.349	6804
626.413	6020
626.477	7297
626.540	6744
626.604	6727
626.668	6407
626.731	5709
626.795	5711
626.858	6658
626.922	5948
626.986	6394
627.049	5027
627.113	5982
627.176	6151
627.240	6016
627.303	5206
627.366	4857
627.430	6501
627.493	6068
627.557	5890
627.620	6513
627.684	6475
627.747	5484
627.810	4649
627.874	5205
627.937	4174
628.000	6302
628.064	5406
628.127	4072
628.190	5914
628.253	5724
628.317	4485
628.380	4792
628.443	3951
628.506	4667
628.569	4523
628.632	3944
628.696	4742
628.759	4459
628.822	4337
628.885	4107
628.948	4107
629.011	4353
629.074	3531
629.137	3249
629.200	4080
629.263	5027
629.326	3310
629.389	3566
629.452	3523
629.515	4145
629.578	3990
629.641	4235
629.704	4359
629.767	4233
629.830	4667
629.892	4247
629.955	3259
630.018	4978
630.081	4311
630.144	6943
630.207	4809
630.269	5708
630.332	3912
630.395	3489
630.458	3766
630.520	2767
630.583	4223
630.646	3409
630.708	3279
630.771	2791
630.834	3624
630.896	3792
630.959	3272
631.021	3041
631.084	3490
631.146	3730
631.209	4392
631.272	3667
631.334	3814
631.397	3856
631.459	3354
631.522	4117
631.584	3927
631.646	4160
631.709	4245
631.771	5325
631.834	5478
631.896	4192
631.958	2572
632.021	3940
632.083	2516
632.145	3869
632.208	3221
632.270	4476
632.332	2915
632.395	2812
632.457	3866
632.519	2581
632.581	3399
632.643	2790
632.706	4042
632.768	2417
632.830	3409
632.892	3246
632.954	2313
633.016	3849
633.078	2708
633.141	3149
633.203	2798
633.265	3910
633.327	2317
633.389	2923
633.451	3684
633.513	4326
633.575	4017
633.637	3797
633.698	4622
633.760	3312
633.822	3192
633.884	3409
633.946	3495
634.008	3455
634.070	3521
634.132	5467
634.193	4391
634.255	3785
634.317	4556
634.379	4897
634.441	3906
634.502	3701
634.564	3823
634.626	5333
634.687	6198
634.749	4222
634.811	3438
634.873	2986
634.934	3826
634.996	3200
635.057	2780
635.119	2678
635.181	2361
635.242	4254
635.304	2369
635.365	3982
635.427	2930
635.488	4055
635.550	2602
635.611	3293
635.673	1655
635.734	4141
635.796	3083
635.857	4352
635.918	3276
635.980	3770
636.041	4359
636.102	4310
636.164	4321
636.225	4737
636.286	3336
636.348	4061
636.409	2682
636.470	3075
636.531	3293
636.593	3051
636.654	3731
636.715	2412
636.776	3138
636.838	2033
636.899	3066
636.960	2232
637.021	2204
637.082	3220
637.143	3648
637.204	2032
637.265	1717
637.326	3488
637.387	2569
637.448	2433
637.509	2211
637.570	3087
637.631	2484
637.692	1831
637.753	1741
637.814	2654
637.875	2164
637.936	2946
637.997	2180
638.058	2766
638.119	3185
638.179	2051
638.240	2034
638.301	1943
638.362	1377
638.423	1403
638.483	1834
638.544	1383
638.605	2219
638.666	1305
638.726	2411
638.787	2447
638.848	2015
638.908	1835
638.969	2149
639.030	2041
639.090	1760
639.151	2325
639.211	2421
639.272	3614
639.332	5446
639.393	4767
639.453	1471
639.514	2984
639.574	2322
639.635	2047
639.695	1620
639.756	1502
639.816	3323
639.877	2371
639.937	5416
639.997	8846
640.058	2872
640.118	1339
640.178	2022
640.239	1825
640.299	1906
640.359	1409
640.420	2233
640.480	3037
640.540	2322
640.600	1947
640.661	2125
640.721	2029
640.781	4503
640.841	2351
640.901	3267
640.961	2719
641.021	2460
641.082	2243
641.142	4788
641.202	4394
641.262	880
641.322	2336
641.382	1415
641.442	2120
641.502	1410
641.562	2264
641.622	1967
641.682	2200
641.742	2194
641.802	1550
641.861	2597
641.921	1977
641.981	3466
642.041	2738
642.101	3660
642.161	2261
642.221	1302
642.280	1611
642.340	1487
642.400	1431
642.460	2705
642.519	2621
642.579	1735
642.639	1715
642.698	-375
642.758	3757
642.818	1240
642.877	1586
642.937	1667
642.997	2139
643.056	4372
643.116	2056
643.175	3087
643.235	1798
643.294	2002
643.354	2114
643.414	2703
643.473	4038
643.532	4310
643.592	6298
643.651	10444
643.711	17968
643.770	31004
643.830	66987
643.889	187902
643.948	87317
644.008	8992
644.067	4275
644.126	3457
644.186	2720
644.245	3276
644.304	552
644.363	3308
644.423	1302
644.482	1656
644.541	2203
644.600	1056
644.659	2960
644.719	2849
644.778	4397
644.837	6196
644.896	12064
644.955	32484
645.014	20803
645.073	4764
645.132	2596
645.191	2176
645.250	1174
645.309	2075
645.368	1986
645.427	2902
645.486	2203
645.545	7635
645.604	2868
645.663	2718
645.722	2429
645.781	2162
645.840	4190
645.898	3444
645.957	6403
646.016	7660
646.075	15448
646.134	26592
646.192	61122
646.251	141381
646.310	38196
646.369	5566
646.427	3689
646.486	1963
646.545	2133
646.603	2145
646.662	2231
646.721	1170
646.779	1391
646.838	467
646.896	2431
646.955	2913
647.014	3783
647.072	6004
647.131	17493
647.189	16253
647.248	1524
647.306	1806
647.365	1755
647.423	77
647.481	2653
647.540	-893
647.598	1741
647.657	866
647.715	2445
647.773	41
647.832	1080
647.890	-330
647.948	1095
648.007	1761
648.065	837
648.123	744
648.181	3260
648.240	1982
648.298	2689
648.356	765
648.414	1795
648.472	1918
648.531	1583
648.589	681
648.647	1415
648.705	929
648.763	1342
648.821	534
648.879	1607
648.937	1591
648.995	2009
649.053	2656
649.111	4149
649.169	6847
649.227	11175
649.285	19745
649.343	56200
649.401	53653
649.459	13324
649.516	11259
649.574	5758
649.632	11651
649.690	20458
649.748	8007
649.806	4519
649.863	10222
649.921	13488
649.979	14352
650.037	3076
650.094	-67
650.152	655
650.210	689
650.268	1290
650.325	1279
650.383	1331
650.440	-594
650.498	1376
650.556	1670
650.613	98
650.671	924
650.728	866
650.786	1069
650.843	646
650.901	-93
650.958	962
651.016	399
651.073	647
651.131	786
651.188	-460
651.246	625
651.303	-241
651.360	951
651.418	218
651.475	671
651.532	-548
651.590	1142
651.647	-349
651.704	464
651.762	260
651.819	1143
651.876	-105
651.933	842
651.990	1053
652.048	-351
652.105	335
652.162	1125
652.219	450
652.276	445
652.333	1147
652.390	-406
652.448	688
652.505	-172
652.562	990
652.619	979
652.676	1914
652.733	3168
652.790	684
652.847	-482
652.904	651
652.961	-428
653.017	-257
653.074	1352
653.131	284
653.188	-486
653.245	269
653.302	458
653.359	148
653.415	94
653.472	50
653.529	982
653.586	-311
653.642	354
653.699	1024
653.756	-237
653.813	-167
653.869	1413
653.926	-243
653.983	-558
654.039	508
654.096	316
654.152	1170
654.209	-788
654.266	702
654.322	-1185
654.379	1361
654.435	619
654.492	418
654.548	1156
654.605	1677
654.661	2351
654.717	867
654.774	534
654.830	426
654.887	316
654.943	395
655.000	1258
655.056	1068
655.112	111
655.168	-729
655.225	493
655.281	770
655.337	105
655.394	1029
655.450	2372
655.506	257
655.562	1827
655.618	3646
655.675	357
655.731	928
655.787	759
655.843	2265
655.899	727
655.955	2144
656.011	1931
656.067	1378
656.123	3209
656.179	2888
656.235	4338
656.291	2769
656.347	3524
656.403	2300
656.459	1523
656.515	2284
656.571	1654
656.627	1351
656.683	752
656.739	1725
656.795	654
656.850	793
656.906	1504
656.962	1574
657.018	65
657.074	33
657.129	679
657.185	956
657.241	1028
657.297	1508
657.352	1283
657.408	-794
657.464	1686
657.519	435
657.575	-360
657.630	-149
657.686	262
657.742	-113
657.797	388
657.853	-201
657.908	2016
657.964	-470
658.019	267
658.075	602
658.130	957
658.186	-173
658.241	146
658.297	4
658.352	5
658.407	322
658.463	-705
658.518	62
658.573	759
658.629	-747
658.684	632
658.739	341
658.795	-1144
658.850	-114
658.905	-491
658.960	474
659.016	-455
659.071	-278
659.126	239
659.181	247
659.236	1928
659.291	2583
659.346	1007
659.401	79
659.457	1546
659.512	1192
659.567	1816
659.622	37
659.677	195
659.732	-260
659.787	891
659.842	-139
659.897	1178
659.952	937
660.007	-341
660.061	-53
660.116	-378
660.171	-149
660.226	-533
660.281	736
660.336	-289
660.391	1209
660.445	-538
660.500	-199
660.555	366
660.610	-516
660.664	703
660.719	-682
660.774	-357
660.828	1124
660.883	487
660.938	111
660.992	-1082
661.047	371
661.101	-382
661.156	-213
661.211	-758
661.265	-272
661.320	-517
661.374	75
661.429	240
661.483	-375
661.538	-788
661.592	-127
661.647	156
661.701	675
661.755	765
661.810	833
661.864	-830
661.919	-195
661.973	-167
662.027	274
662.081	-587
662.136	155
662.190	-6
662.244	29
662.299	-429
662.353	612
662.407	-401
662.461	-811
662.515	796
662.569	-592
662.624	452
662.678	-187
662.732	-29
662.786	-396
662.840	261
662.894	-366
662.948	-414
663.002	274
663.056	215
663.110	-469
663.164	164
663.218	-31
663.272	340
663.326	713
663.380	-168
663.434	627
663.488	-368
663.542	427
663.595	194
663.649	-479
663.703	528
663.757	224
663.811	-537
663.864	-318
663.918	973
663.972	-979
664.026	-226
664.079	-62
664.133	74
664.187	118
664.240	487
664.294	92
664.348	-216
664.401	-157
664.455	917
664.508	-118
664.562	-193
664.615	-70
664.669	-455
664.722	796
664.776	-319
664.829	-428
664.883	23
664.936	-383
664.990	-600
665.043	727
665.097	-659
665.150	1679
665.203	-122
665.257	760
665.310	19
665.363	-29
665.417	-499
665.470	145
665.523	-472
665.576	573
665.630	-221
665.683	945
665.736	-218
665.789	1040
665.842	-585
665.895	136
665.949	559
666.002	-84
666.055	513
666.108	115
666.161	90
666.214	139
666.267	-208
666.320	230
666.373	727
666.426	-142
666.479	-334
666.532	-188
666.585	-27
666.638	425
666.691	-265
666.744	175
666.796	-20
666.849	-380
666.902	645
666.955	548
667.008	-28
667.060	-573
667.113	-349
667.166	-192
667.219	-219
667.271	-183
667.324	-66
667.377	-541
667.430	511
667.482	-183
667.535	612
667.587	639
667.640	24
667.693	600
667.745	1117
667.798	2872
667.850	925
667.903	459
667.955	-15
668.008	152
668.060	96
668.113	241
668.165	302
668.218	377
668.270	-231
668.322	-225
668.375	288
668.427	277
668.479	-610
668.532	99
668.584	-822
668.636	424
668.689	127
668.741	-459
668.793	-475
668.845	211
668.898	710
668.950	361
669.002	309
669.054	-255
669.106	-281
669.158	106
669.211	143
669.263	353
669.315	1264
669.367	1570
669.419	300
669.471	1764
669.523	1137
669.575	2549
669.627	2197
669.679	568
669.731	383
669.783	675
669.835	1312
669.886	1156
669.938	1545
669.990	815
670.042	625
670.094	2231
670.146	2376
670.197	2798
670.249	3384
670.301	5280
670.353	8002
670.404	12145
670.456	18602
670.508	27932
670.560	43301
670.611	66891
670.663	109661
670.715	217254
670.766	416177
670.818	265662
670.869	64514
670.921	21489
670.972	12472
671.024	7772
671.075	5192
671.127	4668
671.178	3673
671.230	1949
671.281	2261
671.333	2028
671.384	975
671.436	1877
671.487	2068
671.538	2454
671.590	2672
671.641	3125
671.692	4898
671.744	8840
671.795	9583
671.846	4606
671.897	1204
671.949	936
672.000	644
672.051	259
672.102	1708
672.153	263
672.204	469
672.256	653
672.307	673
672.358	762
672.409	283
672.460	582
672.511	438
672.562	-61
672.613	-590
672.664	218
672.715	-35
672.766	58
672.817	502
672.868	85
672.919	376
672.970	-41
673.021	12
673.071	-782
673.122	-294
673.173	98
673.224	352
673.275	556
673.326	-406
673.376	298
673.427	-1064
673.478	-250
673.528	-254
673.579	50
673.630	580
673.680	261
673.731	-394
673.782	69
673.832	-298
673.883	-611
673.934	-260
673.984	-707
674.035	-472
674.085	-740
674.136	-157
674.186	397
674.237	729
674.287	143
674.338	678
674.388	-675
674.438	-658
674.489	473
674.539	286
674.589	-161
674.640	372
674.690	-661
674.740	-1098
674.791	-390
674.841	-170
674.891	-42
674.942	41
674.992	-330
675.042	-779
675.092	-498
675.142	-485
675.193	-45
675.243	-454
675.293	-316
675.343	-415
675.393	-89
675.443	591
675.493	-9
675.543	29
675.593	-1020
675.643	-101
675.693	-88
675.743	-635
675.793	-1036
675.843	-15
675.893	-673
675.943	141
675.993	-747
676.043	67
676.093	1099
676.142	-551
676.192	-472
676.242	-1385
676.292	-495
676.341	-436
676.391	-478
676.441	-730
676.491	-30
676.540	-85
676.590	-837
676.640	-200
676.689	102
676.739	-1050
676.789	-186
676.838	-1231
676.888	-294
676.937	-415
676.987	-567
677.037	-1149
677.086	-885
677.136	-664
677.185	-443
677.235	166
677.284	-344
677.333	-930
677.383	-1151
677.432	-580
677.482	-948
677.531	-133
677.580	-277
677.630	-665
677.679	-556
677.728	-170
677.778	726
677.827	-527
677.876	-1003
677.925	-773
677.975	393
678.024	-117
678.073	-755
678.122	119
678.171	-761
678.220	-243
678.269	-195
678.319	-653
678.368	-333
678.417	-907
678.466	-16
678.515	-600
678.564	-303
678.613	-474
678.662	-328
678.711	-1083
678.760	-464
678.809	-1469
678.857	-134
678.906	-941
678.955	-592
679.004	-411
679.053	473
679.102	-790
679.151	-199
679.199	-538
679.248	-177
679.297	-942
679.346	-1027
679.394	-1128
679.443	-415
679.492	-326
679.540	128
679.589	-475
679.638	-245
679.686	-914
679.735	-979
679.784	-970
679.832	-269
679.881	-779
679.929	-1004
679.978	-783
680.026	-1780
680.075	-725
680.123	-1055
680.172	-242
680.220	-503
680.268	-1405
680.317	-1060
680.365	-1501
680.414	-1030
680.462	-1171
680.510	-304
680.559	-505
680.607	-1467
680.655	-908
680.703	-1504
680.752	-962
680.800	-919
680.848	-277
680.896	-1258
680.945	-186
680.993	-439
681.041	-734
681.089	-356
681.137	-1207
681.185	-845
681.233	-484
681.258	-679
681.281	-869
681.329	-698
681.377	-1375
681.380	-1310
681.425	-244
681.473	-214
681.502	-280
681.521	-338
681.569	-324
681.617	-803
681.624	-765
681.665	-541
681.713	-901
681.745	-1147
681.761	-1274
681.809	-861
681.857	324
681.867	159
681.904	-442
681.952	-102
681.989	-437
682.000	-540
682.048	-1333
682.096	-1069
682.111	-1058
682.143	-1072
682.191	-702
682.233	-368
682.239	-319
682.286	-989
682.334	-616
682.354	-788
682.382	-1042
682.430	-803
682.476	-175
682.477	-167
682.525	-1014
682.572	-178
682.598	-579
682.620	-929
682.667	-631
682.715	-344
682.720	-327
682.763	-233
682.810	-35
682.841	-322
682.857	-480
682.905	-1240
682.952	-370
682.963	-357
683.000	-284
683.047	-843
683.085	35
683.095	261
683.142	69
683.190	-444
683.206	-472
683.237	-551
683.284	67
683.328	-500
683.332	-550
683.379	47
683.426	-83
683.449	-314
683.473	-524
683.521	-101
683.568	-378
683.571	-409
683.615	-988
683.662	538
683.693	169
683.709	-26
683.757	30
683.804	-379
683.814	-409
683.851	-545
683.898	119
683.936	-496
683.945	-645
683.992	-379
684.039	176
684.057	10
684.086	-254
684.133	131
684.179	88
684.180	82
684.227	-188
684.274	93
684.300	37
684.321	21
684.368	-802
684.415	-85
684.422	-80
684.462	-171
684.509	-275
684.543	-575
684.556	-676
684.603	540
684.649	10
684.665	-229
684.696	-698
684.743	-58
684.786	28
684.790	29
684.837	-213
684.883	235
684.908	320
684.930	391
684.977	430
685.023	-97
685.029	-86
685.070	-74
685.117	-556
685.150	-426
685.164	-330
685.210	752
685.257	302
685.272	353
685.303	341
685.350	170
685.393	19
685.396	16
685.443	436
685.490	821
685.514	635
685.536	403
685.583	244
685.629	485
685.636	439
685.675	102
685.722	-348
685.757	64
685.768	230
685.815	144
685.861	-105
685.878	-196
685.908	-385
685.954	208
686.000	235
686.000	234
686.047	794
686.093	196
686.121	212
686.139	269
686.185	106
686.232	-221
686.242	33
686.278	787
686.324	142
686.363	134
686.370	134
686.416	44
686.463	344
686.484	674
686.509	1060
686.555	579
686.601	284
686.606	310
686.647	499
686.693	500
686.727	420
686.739	394
686.785	698
686.831	-4
686.848	252
686.877	698
686.923	560
686.969	197
686.969	194
687.015	603
687.061	119
687.090	197
687.107	256
687.153	257
687.199	-124
687.211	-147
687.245	-142
687.291	679
687.332	605
687.336	591
687.382	471
687.428	757
687.453	615
687.474	518
687.520	434
687.565	911
687.574	866
687.611	550
687.657	710
687.695	152
687.702	104
687.748	794
687.794	1527
687.816	1487
687.839	1226
687.885	697
687.931	545
687.937	468
687.976	237
688.022	50
688.058	271
688.067	334
688.113	411
688.158	304
688.179	470
688.204	645
688.249	428
688.295	374
688.300	387
688.340	519
688.386	1198
688.421	836
688.431	741
688.477	420
688.522	714
688.542	1006
688.567	1397
688.613	1147
688.658	869
688.663	988
688.703	1710
688.749	794
688.784	1043
688.794	1136
688.839	598
688.884	1093
688.905	803
688.930	512
688.975	747
689.020	763
689.026	766
689.065	724
689.110	419
689.146	386
689.155	412
689.201	713
689.246	802
689.267	792
689.291	703
689.336	651
689.381	682
689.388	664
689.426	641
689.471	499
689.509	1044
689.516	1166
689.561	700
689.606	1290
689.630	1442
689.651	1422
689.696	463
689.741	407
689.750	459
689.785	1118
689.830	604
689.871	1617
689.875	1658
689.920	1445
689.965	1211
689.992	791
690.010	711
690.054	1158
690.099	1204
690.112	1261
690.144	1246
690.189	1140
690.233	664
690.233	666
690.278	960
690.323	1271
690.354	1284
690.367	1267
690.412	1143
690.457	1402
690.474	1409
690.501	1377
690.546	1361
690.590	1085
690.595	1076
690.635	1244
690.680	1267
690.716	1592
690.724	1674
690.769	1559
690.813	2329
690.836	2361
690.857	2584
690.902	2884
690.946	3799
690.957	3946
690.991	5599
691.035	8382
691.077	11359
691.080	11420
691.124	11305
691.168	9968
691.198	9549
691.213	8705
691.257	6363
691.301	3920
691.318	3055
691.346	2702
691.390	2199
691.434	1244
691.439	1208
691.478	1380
691.522	1615
691.559	1234
691.567	1215
691.611	1727
691.655	1706
691.680	1930
691.699	1939
691.743	1588
691.787	1619
691.800	1514
691.831	1341
691.875	1103
691.919	1339
691.921	1335
691.964	1536
692.008	1718
692.041	1532
692.052	1463
692.096	1517
692.139	1610
692.162	1693
692.183	1786
692.227	1723
692.271	1784
692.282	1775
692.315	1703
692.359	1479
692.402	1399
692.403	1405
692.447	1379
692.490	1334
692.523	1468
692.534	1541
692.578	1455
692.622	1458
692.643	1323
692.666	1231
692.709	1405
692.753	1473
692.763	1551
692.797	1790
692.840	1919
692.884	1826
692.884	1831
692.928	1519
692.971	1676
693.004	1587
693.015	1605
693.059	1435
693.102	1848
693.124	1703
693.146	1602
693.189	1741
693.233	1781
693.245	1848
693.276	2023
693.320	2340
693.363	2047
693.365	2037
693.407	2175
693.450	2715
693.485	2911
693.493	3036
693.537	3612
693.580	4477
693.605	4767
693.624	5255
693.667	6359
693.710	7917
693.725	8493
693.753	12048
693.797	17515
693.840	23694
693.845	24317
693.883	24108
693.926	22288
693.966	21251
693.970	20725
694.013	15035
694.056	9457
694.086	5606
694.099	5318
694.142	4444
694.185	3858
694.206	3321
694.229	3023
694.272	2926
694.315	2568
694.326	2503
694.358	2665
694.401	3089
694.444	3110
694.446	3099
694.487	2658
694.530	2452
694.566	2229
694.573	2212
694.616	1824
694.659	1820
694.686	1664
694.702	1668
694.745	1843
694.787	1681
694.806	1733
694.830	1737
694.873	1710
694.916	1640
694.926	1625
694.959	1680
695.002	1595
695.044	1525
695.046	1521
695.087	1867
695.130	1883
695.166	2268
695.172	2314
695.215	2311
695.258	2536
695.286	2481
695.301	2353
695.343	2202
695.386	1825
695.406	1629
695.428	1615
695.471	1799
695.514	1816
695.526	1836
695.556	1859
695.599	1896
695.641	1864
695.646	1865
695.684	2052
695.726	2070
695.766	2154
695.769	2150
695.811	1910
695.854	1805
695.886	1699
695.896	1745
695.938	1737
695.981	1800
696.005	1874
696.023	1960
696.065	2100
696.108	2286
696.125	2325
696.150	2236
696.192	2233
696.235	2025
696.245	1997
696.277	2092
696.319	1942
696.361	2065
696.365	2070
696.404	2213
696.446	2193
696.485	2184
696.488	2195
696.530	2278
696.572	2308
696.604	2364
696.614	2350
696.656	2175
696.698	2023
696.724	1947
696.740	1946
696.783	1902
696.825	1867
696.844	1828
696.867	1935
696.909	2222
696.951	2344
696.964	2431
696.992	2492
697.034	2365
697.076	2345
697.083	2332
697.118	2344
697.160	2278
697.202	2310
697.203	2300
697.244	2283
697.286	2350
697.323	2264
697.327	2269
697.369	2268
697.411	2369
697.442	2384
697.453	2368
697.494	2242
697.536	2154
697.562	2064
697.578	2100
697.620	2227
697.661	2290
697.682	2347
697.703	2381
697.744	2313
697.786	2389
697.801	2373
697.828	2625
697.869	3029
697.911	3376
697.921	3470
697.952	3266
697.994	2938
698.035	2671
698.040	2612
698.077	2560
698.118	2576
698.160	2632
698.160	2622
698.201	2489
698.243	2383
698.279	2280
698.284	2287
698.325	2251
698.367	2228
698.399	2184
698.408	2208
698.449	2287
698.491	2364
698.518	2402
698.532	2440
698.573	2538
698.614	2604
698.638	2648
698.656	2695
698.697	2789
698.738	2857
698.757	2887
698.779	2810
698.820	2623
698.862	2455
698.877	2381
698.903	2510
698.944	2702
698.985	2894
698.996	2940
699.026	2752
699.067	2476
699.116	2143
699.235	2780
699.354	2853
699.474	2119
699.593	1901
699.713	3539
699.832	3154
699.951	3779
700.070	3792
700.190	2484
700.309	2267
700.428	2942
700.547	3464
700.667	2159
700.786	2974
700.905	2764
701.024	2997
701.143	3131
701.262	2283
701.381	2105
701.500	2302
701.619	3107
701.738	1751
701.857	2522
701.976	2216
702.095	2287
702.214	3330
702.333	2245
702.452	2400
702.571	3397
702.690	3108
702.809	2853
702.928	1863
703.047	2001
703.165	3155
703.284	2249
703.403	2035
703.522	3179
703.640	3073
703.759	2784
703.878	3636
703.997	1669
704.115	2278
704.234	3099
704.353	1537
704.471	2237
704.590	2302
704.708	2819
704.827	2439
704.946	2062
705.064	2124
705.183	1984
705.301	1836
705.420	3162
705.538	2925
705.656	2448
705.775	2595
705.893	5475
706.012	8831
706.130	2759
706.249	2355
706.367	2976
706.485	2602
706.604	2707
706.722	2945
706.840	2976
706.958	4299
707.077	3138
707.195	2266
707.313	1925
707.431	1941
707.549	2043
707.668	1512
707.786	3008
707.904	2061
708.022	1965
708.140	2148
708.258	2259
708.376	2642
708.494	2913
708.612	2262
708.730	2703
708.848	3485
708.966	2556
709.084	2750
709.202	3677
709.320	3104
709.438	2649
709.556	3377
709.674	2842
709.791	3127
709.909	2053
710.027	3382
710.145	2928
710.263	2348
710.380	3266
710.498	2847
710.616	3124
710.733	1949
710.851	3055
710.969	2972
711.086	2456
711.204	2418
711.322	2106
711.439	1733
711.557	2385
711.674	3394
711.792	1931
711.909	3189
712.027	3046
712.144	2461
712.262	2947
712.379	2151
712.497	3191
712.614	3277
712.732	3594
712.849	2378
712.966	3165
713.084	3672
713.201	3023
713.318	3546
713.436	2775
713.553	2929
713.670	3248
713.787	2808
713.905	3893
714.022	2946
714.139	3568
714.256	3919
714.373	3759
714.490	5663
714.608	14293
714.725	59543
714.842	87291
714.959	7150
715.076	3297
715.193	3351
715.310	3446
715.427	3578
715.544	2231
715.661	3063
715.778	3252
715.895	2092
716.011	3272
716.128	2611
716.245	2751
716.362	2850
716.479	3545
716.596	2065
716.713	2573
716.829	2283
716.946	2892
717.063	1816
717.180	1579
717.296	2397
717.413	2159
717.530	2260
717.646	2497
717.763	2865
717.880	1839
717.996	1742
718.113	2849
718.229	2278
718.346	3043
718.462	2584
718.579	3492
718.695	4514
718.812	4084
718.928	2881
719.045	2255
719.161	1881
719.277	2204
719.394	2705
719.510	2884
719.626	1932
719.743	2143
719.859	2914
719.975	5074
720.092	14984
720.208	42009
720.324	8675
720.440	3006
720.557	2886
720.673	4279
720.789	5446
720.905	8024
721.021	3650
721.137	2367
721.253	2602
721.369	2905
721.486	1372
721.602	2508
721.718	2122
721.834	2170
721.950	1481
722.066	1802
722.181	1751
722.297	2257
722.413	1745
722.529	2133
722.645	1444
722.761	1514
722.877	2232
722.993	1661
723.108	1320
723.224	1845
723.340	1325
723.456	2119
723.571	1738
723.687	1902
723.803	2165
723.918	1460
724.034	1552
724.150	1699
724.265	1472
724.381	3441
724.497	4316
724.612	2233
724.728	1582
724.843	1207
724.959	1102
725.074	3371
725.190	4632
725.305	2152
725.421	2154
725.536	780
725.651	1101
725.767	1522
725.882	923
725.997	1414
726.113	1212
726.228	1206
726.343	1245
726.459	933
726.574	1599
726.689	409
726.804	1509
726.920	1714
727.035	1136
727.150	1034
727.265	2128
727.380	1828
727.495	1322
727.610	1034
727.725	1024
727.841	2571
727.956	3870
728.071	3203
728.186	1254
728.301	1173
728.416	1772
728.531	1540
728.645	1049
728.760	1964
728.875	1576
728.990	1992
729.105	1276
729.220	1849
729.335	1257
729.449	824
729.564	906
729.679	1782
729.794	777
729.908	761
730.023	1327
730.138	1903
730.253	615
730.367	1522
730.482	1271
730.596	1354
730.711	1504
730.826	1626
730.940	1462
731.055	1481
731.169	1259
731.284	435
731.398	1021
731.513	1040
731.627	1021
731.742	970
731.856	1352
731.970	779
732.085	1594
732.199	1676
732.313	2272
732.428	5946
732.542	18284
732.656	14257
732.771	2057
732.885	1708
732.999	967
733.113	1572
733.227	1141
733.342	1958
733.456	945
733.570	1118
733.684	1078
733.798	1358
733.912	1021
734.026	1716
734.140	1233
734.254	1224
734.368	1539
734.482	2977
734.596	627
734.710	993
734.824	672
734.938	825
735.052	1385
735.166	966
735.280	1424
735.393	457
735.507	771
735.621	1702
735.735	2364
735.849	1696
735.962	-242
736.076	1766
736.190	1535
736.303	900
736.417	1824
736.531	1879
736.644	1088
736.758	894
736.872	1014
736.985	1127
737.099	1234
737.212	1293
737.326	1208
737.439	1561
737.553	95
737.666	803
737.780	440
737.893	-45
738.007	522
738.120	335
738.233	592
738.347	992
738.460	1063
738.573	1245
738.687	1118
738.800	1475
738.913	2187
739.026	1043
739.140	947
739.253	1407
739.366	1162
739.479	906
739.592	281
739.705	-126
739.818	1410
739.932	470
740.045	821
740.158	66
740.271	498
740.384	713
740.497	332
740.610	1512
740.723	1122
740.836	2417
740.949	1975
741.062	1436
741.174	1067
741.287	1335
741.400	571
741.513	530
741.626	1935
741.739	1243
741.851	670
741.964	730
742.077	1095
742.189	1547
742.302	2565
742.415	2070
742.527	1088
742.640	395
742.753	1163
742.865	819
742.978	465
743.090	815
743.203	560
743.316	772
743.428	828
743.541	507
743.653	-73
743.766	97
743.878	1422
743.990	1222
744.103	2379
744.215	2225
744.327	1383
744.440	1166
744.552	2093
744.664	1300
744.777	860
744.889	700
745.001	786
745.113	381
745.226	360
745.338	1342
745.450	-341
745.562	371
745.674	276
745.786	756
745.898	206
746.010	800
746.122	316
746.234	346
746.347	86
746.459	878
746.570	881
746.682	1754
746.794	4340
746.906	1932
747.018	495
747.130	1434
747.242	1005
747.354	266
747.466	1295
747.577	162
747.689	271
747.801	717
747.913	979
748.024	510
748.136	367
748.248	44
748.359	826
748.471	637
748.583	1141
748.694	1299
748.806	1089
748.918	407
749.029	612
749.141	175
749.252	1421
749.364	1094
749.475	2602
749.587	819
749.698	826
749.809	900
749.921	598
750.032	782
750.144	138
750.255	-7
750.366	566
750.478	778
750.589	-197
750.700	986
750.811	131
750.923	1927
751.034	3292
751.145	3250
751.256	-5
751.367	731
751.479	-10
751.590	-401
751.701	161
751.812	-191
751.923	520
752.034	151
752.145	519
752.256	249
752.367	666
752.478	257
752.589	515
752.700	-32
752.811	147
752.922	75
753.032	-193
753.143	683
753.254	460
753.365	453
753.476	779
753.586	362
753.697	559
753.808	616
753.919	209
754.029	551
754.140	581
754.251	580
754.361	542
754.472	493
754.582	13
754.693	1450
754.804	364
754.914	1039
755.025	15
755.135	949
755.246	869
755.356	445
755.466	546
755.577	599
755.687	526
755.798	67
755.908	423
756.018	-819
756.129	395
756.239	362
756.349	768
756.460	1529
756.570	138
756.680	562
756.790	-164
756.900	-127
757.011	972
757.121	267
757.231	268
757.341	401
757.451	228
757.561	338
757.671	569
757.781	393
757.891	624
758.001	261
758.111	570
758.221	496
758.331	395
758.441	1332
758.551	1239
758.661	1188
758.771	668
758.880	631
758.990	811
759.100	903
759.210	612
759.320	956
759.429	213
759.539	1122
759.649	82
759.758	1622
759.868	1256
759.978	929
760.087	1109
760.197	956
760.307	395
760.416	1173
760.526	818
760.635	1999
760.745	847
760.854	1231
760.964	1476
761.073	894
761.182	1069
761.292	1519
761.401	1560
761.511	628
761.620	1388
761.729	1088
761.839	1107
761.948	1989
762.057	1073
762.166	1468
762.276	693
762.385	2360
762.494	1340
762.603	2361
762.712	1837
762.822	1721
762.931	1565
763.040	2221
763.149	2311
763.258	2706
763.367	2114
763.476	1846
763.585	2413
763.694	2928
763.803	2195
763.912	3018
764.021	3140
764.130	3619
764.238	3846
764.347	3992
764.456	4214
764.565	4208
764.674	5115
764.783	5708
764.891	6637
765.000	7043
765.109	8566
765.217	9474
765.326	11959
765.435	13095
765.543	16281
765.652	19810
765.761	27134
765.869	40304
765.978	58710
766.086	91727
766.195	158318
766.303	291462
766.412	440733
766.520	423183
766.629	286757
766.737	145047
766.846	82692
766.954	54171
767.062	39960
767.171	29465
767.279	21606
767.387	17729
767.496	14451
767.604	13302
767.712	11441
767.820	9320
767.928	8658
768.037	8666
768.145	7730
768.253	7470
768.361	7155
768.469	6676
768.577	7679
768.685	7357
768.793	7715
768.901	8302
769.009	10332
769.117	11973
769.225	17442
769.333	23493
769.441	35818
769.549	62494
769.657	126810
769.765	270622
769.873	388663
769.981	276579
770.088	115559
770.196	56624
770.304	34595
770.412	23938
770.519	17429
770.627	13761
770.735	10980
770.842	8863
770.950	7546
771.058	6595
771.165	6634
771.273	4210
771.380	4970
771.488	3885
771.595	4325
771.703	2988
771.810	3990
771.918	2731
772.025	3236
772.133	2529
772.240	3396
772.348	3016
772.455	2002
772.562	1798
772.670	1881
772.777	2604
772.884	1546
772.991	2243
773.099	2347
773.206	1495
773.313	1274
773.420	1868
773.528	738
773.635	1165
773.742	1462
773.849	1916
773.956	1172
774.063	1107
774.170	1326
774.277	809
774.384	805
774.491	1050
774.598	1806
774.705	1035
774.812	1318
774.919	541
775.026	1032
775.133	775
775.239	613
775.346	1371
775.453	512
775.560	370
775.667	398
775.773	242
775.880	1318
775.987	742
776.093	1403
776.200	633
776.307	380
776.413	1374
776.520	243
776.627	894
776.733	1109
776.840	373
776.946	2000
777.053	2241
777.159	8555
777.266	5646
777.372	7176
777.478	6562
777.585	3817
777.691	548
777.798	-174
777.904	1162
778.010	1992
778.117	1039
778.223	119
778.329	1201
778.435	444
778.542	600
778.648	481
778.754	210
778.860	193
778.966	491
779.072	180
779.178	229
779.284	559
779.391	623
779.497	51
779.603	2319
779.708	1998
779.815	7036
779.920	23522
780.026	54235
780.132	9967
780.238	166
780.344	731
780.450	914
780.556	-620
780.661	356
780.767	236
780.873	18
780.979	327
781.085	-101
781.190	-382
781.296	671
781.402	13
781.507	-463
781.613	139
781.719	-166
781.824	523
781.930	811
782.035	-36
782.141	26
782.246	290
782.352	-958
782.457	-896
782.563	-577
782.668	-213
782.773	-602
782.879	-457
782.984	358
783.090	507
783.195	1081
783.300	-610
783.405	-72
783.511	-31
783.616	-27
783.721	-121
783.826	640
783.932	-751
784.037	56
784.142	-437
784.247	-125
784.352	143
784.457	418
784.562	-44
784.667	-253
784.772	-643
784.877	-942
784.982	588
785.087	61
785.192	-593
785.297	-100
785.402	-642
785.507	-399
785.611	-391
785.716	-330
785.821	-9
785.926	-594
786.031	-988
786.135	-88
786.240	-1017
786.345	-740
786.450	88
786.554	-285
786.659	-256
786.763	-1238
786.868	-526
786.973	-645
787.077	-768
787.182	201
787.286	260
787.391	127
787.495	-680
787.600	343
787.704	-596
787.809	-215
787.913	-1602
788.017	-547
788.122	-513
788.226	-530
788.330	-1101
788.435	-1560
788.539	-780
788.643	-841
788.747	89
788.852	-381
788.956	-519
789.060	-119
789.164	-512
789.268	-676
789.372	75
789.476	-446
789.580	-378
789.684	-690
789.788	-820
789.892	-342
789.996	612
790.100	-130
790.204	312
790.308	-292
790.412	-473
790.516	201
790.620	-713
790.724	-806
790.828	-747
790.931	-989
791.035	332
791.139	-144
791.242	-1509
791.346	-187
791.450	-828
791.554	-842
791.657	-695
791.761	-355
791.864	-275
791.968	-208
792.072	193
792.175	-631
792.279	-331
792.382	-117
792.486	97
792.589	-581
792.693	-294
792.796	-666
792.899	-590
793.003	-266
793.106	-1085
793.209	-223
793.313	697
793.416	-766
793.519	305
793.623	598
793.726	-123
793.829	-226
793.932	-909
794.035	-964
794.138	226
794.242	-704
794.345	359
794.448	885
794.551	2424
794.654	12491
794.757	27489
794.860	5629
794.963	-282
795.066	-424
795.169	-126
795.272	-1241
795.375	-618
795.477	-402
795.580	-546
795.683	-1570
795.786	-557
795.889	-940
795.991	-518
796.094	-504
796.197	-794
796.300	136
796.402	-1391
796.505	-442
796.608	-104
796.710	-370
796.813	-363
796.915	-497
797.018	-1161
797.120	-860
797.223	-1852
797.326	-446
797.428	-1014
797.530	-452
797.633	-1463
797.735	-735
797.838	-192
797.940	-1003
798.042	-1264
798.145	-1105
798.247	-861
798.349	-1412
798.452	-245
798.554	-1055
798.656	-1202
798.758	663
798.860	-1461
798.962	-578
799.065	-1460
799.167	-1428
799.269	-112
799.371	-346
799.473	-1194
799.575	-1184
799.677	-1245
799.779	-221
799.881	-1088
799.983	-424
800.085	-653
800.187	-1735
800.289	-1800
800.390	-910
800.492	-647
800.594	-423
800.696	-861
800.798	-1437
800.899	-159
801.001	-625
801.103	-395
801.205	-1615
801.306	-1016
801.408	-670
801.509	-695
801.611	-1207
801.713	-961
801.814	-1021
801.916	-214
802.017	-1000
802.119	-1183
802.220	-816
802.322	-2241
802.423	302
802.525	-1823
802.626	-644
802.727	-791
802.829	-814
802.930	-1736
803.031	493
803.133	-1683
803.234	-1147
803.335	-1489
803.436	-1385
803.538	-862
803.639	-1114
803.740	-903
803.841	-1416
803.942	-796
804.043	-705
804.144	-922
804.245	-1012
804.346	-1617
804.447	-1345
804.548	198
804.649	-490
804.750	-1738
804.851	-1558
804.952	-480
805.053	-1052
805.154	-1581
805.255	-1019
805.355	-1054
805.456	-1136
805.557	-1273
805.658	-1277
805.758	-1130
805.859	-318
805.960	-1143
806.061	-775
806.161	-875
806.262	-767
806.362	-1379
806.463	-1263
806.564	-1201
806.664	-1390
806.765	-947
806.865	-1486
806.966	-874
807.066	-1433
807.166	-1395
807.267	-1067
807.367	-1688
807.468	-892
807.568	-1621
807.668	-1326
807.769	-813
807.869	-1028
807.969	-847
808.069	-1404
808.170	-1057
808.270	-1600
808.370	-940
808.470	-187
808.570	-1283
808.670	-1303
808.770	-1055
808.870	-2188
808.970	-539
809.070	-894
809.170	-1173
809.271	-729
809.370	-958
809.470	-1286
809.570	-1170
809.670	-1282
809.770	-913
809.870	-1011
809.970	-1160
810.070	-720
810.169	-1860
810.269	-2408
810.369	-634
810.469	-942
810.568	-1803
810.668	-1641
810.768	-1350
810.867	-1370
810.967	-1529
811.066	-1386
811.166	-699
811.265	-448
811.365	-1498
811.464	-617
811.564	-1499
811.663	-1042
811.763	-2194
811.862	-683
811.962	-812
812.061	-1288
812.160	-1079
812.260	-554
812.359	-1270
812.458	-401
812.557	1865
812.657	3837
812.756	1032
812.855	-996
812.954	-1297
813.053	-650
813.153	-945
813.252	-1943
813.351	-1292
813.450	-1338
813.549	-2575
813.648	-1149
813.747	-1502
813.846	-1569
813.945	-1548
814.044	-1053
814.143	-1177
814.242	-491
814.341	-1823
814.439	-1265
814.538	-869
814.637	-1543
814.736	-2210
814.835	-904
814.933	-926
815.032	-1412
815.131	-1309
815.229	-1437
815.328	-212
815.427	-1005
815.525	-1447
815.624	-1540
815.722	-1017
815.821	-210
815.919	-1035
816.018	-1259
816.116	-216
816.215	36
816.313	-955
816.412	-468
816.510	-671
816.609	-259
816.707	-421
816.805	125
816.904	-1024
817.002	-912
817.100	352
817.198	83
817.296	0
817.395	-452
817.493	1269
817.591	1273
817.689	2453
817.787	3647
817.885	7497
817.983	13742
818.081	31800
818.179	76267
818.277	183217
818.375	176858
818.473	49841
818.571	17527
818.669	9754
818.767	9075
818.865	8792
818.963	11239
819.061	15010
819.158	29426
819.256	62502
819.354	137898
819.452	296405
819.549	220939
819.647	63541
819.745	24278
819.842	12660
819.940	9201
820.038	6401
820.135	3836
820.233	3514
820.330	2011
820.428	1842
820.525	1347
820.623	1259
820.720	-173
820.818	-323
820.915	581
821.012	1152
821.110	-312
821.207	394
821.304	-363
821.402	-842
821.499	957
821.596	2294
821.693	912
821.791	564
821.888	-582
821.985	384
822.082	-145
822.179	354
822.276	-203
822.373	52
822.470	-375
822.567	-1441
822.664	-876
822.761	-73
822.858	-1910
822.955	-1001
823.052	-669
823.149	-462
823.246	-954
823.343	-1276
823.440	-910
823.536	-1463
823.633	-1424
823.730	-644
823.827	-357
823.923	-1194
824.020	-183
824.117	-471
824.213	-1818
824.310	-223
824.407	-1758
824.503	-916
824.600	-856
824.696	-1117
824.793	-783
824.889	-2061
824.986	-1184
825.082	-1368
825.179	-439
825.275	-597
825.371	-1932
825.468	-814
825.564	-1871
825.660	-1130
825.757	-1251
825.853	-609
825.949	-1683
826.045	-777
826.142	-664
826.238	-1057
826.334	-805
826.430	-1625
826.526	-160
826.622	-2183
826.718	-1372
826.814	-1316
826.910	-774
827.006	-798
827.102	-2234
827.198	-814
827.294	-1007
827.390	-1312
827.486	-217
827.582	-2288
827.678	-1287
827.774	-597
827.869	-1762
827.965	-489
828.061	-1346
828.157	-1677
828.252	-1512
828.348	-2255
828.444	-1245
828.539	-1836
828.635	-1522
828.731	-821
828.826	-1448
828.922	-1311
829.017	-1370
829.113	-1235
829.208	-1793
829.304	-1489
829.399	240
829.495	-1635
829.590	-468
829.685	-1782
829.781	-732
829.876	-2875
829.971	-945
830.066	-1657
830.162	-1600
830.257	-1924
830.352	-1422
830.447	-1518
830.543	-977
830.638	-2437
830.733	-1072
830.828	-1689
830.923	-773
831.018	-1900
831.113	-1580
831.208	-1186
831.303	-1403
831.398	-1682
831.493	-1710
831.588	-909
831.683	-1848
831.778	-1473
831.873	-1566
831.967	-1026
832.062	-2194
832.157	-2088
832.252	-604
832.346	-2232
832.441	-672
832.536	-587
832.631	178
832.725	-622
832.820	-2439
832.914	-2197
833.009	-1407
833.104	-1647
833.198	-822
833.293	-1856
833.387	-686
833.482	-1727
833.576	-2067
833.670	-1283
833.765	-1827
833.859	-1600
833.954	-496
834.048	-1369
834.142	-786
834.237	-2065
834.331	-1829
834.425	-1369
834.519	-2009
834.613	-906
834.708	-1719
834.802	-751
834.896	-1605
834.990	-1802
835.084	-1244
835.178	-1887
835.272	-1420
835.366	-2118
835.460	-1270
835.554	-1750
835.648	-1164
835.742	-1162
835.836	-1781
835.930	-1656
836.024	-1142
836.117	-1491
836.211	-1547
836.305	-1094
836.399	-1325
836.493	-1702
836.586	-1037
836.680	-1734
836.774	-1357
836.867	-939
836.961	-1780
837.055	-1832
837.148	-2678
837.242	-1635
837.335	-1321
837.429	-1307
837.522	-1202
837.616	-1249
837.709	-1253
837.803	-1765
837.896	-1360
837.989	-1243
838.083	-1171
838.176	-685
838.269	-1028
838.363	-1135
838.456	-1801
838.549	-1100
838.642	-1052
838.735	-10
838.829	-1514
838.922	-1155
839.015	-2117
839.108	-1150
839.201	-1488
839.294	-1380
839.387	-1880
839.480	-1602
839.573	-872
839.666	-1797
839.759	-1763
839.852	-1540
839.945	-1246
840.038	-2083
840.131	-1519
840.223	-1650
840.316	-1062
840.409	-1293
840.502	-1683
840.594	-1129
840.687	-1824
840.780	-1536
840.873	-2547
840.965	-2106
841.058	-976
841.150	-847
841.243	-1740
841.336	-898
841.428	-1383
841.521	-1603
841.613	-2207
841.706	-1462
841.798	-1534
841.890	-1471
841.983	-1912
842.075	-1185
842.167	-1712
842.260	-851
842.352	-488
842.444	-1493
842.537	-1628
842.629	-598
842.721	-848
842.813	-1940
842.905	-2161
842.997	-1513
843.090	-1733
843.182	-559
843.274	-1817
843.366	-141
843.458	793
843.550	920
843.642	-606
843.734	-1244
843.826	-1154
843.918	-1133
844.009	-1237
844.101	-2010
844.193	-1430
844.285	-1204
844.377	-1232
844.469	-604
844.560	-40
844.652	17
844.744	-698
844.835	-1415
844.927	-756
845.019	-1190
845.110	-1030
845.202	-2033
845.293	-1615
845.385	-1245
845.476	-1429
845.568	-2074
845.659	-1136
845.751	-972
845.842	-1181
845.934	-1942
846.025	-1434
846.116	-1609
846.208	-1540
846.299	-1674
846.390	-853
846.482	-1715
846.573	-2077
846.664	-1026
846.755	-1091
846.846	-780
846.937	-1404
847.029	-1701
847.120	-1096
847.211	-2304
847.302	48
847.393	-2338
847.484	-1397
847.575	-2202
847.666	-1812
847.757	-1298
847.847	-1958
847.938	-629
848.029	-1369
848.120	-1553
848.211	-1947
848.302	-1915
848.392	-2059
848.483	-1270
848.574	-2418
848.664	-2078
848.755	-1461
848.846	-938
848.936	-885
849.027	-1675
849.118	-527
849.208	-2203
849.299	-1622
849.389	-961
849.480	56
849.570	885
849.661	4009
849.751	7436
849.841	2285
849.932	-658
850.022	-2076
850.112	-1470
850.203	-1115
850.293	-2301
850.383	-1669
850.474	-1786
850.564	-1648
850.654	-896
850.744	-1846
850.834	-1613
850.924	-1822
851.014	-679
851.104	-2164
851.194	-1759
851.284	-1752
851.374	-1365
851.464	-970
851.554	-1320
851.644	-1349
851.734	-499
851.824	-1251
851.914	-674
852.004	1097
852.094	596
852.183	-930
852.273	-1342
852.363	-992
852.452	-1048
852.542	-1456
852.632	-2116
852.721	-1265
852.811	-1400
852.901	-1767
852.990	-2288
853.080	-1476
853.169	-2050
853.259	-980
853.348	-1878
853.438	-1670
853.527	-1087
853.617	-523
853.706	862
853.795	2496
853.885	8438
853.974	19399
854.063	33392
854.152	59687
854.242	27714
854.331	3069
854.420	-137
854.509	-487
854.598	-691
854.687	-338
854.777	-269
854.866	-1500
854.955	-756
855.044	-1997
855.133	-1698
855.222	-1419
855.311	-2133
855.400	-1453
855.488	-1358
855.577	-1490
855.666	-1097
855.755	-1094
855.844	-1448
855.933	-1124
856.021	-1233
856.110	-1124
856.199	-1564
856.288	-1462
856.376	-1383
856.465	-2180
856.554	-1647
856.642	-1822
856.731	-1331
856.819	-1250
856.908	-2159
856.996	-1785
857.085	-1335
857.173	-2138
857.262	-1775
857.350	-1886
857.438	-1556
857.527	-772
857.615	-2537
857.703	-1271
857.792	-2533
857.880	-1812
857.968	-1766
858.056	-1301
858.145	-1683
858.233	-1376
858.321	-1562
858.409	-1891
858.497	-2050
858.585	-1318
858.673	-2008
858.761	-1644
858.849	-1356
858.937	-2097
859.025	-1476
859.113	-1250
859.201	-2189
859.289	-980
859.377	-1657
859.465	-1762
859.552	-800
859.640	-1308
859.728	-1546
859.816	-1896
859.903	-1926
859.991	-1971
860.079	-802
860.166	-1879
860.254	-1338
860.342	-1363
860.429	-2273
860.517	-2195
860.604	-1348
860.692	-2273
860.779	-2251
860.867	-1590
860.954	-1577
861.042	-1693
861.129	-719
861.216	-1199
861.304	-2076
861.391	-2132
861.478	-1297
861.565	-1238
861.653	-1273
861.740	-2305
861.827	-1987
861.914	-1010
862.001	-1837
862.089	-1186
862.176	-2526
862.263	-2656
862.350	-1643
862.437	-2104
862.524	-2416
862.611	-1259
862.698	-1095
862.785	-969
862.871	-899
862.958	-1613
863.045	-2814
863.132	-1863
863.219	-2204
863.306	-2524
863.392	-2069
863.479	-1941
863.566	-1866
863.652	-1297
863.739	-1714
863.826	-1786
863.912	-1755
863.999	-1788
864.086	-1927
864.172	-1962
864.259	-1952
864.345	-1377
864.432	-1315
864.518	-955
864.604	-1974
864.691	-1836
864.777	-1017
864.863	-1159
864.950	-1002
865.036	-1537
865.122	-1070
865.209	-1779
865.295	-595
865.381	-1284
865.467	-945
865.553	-1293
865.639	-288
865.726	331
865.812	2495
865.898	7735
865.984	13364
866.070	23652
866.156	32581
866.242	8059
866.328	-244
866.414	-1874
866.499	-852
866.585	-1246
866.671	-1167
866.757	-1656
866.843	-953
866.928	-437
867.014	-1608
867.100	-1384
867.186	-1403
867.271	-1329
867.357	-1315
867.442	-1657
867.528	-1337
867.614	-811
867.699	-717
867.785	-398
867.870	-592
867.956	-260
868.041	-1165
868.127	-1054
868.212	-339
868.297	2
868.383	-452
868.468	-777
868.553	-592
868.639	-235
868.724	126
868.809	141
868.894	-1155
868.979	-1288
869.065	-1191
869.150	-2216
869.235	-1642
869.320	-2109
869.405	-1453
869.490	-1859
869.575	-1579
869.660	-1120
869.745	-1490
869.830	-530
869.915	-1524
870.000	-1709
870.085	-1242
870.169	-1972
870.254	-853
870.339	-1781
870.424	-1597
870.509	-1424
870.593	-1842
870.678	-1404
870.763	-2199
870.847	-1233
870.932	-1735
871.016	-1596
871.101	-1825
871.186	-1713
871.270	-1316
871.355	-1766
871.439	-953
871.523	-2076
871.608	-1866
871.692	-1858
871.777	-679
871.861	-1472
871.945	-2245
872.030	-1367
872.114	-1095
872.198	-1042
872.282	-1202
872.367	-1538
872.451	-2096
872.535	-1976
872.619	-1406
872.703	-2092
872.787	-1540
872.871	-860
872.955	-2017
873.039	-2033
873.123	-2203
873.207	-1594
873.291	-1291
873.375	-1963
873.459	-1131
873.543	-1876
873.627	-1246
873.711	-2003
873.794	-2102
873.878	-2361
873.962	-2392
874.045	-1392
874.129	-2046
874.137	-2029
874.213	-1863
874.245	-1846
874.296	-1821
874.352	-1765
874.380	-1743
874.460	-1229
874.464	-1209
874.547	-1854
874.568	-1793
874.631	-1612
874.676	-1805
874.714	-1975
874.784	-1515
874.798	-1422
874.881	-699
874.892	-767
874.965	-1238
874.999	-1472
875.048	-1825
875.107	-1779
875.131	-1755
875.215	-688
875.215	-688
875.298	-832
875.323	-1179
875.381	-2034
875.430	-2194
875.465	-2290
875.538	-1067
875.548	-912
875.631	-1868
875.646	-1798
875.714	-1397
875.753	-1170
875.798	-919
875.861	-1360
875.881	-1513
875.964	-1377
875.968	-1374
876.047	-1302
876.076	-1215
876.130	-985
876.183	-1253
876.213	-1427
876.291	-1396
876.296	-1392
876.379	-1033
876.398	-1111
876.462	-1416
876.506	-1157
876.545	-788
876.613	-705
876.628	-765
876.711	-1274
876.721	-1229
876.794	-580
876.828	-568
876.877	-681
876.935	-1069
876.960	-1203
877.043	-799
877.043	-797
877.125	20
877.150	-156
877.208	-591
877.258	-352
877.291	-140
877.365	-163
877.374	-168
877.456	-371
877.472	-300
877.539	-206
877.579	-244
877.622	-105
877.687	-621
877.704	-771
877.787	-633
877.794	-614
877.869	-408
877.901	-248
877.952	-85
878.008	362
878.034	574
878.115	-315
878.117	-326
878.199	-448
878.222	-438
878.282	-229
878.329	300
878.364	570
878.437	-215
878.447	-338
878.529	-107
878.544	-157
878.611	-355
878.651	-238
878.694	21
878.758	-213
878.776	-307
878.858	-154
878.865	-142
878.941	162
878.972	95
879.023	-160
879.078	-720
879.105	-761
879.185	431
879.187	446
879.269	69
879.292	-92
879.351	-276
879.399	-62
879.433	99
879.506	224
879.516	239
879.598	-143
879.613	-101
879.680	280
879.720	433
879.762	542
879.827	616
879.844	615
879.926	-5
879.933	12
880.007	657
880.040	774
880.089	553
880.147	419
880.171	535
880.253	949
880.254	947
880.335	2077
880.360	2229
880.417	3257
880.467	4857
880.499	6144
880.574	8964
880.580	8850
880.662	4109
880.680	3362
880.744	1842
880.787	1098
880.825	924
880.893	675
880.907	666
880.989	909
881.000	839
881.070	778
881.106	988
881.152	1055
881.213	905
881.233	853
881.315	436
881.319	431
881.396	894
881.426	1000
881.478	1148
881.532	1315
881.559	1301
881.639	638
881.641	637
881.722	1155
881.745	1144
881.803	1174
881.852	1227
881.885	1306
881.958	1327
881.966	1295
882.047	851
882.064	759
882.129	1085
882.171	1472
882.210	2127
882.277	3052
882.291	2949
882.372	2009
882.383	1889
882.454	1509
882.489	1302
882.535	1296
882.596	979
882.616	936
882.697	1208
882.702	1234
882.778	1494
882.808	1335
882.859	1227
882.914	1404
882.940	1565
883.020	1363
883.021	1374
883.102	2094
883.127	2022
883.183	1892
883.233	1845
883.264	1644
883.339	1402
883.345	1422
883.426	1332
883.445	1303
883.507	1527
883.551	1830
883.587	1956
883.657	2042
883.668	2053
883.749	1518
883.763	1550
883.830	2013
883.869	1995
883.910	1801
883.975	1877
883.991	1997
884.072	1722
884.081	1767
884.152	1997
884.187	1812
884.233	1729
884.292	2018
884.314	2094
884.394	2004
884.398	1991
884.475	1924
884.504	1818
884.555	1817
884.610	1902
884.636	2031
884.716	2368
884.716	2383
884.797	2220
884.821	2202
884.877	2300
884.927	2234
884.958	2138
885.033	2053
885.038	2096
885.118	2429
885.139	2533
885.199	2113
885.244	1805
885.279	2360
885.350	3444
885.359	3425
885.439	2949
885.456	2801
885.520	2335
885.561	2113
885.600	2264
885.667	2411
885.680	2447
885.760	2710
885.773	2742
885.840	2992
885.878	3108
885.920	3275
885.984	3217
886.000	3129
886.080	2763
886.089	2727
886.160	2813
886.195	2771
886.240	2761
886.300	2798
886.320	2884
886.400	2753
886.406	2760
886.480	3224
886.511	3355
886.560	3663
886.616	3844
886.640	3764
886.720	3352
886.722	3326
886.800	3042
886.827	2932
886.879	3001
886.932	2952
886.959	2932
887.038	2748
887.039	2766
887.119	2993
887.143	2996
887.198	3044
887.248	3025
887.278	3136
887.354	3395
887.358	3429
887.437	3657
887.459	3759
887.517	3658
887.564	3445
887.596	3483
887.669	3413
887.676	3404
887.755	3206
887.774	3118
887.835	3016
887.880	2923
887.914	3000
887.985	3078
887.994	3105
888.073	3234
888.090	3253
888.153	3329
888.195	3264
888.232	3294
888.300	3353
888.311	3431
888.391	3922
888.405	3970
888.470	3927
888.510	3896
888.549	3811
888.615	3558
888.628	3718
888.708	4658
888.720	4765
888.787	4632
888.825	4556
888.866	4376
888.930	4005
888.945	3975
889.024	3738
889.035	3684
889.103	3989
889.140	4115
889.182	4276
889.245	4500
889.261	4514
889.340	4469
889.349	4443
889.419	4626
889.454	4694
889.498	4601
889.559	4433
889.577	4391
889.656	4111
889.664	4065
889.735	4251
889.768	4315
889.814	4339
889.873	4330
889.978	4958
890.083	4232
890.187	5275
890.292	4483
890.397	4467
890.501	4900
890.606	3905
890.710	5107
890.815	4483
890.919	3606
891.024	4542
891.128	4135
891.233	4182
891.337	3978
891.442	4351
891.546	4603
891.650	4559
891.755	4204
891.859	5007
891.963	5124
892.068	3869
892.172	3877
892.276	3506
892.380	4036
892.484	4063
892.589	3871
892.693	4425
892.797	3775
892.901	4000
893.005	3454
893.109	4031
893.213	4027
893.317	4829
893.421	4010
893.525	3552
893.629	3556
893.733	4438
893.837	4447
893.941	4499
894.045	6925
894.148	9412
894.252	23333
894.356	12741
894.460	5226
894.564	3660
894.667	4199
894.771	3554
894.875	3507
894.978	3667
895.082	4236
895.186	4375
895.289	3981
895.393	3766
895.496	3277
895.600	3733
895.703	2499
895.807	3943
895.910	3461
896.014	3490
896.117	3163
896.221	4023
896.324	4105
896.427	3959
896.531	4184
896.634	4012
896.737	3842
896.840	3135
896.944	3174
897.047	3950
897.150	3609
897.253	3582
897.356	4374
897.460	3346
897.563	3396
897.666	4062
897.769	4034
897.872	4560
897.975	3091
898.078	3700
898.181	4294
898.284	3529
898.387	3600
898.490	3768
898.593	3441
898.695	2560
898.798	3317
898.901	3717
899.004	3999
899.107	3731
899.209	3722
899.312	3344
899.415	3808
899.518	3904
899.620	2836
899.723	2801
899.826	4722
899.928	5854
900.031	3134
900.133	3324
900.236	3165
900.338	3130
900.441	2064
900.543	3732
900.646	3228
900.748	4252
900.851	3284
900.953	2918
901.055	2879
901.158	4164
901.260	3785
901.362	3174
901.465	3485
901.567	3453
901.669	3751
901.771	2636
901.873	3808
901.976	2953
902.078	3838
902.180	3112
902.282	2881
902.384	3496
902.486	4069
902.588	3682
902.690	3958
902.792	3289
902.894	3888
902.996	3702
903.098	3678
903.200	3492
903.302	4123
903.404	3308
903.505	3075
903.607	3065
903.709	4443
903.811	3886
903.913	3249
904.014	3923
904.116	3971
904.218	3364
904.319	2616
904.421	3476
904.523	3288
904.624	2652
904.726	3277
904.827	3591
904.929	3356
905.030	3526
905.132	3178
905.233	3382
905.335	3245
905.436	2972
905.537	3563
905.639	3830
905.740	3675
905.841	3628
905.943	3299
906.044	3529
906.145	3566
906.247	2344
906.348	2861
906.449	2661
906.550	3715
906.651	3441
906.752	3296
906.854	3232
906.955	2497
907.056	3745
907.157	3596
907.258	2879
907.359	3901
907.460	3324
907.561	3315
907.662	3260
907.762	3509
907.863	2827
907.964	4075
908.065	3297
908.166	2357
908.267	3264
908.367	3276
908.468	3351
908.569	3306
908.670	3947
908.770	4921
908.871	4516
908.971	4261
909.072	4307
909.173	3122
909.273	3019
909.374	3478
909.474	3036
909.575	2982
909.675	3954
909.776	4106
909.876	2953
909.977	3887
910.077	3630
910.177	2817
910.278	3494
910.378	3580
910.478	3381
910.579	3203
910.679	3528
910.779	3462
910.879	3315
910.980	3926
911.080	3774
911.180	3802
911.280	3078
911.380	4000
911.480	3356
911.580	3703
911.680	3404
911.780	3257
911.880	4180
911.980	3054
912.080	4005
912.180	3791
912.280	3260
912.380	3712
912.480	2385
912.580	3064
912.679	4310
912.779	3539
912.879	2938
912.979	3627
913.078	3012
913.178	3382
913.278	2124
913.377	2575
913.477	3616
913.577	2938
913.676	3612
913.776	3257
913.875	3400
913.975	3457
914.074	3345
914.174	3308
914.273	2486
914.373	4007
914.472	4088
914.572	3039
914.671	3630
914.770	3582
914.870	3692
914.969	2918
915.068	2946
915.167	3061
915.267	3515
915.366	3438
915.465	3011
915.564	2811
915.663	2990
915.763	3126
915.862	3569
915.961	3489
916.060	3176
916.159	3421
916.258	2902
916.357	3236
916.456	3459
916.555	3494
916.654	3486
916.752	3687
916.851	3295
916.950	3914
917.049	4051
917.148	3512
917.247	3666
917.345	3137
917.444	3037
917.543	3464
917.642	3286
917.740	3208
917.839	3828
917.937	3489
918.036	3802
918.135	2427
918.233	2916
918.332	2730
918.430	3831
918.529	2776
918.627	2110
918.726	3406
918.824	4030
918.923	3586
919.021	2985
919.119	3102
919.218	2416
919.316	3537
919.414	4284
919.512	2558
919.611	3463
919.709	3386
919.807	3561
919.905	4589
920.003	3742
920.102	3693
920.200	2836
920.298	3749
920.396	3765
920.494	3456
920.592	3352
920.690	3088
920.788	3526
920.886	3311
920.984	4022
921.082	3988
921.180	3433
921.277	3486
921.375	4116
921.473	4202
921.571	4286
921.669	3668
921.766	3500
921.864	4642
921.962	3961
922.060	4132
922.157	4654
922.255	4140
922.352	3609
922.450	4825
922.548	3996
922.645	3372
922.743	4347
922.840	5997
922.938	6448
923.035	5493
923.133	5898
923.230	5488
923.327	7216
923.425	6196
923.522	6956
923.619	5823
923.717	6010
923.814	4534
923.911	5780
924.008	6096
924.106	5377
924.203	5606
924.300	5990
924.397	5387
924.494	5421
924.591	5727
924.688	5318
924.786	5621
924.883	6060
924.979	4821
925.077	5958
925.173	5318
925.270	5713
925.367	5302
925.464	5969
925.561	4886
925.658	5746
925.755	5067
925.852	5364
925.948	5330
926.045	5317
926.142	5516
926.239	5493
926.335	4322
926.432	5468
926.529	5888
926.625	6459
926.722	5335
926.818	5453
926.915	5362
927.011	5373
927.108	4963
927.204	5829
927.301	4802
927.397	5540
927.494	5504
927.590	4885
927.687	4219
927.783	4900
927.879	5322
927.976	4476
928.072	4656
928.168	5242
928.264	4600
928.361	3831
928.457	4739
928.553	4380
928.649	4767
928.745	4171
928.841	4823
928.937	4793
929.033	4923
929.129	4664
929.225	4398
929.321	5039
929.417	4603
929.513	4719
929.609	3927
929.705	4867
929.801	5099
929.897	4190
929.993	3975
930.089	4425
930.184	3802
930.280	4962
930.376	4572
930.471	3939
930.567	4837
930.663	3432
930.758	4102
930.854	4518
930.950	3997
931.045	4540
931.141	4808
931.236	4897
931.332	3895
931.427	4804
931.523	4487
931.618	4851
931.714	3978
931.809	4936
931.905	4770
932.000	3643
932.095	3688
932.191	4934
932.286	5148
932.381	4577
932.476	3547
932.572	3761
932.667	3933
932.762	4006
932.857	4311
932.952	4219
933.047	3865
933.142	3030
933.237	3750
933.332	3906
933.427	4159
933.522	3630
933.617	3606
933.712	3770
933.807	4320
933.902	5221
933.997	4163
934.092	4145
934.187	3550
934.282	4100
934.376	4387
934.471	4005
934.566	4013
934.661	3227
934.755	4080
934.850	4579
934.945	4096
935.039	3904
935.134	3401
935.228	3951
935.323	3973
935.417	3437
935.512	3399
935.606	2996
935.701	3758
935.795	3851
935.890	3620
935.984	3717
936.079	3551
936.173	3397
936.267	3807
936.362	3261
936.456	3512
936.550	4455
936.644	3695
936.738	3616
936.833	3797
936.927	3610
937.021	3205
937.115	3030
937.209	3822
937.303	3857
937.397	3001
937.491	3726
937.585	3522
937.679	3271
937.773	2909
937.867	2422
937.961	3026
938.055	3657
938.149	3268
938.243	2531
938.337	3568
938.430	3198
938.524	3979
938.618	3806
938.712	3432
938.805	3874
938.899	3332
938.993	3865
939.086	3105
939.180	3109
939.274	2696
939.367	3456
939.461	2711
939.554	3496
939.648	3307
939.741	2864
939.835	3389
939.928	4094
940.022	3269
940.115	2856
940.208	3182
940.302	4607
940.395	3799
940.488	2696
940.582	3210
940.675	2626
940.768	2638
940.861	3461
940.954	3478
941.048	3221
941.141	2889
941.234	3383
941.327	3799
941.420	4655
941.513	3060
941.606	3912
941.699	3155
941.792	2897
941.885	2787
941.978	3855
942.071	3167
942.164	2457
942.257	2774
942.349	3208
942.442	3519
942.535	3212
942.628	2323
942.721	2409
942.813	2520
942.906	3401
942.999	3016
943.091	2849
943.184	2338
943.277	2205
943.369	2772
943.462	2896
943.554	2963
943.647	2103
943.739	2712
943.832	2999
943.924	1869
944.017	2832
944.109	3000
944.201	3204
944.294	2489
944.386	2507
944.478	3464
944.571	3006
944.663	1995
944.755	2442
944.847	2538
944.940	2816
945.032	1713
945.124	2567
945.216	3511
945.308	2357
945.400	2735
945.492	2828
945.584	2826
945.676	3333
945.768	2758
945.860	2868
945.952	2082
946.044	2894
946.136	2289
946.228	2433
946.320	2239
946.412	2329
946.503	2290
946.595	2429
946.687	1784
946.779	1752
946.870	2716
946.962	2425
947.054	2907
947.145	2471
947.237	3209
947.329	3226
947.420	1968
947.512	2569
947.603	2341
947.695	2594
947.786	2284
947.878	2448
947.969	2249
948.061	1800
948.152	2249
948.243	3177
948.335	2125
948.426	2270
948.517	2659
948.609	2284
948.700	2677
948.791	2404
948.882	2761
948.973	2655
949.065	1895
949.156	1853
949.247	1618
949.338	2945
949.429	1937
949.520	2130
949.611	1667
949.702	1854
949.793	1101
949.884	2861
949.975	1833
950.066	1584
950.157	2039
950.247	2796
950.338	1593
950.429	2231
950.520	2020
950.611	2359
950.701	2633
950.792	1987
950.883	2295
950.973	2420
951.064	2015
951.155	2758
951.245	2207
951.336	2492
951.427	1590
951.517	3008
951.608	2548
951.698	1707
951.788	2425
951.879	2074
951.969	1701
952.060	1655
952.150	1814
952.240	2559
952.331	1227
952.421	2750
952.511	1920
952.602	1600
952.692	1320
952.782	2391
952.872	1970
952.962	2387
953.052	2730
953.143	2709
953.233	1897
953.323	2169
953.413	1652
953.503	1703
953.593	1944
953.683	1137
953.773	877
953.863	2338
953.953	1572
954.042	1928
954.132	1538
954.222	2500
954.312	1232
954.402	2504
954.492	2905
954.581	2465
954.671	1876
954.761	2063
954.850	2338
954.940	2057
955.030	1539
955.119	1909
955.209	1952
955.298	1753
955.388	1945
955.477	2108
955.567	1673
955.656	2373
955.746	1644
955.835	2380
955.925	1773
956.014	2089
956.103	2518
956.193	2654
956.282	2108
956.371	2484
956.461	1973
956.550	1723
956.639	2450
956.728	2032
956.817	1889
956.906	1805
956.995	2958
957.085	1495
957.174	1995
957.263	1728
957.352	1786
957.441	1700
957.530	1854
957.619	2516
957.708	3128
957.796	2229
957.885	2494
957.974	1867
958.063	2328
958.152	2201
958.241	2419
958.329	2420
958.418	2435
958.507	2749
958.596	3498
958.684	2343
958.773	2654
958.861	3083
958.950	3262
959.039	4372
959.127	3488
959.216	3432
959.304	3569
959.393	3713
959.481	3074
959.570	2908
959.658	3214
959.746	3025
959.835	3976
959.923	4083
960.011	2969
960.100	2603
960.188	2914
960.276	3064
960.365	2244
960.453	1726
960.541	1404
960.629	2110
960.717	2215
960.805	805
960.893	2105
960.981	1468
961.069	2095
961.158	2456
961.245	2861
961.333	1891
961.421	1626
961.509	1971
961.597	1631
961.685	1787
961.773	1162
961.861	1693
961.949	1920
962.036	1423
962.124	2213
962.212	1805
962.299	505
962.387	1298
962.475	1380
962.562	1566
962.650	1683
962.738	1803
962.825	2057
962.913	1443
963.000	1308
963.088	1641
963.175	1603
963.263	1768
963.350	1458
963.438	1892
963.525	1212
963.612	2561
963.700	4461
963.787	6164
963.874	3439
963.962	1765
964.049	1188
964.136	1649
964.223	1622
964.310	1389
964.398	1391
964.485	1087
964.572	647
964.659	2767
964.746	1453
964.833	1262
964.920	925
965.007	1326
965.094	254
965.181	868
965.268	955
965.355	2267
965.441	470
965.528	949
965.615	1003
965.702	494
965.789	520
965.875	834
965.962	1106
966.049	558
966.136	1701
966.222	953
966.309	950
966.395	827
966.482	1080
966.569	1556
966.655	2264
966.742	401
966.828	1210
966.915	427
967.001	1202
967.087	843
967.174	329
967.260	1107
967.347	2104
967.433	3610
967.519	3764
967.605	982
967.692	849
967.778	691
967.864	704
967.950	438
968.036	473
968.123	1017
968.209	176
968.295	580
968.381	1397
968.467	1160
968.553	743
968.639	1115
968.725	1162
968.811	1179
968.897	1093
968.983	867
969.069	284
969.154	643
969.240	769
969.326	595
969.412	285
969.497	338
969.583	133
969.669	1821
969.755	1248
969.840	79
969.926	1030
970.012	1685
970.097	2102
970.183	1761
970.268	624
970.354	1006
970.439	2447
970.525	3180
970.610	232
970.696	614
970.781	384
970.866	395
970.952	741
971.037	212
971.122	864
971.208	965
971.293	446
971.378	-71
971.463	656
971.549	334
971.634	520
971.719	186
971.804	1185
971.889	1135
971.974	603
972.059	361
972.144	603
972.229	804
972.314	48
972.399	452
972.484	118
972.569	897
972.654	430
972.739	2541
972.824	399
972.908	488
972.993	1105
973.078	800
973.163	72
973.247	249
973.332	-681
973.417	1456
973.501	79
973.586	478
973.671	633
973.755	145
973.840	915
973.924	798
974.009	926
974.093	733
974.178	1787
974.262	1401
974.346	1136
974.431	97
974.515	264
974.600	-31
974.684	456
974.768	494
974.852	766
974.937	-11
975.021	586
975.105	446
975.189	-181
975.273	1268
975.358	1078
975.442	-567
975.526	983
975.610	-500
975.694	429
975.778	1193
975.862	427
975.946	236
976.030	1531
976.114	-215
976.198	329
976.281	42
976.365	869
976.449	291
976.533	235
976.617	574
976.700	175
976.784	1071
976.868	324
976.951	1512
977.035	462
977.119	-18
977.202	154
977.286	-64
977.369	929
977.453	-46
977.536	134
977.620	-140
977.703	529
977.787	847
977.870	334
977.953	1120
978.037	-591
978.120	1281
978.203	1510
978.287	1728
978.370	349
978.453	847
978.536	38
978.620	1078
978.703	1252
978.786	175
978.869	141
978.952	-878
979.035	862
979.118	334
979.201	373
979.284	808
979.367	4
979.450	-79
979.533	467
979.616	473
979.699	12
979.782	193
979.865	494
979.948	567
980.030	-504
980.113	513
980.196	70
980.279	933
980.361	278
980.444	75
980.526	521
980.609	985
980.692	785
980.774	402
980.857	-723
980.939	1337
981.022	745
981.104	740
981.187	38
981.269	628
981.352	179
981.434	-59
981.516	-203
981.599	1482
981.681	185
981.763	-315
981.846	215
981.928	623
982.010	-63
982.092	-669
982.174	731
982.256	65
982.339	-152
982.421	341
982.503	646
982.585	173
982.667	448
982.749	756
982.831	-19
982.913	-681
982.995	1157
983.077	-367
983.158	419
983.240	171
983.322	423
983.404	379
983.486	-130
983.568	530
983.649	-59
983.731	272
983.813	-144
983.894	1074
983.976	72
984.058	1058
984.139	469
984.221	544
984.302	721
984.384	149
984.465	-75
984.547	972
984.628	-190
984.710	1431
984.791	583
984.872	118
984.954	-280
985.035	-126
985.116	728
985.198	878
985.279	719
985.360	11
985.441	-276
985.522	230
985.604	144
985.685	-1541
985.766	592
985.847	1134
985.928	-167
986.009	286
986.090	637
986.171	338
986.252	-321
986.333	413
986.414	695
986.495	596
986.576	397
986.656	906
986.737	527
986.818	267
986.899	258
986.980	-410
987.060	517
987.141	175
987.222	798
987.302	771
987.383	741
987.464	901
987.544	146
987.625	198
987.705	484
987.786	670
987.866	89
987.947	17
988.027	157
988.108	418
988.188	959
988.268	1123
988.349	804
988.429	-169
988.509	341
988.589	348
988.670	-704
988.750	1377
988.830	202
988.910	829
988.990	96
989.070	306
989.151	-28
989.231	-211
989.311	557
989.391	137
989.471	541
989.551	198
989.631	103
989.711	621
989.791	231
989.870	37
989.950	116
990.030	182
990.110	-298
990.190	-86
990.269	-316
990.349	970
990.429	-109
990.509	632
990.588	-656
990.668	89
990.747	293
990.827	-394
990.907	203
990.986	347
991.066	185
991.145	-169
991.225	692
991.304	-747
991.383	156
991.463	536
991.542	397
991.622	-982
991.701	739
991.780	-131
991.859	-285
991.939	-486
992.018	-92
992.097	816
992.176	169
992.256	-318
992.335	-510
992.414	-104
992.493	-219
992.572	-610
992.651	644
992.730	38
992.809	419
992.888	-108
992.967	-343
993.046	46
993.125	-337
993.203	222
993.282	72
993.361	-212
993.440	-569
993.519	-516
993.597	265
993.676	373
993.755	819
993.834	-381
993.912	-223
993.991	682
994.069	-712
994.148	251
994.226	-1057
994.305	74
994.384	-430
994.462	-61
994.540	-783
994.619	-414
994.697	79
994.776	-363
994.854	85
994.932	-599
995.011	-378
995.089	-809
995.167	-919
995.245	-274
995.324	-703
995.402	602
995.480	-27
995.558	-166
995.636	-1048
995.714	-849
995.792	353
995.870	-1242
995.948	-223
996.026	-258
996.104	-155
996.182	-404
996.260	-437
996.338	-804
996.416	-632
996.494	-862
996.572	333
996.649	722
996.727	-1977
996.805	22
996.883	-778
996.960	-88
997.038	-450
997.116	-683
997.193	-1209
997.271	-501
997.348	-440
997.426	22
997.504	-1305
997.581	542
997.658	-446
997.736	-1261
997.813	-1075
997.891	45
997.968	-9
998.046	-449
998.123	-130
998.200	-143
998.277	-829
998.355	-420
998.432	-1389
998.509	-305
998.586	460
998.663	-667
998.741	-824
998.818	-1161
998.895	-709
998.972	-587
999.049	-1393
999.126	-855
999.203	-496
999.280	-434
999.357	-536
999.434	-554
999.511	-745
999.587	895
999.664	-532
999.741	-760
999.818	-623
999.895	-424
999.971	-480
1000.048	-934
1000.125	-718
1000.202	-1104
1000.278	-1062
1000.355	-628
1000.431	-465
1000.508	-993
1000.584	-272
1000.661	-613
1000.738	-1396
1000.814	-768
1000.890	-987
1000.967	-683
1001.043	-873
1001.120	-922
1001.196	-881
1001.272	-681
1001.349	-484
1001.425	-975
1001.501	-1022
1001.577	-716
1001.654	-188
1001.730	-1039
1001.806	292
1001.882	-1476
1001.958	-466
1002.034	146
1002.110	-1081
1002.186	-1217
1002.262	-964
1002.338	-1150
1002.414	-679
1002.490	-1140
1002.566	-742
1002.642	-771
1002.718	-271
1002.794	-811
1002.870	-1916
1002.945	-1758
1003.021	-1138
1003.097	-1280
1003.173	-573
1003.248	-520
1003.324	-735
1003.400	-857
1003.475	-1122
1003.551	-474
1003.626	-1395
1003.702	-1096
1003.777	-641
1003.853	-1507
1003.928	-960
1004.004	-1303
1004.079	-690
1004.155	-966
1004.230	-1724
1004.305	-996
1004.381	-1647
1004.456	-1317
1004.531	-825
1004.607	-1439
1004.682	-585
1004.757	-422
1004.832	-915
1004.907	-844
1004.982	-551
1005.057	-660
1005.133	-1382
1005.208	-733
1005.283	-1232
1005.358	-1006
1005.433	-2109
1005.508	-874
1005.583	-1598
1005.657	-1162
1005.732	-433
1005.807	-1046
1005.882	-1299
1005.957	-984
1006.032	-1325
1006.106	-1449
1006.181	-1611
1006.256	-918
1006.331	-1618
1006.405	-1399
1006.480	-1404
1006.554	-1693
1006.629	-1155
1006.704	21
1006.778	-1262
1006.853	-434
1006.927	-1376
1007.002	-1016
1007.076	-1320
1007.150	-936
1007.225	-1662
1007.299	-1117
1007.373	-1701
1007.448	-402
1007.522	-971
1007.596	-1023
1007.671	-1615
1007.745	-1048
1007.819	-1329
1007.893	-907
1007.967	-1383
1008.041	-1658
1008.115	-1012
1008.190	-1791
1008.264	-736
1008.338	-1981
1008.412	-907
1008.486	-809
1008.560	-1215
1008.633	-1578
1008.707	-662
1008.781	-1400
1008.855	-1676
1008.929	-1199
1009.003	-1515
1009.076	-1650
1009.150	-1102
1009.224	-1162
1009.298	-683
1009.371	-709
1009.445	-800
1009.519	-1254
1009.592	-1515
1009.666	-1355
1009.739	-1801
1009.813	-1118
1009.886	-470
1009.960	-2017
1010.033	-818
1010.107	-323
1010.180	-1924
1010.253	-1315
1010.327	-2245
1010.400	-1221
1010.473	-1366
1010.547	-1067
1010.620	-1161
1010.693	-1652
1010.766	-2083
1010.840	-1083
1010.913	-1173
1010.986	-1763
1011.059	-506
1011.132	-1545
1011.205	-600
1011.278	-1793
1011.351	-1473
1011.424	-1471
1011.497	-1799
1011.570	-1978
1011.643	-1360
1011.716	-1517
1011.789	-1291
1011.862	-1531
1011.934	-918
1012.007	-2117
1012.080	-1139
1012.153	-1288
1012.225	-1452
1012.298	-1762
1012.371	-916
1012.443	-1304
1012.516	-1935
1012.588	-1412
1012.661	-1615
1012.733	-1842
1012.806	-577
1012.879	-1865
1012.951	-870
1013.023	-1549
1013.096	-1116
1013.168	-1543
1013.241	-1263
1013.313	-1360
1013.385	-1383
1013.458	-1055
1013.530	-1025
1013.602	-1902
1013.674	-1392
1013.746	-1758
1013.819	-1605
1013.891	-1623
1013.963	-2394
1014.035	-1918
1014.107	-1357
1014.179	-1386
1014.251	-1977
1014.323	-339
1014.395	-1717
1014.467	-852
1014.539	-1308
1014.611	-2206
1014.683	-1547
1014.754	-1297
1014.826	-1716
1014.898	-2584
1014.970	-2648
1015.042	-346
1015.113	-1347
1015.185	-1437
1015.257	-2797
1015.328	-1405
1015.400	-1215
1015.471	-1221
1015.543	-1764
1015.615	-1051
1015.686	-1804
1015.757	-1682
1015.829	-1093
1015.901	-1510
1015.972	-1385
1016.043	-1615
1016.115	-1673
1016.186	-1191
1016.257	-1871
1016.328	-853
1016.400	-1296
1016.471	-1857
1016.542	-1781
1016.613	-1848
1016.685	-1635
1016.756	-1305
1016.827	-1755
1016.898	-2372
1016.969	-202
1017.040	-2456
1017.111	-1611
1017.182	-1584
1017.253	-1175
1017.324	-1676
1017.395	-1824
1017.466	-498
1017.537	-1689
1017.608	-1304
1017.678	-2487
1017.749	-1152
1017.820	-2048
1017.891	-1608
1017.961	-2621
1018.032	-1574
1018.103	-1654
1018.173	-1536
1018.244	-2762
1018.315	-1936
1018.385	-1799
1018.456	-1159
1018.526	-2633
1018.597	-1681
1018.667	-1079
1018.738	-2286
1018.808	-1861
1018.878	-1091
1018.949	-1736
1019.019	-1561
1019.089	-1883
1019.160	-1368
1019.230	-1651
1019.300	-1203
1019.371	-2294
1019.441	-1121
1019.511	-1803
1019.581	-1504
1019.651	-1040
1019.721	-1193
1019.791	-760
1019.861	-1248
1019.931	-1205
1020.001	-1777
1020.071	-901
1020.141	-1464
1020.211	-1858
1020.281	-2307
1020.351	-2246
1020.421	-1366
1020.491	-1142
1020.560	-2342
1020.630	-1296
1020.700	-1034
1020.770	-1914
1020.839	-1458
1020.909	-1670
1020.979	-2150
1021.048	-1740
1021.118	-1456
1021.187	-2135
1021.257	-1954
1021.326	-1532
1021.396	-1520
1021.465	-2134
1021.535	-1999
1021.604	-2195
1021.674	-2207
1021.743	-1537
1021.812	-1092
1021.882	-1858
1021.951	-2616
1022.020	-1471
1022.089	-1738
1022.159	-1710
1022.228	-1746
1022.297	-1636
1022.366	-1392
1022.435	-1860
1022.504	-1296
1022.573	-1548
1022.642	-934
1022.711	-2595
1022.781	-1416
1022.849	-1564
1022.918	-1533
1022.987	-1780
1023.056	-1859
1023.125	-1563
1023.194	-849
1023.263	-356
1023.331	-2185
1023.400	-1773
1023.469	-2119
1023.538	-1959
1023.606	-1990
1023.675	-1920
1023.744	-2747
1023.812	-1974
1023.881	-1846
1023.949	-1672
1024.018	-1862
1024.086	-1144
1024.155	-1874
1024.223	-2323
1024.292	-1524
1024.360	-1416
1024.429	-1828
1024.497	-1824
1024.565	-1607
1024.634	-1942
1024.702	-897
1024.770	-1783
1024.838	-1542
1024.907	-1942
1024.975	-2375
1025.043	-1586
1025.111	-2039
1025.179	-1903
1025.247	-1308
1025.315	-2016
1025.383	-1170
1025.451	-2045
1025.519	-1434
1025.587	-1944
1025.655	-1846
1025.723	-2217
1025.791	-2060
1025.859	-2330
1025.927	-711
1025.995	-2266
1026.062	-1399
1026.130	-1802
1026.198	-1309
1026.266	-1558
1026.333	-962
1026.401	-1069
1026.469	-1506
1026.536	-1786
1026.604	-1861
1026.671	-2278
1026.739	-1918
1026.806	-1537
1026.874	-2907
1026.941	-2795
1027.009	-1694
1027.076	-1898
1027.144	-1077
1027.211	-2499
1027.278	-2168
1027.345	-2394
1027.413	-1430
1027.480	-1206
1027.547	-2025
1027.614	-1907
1027.682	-1281
1027.749	-1959
1027.816	-1574
1027.883	-1504
1027.950	-1728
1028.017	-2606
1028.084	-1390
1028.151	-2344
1028.218	-1786
1028.285	-1422
1028.352	-1583
1028.419	-2533
1028.486	-1213
1028.553	-1809
1028.619	-1768
1028.686	-1189
1028.753	-2094
1028.820	-2183
1028.886	-2155
1028.953	-1556
1029.020	-1587
1029.086	-2391
1029.153	-1933
1029.220	-2084
1029.286	-1093
1029.353	-1185
1029.419	-1855
1029.486	-2588
1029.552	-1706
1029.619	-2538
1029.685	-1892
1029.751	-1880
1029.818	-965
1029.884	-1723
1029.951	-1047
1030.017	-1974
1030.083	-1821
1030.149	-1700
1030.216	-1477
1030.282	-1537
1030.348	-2398
1030.414	-2564
1030.480	-1826
1030.546	-2942
1030.612	-1417
1030.678	-2231
1030.744	-1632
1030.810	-2064
1030.876	-1487
1030.942	-1379
1031.008	-1371
1031.074	-2427
1031.140	-2718
1031.206	-2006
1031.272	-1735
1031.337	-1933
1031.403	-1803
1031.469	-2305
1031.534	-2082
1031.600	-1165
1031.666	-2333
1031.731	-2656
1031.797	-2072
1031.863	-2041
1031.928	-2027
1031.994	-1424
1032.059	-2011
1032.125	-2839
1032.190	-1954
1032.256	-2003
1032.321	-1790
1032.386	-2609
1032.452	-1469
1032.517	-1830
1032.582	-1679
1032.647	-2421
1032.713	-1932
1032.778	-2415
1032.843	-1837
1032.908	-2082
1032.974	-1579
1033.039	-2192
1033.104	-1682
1033.169	-2304
1033.234	-1747
1033.299	-1488
1033.364	-1373
1033.429	-2610
1033.494	-1936
1033.559	-2038
1033.624	-1940
1033.688	-1404
1033.753	-1775
1033.818	-1759
1033.883	-1750
1033.948	-2322
1034.013	-1668
1034.077	-1376
1034.142	-1364
1034.207	-1080
1034.271	-2346
1034.336	-1190
1034.400	-1124
1034.465	-1459
1034.530	-828
1034.594	-1621
1034.658	-1365
1034.723	-2546
1034.787	-2279
1034.852	-2419
1034.916	-2180
1034.981	-3329
1035.045	-1538
1035.109	-2602
1035.173	-2217
1035.238	-2507
1035.302	-2154
1035.366	-2209
1035.430	-2169
1035.495	-2438
1035.559	-1676
1035.623	-1758
1035.687	-2510
1035.751	-2242
1035.815	-2296
1035.879	-2487
1035.943	-2554
1036.007	-2661
1036.071	-1730
1036.135	-2190
1036.198	-1036
1036.262	-1820
1036.326	-1418
1036.390	-1860
1036.454	-1807
1036.517	-2214
1036.581	-1730
1036.645	-1727
1036.709	-832
1036.772	-2516
1036.836	-2366
1036.900	-1186
1036.963	-2441
1037.026	-1987
1037.090	-1728
1037.154	-2386
1037.217	-2172
1037.280	-2541
1037.344	-2532
1037.407	-1993
1037.471	-2587
1037.534	-1446
1037.597	-1433
1037.661	-2108
1037.724	-1612
1037.787	-1892
1037.850	-1993
1037.913	-1472
1037.977	-1686
1038.040	-1620
1038.103	-1492
1038.166	-3118
1038.229	-2115
1038.292	-2364
1038.355	-2531
1038.418	-2213
1038.481	-2342
1038.544	-1915
1038.607	-2259
1038.670	-2277
1038.732	-2368
1038.795	-2399
1038.858	-1306
1038.921	-1394
1038.984	-1850
1039.046	-3107
1039.109	-1922
1039.172	-1891
1039.234	-2709
1039.297	-1908
1039.360	-2866
1039.422	-2139
1039.485	-1718
1039.547	-1632
1039.610	-2663
1039.672	-1910
1039.734	-1951
1039.797	-2126
1039.859	-2250
1039.922	-2146
1039.984	-1936
1040.046	-2065
1040.109	-1745
1040.171	-2596
1040.233	-1719
1040.295	-1870
1040.358	-2491
1040.420	-1933
1040.482	-2232
1040.544	-2331
1040.606	-2088
1040.668	-2128
1040.730	-2149
1040.792	-1798
1040.854	-2050
1040.916	-2398
1040.978	-2268
1041.040	-1956
1041.102	-1987
1041.164	-2273
1041.225	-2038
1041.287	-2885
1041.349	-2066
1041.411	-1723
1041.472	-1731
1041.534	-2258
1041.596	-2426
1041.657	-2047
1041.719	-1223
1041.781	-2720
1041.842	-2136
1041.904	-2194
1041.965	-2083
1042.027	-2190
1042.088	-2026
1042.150	-2664
1042.211	-2162
1042.272	-2297
1042.334	-2470
1042.395	-2586
1042.456	-2427
1042.518	-2041
1042.579	-1986
1042.640	-2336
1042.701	-1793
1042.763	-2113
1042.824	-2238
1042.885	-2060
1042.946	-2563
1043.007	-2462
1043.068	-2741
1043.129	-2872
1043.190	-2477
1043.251	-1643
1043.312	-2519
1043.373	-2634
1043.434	-1858
1043.495	-2483
1043.556	-2288
1043.616	-1505
1043.677	-2338
1043.738	-2424
1043.799	-1534
1043.859	-1609
1043.920	-1972
1043.981	-2411
1044.041	-2524
1044.102	-1845
1044.162	-1852
1044.223	-1627
1044.284	-1918
1044.344	-2602
1044.405	-1607
1044.465	-2059
1044.525	-2123
1044.586	-2182
1044.646	-1637
1044.707	-2239
1044.767	-2317
1044.827	-2440
1044.887	-1446
1044.948	-2163
1045.008	-2019
1045.068	-2874
1045.128	-1309
1045.188	-2139
1045.249	-1808
1045.309	-2165
1045.369	-1685
1045.429	-1559
1045.489	-1907
1045.549	-2165
1045.609	-2013
1045.669	-1982
1045.729	-1970
1045.789	-2571
1045.848	-1743
1045.908	-1777
1045.968	-2486
1046.028	-1702
1046.088	-1671
1046.147	-1801
1046.207	-1057
1046.267	-1310
1046.326	-867
1046.386	-1758
1046.446	-1870
1046.505	-1876
1046.565	-854
1046.624	-620
1046.684	-38
1046.743	-831
1046.803	-1000
1046.862	-1042
1046.922	0
