'Start Wavelength	183.907
'End Wavelength	1046.922
'Gate Delay	5.000
'Gate Width (ms)	1.050
'Laser Output Level	0.000
'X Position	0.000
'Y Position	0.000
'Z Position	0.000
'Grid Point Number	1.000
'Shot Number	100.000
183.907	1503.000
183.977	58.000
184.047	880
184.116	749
184.186	-13
184.256	381
184.325	-487
184.395	-968
184.465	1246
184.534	-798
184.604	64
184.674	774
184.743	-546
184.813	673
184.883	966
184.952	477
185.022	-94
185.092	-644
185.161	452
185.231	68
185.301	6
185.370	655
185.440	-5
185.509	118
185.579	-687
185.649	310
185.718	718
185.788	-157
185.857	-13
185.927	-27
185.996	486
186.066	141
186.136	-101
186.205	-52
186.275	401
186.344	351
186.414	789
186.483	-421
186.553	1414
186.622	1734
186.692	656
186.761	-458
186.831	389
186.900	591
186.970	988
187.039	750
187.109	803
187.178	577
187.248	269
187.317	-140
187.387	360
187.456	443
187.526	110
187.595	226
187.664	-295
187.734	-16
187.803	63
187.873	-494
187.942	432
188.012	336
188.081	-10
188.150	631
188.220	622
188.289	140
188.358	424
188.428	1209
188.497	59
188.567	451
188.636	389
188.705	53
188.775	654
188.844	-311
188.913	986
188.983	-562
189.052	571
189.121	350
189.191	689
189.260	858
189.329	1264
189.399	267
189.468	495
189.537	377
189.606	561
189.676	343
189.745	987
189.814	876
189.883	438
189.953	867
190.022	554
190.091	939
190.161	3003
190.230	920
190.299	388
190.368	758
190.437	528
190.507	-80
190.576	769
190.645	-458
190.714	196
190.783	387
190.853	953
190.922	1252
190.991	-70
191.060	187
191.129	-749
191.198	638
191.268	715
191.337	-569
191.406	982
191.475	776
191.544	-263
191.613	481
191.682	695
191.752	234
191.821	638
191.890	661
191.959	-181
192.028	334
192.097	-34
192.166	522
192.235	-535
192.304	566
192.373	-10
192.442	318
192.511	620
192.580	-414
192.650	276
192.719	-632
192.788	1005
192.857	-124
192.926	851
192.995	-123
193.064	1825
193.133	2045
193.202	1912
193.271	1317
193.340	480
193.409	1322
193.478	814
193.547	1754
193.615	2058
193.684	1993
193.753	1088
193.822	1010
193.891	541
193.960	553
194.029	-51
194.098	474
194.167	323
194.236	598
194.305	464
194.374	-356
194.443	368
194.512	-356
194.580	578
194.649	1142
194.718	1018
194.787	214
194.856	-100
194.925	382
194.994	1036
195.062	742
195.131	469
195.200	3
195.269	1291
195.338	612
195.407	161
195.475	-5
195.544	630
195.613	-345
195.682	1029
195.751	647
195.819	-15
195.888	735
195.957	1803
196.026	690
196.094	1127
196.163	162
196.232	973
196.301	574
196.369	603
196.438	690
196.507	1147
196.576	-538
196.644	728
196.713	365
196.782	614
196.850	1139
196.919	279
196.988	124
197.056	109
197.125	590
197.194	185
197.262	243
197.331	331
197.400	96
197.468	509
197.537	13
197.606	619
197.674	1363
197.743	2274
197.812	529
197.880	2048
197.949	1575
198.017	1806
198.086	-17
198.155	429
198.223	890
198.292	2419
198.360	1069
198.429	641
198.497	768
198.566	1727
198.635	2721
198.703	866
198.772	962
198.840	2024
198.909	2435
198.977	823
199.046	384
199.114	1336
199.183	568
199.251	814
199.320	210
199.388	1066
199.457	-241
199.525	534
199.594	157
199.662	903
199.731	254
199.799	1115
199.867	428
199.936	738
200.004	407
200.073	1263
200.141	216
200.210	507
200.278	-247
200.346	1540
200.415	1053
200.483	814
200.552	808
200.620	824
200.688	481
200.757	43
200.825	840
200.893	1061
200.962	1113
201.030	931
201.098	147
201.167	913
201.235	360
201.303	1005
201.372	767
201.440	1167
201.508	360
201.577	714
201.645	696
201.713	235
201.781	176
201.850	717
201.918	674
201.986	714
202.055	716
202.123	362
202.191	27
202.259	276
202.327	506
202.396	875
202.464	958
202.532	480
202.600	1864
202.669	1323
202.737	267
202.805	861
202.873	238
202.941	532
203.009	45
203.078	472
203.146	1181
203.214	956
203.282	-264
203.350	970
203.418	471
203.487	691
203.555	417
203.623	839
203.691	485
203.759	365
203.827	822
203.895	729
203.963	1580
204.031	785
204.099	599
204.168	760
204.236	1743
204.304	1380
204.372	867
204.440	554
204.508	236
204.576	203
204.644	1229
204.712	-152
204.780	754
204.848	1762
204.916	287
204.984	912
205.052	959
205.120	1047
205.188	4
205.256	909
205.324	1061
205.392	1255
205.460	683
205.528	680
205.596	850
205.664	1103
205.732	604
205.799	2878
205.867	4215
205.935	1070
206.003	890
206.071	619
206.139	707
206.207	1741
206.275	875
206.343	696
206.411	385
206.478	983
206.546	1207
206.614	937
206.682	678
206.750	501
206.818	1282
206.885	1174
206.953	-60
207.021	1928
207.089	719
207.157	569
207.225	842
207.292	1193
207.360	-20
207.428	485
207.496	1080
207.563	1855
207.631	1121
207.699	404
207.767	380
207.834	932
207.902	862
207.970	575
208.038	455
208.105	1377
208.173	975
208.241	987
208.309	1569
208.376	1245
208.444	1707
208.512	1403
208.579	-285
208.647	1864
208.715	1928
208.782	587
208.850	1165
208.918	578
208.985	1859
209.053	936
209.120	650
209.188	715
209.256	601
209.323	682
209.391	608
209.459	2106
209.526	747
209.594	1702
209.661	624
209.729	1257
209.796	1056
209.864	1643
209.932	344
209.999	2445
210.067	884
210.134	1214
210.202	819
210.269	1709
210.337	2497
210.404	811
210.472	1054
210.539	2064
210.607	372
210.674	1901
210.742	1125
210.809	823
210.877	945
210.944	2244
211.012	-207
211.079	2361
211.146	634
211.214	1109
211.281	1724
211.349	2430
211.416	2547
211.484	1766
211.551	491
211.618	1155
211.686	1220
211.753	708
211.821	1317
211.888	1111
211.955	1487
212.023	1450
212.090	1191
212.157	1146
212.225	1221
212.292	3450
212.359	4928
212.427	13642
212.494	6958
212.561	2987
212.629	1932
212.696	1613
212.763	2087
212.831	793
212.898	1590
212.965	1655
213.032	1487
213.100	1519
213.167	578
213.234	2002
213.301	1870
213.369	1228
213.436	877
213.503	820
213.570	1206
213.638	1312
213.705	953
213.772	612
213.839	1232
213.906	1796
213.973	998
214.041	1416
214.108	2400
214.175	1906
214.242	1408
214.309	1766
214.376	1325
214.444	1089
214.511	2418
214.578	932
214.645	1379
214.712	1962
214.779	1247
214.846	1649
214.913	2455
214.980	2551
215.048	1954
215.115	3012
215.182	2183
215.249	1301
215.316	940
215.383	2894
215.450	1674
215.517	1675
215.584	1496
215.651	949
215.718	2010
215.785	1577
215.852	975
215.919	2298
215.986	2192
216.053	1334
216.120	622
216.187	1249
216.254	1937
216.321	1355
216.388	1215
216.455	1437
216.522	1211
216.589	1694
216.656	2678
216.722	2740
216.789	2124
216.856	2726
216.923	2383
216.990	1344
217.057	1646
217.124	1822
217.191	2331
217.258	3136
217.324	2776
217.391	4099
217.458	2377
217.525	2272
217.592	1992
217.659	696
217.725	1827
217.792	2558
217.859	2630
217.926	1039
217.993	914
218.059	1310
218.126	671
218.193	1104
218.260	976
218.327	251
218.393	335
218.460	919
218.527	480
218.594	1580
218.660	2229
218.727	2415
218.794	1270
218.860	1581
218.927	537
218.994	799
219.061	523
219.127	1750
219.194	2079
219.261	979
219.327	814
219.394	1109
219.461	-236
219.527	787
219.594	1104
219.661	1317
219.727	302
219.794	1465
219.860	373
219.927	1554
219.994	1967
220.060	4680
220.127	3466
220.193	2772
220.260	1564
220.326	4071
220.393	4592
220.460	5938
220.526	3650
220.593	2956
220.659	3364
220.726	3219
220.792	6266
220.859	7271
220.925	7957
220.992	10128
221.058	8857
221.125	9736
221.191	6599
221.258	3126
221.324	3264
221.391	1457
221.457	1574
221.524	1678
221.590	2150
221.657	9132
221.723	5312
221.789	4492
221.856	4494
221.922	2005
221.989	2055
222.055	919
222.121	16
222.188	3252
222.254	930
222.321	1916
222.387	382
222.453	1089
222.520	744
222.586	912
222.652	1197
222.719	168
222.785	650
222.851	669
222.918	458
222.984	519
223.050	479
223.116	185
223.183	1524
223.249	393
223.315	-476
223.382	1128
223.448	855
223.514	238
223.580	533
223.647	236
223.713	-179
223.779	515
223.845	-24
223.911	1068
223.978	378
224.044	619
224.110	352
224.176	1407
224.242	960
224.309	-189
224.375	1030
224.441	844
224.507	746
224.573	-228
224.639	531
224.705	-535
224.772	267
224.838	-23
224.904	436
224.970	1099
225.036	299
225.102	588
225.168	1619
225.234	1695
225.300	1016
225.366	1014
225.432	1373
225.499	1170
225.565	148
225.631	1162
225.697	505
225.763	1558
225.829	1725
225.895	1691
225.961	1653
226.027	2439
226.093	2141
226.159	4086
226.225	4797
226.291	10135
226.357	14791
226.423	8557
226.489	4404
226.554	4083
226.620	3542
226.686	3849
226.752	5862
226.818	9412
226.884	19332
226.950	17643
227.016	7900
227.082	4792
227.148	3505
227.214	3217
227.279	2241
227.345	3151
227.411	2467
227.477	2753
227.543	6348
227.609	7066
227.674	4644
227.740	1957
227.806	1323
227.872	1911
227.938	1203
228.003	2747
228.069	1363
228.135	544
228.201	1369
228.267	681
228.332	767
228.398	324
228.464	1442
228.530	621
228.595	1144
228.661	482
228.727	1041
228.792	1739
228.858	236
228.924	-317
228.990	2037
229.055	308
229.121	1189
229.187	88
229.252	947
229.318	990
229.384	572
229.449	1143
229.515	-816
229.581	-558
229.646	1818
229.712	1053
229.777	1095
229.843	2528
229.909	2233
229.974	2541
230.040	1806
230.105	1021
230.171	1198
230.236	2920
230.302	3222
230.368	2769
230.433	1314
230.499	1535
230.564	2502
230.630	924
230.695	1063
230.761	2402
230.826	-352
230.892	2739
230.957	626
231.023	-223
231.088	1087
231.154	626
231.219	1289
231.284	1273
231.350	2270
231.415	-131
231.481	1280
231.546	1013
231.612	927
231.677	-257
231.742	-843
231.808	1842
231.873	0
231.939	-236
232.004	1047
232.069	2527
232.135	1006
232.200	699
232.265	1156
232.331	-171
232.396	276
232.461	688
232.527	652
232.592	85
232.657	632
232.723	1563
232.788	1180
232.853	1389
232.918	925
232.984	344
233.049	482
233.114	1712
233.179	950
233.245	3062
233.310	3695
233.375	820
233.440	1035
233.506	1258
233.571	518
233.636	427
233.701	967
233.766	1654
233.832	3253
233.897	543
233.962	343
234.027	1848
234.092	790
234.157	1336
234.222	1307
234.288	1622
234.353	7378
234.418	6235
234.483	3605
234.548	2132
234.613	1298
234.678	1299
234.743	1135
234.808	7665
234.873	4197
234.938	2684
235.004	1256
235.069	1033
235.134	-83
235.199	2209
235.264	2086
235.329	61
235.394	1711
235.459	2492
235.524	639
235.589	1740
235.654	555
235.719	-485
235.784	1198
235.849	1265
235.913	3657
235.978	4209
236.043	4925
236.108	2359
236.173	1461
236.238	2432
236.303	812
236.368	1218
236.433	3001
236.498	5147
236.563	4245
236.627	6898
236.692	23855
236.757	21241
236.822	9486
236.887	4909
236.952	4168
237.017	3724
237.081	4727
237.146	4791
237.211	11754
237.276	23483
237.341	37892
237.405	20424
237.470	7952
237.535	5997
237.600	3274
237.664	4002
237.729	1875
237.794	2948
237.859	7697
237.923	5240
237.988	2417
238.053	3234
238.118	3928
238.182	10759
238.247	11226
238.312	3735
238.376	3283
238.441	1147
238.506	2760
238.570	1096
238.635	2172
238.700	1787
238.764	839
238.829	4651
238.893	4711
238.958	3272
239.023	2468
239.087	1121
239.152	1640
239.216	501
239.281	565
239.346	1694
239.410	1149
239.475	1566
239.539	10300
239.604	9005
239.668	2904
239.733	2788
239.797	5462
239.862	12392
239.926	13199
239.991	5048
240.055	2361
240.120	2134
240.184	1557
240.249	788
240.313	886
240.378	1344
240.442	5135
240.507	10513
240.571	3430
240.635	3288
240.700	6394
240.764	2447
240.829	1042
240.893	60
240.957	1530
241.022	4919
241.086	10086
241.151	3551
241.215	607
241.279	2301
241.344	3613
241.408	2555
241.472	765
241.537	2314
241.601	997
241.665	392
241.730	706
241.794	2426
241.858	555
241.922	1744
241.987	1284
242.051	758
242.115	813
242.179	1368
242.244	1256
242.308	1649
242.372	1843
242.436	2236
242.501	2434
242.565	252
242.629	442
242.693	2146
242.757	812
242.822	1111
242.886	2126
242.950	2044
243.014	1482
243.078	1998
243.142	768
243.206	1146
243.271	1835
243.335	2515
243.399	4216
243.463	13596
243.527	38845
243.591	13147
243.655	4330
243.719	2113
243.783	3545
243.847	4873
243.911	6091
243.975	5768
244.040	3188
244.104	3969
244.168	1308
244.232	1528
244.296	3406
244.360	4959
244.424	2017
244.488	2539
244.552	2500
244.615	1021
244.679	1313
244.743	1624
244.807	1048
244.871	2054
244.935	1628
244.999	-116
245.063	460
245.127	2385
245.191	3152
245.255	4016
245.319	2318
245.383	1666
245.446	2475
245.510	915
245.574	1186
245.638	1533
245.702	45
245.766	3756
245.829	3193
245.893	1118
245.957	795
246.021	2533
246.085	1866
246.149	2815
246.212	6739
246.276	9086
246.340	3100
246.404	3445
246.467	3210
246.531	2980
246.595	3136
246.659	3299
246.722	1531
246.786	3281
246.850	2817
246.913	3368
246.977	410
247.041	2439
247.104	1510
247.168	1795
247.232	5374
247.295	12038
247.359	5487
247.423	2301
247.486	4722
247.550	3949
247.614	1702
247.677	3667
247.741	2087
247.804	2099
247.868	4446
247.932	4315
247.995	11955
248.059	4140
248.122	1687
248.186	4154
248.249	5216
248.313	18798
248.376	21593
248.440	11849
248.503	4546
248.567	4810
248.630	4329
248.694	6881
248.757	8942
248.821	21098
248.884	12398
248.948	10323
249.011	15005
249.075	22722
249.138	20864
249.202	7716
249.265	3763
249.328	7457
249.392	4030
249.455	5043
249.519	3278
249.582	3750
249.645	6206
249.709	5220
249.772	4765
249.835	3300
249.899	3804
249.962	3720
250.025	2604
250.089	6698
250.152	10806
250.215	5210
250.279	3789
250.342	4376
250.405	4937
250.468	3697
250.532	5201
250.595	9594
250.658	33189
250.721	60576
250.785	19378
250.848	11689
250.911	4803
250.974	5831
251.038	6419
251.101	14573
251.164	7729
251.227	7819
251.290	7678
251.354	12746
251.417	47998
251.480	52869
251.543	32384
251.606	90379
251.669	72875
251.732	26473
251.795	20795
251.859	22981
251.922	55979
251.985	34040
252.048	13034
252.111	9386
252.174	8490
252.237	13283
252.300	27457
252.363	31300
252.426	70908
252.489	30867
252.552	14878
252.615	9841
252.678	10321
252.741	20564
252.804	29405
252.867	74706
252.930	41126
252.993	20980
253.056	11730
253.119	8264
253.182	6764
253.245	13217
253.308	10094
253.371	7374
253.434	6713
253.497	6626
253.559	12876
253.622	8602
253.685	8799
253.748	9163
253.811	4631
253.874	7105
253.937	6202
254.000	5036
254.062	6722
254.125	12515
254.188	11484
254.251	10286
254.314	4526
254.376	7764
254.439	9474
254.502	7213
254.565	7180
254.628	14068
254.690	7454
254.753	3835
254.816	2862
254.878	4195
254.941	8648
255.004	9068
255.067	3805
255.129	3164
255.192	2305
255.255	873
255.317	2829
255.380	2604
255.443	2107
255.505	1732
255.568	616
255.631	1631
255.693	2657
255.756	1137
255.819	1564
255.881	1600
255.944	1654
256.006	2163
256.069	1445
256.132	1996
256.194	2624
256.257	8894
256.319	5993
256.382	5331
256.444	3904
256.507	3167
256.569	2035
256.632	2811
256.694	4101
256.757	12682
256.819	39606
256.882	17590
256.944	6134
257.007	5821
257.069	4217
257.132	3338
257.194	3655
257.257	3016
257.319	2597
257.381	4560
257.444	11345
257.506	42621
257.569	53463
257.631	33232
257.693	13841
257.756	6264
257.818	4982
257.880	2567
257.943	3158
258.005	2492
258.067	1378
258.130	2328
258.192	3085
258.254	5662
258.317	3076
258.379	2852
258.441	7163
258.503	7461
258.566	9982
258.628	15298
258.690	3179
258.753	4230
258.815	4739
258.877	3565
258.939	1847
259.001	2100
259.064	2158
259.126	2288
259.188	3810
259.250	3619
259.312	4704
259.375	16891
259.437	10333
259.499	3223
259.561	2357
259.623	3493
259.685	2256
259.747	2780
259.809	9899
259.872	19622
259.934	29232
259.996	27654
260.058	7332
260.120	2685
260.182	2707
260.244	1877
260.306	1495
260.368	3558
260.430	1461
260.492	5956
260.554	15870
260.616	13698
260.678	12624
260.740	18994
260.802	4544
260.864	3092
260.926	2214
260.988	3527
261.050	3701
261.112	7938
261.174	22746
261.236	16951
261.298	4638
261.359	8224
261.421	13208
261.483	2858
261.545	3465
261.607	1496
261.669	2470
261.731	4164
261.793	12110
261.854	5132
261.916	2916
261.978	2780
262.040	3444
262.102	1989
262.164	3644
262.225	3987
262.287	1776
262.349	5780
262.411	5049
262.472	3045
262.534	4453
262.596	11531
262.658	3518
262.719	1307
262.781	3083
262.843	10969
262.904	5615
262.966	4637
263.028	5580
263.090	20862
263.151	63394
263.213	21077
263.275	9574
263.336	4397
263.398	2664
263.459	1664
263.521	2006
263.583	5288
263.644	4423
263.706	2175
263.767	1298
263.829	1740
263.891	1287
263.952	1155
264.014	1637
264.075	2867
264.137	10296
264.198	4658
264.260	1236
264.321	1843
264.383	4535
264.444	14602
264.506	5037
264.567	2294
264.629	6482
264.690	12324
264.752	4137
264.813	2905
264.875	1157
264.936	2881
264.998	1843
265.059	2036
265.120	2806
265.182	3706
265.243	18012
265.305	22692
265.366	5751
265.427	2591
265.489	2465
265.550	292
265.611	1935
265.673	1766
265.734	1521
265.795	2485
265.857	1390
265.918	2168
265.979	5508
266.040	32262
266.102	29673
266.163	8352
266.224	5587
266.286	3447
266.347	1058
266.408	1426
266.469	1835
266.530	1592
266.592	902
266.653	3265
266.714	5143
266.775	1810
266.836	507
266.898	1136
266.959	3244
267.020	2124
267.081	2667
267.142	759
267.203	1018
267.264	738
267.326	1741
267.387	611
267.448	181
267.509	1183
267.570	1043
267.631	1187
267.692	444
267.753	1412
267.814	-76
267.875	2895
267.936	7262
267.997	4281
268.058	3529
268.119	2121
268.180	1634
268.241	1032
268.302	370
268.363	628
268.424	635
268.485	1668
268.546	926
268.607	596
268.668	984
268.729	360
268.790	871
268.851	1549
268.912	4354
268.972	5417
269.033	1987
269.094	776
269.155	1173
269.216	1234
269.277	1806
269.338	1762
269.398	842
269.459	1980
269.520	2295
269.581	2734
269.642	2713
269.702	2091
269.763	1481
269.824	1681
269.885	1272
269.945	2682
270.006	1038
270.067	419
270.128	845
270.188	780
270.249	842
270.310	705
270.370	1032
270.431	1885
270.492	1576
270.553	1660
270.613	2600
270.674	6476
270.734	3228
270.795	2071
270.856	2523
270.916	1363
270.977	1495
271.038	2089
271.098	1293
271.159	2469
271.219	1817
271.280	1594
271.340	1385
271.401	642
271.462	5867
271.522	3333
271.583	1089
271.643	2003
271.704	1642
271.764	2340
271.825	4075
271.885	17515
271.946	25311
272.006	8701
272.066	9296
272.127	20708
272.187	7917
272.248	3746
272.308	2848
272.369	13105
272.429	6968
272.489	5647
272.550	6370
272.610	5344
272.671	3800
272.731	4906
272.791	7591
272.852	3647
272.912	3227
272.972	1737
273.033	1925
273.093	3650
273.153	4148
273.214	2916
273.274	2315
273.334	10925
273.394	21359
273.455	8782
273.515	7620
273.575	17203
273.635	7376
273.696	9025
273.756	18462
273.816	7812
273.876	4953
273.936	10031
273.997	21841
274.057	6123
274.117	4113
274.177	4678
274.237	22575
274.297	22259
274.358	15166
274.418	14934
274.478	11505
274.538	5114
274.598	3349
274.658	15364
274.718	21177
274.778	8700
274.838	3979
274.898	8271
274.958	29022
275.018	20842
275.078	12699
275.138	5215
275.198	2954
275.258	2524
275.318	3713
275.378	5355
275.438	6230
275.498	4398
275.558	11604
275.618	26641
275.678	13998
275.738	8554
275.798	6942
275.858	5905
275.918	2099
275.978	4038
276.038	2723
276.098	2418
276.157	3395
276.217	13467
276.277	6212
276.337	4308
276.397	1960
276.457	2836
276.517	2024
276.576	1960
276.636	1200
276.696	3348
276.756	7392
276.815	5662
276.875	2755
276.935	3086
276.995	2708
277.055	2417
277.114	2671
277.174	3228
277.234	9811
277.293	4795
277.353	2324
277.413	2888
277.472	1247
277.532	2705
277.592	2526
277.651	7798
277.711	16059
277.771	5851
277.830	18936
277.890	16959
277.950	10592
278.009	36271
278.069	13562
278.128	10497
278.188	16729
278.248	7137
278.307	16766
278.367	13181
278.426	4187
278.486	3813
278.545	2064
278.605	1439
278.664	2374
278.724	3220
278.783	6606
278.843	20336
278.902	6082
278.962	3770
279.021	3970
279.081	6724
279.140	5598
279.199	4939
279.259	4241
279.318	5810
279.378	7255
279.437	13128
279.496	39442
279.556	117890
279.615	100969
279.675	24653
279.734	13870
279.793	18640
279.853	35717
279.912	15109
279.971	8163
280.031	8033
280.090	14651
280.149	26779
280.208	16650
280.268	77941
280.327	90008
280.386	20279
280.445	12462
280.505	12148
280.564	6573
280.623	5947
280.682	7184
280.742	10328
280.801	3942
280.860	3700
280.919	3839
280.978	2802
281.037	2518
281.097	2102
281.156	2790
281.215	2432
281.274	3271
281.333	13105
281.392	10892
281.451	2869
281.510	2479
281.569	2017
281.628	2407
281.688	2496
281.747	1765
281.806	3359
281.865	1426
281.924	1552
281.983	2674
282.042	2036
282.101	1337
282.160	1743
282.219	1067
282.278	1751
282.337	6682
282.396	5078
282.454	2222
282.513	3075
282.572	9519
282.631	7174
282.690	2848
282.749	2177
282.808	2552
282.867	3322
282.926	2542
282.985	2356
283.043	2166
283.102	1343
283.161	1694
283.220	5306
283.279	13419
283.338	5145
283.396	2141
283.455	2402
283.514	1529
283.573	4597
283.631	3331
283.690	2718
283.749	2369
283.808	4232
283.866	5667
283.925	2349
283.984	2299
284.043	2853
284.101	3206
284.160	3071
284.219	5653
284.277	4565
284.336	4370
284.395	14140
284.453	12784
284.512	5177
284.570	5716
284.629	4946
284.688	4601
284.746	3770
284.805	5050
284.863	6731
284.922	8777
284.981	11352
285.039	15500
285.098	24038
285.156	53819
285.215	120151
285.273	116009
285.332	65045
285.390	35147
285.449	20477
285.507	13128
285.566	10386
285.624	8817
285.683	6870
285.741	5889
285.799	5032
285.858	4798
285.916	4889
285.975	3860
286.033	3433
286.091	2460
286.150	2367
286.208	3523
286.267	4171
286.325	2243
286.383	4268
286.442	3885
286.500	3096
286.558	2355
286.616	2453
286.675	3156
286.733	3199
286.791	2443
286.850	3436
286.908	4240
286.966	7157
287.024	3219
287.083	1728
287.141	1618
287.199	2875
287.257	4058
287.315	3204
287.374	2175
287.432	6960
287.490	5168
287.548	3300
287.606	3280
287.664	2948
287.723	3940
287.781	6528
287.839	4819
287.897	5915
287.955	7646
288.013	10915
288.071	20478
288.129	71073
288.187	201895
288.245	104235
288.303	33777
288.361	18373
288.419	13681
288.477	9059
288.535	6614
288.593	6379
288.651	4960
288.709	4583
288.767	4206
288.825	3342
288.883	3312
288.941	2259
288.999	2622
289.057	3037
289.115	2471
289.173	2488
289.231	2096
289.289	2625
289.346	2355
289.404	3324
289.462	4496
289.520	5130
289.578	3402
289.636	2143
289.694	1546
289.751	1597
289.809	2493
289.867	2349
289.925	3215
289.983	3232
290.040	2699
290.098	2353
290.156	2135
290.214	2848
290.271	2188
290.329	2982
290.387	1964
290.444	1969
290.502	1543
290.560	2269
290.617	1591
290.675	2229
290.733	2399
290.790	3300
290.848	1912
290.906	2642
290.963	2548
291.021	2600
291.078	1890
291.136	2570
291.194	8010
291.251	18198
291.309	6150
291.366	2569
291.424	2607
291.481	3378
291.539	1449
291.596	2622
291.654	1978
291.711	2226
291.769	2089
291.826	5546
291.884	3744
291.941	2357
291.999	1576
292.056	3376
292.114	3153
292.171	1980
292.228	2760
292.286	2947
292.343	4372
292.401	6595
292.458	5014
292.515	2791
292.573	3970
292.630	3380
292.687	3175
292.745	2489
292.802	4338
292.859	12816
292.917	16402
292.974	9640
293.031	3417
293.089	3377
293.146	2220
293.203	2829
293.260	2712
293.318	5979
293.375	8008
293.432	4831
293.489	3518
293.546	2975
293.604	4074
293.661	8984
293.718	23545
293.775	15014
293.832	6553
293.889	6519
293.947	8218
294.004	7360
294.061	4854
294.118	7626
294.175	17333
294.232	26957
294.289	11663
294.346	6652
294.403	5020
294.460	5005
294.517	3519
294.574	4062
294.631	4551
294.688	3594
294.745	7211
294.802	28170
294.859	39957
294.916	19297
294.973	12466
295.030	6687
295.087	5103
295.144	4463
295.201	4350
295.258	3720
295.315	3377
295.372	10785
295.429	19989
295.486	10056
295.542	7305
295.599	16084
295.656	32571
295.713	19369
295.770	20479
295.827	10457
295.883	5880
295.940	4848
295.997	5959
296.054	6964
296.111	4569
296.167	3823
296.224	2794
296.281	2573
296.338	2730
296.394	3670
296.451	3627
296.508	8756
296.564	17868
296.621	12832
296.678	20733
296.734	33462
296.791	14686
296.848	8258
296.904	6699
296.961	12993
297.018	21255
297.074	18943
297.131	8637
297.187	6928
297.244	7006
297.301	18551
297.357	37087
297.414	15145
297.470	7430
297.527	5057
297.583	4203
297.640	4585
297.696	3324
297.753	4241
297.809	2456
297.866	2462
297.922	2557
297.979	3961
298.035	3750
298.092	4284
298.148	12107
298.204	13354
298.261	7075
298.317	11405
298.374	27000
298.430	17502
298.486	8507
298.543	6699
298.599	6351
298.656	7096
298.712	9755
298.768	26285
298.824	23718
298.881	8682
298.937	5061
298.993	4265
299.050	4539
299.106	5129
299.162	4696
299.218	5360
299.275	5030
299.331	4508
299.387	7364
299.443	22737
299.500	34845
299.556	21831
299.612	10180
299.668	8304
299.724	15438
299.780	19798
299.837	10653
299.893	9378
299.949	24692
300.005	35167
300.061	25830
300.117	43270
300.173	22446
300.229	10186
300.285	9811
300.341	11907
300.397	7383
300.453	5922
300.510	5457
300.566	6469
300.622	8396
300.678	26434
300.734	41151
300.790	27942
300.845	27841
300.901	22416
300.957	32605
301.013	22975
301.069	9433
301.125	6807
301.181	6038
301.237	6205
301.293	4036
301.349	4493
301.405	4245
301.461	3941
301.516	5203
301.572	5206
301.628	6631
301.684	6732
301.740	9384
301.796	15313
301.851	11474
301.907	16734
301.963	15666
302.019	21221
302.074	59427
302.130	63058
302.186	31867
302.242	14813
302.297	8995
302.353	8749
302.409	14119
302.464	14135
302.520	11259
302.576	22226
302.631	27394
302.687	17024
302.743	8798
302.798	6002
302.854	5520
302.910	5732
302.965	5900
303.021	9937
303.076	8680
303.132	10349
303.187	12763
303.243	7920
303.299	6091
303.354	5315
303.410	4752
303.465	4409
303.521	4005
303.576	4233
303.632	4324
303.687	7477
303.743	20822
303.798	19820
303.853	9071
303.909	6660
303.964	4534
304.020	5917
304.075	8734
304.130	8191
304.186	13148
304.241	15366
304.297	12854
304.352	9354
304.358	9024
304.407	6353
304.449	6476
304.463	6520
304.518	6838
304.539	6674
304.573	6415
304.629	4848
304.630	4893
304.684	7188
304.720	12812
304.739	15580
304.794	24423
304.811	21271
304.850	13821
304.902	8182
304.905	7824
304.960	5191
304.992	6065
305.015	6693
305.071	5268
305.083	5255
305.126	5153
305.173	4006
305.181	3843
305.236	3699
305.264	4070
305.292	4388
305.347	5397
305.354	5366
305.402	5202
305.445	5701
305.457	5829
305.512	6967
305.535	6900
305.567	6906
305.622	6454
305.626	6590
305.678	9877
305.716	20503
305.733	24361
305.788	27827
305.807	23983
305.843	17752
305.897	21453
305.898	21472
305.953	21827
305.988	15898
306.008	12762
306.063	8350
306.078	7611
306.118	6033
306.168	4353
306.173	4184
306.228	4083
306.259	3872
306.283	3779
306.338	3686
306.349	3772
306.393	4112
306.440	5649
306.448	5951
306.503	5068
306.530	5946
306.558	7556
306.613	14754
306.620	15823
306.668	21424
306.711	22941
306.723	22797
306.778	18350
306.801	14287
306.833	9838
306.888	5826
306.892	5723
306.943	4569
306.982	3970
306.997	3834
307.052	4399
307.072	4575
307.107	5230
307.162	6574
307.163	6624
307.217	11311
307.253	13372
307.272	13732
307.327	14864
307.343	13434
307.381	10719
307.434	8430
307.436	8488
307.491	15497
307.524	22731
307.546	24690
307.600	21818
307.614	18970
307.655	11952
307.704	7352
307.710	7173
307.765	9200
307.795	11713
307.819	13560
307.874	24333
307.885	24215
307.929	19808
307.975	14321
307.984	14135
308.038	17015
308.065	20587
308.093	33099
308.148	67991
308.156	76487
308.202	111674
308.246	132121
308.257	131220
308.312	77029
308.336	55831
308.366	41350
308.421	25584
308.426	24516
308.475	16387
308.517	12347
308.530	11191
308.585	8984
308.607	8579
308.639	9059
308.694	10466
308.697	10657
308.748	18659
308.787	29315
308.803	29783
308.857	22018
308.877	17854
308.912	14016
308.967	12625
308.967	12659
309.021	15790
309.058	19379
309.076	23888
309.130	40429
309.148	47776
309.185	87174
309.238	159580
309.239	159721
309.293	161213
309.328	139504
309.348	123084
309.402	63700
309.418	49259
309.457	34108
309.508	22180
309.511	21587
309.566	16795
309.598	15582
309.620	15556
309.674	17641
309.688	18614
309.729	18052
309.778	14631
309.783	14313
309.837	11486
309.868	10099
309.892	11461
309.946	16345
309.959	18207
310.001	22046
310.049	25175
310.055	24569
310.109	15593
310.139	10265
310.163	8153
310.218	5591
310.229	5230
310.272	4759
310.319	5016
310.326	4901
310.381	3811
310.409	3549
310.435	3646
310.489	3792
310.499	3846
310.543	4107
310.589	4440
310.598	4415
310.652	4401
310.679	4256
310.706	3819
310.760	3020
310.769	2909
310.814	2373
310.859	2025
310.868	2076
310.923	2289
310.948	2454
310.977	2566
311.031	2945
311.038	3014
311.085	2855
311.128	2523
311.139	2523
311.193	2697
311.218	2742
311.247	2591
311.301	2356
311.308	2356
311.356	2089
311.398	1842
311.410	1844
311.464	1810
311.488	1874
311.518	1892
311.572	1841
311.578	1858
311.626	2878
311.668	3845
311.680	3854
311.734	3853
311.758	3876
311.788	3926
311.842	4006
311.847	4030
311.896	5159
311.937	6259
311.950	5920
312.004	4449
312.027	3798
312.058	3249
312.112	2371
312.117	2306
312.165	2295
312.207	2333
312.297	3275
312.386	2586
312.476	2867
312.566	4600
312.656	2336
312.745	1955
312.835	2444
312.925	2618
313.015	3041
313.104	3838
313.194	1981
313.284	1826
313.374	1859
313.463	2680
313.553	2931
313.643	1904
313.732	1360
313.822	2345
313.912	3185
314.001	3008
314.091	3085
314.180	4036
314.270	3187
314.360	4254
314.449	3511
314.539	2009
314.628	2601
314.718	3120
314.808	4103
314.897	3272
314.987	3389
315.076	4010
315.166	4370
315.255	4253
315.345	4524
315.434	4321
315.524	4322
315.613	5003
315.703	8865
315.792	25800
315.881	90778
315.971	21750
316.060	10547
316.150	14249
316.239	13132
316.328	5319
316.418	3582
316.507	3196
316.597	3488
316.686	3083
316.775	8307
316.865	14805
316.954	3644
317.043	3239
317.133	2155
317.222	2504
317.311	2713
317.400	1309
317.490	4756
317.579	5181
317.668	5471
317.757	10894
317.847	48308
317.936	141863
318.025	33166
318.114	29631
318.203	11247
318.293	7250
318.382	11238
318.471	9102
318.560	14302
318.649	29939
318.738	6218
318.828	4475
318.917	3544
319.006	6488
319.095	17363
319.184	38614
319.273	13787
319.362	6460
319.451	2551
319.540	3024
319.629	5537
319.718	7968
319.807	4854
319.896	13636
319.985	45953
320.074	10793
320.163	5325
320.252	9122
320.341	7330
320.430	4463
320.519	5219
320.608	3173
320.697	3559
320.786	3973
320.875	4642
320.964	4834
321.053	6565
321.142	8902
321.230	9456
321.319	9837
321.408	17958
321.497	9435
321.586	8584
321.675	13877
321.764	10967
321.852	7707
321.941	9686
322.030	6493
322.119	9144
322.207	19453
322.296	19372
322.385	10992
322.474	11238
322.562	21311
322.651	11417
322.740	11416
322.829	16602
322.917	18697
323.006	7995
323.095	7176
323.183	7319
323.272	8926
323.361	21199
323.449	61665
323.538	18488
323.626	47335
323.715	21953
323.804	12141
323.892	39396
323.981	14534
324.069	7010
324.158	25363
324.246	15702
324.335	5416
324.424	6218
324.512	2357
324.601	3072
324.689	4568
324.778	9838
324.866	14260
324.954	2702
325.043	4272
325.131	7833
325.220	16987
325.308	16938
325.397	13446
325.485	6179
325.574	3152
325.662	1919
325.750	2427
325.839	2916
325.927	2645
326.015	4474
326.104	8397
326.192	8727
326.280	2090
326.369	2016
326.457	2471
326.545	4173
326.634	2294
326.722	1530
326.810	2078
326.898	2679
326.987	2874
327.075	4296
327.163	6811
327.251	3601
327.340	4605
327.428	3685
327.516	3480
327.604	2814
327.692	2754
327.781	4611
327.869	6540
327.957	3498
328.045	2407
328.133	2301
328.221	3212
328.309	2568
328.397	1974
328.485	2802
328.574	4906
328.662	10802
328.750	7667
328.838	4066
328.926	2578
329.014	1593
329.102	2216
329.190	8440
329.278	3699
329.366	1615
329.454	1473
329.542	2094
329.630	1437
329.718	1450
329.806	1998
329.893	2791
329.981	2678
330.069	4564
330.157	18888
330.245	46788
330.333	19969
330.421	4425
330.509	4144
330.597	10751
330.684	6861
330.772	4363
330.860	6798
330.948	8067
331.036	1878
331.123	1417
331.211	2626
331.299	3348
331.387	7799
331.475	11218
331.562	3944
331.650	2122
331.738	3306
331.825	3737
331.913	1550
332.001	2363
332.089	3571
332.176	8099
332.264	21809
332.352	11656
332.439	3264
332.527	2849
332.614	2328
332.702	3102
332.790	2681
332.877	9259
332.965	16855
333.052	3296
333.140	4305
333.228	6763
333.315	1792
333.403	3015
333.490	12368
333.578	7032
333.665	6000
333.753	3054
333.840	2432
333.928	4110
334.015	13614
334.103	22464
334.190	55044
334.278	11922
334.365	9831
334.452	7869
334.540	4658
334.627	6591
334.715	8752
334.802	19064
334.889	91465
334.977	72360
335.064	14240
335.151	6447
335.239	5574
335.326	6885
335.413	29845
335.501	29241
335.588	5373
335.675	3693
335.762	6368
335.850	9877
335.937	10442
336.024	29703
336.111	91462
336.199	37471
336.286	9865
336.373	5934
336.460	3984
336.547	3775
336.635	3975
336.722	3175
336.809	2858
336.896	4623
336.983	16030
337.070	37815
337.157	51358
337.245	51674
337.332	27576
337.419	4530
337.506	2550
337.593	3461
337.680	14881
337.767	31957
337.854	8761
337.941	10114
338.028	13573
338.115	4436
338.202	6830
338.289	15627
338.376	46377
338.463	12183
338.550	22987
338.637	18550
338.724	10763
338.811	13949
338.898	2157
338.984	1474
339.071	2685
339.158	3303
339.245	6471
339.332	4103
339.419	10550
339.506	7280
339.593	1381
339.679	1890
339.766	896
339.853	2746
339.940	3320
340.027	1620
340.113	2706
340.200	2453
340.287	1999
340.374	2878
340.460	3388
340.547	770
340.634	3982
340.720	11079
340.807	4761
340.894	2014
340.980	2566
341.067	1021
341.154	2373
341.240	2119
341.327	4655
341.414	2556
341.500	1206
341.587	2263
341.674	2500
341.760	4346
341.847	3952
341.933	985
342.020	1336
342.106	1370
342.193	1977
342.279	2733
342.366	2383
342.452	3184
342.539	1830
342.625	4816
342.712	10099
342.798	4407
342.885	1683
342.971	649
343.058	1149
343.144	720
343.230	1336
343.317	1440
343.403	831
343.490	735
343.576	340
343.662	1311
343.749	1403
343.835	2950
343.921	6008
344.008	36729
344.094	62734
344.180	12064
344.267	4929
344.353	18110
344.439	17433
344.525	5426
344.612	2843
344.698	1528
344.784	1671
344.870	1279
344.957	1690
345.043	2914
345.129	1895
345.215	2668
345.301	1463
345.387	1514
345.474	1324
345.560	1705
345.646	1332
345.732	1767
345.818	1069
345.904	1383
345.990	2322
346.076	3529
346.162	5032
346.249	1925
346.335	1409
346.421	2618
346.507	9507
346.593	22040
346.679	3625
346.765	3467
346.851	2116
346.937	2008
347.023	1984
347.108	1933
347.194	827
347.280	1610
347.366	3148
347.452	11219
347.538	30490
347.624	20254
347.710	14978
347.796	2896
347.882	1861
347.967	1145
348.053	3165
348.139	1788
348.225	1488
348.311	869
348.397	1190
348.482	1906
348.568	2007
348.654	1971
348.740	6126
348.825	5298
348.911	5191
348.997	15154
349.083	25673
349.168	4341
349.254	2425
349.340	1539
349.425	1018
349.511	1541
349.597	2763
349.682	4333
349.768	13045
349.854	5510
349.939	2043
350.025	960
350.110	1401
350.196	1943
350.282	-32
350.367	1837
350.453	4600
350.538	3352
350.624	1814
350.709	2280
350.795	736
350.880	951
350.966	1711
351.051	4413
351.137	3105
351.222	1839
351.308	5627
351.393	9627
351.479	2202
351.564	1066
351.649	2132
351.735	1460
351.820	794
351.906	1662
351.991	3039
352.076	7939
352.162	9496
352.247	2255
352.332	1237
352.418	1595
352.503	4019
352.588	16123
352.673	9862
352.759	1648
352.844	1803
352.929	1190
353.014	1428
353.100	3031
353.185	5642
353.270	4663
353.355	3603
353.441	2252
353.526	3003
353.611	4321
353.696	3684
353.781	3189
353.866	241
353.952	1624
354.037	3542
354.122	7913
354.207	5746
354.292	1748
354.377	1830
354.462	1385
354.547	2141
354.632	2640
354.717	4646
354.802	7367
354.887	2582
354.972	1505
355.057	970
355.142	1442
355.227	1940
355.312	2257
355.397	5490
355.482	10981
355.567	4864
355.652	5139
355.737	5232
355.822	17177
355.907	11073
355.991	3161
356.076	1090
356.161	2259
356.246	1347
356.331	2204
356.416	5979
356.501	36981
356.585	28191
356.670	2737
356.755	4546
356.840	6006
356.924	31579
357.009	79865
357.094	21903
357.179	4454
357.263	4076
357.348	3888
357.433	3545
357.517	3304
357.602	2381
357.687	1304
357.771	5660
357.856	10978
357.941	6849
358.025	23045
358.110	82026
358.195	28989
358.279	3544
358.364	3075
358.448	12979
358.533	27223
358.617	19141
358.702	20250
358.787	6236
358.871	4482
358.956	2841
359.040	1002
359.125	1779
359.209	2270
359.294	5927
359.378	8703
359.462	4859
359.547	2894
359.631	1816
359.716	1084
359.800	955
359.885	3818
359.969	902
360.053	3101
360.138	1367
360.222	1716
360.306	3432
360.391	2930
360.475	6328
360.559	11114
360.644	10641
360.728	7602
360.812	23327
360.896	47459
360.981	17767
361.065	8200
361.149	3841
361.233	2293
361.318	2125
361.402	2912
361.486	2617
361.570	1032
361.654	3311
361.739	7109
361.823	35296
361.907	45633
361.991	6797
362.075	5519
362.159	8619
362.243	9358
362.327	16460
362.411	25585
362.495	10655
362.580	4341
362.664	3551
362.748	4049
362.832	6853
362.916	14216
363.000	47124
363.084	90575
363.168	66853
363.252	14766
363.336	6704
363.420	10436
363.503	38063
363.587	36139
363.671	5968
363.755	3775
363.839	5964
363.923	2514
364.007	6898
364.091	9886
364.175	20895
364.258	66383
364.342	66745
364.426	103758
364.510	48180
364.594	16159
364.677	15636
364.761	45360
364.845	27803
364.929	7283
365.013	5949
365.096	5619
365.180	5063
365.264	20064
365.347	55769
365.431	19644
365.515	4256
365.598	1509
365.682	3369
365.766	5221
365.849	6537
365.933	2953
366.017	5347
366.100	2896
366.184	1535
366.267	2364
366.351	1543
366.435	993
366.518	888
366.602	1051
366.685	1634
366.769	1752
366.852	4163
366.936	6051
367.019	3070
367.103	3902
367.186	7516
367.270	1948
367.353	620
367.436	2171
367.520	1261
367.603	2216
367.687	2556
367.770	3767
367.853	4136
367.937	12626
368.020	16336
368.104	2998
368.187	3799
368.270	4903
368.353	4168
368.437	12853
368.520	30411
368.603	13333
368.687	12624
368.770	19524
368.853	5114
368.936	6218
369.020	5707
369.103	1605
369.186	1260
369.269	1508
369.352	3679
369.436	4243
369.519	2575
369.602	483
369.685	3208
369.768	1057
369.851	2363
369.934	1439
370.018	1903
370.101	2948
370.184	5558
370.267	3295
370.350	5228
370.433	9178
370.516	29169
370.599	51110
370.682	16763
370.765	12125
370.848	16883
370.931	27234
371.014	11042
371.097	828
371.180	1540
371.263	1856
371.346	-125
371.429	1565
371.511	1185
371.594	3207
371.677	4998
371.760	7968
371.843	5830
371.926	32006
372.009	59339
372.091	16927
372.174	14108
372.257	28965
372.340	10012
372.423	8821
372.505	11631
372.588	3503
372.671	11269
372.754	26866
372.836	13165
372.919	17966
373.002	28008
373.085	6795
373.167	5207
373.250	12476
373.332	27867
373.415	49113
373.498	85887
373.580	36958
373.663	86791
373.746	84501
373.828	12613
373.911	6608
373.993	7904
374.076	33893
374.159	25179
374.241	10414
374.324	22842
374.406	15088
374.489	30694
374.571	67888
374.654	22918
374.736	15950
374.819	44812
374.901	65925
374.983	59285
375.066	9879
375.148	7668
375.231	29231
375.313	46073
375.395	13558
375.478	3652
375.560	2887
375.643	5181
375.725	18134
375.807	59113
375.890	50173
375.972	23777
376.054	14319
376.136	24933
376.219	9326
376.301	18768
376.383	42965
376.465	14374
376.548	7719
376.630	12918
376.712	35342
376.794	13063
376.877	2842
376.959	713
377.041	2821
377.123	4778
377.205	6715
377.287	905
377.369	1855
377.452	1321
377.534	1675
377.616	1522
377.698	1509
377.780	133
377.862	1769
377.944	1778
378.026	492
378.108	2107
378.190	1133
378.272	1454
378.354	1610
378.436	761
378.518	2977
378.600	11424
378.682	8777
378.764	14861
378.846	10675
378.928	3388
379.010	3195
379.091	2736
379.173	1902
379.255	1354
379.337	1993
379.419	8971
379.501	22177
379.583	7610
379.664	2498
379.746	5469
379.828	15042
379.910	18830
379.991	15812
380.073	2444
380.155	2414
380.237	952
380.318	1894
380.400	1136
380.482	3649
380.564	5718
380.645	6350
380.727	5415
380.809	3219
380.890	1953
380.972	1331
381.053	1339
381.135	2852
381.217	4845
381.298	15526
381.380	6823
381.461	9458
381.543	39508
381.624	39401
381.706	7258
381.787	3662
381.869	5990
381.951	22809
382.032	68864
382.113	36623
382.195	5582
382.276	6880
382.358	15112
382.439	31595
382.521	42162
382.602	60380
382.684	25349
382.765	40997
382.846	36286
382.928	38154
383.009	19052
383.090	18704
383.172	65095
383.253	83894
383.334	35130
383.416	50341
383.497	21430
383.578	7987
383.659	17347
383.741	63798
383.822	138766
383.903	61796
383.984	31173
384.066	54305
384.147	28403
384.228	6842
384.309	5522
384.390	4191
384.471	3314
384.553	4010
384.634	4168
384.715	5312
384.796	3175
384.877	4193
384.958	14655
385.039	13939
385.120	4914
385.201	4399
385.282	5362
385.363	5864
385.444	4444
385.525	9105
385.606	26659
385.687	21332
385.768	6085
385.849	7838
385.930	36419
386.011	51412
386.092	11939
386.173	4311
386.254	3978
386.335	4269
386.416	3879
386.496	10067
386.577	14499
386.658	7746
386.739	4699
386.820	5853
386.901	4213
386.981	4519
387.062	3675
387.143	7079
387.224	16577
387.304	14914
387.385	7957
387.466	5609
387.547	7822
387.627	5754
387.708	10607
387.789	30840
387.869	33205
387.950	10435
388.031	4424
388.111	2769
388.192	10196
388.273	13294
388.353	6556
388.434	4056
388.514	8092
388.595	32965
388.676	34873
388.756	14725
388.837	13132
388.917	6691
388.998	842
389.078	3026
389.159	3018
389.239	869
389.320	4362
389.400	1694
389.480	7920
389.561	16063
389.641	8335
389.722	3179
389.802	3990
389.883	9769
389.963	20803
390.043	13841
390.124	5127
390.204	7575
390.284	16562
390.365	11092
390.445	25463
390.525	51398
390.605	33637
390.686	8035
390.766	4743
390.846	3749
390.927	1867
391.007	1954
391.087	4468
391.167	4097
391.247	1979
391.328	6730
391.408	8571
391.488	4854
391.568	1765
391.648	3379
391.728	4388
391.808	4264
391.888	4572
391.969	11361
392.049	15069
392.129	9624
392.209	12264
392.289	21897
392.369	14487
392.449	16255
392.529	10629
392.609	10229
392.689	13906
392.769	27430
392.849	24703
392.929	29001
393.009	48863
393.089	50293
393.169	87944
393.248	271524
393.328	631316
393.408	605366
393.488	218968
393.568	71664
393.648	34983
393.728	21542
393.807	14861
393.887	12475
393.967	10771
394.047	9571
394.127	10463
394.206	16230
394.286	58174
394.366	198863
394.446	175965
394.525	36718
394.605	11384
394.685	11294
394.764	22673
394.844	35175
394.924	24733
395.003	7734
395.083	5200
395.163	4730
395.242	4480
395.322	5586
395.402	3470
395.481	7747
395.561	17519
395.640	40883
395.720	40141
395.799	47135
395.879	30832
395.958	20842
396.038	79997
396.117	258391
396.197	240125
396.276	64323
396.356	24819
396.435	22792
396.515	21275
396.594	29806
396.673	72593
396.753	264000
396.832	559540
396.912	386952
396.991	96916
397.070	33351
397.150	17008
397.229	14386
397.308	21777
397.388	33518
397.467	16404
397.546	6999
397.625	3539
397.705	5798
397.784	4250
397.863	3784
397.942	3847
398.022	4523
398.101	15154
398.180	34550
398.259	17596
398.338	4982
398.417	2555
398.497	2400
398.576	3813
398.655	1806
398.734	3526
398.813	3681
398.892	14744
398.971	38337
399.050	15624
399.129	1547
399.208	1650
399.287	2607
399.366	1207
399.445	1289
399.524	2289
399.603	268
399.682	3703
399.761	12698
399.840	41816
399.919	28332
399.998	3205
400.077	495
400.156	787
400.235	3863
400.313	403
400.392	1864
400.471	8294
400.550	10929
400.629	2170
400.708	2602
400.786	2511
400.865	7718
400.944	5665
401.023	3408
401.102	310
401.180	1376
401.259	434
401.338	760
401.416	2608
401.495	1434
401.574	1156
401.652	1078
401.731	2217
401.810	1306
401.888	1041
401.967	247
402.046	1042
402.124	2794
402.203	1119
402.281	1541
402.360	3026
402.438	9499
402.517	4632
402.596	2203
402.674	1991
402.753	786
402.831	970
402.910	2564
402.988	12696
403.066	38077
403.145	20752
403.223	13433
403.302	30628
403.380	23371
403.459	22373
403.537	9131
403.615	3319
403.694	-247
403.772	1230
403.850	772
403.929	190
404.007	640
404.085	5440
404.164	4751
404.242	1229
404.320	3504
404.398	10874
404.477	16157
404.555	48789
404.633	36774
404.711	9626
404.789	4046
404.868	2470
404.946	940
405.024	533
405.102	-14
405.180	-184
405.258	-666
405.336	1656
405.415	333
405.493	3581
405.571	3890
405.649	301
405.727	439
405.805	2972
405.883	1816
405.961	1823
406.039	1569
406.117	-35
406.195	2237
406.273	11655
406.351	37017
406.429	19599
406.507	2868
406.585	812
406.663	1589
406.740	1161
406.818	755
406.896	558
406.974	1882
407.052	3374
407.130	21502
407.208	25189
407.285	4803
407.363	68
407.441	1313
407.519	1482
407.596	3152
407.674	19860
407.752	68960
407.830	49891
407.907	9641
407.985	1830
408.063	1119
408.141	994
408.218	2770
408.296	2433
408.373	1275
408.451	1767
408.529	16
408.606	847
408.684	58
408.762	1083
408.839	209
408.917	737
408.994	566
409.072	678
409.149	1179
409.227	3971
409.304	4887
409.382	4675
409.459	5309
409.537	8981
409.614	6716
409.692	4764
409.769	4537
409.846	8253
409.924	11675
410.001	5016
410.079	3860
410.156	3229
410.233	2644
410.311	2014
410.388	1456
410.465	2355
410.543	1541
410.620	1109
410.697	1702
410.775	1453
410.852	415
410.929	2143
411.006	2636
411.083	1694
411.161	2347
411.238	3446
411.315	2018
411.392	109
411.469	1571
411.547	1291
411.624	-816
411.701	521
411.778	950
411.855	2382
411.932	41
412.009	-20
412.086	622
412.163	653
412.240	356
412.317	2539
412.394	1168
412.471	786
412.548	-513
412.625	919
412.702	1278
412.779	2451
412.856	1203
412.933	-22
413.010	1169
413.087	2170
413.164	5420
413.241	7587
413.318	928
413.395	1786
413.471	1452
413.548	1232
413.625	1195
413.702	140
413.779	707
413.855	-384
413.932	-549
414.009	-217
414.086	218
414.162	224
414.239	1217
414.316	7465
414.393	13773
414.469	2898
414.546	-7
414.623	-58
414.699	279
414.776	-227
414.853	-367
414.929	-146
415.006	625
415.082	450
415.159	432
415.236	38
415.312	-114
415.389	940
415.465	1340
415.542	1325
415.618	-572
415.695	1672
415.771	-127
415.848	561
415.924	595
416.000	-147
416.077	370
416.153	-1011
416.230	-1247
416.306	-265
416.383	-312
416.459	1102
416.535	-252
416.612	-639
416.688	-59
416.764	125
416.841	-523
416.917	-59
416.993	383
417.069	954
417.146	1283
417.222	839
417.298	243
417.374	-346
417.451	-443
417.527	-269
417.603	540
417.679	-254
417.755	126
417.831	-608
417.908	9
417.984	61
418.060	-448
418.136	1789
418.212	1430
418.288	371
418.364	1172
418.440	-997
418.516	1685
418.592	1982
418.668	3307
418.744	3507
418.820	2555
418.896	528
418.972	-490
419.048	373
419.124	2419
419.200	266
419.276	777
419.352	-233
419.428	594
419.504	242
419.579	1026
419.655	-41
419.731	-125
419.807	2616
419.883	4328
419.959	3113
420.034	1528
420.110	2955
420.186	7855
420.262	6420
420.337	1325
420.413	1332
420.489	868
420.565	1521
420.640	1048
420.716	1232
420.792	-20
420.867	1948
420.943	403
421.019	1804
421.094	999
421.170	1327
421.245	1074
421.321	1407
421.397	2782
421.472	15756
421.548	41134
421.623	20996
421.699	5075
421.774	3563
421.850	2963
421.925	5150
422.001	6339
422.076	6595
422.152	8205
422.227	12396
422.302	18589
422.378	27890
422.453	51232
422.529	113224
422.604	227792
422.679	276292
422.755	208130
422.830	104462
422.905	49679
422.981	28130
423.056	17794
423.131	14424
423.207	10616
423.282	7408
423.357	8042
423.432	5785
423.508	5224
423.583	7395
423.658	4805
423.733	3646
423.808	3044
423.883	3975
423.959	3363
424.034	3989
424.109	3881
424.184	1635
424.259	1669
424.334	1562
424.409	851
424.484	666
424.559	1118
424.634	1482
424.709	1307
424.784	1879
424.859	667
424.934	1268
425.009	6967
425.084	9603
425.159	2227
425.234	1509
425.309	-41
425.384	3028
425.459	3002
425.534	1748
425.609	448
425.683	843
425.758	-505
425.833	442
425.908	1745
425.983	3961
426.058	9767
426.132	3177
426.207	1231
426.282	3575
426.357	850
426.431	609
426.506	1458
426.581	587
426.655	577
426.730	-204
426.805	-522
426.879	1102
426.954	863
427.029	2277
427.103	12960
427.178	28705
427.253	10559
427.327	1683
427.402	3046
427.476	6190
427.551	2415
427.625	1942
427.700	1340
427.774	508
427.849	541
427.923	550
427.998	996
428.072	844
428.147	5642
428.221	29045
428.296	76557
428.370	37402
428.444	5584
428.519	3833
428.593	6706
428.667	6815
428.742	8057
428.816	12628
428.890	52963
428.965	71287
429.039	20020
429.113	8803
429.188	2827
429.262	852
429.336	1713
429.410	5609
429.485	4110
429.559	7376
429.633	4229
429.707	2433
429.781	11185
429.855	54039
429.930	69502
430.004	31368
430.078	39910
430.152	47342
430.226	106583
430.300	92445
430.374	16093
430.448	5798
430.522	15407
430.596	35800
430.670	27837
430.744	72444
430.818	77657
430.892	13106
430.966	1995
431.040	1376
431.114	9
431.188	167
431.262	497
431.336	911
431.410	3726
431.484	7210
431.557	4810
431.631	1171
431.705	3138
431.779	20176
431.853	72770
431.927	43941
432.000	5442
432.074	1709
432.148	1395
432.222	241
432.295	-458
432.369	109
432.443	1726
432.516	15011
432.590	29754
432.664	10223
432.737	1050
432.811	-660
432.885	-532
432.958	602
433.032	-584
433.106	-919
433.179	-448
433.253	-373
433.326	-607
433.400	-362
433.473	-84
433.547	-611
433.620	259
433.694	-59
433.767	1071
433.841	-83
433.914	-332
433.988	-644
434.061	94
434.134	-447
434.208	-644
434.281	-1131
434.355	-1148
434.428	-392
434.501	-370
434.575	-622
434.648	121
434.721	171
434.795	-521
434.868	-781
434.941	-813
435.014	-70
435.088	-292
435.161	-28
435.234	150
435.307	833
435.381	1133
435.454	2158
435.527	3592
435.600	4183
435.673	2514
435.746	1375
435.819	1089
435.892	813
435.966	560
436.039	-38
436.112	712
436.185	-342
436.258	-180
436.331	-1055
436.404	-946
436.477	-670
436.550	7
436.623	115
436.696	-378
436.769	-109
436.842	-897
436.915	-95
436.987	960
437.060	-402
437.133	-752
437.206	-516
437.279	-25
437.352	-381
437.425	-1037
437.498	103
437.570	790
437.643	-43
437.716	-248
437.789	10
437.861	971
437.934	2705
438.007	1271
438.080	-882
438.152	537
438.225	3771
438.298	21129
438.370	46534
438.443	16765
438.516	2585
438.588	262
438.661	-591
438.734	228
438.806	-156
438.879	290
438.951	427
439.024	1166
439.096	-120
439.169	374
439.241	-376
439.314	-584
439.386	956
439.459	2307
439.531	2549
439.604	-156
439.676	-281
439.749	-1061
439.821	-406
439.893	104
439.966	397
440.038	21
440.110	100
440.183	-413
440.255	-88
440.327	1050
440.400	8402
440.472	26660
440.544	14919
440.617	2027
440.689	1708
440.761	1400
440.833	2850
440.905	1435
440.978	470
441.050	-456
441.122	-165
441.194	83
441.266	-298
441.338	-249
441.411	1554
441.483	7870
441.555	9976
441.627	1810
441.699	1578
441.771	781
441.843	259
441.915	-229
441.987	255
442.059	-357
442.131	1329
442.203	3012
442.275	2750
442.347	4198
442.419	10083
442.491	52632
442.563	106352
442.635	43097
442.706	14868
442.778	8614
442.850	2458
442.922	2063
442.994	2031
443.066	2559
443.137	3329
443.209	3559
443.281	6688
443.353	15774
443.425	64861
443.496	185136
443.568	172954
443.640	67173
443.711	14888
443.783	5452
443.855	3949
443.926	2080
443.998	1955
444.070	2601
444.141	1820
444.213	1399
444.285	1778
444.356	2119
444.428	2415
444.499	1114
444.571	731
444.642	324
444.714	900
444.785	1515
444.857	3645
444.928	7742
445.000	5538
445.071	7159
445.143	8962
445.214	7873
445.285	14482
445.357	39979
445.428	131882
445.500	236951
445.571	163025
445.642	98013
445.714	37564
445.785	18429
445.856	6823
445.928	5506
445.999	2560
446.070	1851
446.141	2528
446.213	3242
446.284	920
446.355	2215
446.426	1595
446.497	1315
446.569	2363
446.640	2629
446.711	840
446.782	586
446.853	2723
446.924	978
446.995	1197
447.066	1176
447.138	2230
447.209	1664
447.280	-43
447.351	-193
447.422	-910
447.493	877
447.564	937
447.635	871
447.706	-228
447.777	-883
447.847	-323
447.918	-34
447.989	641
448.060	1620
448.131	4408
448.202	2711
448.273	2049
448.344	780
448.414	-280
448.485	67
448.556	219
448.627	-774
448.698	486
448.768	-196
448.839	895
448.910	2068
448.981	1962
449.051	-263
449.122	-890
449.193	-4
449.263	-497
449.334	-747
449.405	708
449.475	1561
449.546	1580
449.616	2568
449.687	2452
449.758	445
449.828	-9
449.899	-215
449.969	-723
450.040	209
450.110	1165
450.181	803
450.251	381
450.322	254
450.392	867
450.463	507
450.533	224
450.604	787
450.674	888
450.744	733
450.815	96
450.885	438
450.955	1094
451.026	443
451.096	261
451.166	1421
451.237	3799
451.307	8886
451.377	3359
451.447	346
451.518	836
451.588	465
451.658	708
451.728	1639
451.799	8924
451.869	8958
451.939	1476
452.009	-107
452.079	40
452.149	1393
452.219	2967
452.289	10572
452.360	7327
452.430	1383
452.500	1387
452.570	2426
452.640	6699
452.710	16264
452.780	20096
452.850	11576
452.920	6450
452.990	3166
453.060	2196
453.129	1453
453.199	2860
453.269	15616
453.339	26772
453.409	37969
453.479	40863
453.549	57408
453.619	57396
453.688	21378
453.758	3800
453.828	1361
453.898	776
453.968	1245
454.037	531
454.087	622
454.107	618
454.168	538
454.177	477
454.247	452
454.249	542
454.316	1458
454.330	1681
454.386	1819
454.411	3821
454.456	6203
454.492	6793
454.525	7294
454.574	4511
454.595	3419
454.655	1736
454.665	1518
454.734	3329
454.736	3599
454.804	6288
454.817	8439
454.873	13762
454.898	13454
454.943	12584
454.979	8582
455.013	5784
455.060	4522
455.082	4471
455.141	8173
455.152	8657
455.221	17097
455.222	17577
455.291	24559
455.303	25668
455.360	28881
455.384	35892
455.430	42130
455.465	31988
455.499	23894
455.546	18608
455.569	15271
455.627	8543
455.638	7716
455.707	2991
455.708	3034
455.777	2216
455.789	2330
455.846	2425
455.869	2508
455.916	2739
455.950	3043
455.985	3017
456.031	2379
456.054	2070
456.112	2538
456.124	2661
456.193	3361
456.193	3314
456.262	3932
456.274	4230
456.332	4827
456.355	5114
456.401	4853
456.436	3770
456.470	2934
456.516	2581
456.540	2500
456.597	3052
456.609	3069
456.678	3314
456.678	3281
456.747	2846
456.759	2969
456.817	3190
456.840	3304
456.886	3573
456.920	3708
456.955	3997
457.001	4441
457.024	4762
457.082	6095
457.093	6328
457.162	8040
457.163	8114
457.232	7418
457.243	7122
457.301	5940
457.324	5423
457.370	5124
457.405	5349
457.439	5520
457.485	6264
457.508	6818
457.566	8465
457.577	9077
457.646	12388
457.647	12508
457.715	25675
457.727	28426
457.784	44165
457.808	53636
457.853	61096
457.889	66168
457.922	62183
457.969	49413
457.991	54093
458.050	69131
458.060	72141
458.129	107973
458.130	109192
458.198	83543
458.211	74847
458.267	46581
458.292	33861
458.336	29092
458.372	29418
458.405	41925
458.453	63343
458.474	76891
458.533	123281
458.543	125151
458.611	154709
458.614	155640
458.680	85634
458.694	67004
458.749	38000
458.775	27248
458.818	18267
458.855	15040
458.887	13477
458.936	11362
458.955	10811
459.016	10255
459.024	10176
459.093	9727
459.097	9743
459.162	9405
459.177	9338
459.230	9531
459.257	9813
459.299	10064
459.338	10437
459.368	10523
459.418	10518
459.437	10062
459.499	8664
459.505	8624
459.574	8427
459.579	8404
459.643	7825
459.659	7939
459.711	8815
459.740	8933
459.780	9117
459.820	9558
459.849	9979
459.900	11318
459.917	11003
459.981	9203
459.986	9173
460.054	9047
460.061	9055
460.123	9522
460.141	9830
460.191	11118
460.222	11609
460.260	11861
460.302	12739
460.328	12560
460.382	11922
460.397	12575
460.462	15006
460.465	15750
460.534	34203
460.543	36629
460.602	80270
460.623	96539
460.671	142766
460.703	180606
460.739	141371
460.783	84374
460.808	70409
460.864	22090
460.876	18870
460.944	12672
460.945	12583
461.013	10735
461.024	10444
461.081	10166
461.104	10386
461.150	10563
461.184	10356
461.218	10343
461.264	10606
461.286	10584
461.345	10444
461.355	10555
461.423	11274
461.425	11293
461.491	13837
461.505	14462
461.559	26737
461.585	32518
461.628	46443
461.665	59391
461.696	58911
461.745	59129
461.764	49593
461.825	14719
461.832	14581
461.901	13208
461.905	13236
461.969	11182
461.985	10795
462.037	11865
462.065	12328
462.105	15409
462.145	18615
462.173	23974
462.225	33949
462.241	36865
462.305	49760
462.310	48039
462.378	19797
462.385	16501
462.446	13325
462.465	12606
462.514	12621
462.545	12739
462.582	12713
462.625	12440
462.650	12378
462.705	12442
462.718	13151
462.785	16843
462.786	16939
462.854	22353
462.865	23248
462.922	24970
462.945	25579
462.990	18725
463.025	13065
463.058	12695
463.104	12369
463.126	12274
463.184	12148
463.194	12278
463.262	12872
463.264	12902
463.330	14117
463.344	14303
463.398	15668
463.424	16300
463.466	15942
463.504	15671
463.533	15541
463.583	15124
463.601	15693
463.663	17356
463.669	17871
463.737	24362
463.743	24925
463.805	39305
463.823	43373
463.873	63865
463.903	76649
463.940	73058
463.982	69001
464.008	53860
464.062	20265
464.076	19282
464.142	14181
464.144	14164
464.211	14103
464.221	14077
464.279	15002
464.301	15306
464.347	17472
464.381	19089
464.414	20866
464.461	23376
464.482	23300
464.540	23057
464.550	22410
464.617	17150
464.620	16953
464.685	17771
464.699	17929
464.753	21255
464.779	22833
464.820	24492
464.859	26075
464.888	26395
464.938	26752
464.956	26618
465.018	25967
465.023	25695
465.091	21342
465.098	20882
465.158	21244
465.177	21323
465.226	21482
465.257	21476
465.293	21655
465.336	21892
465.361	23696
465.416	27607
465.428	30383
465.495	45055
465.496	45301
465.563	71761
465.575	76254
465.631	80908
465.654	82833
465.698	51068
465.734	24064
465.765	22683
465.813	20655
465.833	20971
465.893	22249
465.900	22212
465.968	21559
465.972	21466
466.035	22681
466.052	22972
466.102	22790
466.131	22597
466.170	23130
466.210	23660
466.237	24066
466.290	24700
466.304	25121
466.369	26686
466.372	26735
466.439	26703
466.449	26633
466.506	30685
466.528	32196
466.573	47793
466.607	59309
466.641	77518
466.687	102674
466.708	107314
466.766	119473
466.775	110342
466.842	39774
466.845	36344
466.909	32328
466.925	31356
466.977	31631
467.004	31692
467.044	32619
467.083	33426
467.111	35357
467.163	38794
467.178	39174
467.242	40318
467.245	40290
467.312	37949
467.321	37557
467.379	38550
467.400	38791
467.446	42489
467.480	45007
467.559	36052
467.638	34005
467.717	32914
467.796	35765
467.875	37160
467.955	38314
468.034	67100
468.113	122317
468.192	157558
468.271	45217
468.350	46162
468.429	52183
468.508	48473
468.588	40604
468.667	36977
468.746	35506
468.825	32477
468.904	28315
468.983	35972
469.062	52812
469.141	55268
469.220	26703
469.299	27292
469.378	28533
469.456	32609
469.535	29425
469.614	29063
469.693	32282
469.772	40501
469.851	56633
469.930	31630
470.009	26857
470.088	25019
470.166	27421
470.245	30970
470.324	32628
470.403	29304
470.482	26955
470.560	25945
470.639	26524
470.718	29680
470.797	26155
470.875	34371
470.954	45959
471.033	43344
471.111	22975
471.190	21214
471.269	21667
471.347	22200
471.426	25143
471.505	27938
471.583	28460
471.662	25528
471.740	24434
471.819	24554
471.898	24247
471.976	22067
472.055	24667
472.133	31655
472.212	42497
472.290	36557
472.369	24506
472.447	23157
472.526	21996
472.604	23697
472.683	25293
472.761	24755
472.839	23554
472.918	22525
472.996	25469
473.075	28945
473.153	26309
473.231	23533
473.310	28506
473.388	24665
473.466	24784
473.545	25808
473.623	29351
473.701	27975
473.780	24079
473.858	24598
473.936	28310
474.014	24638
474.093	30655
474.171	48928
474.249	59885
474.327	30137
474.405	22026
474.484	21827
474.562	22769
474.640	22916
474.718	26424
474.796	25783
474.874	24348
474.952	20952
475.030	22887
475.108	25080
475.187	28011
475.265	31956
475.343	43820
475.421	42431
475.499	24613
475.577	27019
475.655	38655
475.733	73217
475.811	116831
475.889	103488
475.966	50375
476.044	26578
476.122	33646
476.200	40324
476.278	27660
476.356	21964
476.434	25609
476.512	30184
476.590	39738
476.667	29118
476.745	21318
476.823	22152
476.901	22505
476.979	24443
477.056	23048
477.134	23688
477.212	23255
477.290	21783
477.367	20938
477.445	20846
477.523	20912
477.601	20983
477.678	23214
477.756	29133
477.834	29972
477.911	20419
477.989	22478
478.066	21578
478.144	27711
478.222	32492
478.299	50160
478.377	40099
478.454	23972
478.532	20110
478.609	20785
478.687	21299
478.764	19596
478.842	20931
478.919	21484
478.997	20191
479.074	20154
479.152	25927
479.229	33231
479.307	19939
479.384	18348
479.461	19431
479.539	21451
479.616	25403
479.694	21281
479.771	25140
479.848	27102
479.926	36170
480.003	32106
480.080	19940
480.157	20406
480.235	19666
480.312	20910
480.389	26045
480.467	41650
480.544	46856
480.621	25311
480.698	24301
480.775	27985
480.853	27233
480.930	22880
481.007	25781
481.084	37511
481.161	47774
481.238	29436
481.315	21267
481.392	22116
481.470	22251
481.547	22709
481.624	21475
481.701	22298
481.778	23626
481.855	29122
481.932	43968
482.009	68410
482.086	36905
482.163	29058
482.240	42008
482.317	64272
482.393	39619
482.470	25085
482.547	25840
482.624	23141
482.701	24814
482.778	23756
482.855	21298
482.932	21895
483.009	21858
483.085	30620
483.162	39557
483.239	32856
483.316	24805
483.393	25125
483.469	24825
483.546	28737
483.623	28214
483.699	23416
483.776	24273
483.853	27636
483.930	45514
484.006	102411
484.083	144611
484.160	58883
484.236	77372
484.313	58638
484.389	49769
484.466	46348
484.543	47267
484.619	50797
484.696	52440
484.772	53490
484.849	53358
484.925	43344
485.002	42655
485.078	43806
485.155	43475
485.231	39876
485.308	40565
485.384	42917
485.461	59538
485.537	97456
485.614	93100
485.690	38728
485.766	37059
485.843	39713
485.919	46895
485.995	43841
486.072	34634
486.148	34632
486.224	34749
486.301	38600
486.377	44582
486.453	42613
486.530	41865
486.606	53080
486.682	59769
486.758	79242
486.835	86489
486.911	76369
486.987	117671
487.063	85734
487.139	93622
487.215	79255
487.292	53393
487.368	51828
487.444	61931
487.520	79145
487.596	98867
487.672	195238
487.748	463663
487.824	606975
487.900	209004
487.976	89892
488.052	67692
488.128	62942
488.204	49055
488.280	44684
488.356	62422
488.432	120717
488.508	146619
488.584	43764
488.660	35405
488.736	35219
488.812	36523
488.888	42744
488.964	51661
489.039	90240
489.115	113130
489.191	64140
489.267	38201
489.343	36457
489.418	31276
489.494	30732
489.570	29436
489.646	32801
489.722	31327
489.797	36560
489.873	68005
489.949	130752
490.024	76360
490.100	30498
490.176	31167
490.251	34274
490.327	38756
490.403	28700
490.478	27473
490.554	25603
490.629	26956
490.705	26831
490.781	30530
490.856	30229
490.932	30765
491.007	29523
491.083	30252
491.158	31489
491.234	50651
491.309	101089
491.385	74183
491.460	30486
491.536	32412
491.611	27115
491.686	28578
491.762	36313
491.837	60781
491.913	93664
491.988	127268
492.063	122841
492.139	59559
492.214	37761
492.289	23704
492.365	23552
492.440	27919
492.515	29883
492.590	28870
492.666	25331
492.741	39365
492.816	54594
492.891	27184
492.967	24479
493.042	23300
493.117	26233
493.192	30749
493.267	68172
493.342	186656
493.418	187209
493.493	29488
493.568	22702
493.643	23301
493.718	31566
493.793	42767
493.868	34457
493.943	21183
494.018	22425
494.093	23246
494.168	22149
494.243	19430
494.318	19434
494.393	20222
494.468	19310
494.543	19421
494.618	21918
494.693	21030
494.768	22229
494.842	20364
494.917	18936
494.992	19621
495.067	19362
495.142	20340
495.217	20580
495.292	21192
495.366	24170
495.441	27505
495.516	32124
495.591	46213
495.665	122762
495.740	212819
495.815	65978
495.890	29753
495.964	26602
496.039	30739
496.114	34356
496.188	45523
496.263	34834
496.338	28000
496.412	32444
496.487	34942
496.561	33914
496.636	33090
496.710	32552
496.785	37270
496.860	39553
496.934	28998
497.009	31902
497.083	31301
497.158	34018
497.232	41999
497.307	46853
497.381	41871
497.455	54801
497.530	66103
497.604	48179
497.679	56685
497.753	83011
497.827	90509
497.902	78701
497.976	97990
498.050	248887
498.125	678900
498.199	440546
498.273	96546
498.348	83384
498.422	74876
498.496	72557
498.570	64346
498.645	57906
498.719	55986
498.793	65434
498.867	88177
498.941	121514
499.016	337713
499.090	647370
499.164	130402
499.238	40778
499.312	37694
499.386	42924
499.460	39414
499.534	38840
499.609	46573
499.683	65600
499.757	61711
499.831	172530
499.905	510071
499.979	294250
500.053	74774
500.127	64751
500.201	41908
500.275	33470
500.349	33009
500.422	36664
500.496	49991
500.570	108816
500.644	310491
500.718	428065
500.792	60172
500.866	39165
500.940	47784
501.013	36456
501.087	37756
501.161	53578
501.235	78887
501.309	220174
501.382	498295
501.456	259289
501.530	99267
501.603	153865
501.677	42556
501.751	28294
501.825	38486
501.898	89196
501.972	205288
502.046	77574
502.119	40681
502.193	104899
502.266	206965
502.340	72336
502.413	118014
502.487	173840
502.561	85757
502.634	29942
502.708	25835
502.781	23100
502.855	20837
502.928	21110
503.002	21883
503.075	23274
503.149	25525
503.222	26536
503.295	28111
503.369	35625
503.442	57693
503.516	194330
503.589	371562
503.662	176670
503.736	89249
503.809	194311
503.882	132751
503.956	235119
504.029	187679
504.102	247365
504.175	279545
504.249	114908
504.322	64847
504.395	43681
504.468	32149
504.542	29411
504.615	21197
504.688	21361
504.761	19673
504.834	24189
504.907	24551
504.980	28810
505.053	21233
505.127	22323
505.200	30177
505.273	33485
505.346	19787
505.419	16867
505.492	17171
505.565	15040
505.638	15692
505.711	16654
505.784	15314
505.857	15883
505.930	18082
506.003	17104
506.076	20747
506.149	27136
506.221	27730
506.294	31626
506.367	99744
506.440	250042
506.513	73014
506.586	30593
506.659	16960
506.731	16414
506.804	20613
506.877	24708
506.950	18378
507.022	17836
507.095	25956
507.168	23971
507.241	15521
507.313	13921
507.386	15150
507.459	18165
507.531	13648
507.604	12866
507.677	13428
507.749	11930
507.822	18888
507.894	29399
507.967	27418
508.040	20272
508.112	19936
508.185	17989
508.257	16300
508.330	23828
508.402	18568
508.475	19382
508.547	20338
508.620	23521
508.692	34796
508.765	17713
508.837	14797
508.909	15927
508.982	16365
509.054	16828
509.127	15145
509.199	15432
509.271	15043
509.344	13968
509.416	15122
509.488	15621
509.560	15488
509.633	16712
509.705	17511
509.777	18817
509.849	21596
509.922	17206
509.994	15151
510.066	17276
510.138	19242
510.210	31093
510.283	25840
510.355	21065
510.427	19976
510.499	18447
510.571	18742
510.643	18713
510.715	26526
510.787	20435
510.859	21139
510.931	24203
511.003	25382
511.076	22672
511.148	18402
511.219	22260
511.291	39396
511.363	33701
511.435	18196
511.507	16335
511.579	17474
511.651	17920
511.723	16486
511.795	16688
511.867	17562
511.939	28217
512.010	53517
512.082	29427
512.154	16947
512.226	18543
512.298	26579
512.369	30553
512.441	24194
512.513	24103
512.585	19343
512.656	22623
512.728	21951
512.800	17904
512.871	19768
512.943	19467
513.015	15732
513.086	19613
513.158	19451
513.230	20296
513.301	25085
513.373	24304
513.444	17990
513.516	17483
513.588	17751
513.659	19233
513.731	20722
513.802	19970
513.874	36632
513.945	44388
514.016	18675
514.088	18782
514.159	18470
514.231	24849
514.302	27008
514.374	24241
514.445	28777
514.516	60388
514.588	31476
514.659	30403
514.730	49256
514.802	29618
514.873	27920
514.944	31199
515.016	26018
515.087	27802
515.158	43073
515.229	45893
515.301	33317
515.372	42155
515.443	28571
515.514	23792
515.585	20361
515.656	20572
515.728	18798
515.799	18552
515.870	19572
515.941	19999
516.012	20218
516.083	25664
516.154	24587
516.225	27742
516.296	26804
516.367	23824
516.438	25561
516.509	30175
516.580	45922
516.651	134642
516.722	317534
516.793	88691
516.864	41485
516.935	40228
517.006	43688
517.077	60433
517.148	136534
517.219	438301
517.289	453446
517.360	244565
517.431	58628
517.502	29423
517.573	29914
517.643	29908
517.714	31340
517.785	31644
517.856	33512
517.926	38935
517.997	39939
518.068	43517
518.138	54026
518.209	92917
518.280	344933
518.350	802801
518.421	188877
518.492	61180
518.562	59521
518.633	72532
518.703	99804
518.774	209103
518.845	412785
518.915	284791
518.986	102763
519.056	66903
519.127	74715
519.197	116002
519.268	271827
519.338	100686
519.408	41426
519.479	38427
519.549	27747
519.620	25939
519.690	21433
519.760	22654
519.831	21682
519.901	20617
519.971	21156
520.042	24305
520.112	26288
520.182	26211
520.253	25078
520.323	23050
520.393	31853
520.463	36059
520.534	35610
520.604	51864
520.674	27542
520.744	35385
520.814	62024
520.885	47829
520.955	119028
521.025	290518
521.095	55147
521.165	24245
521.235	22440
521.305	20231
521.375	18539
521.445	20572
521.515	21872
521.585	25773
521.655	19433
521.725	22441
521.795	20271
521.865	19820
521.935	35388
522.005	23849
522.075	18484
522.145	21669
522.215	27427
522.285	35601
522.355	52700
522.424	91759
522.494	57719
522.564	30134
522.634	54356
522.704	95077
522.774	26932
522.843	20958
522.913	21330
522.983	21374
523.053	18179
523.122	20426
523.192	25947
523.262	63835
523.331	39126
523.401	18639
523.471	15835
523.540	16936
523.610	14290
523.680	16913
523.749	18692
523.819	28623
523.888	21919
523.958	16262
524.027	17910
524.097	18118
524.166	16783
524.236	17776
524.305	19272
524.375	16636
524.444	16567
524.514	20528
524.583	21081
524.653	25248
524.722	25983
524.791	17856
524.861	19502
524.930	17248
524.999	18242
525.069	23952
525.138	23893
525.207	27004
525.277	20464
525.346	21471
525.415	22074
525.484	26112
525.554	32509
525.623	35059
525.692	39655
525.761	38852
525.830	43230
525.900	56061
525.969	90007
526.038	152330
526.107	385971
526.176	822981
526.245	465451
526.314	197779
526.383	484676
526.452	509327
526.522	934230
526.591	541470
526.660	126799
526.729	82566
526.797	97082
526.867	199894
526.935	666616
527.004	1347236
527.073	506138
527.142	85035
527.211	46357
527.280	38141
527.349	32033
527.418	23190
527.487	22045
527.555	19140
527.624	18598
527.693	17184
527.762	18823
527.831	16090
527.899	17145
527.968	16030
528.037	15739
528.106	20098
528.174	26688
528.243	25802
528.312	39448
528.380	33459
528.449	16008
528.518	16758
528.586	12492
528.655	15533
528.723	14627
528.792	15269
528.861	16484
528.929	14451
528.998	16128
529.066	19475
529.135	21738
529.203	21569
529.272	28045
529.340	29746
529.409	29373
529.477	27435
529.545	32393
529.614	34703
529.682	44022
529.751	41297
529.819	47000
529.887	40265
529.956	35708
530.024	35446
530.092	31685
530.161	34005
530.229	39123
530.297	35261
530.365	34779
530.434	38360
530.502	34955
530.570	32891
530.638	28135
530.707	30003
530.775	29952
530.843	30926
530.911	32096
530.979	32048
531.047	36949
531.115	33954
531.183	31165
531.252	30908
531.320	30277
531.388	30117
531.456	34553
531.524	33420
531.592	37330
531.660	40335
531.728	34195
531.796	33814
531.864	34242
531.932	33551
532.000	34332
532.067	38182
532.135	39241
532.203	43738
532.271	44301
532.339	53421
532.407	69709
532.475	47036
532.542	40397
532.610	42700
532.678	53723
532.746	131801
532.814	166003
532.881	55606
532.949	41443
533.017	39071
533.084	36879
533.152	35698
533.220	35381
533.287	36700
533.355	35407
533.423	37934
533.490	37984
533.558	36508
533.625	37426
533.693	34786
533.761	35191
533.828	34994
533.896	35961
533.963	47421
534.031	50366
534.098	58059
534.166	39927
534.233	37306
534.300	39251
534.368	38193
534.435	36772
534.503	39390
534.570	42357
534.637	43375
534.705	46664
534.772	56719
534.840	119327
534.907	449769
534.974	300618
535.041	52739
535.109	42128
535.176	32726
535.243	31289
535.310	32728
535.378	29235
535.445	29084
535.512	27030
535.579	28062
535.646	26820
535.714	28354
535.781	30750
535.848	31680
535.915	31332
535.982	31057
536.049	28758
536.116	29115
536.183	26296
536.250	26732
536.317	27148
536.384	29723
536.451	32243
536.518	31472
536.585	28077
536.652	35398
536.719	35644
536.786	28820
536.853	28891
536.920	38757
536.987	40268
537.053	44417
537.120	115640
537.187	56556
537.254	26124
537.321	26494
537.388	26358
537.454	23509
537.521	23666
537.588	23653
537.654	25963
537.721	27890
537.788	25329
537.855	24713
537.921	24305
537.988	23658
538.055	23460
538.121	22561
538.188	22710
538.254	30067
538.321	36193
538.388	27691
538.454	25000
538.521	23648
538.587	22875
538.654	22930
538.720	22073
538.787	22604
538.853	24116
538.920	26945
538.986	25814
539.053	22161
539.119	23016
539.185	21250
539.252	26584
539.318	28556
539.385	28087
539.451	25757
539.517	24861
539.583	29332
539.650	53232
539.716	65629
539.782	24420
539.849	21229
539.915	22659
539.981	22677
540.047	22912
540.114	23416
540.180	23987
540.246	23995
540.312	29050
540.378	38826
540.444	34470
540.510	51409
540.576	72905
540.643	26372
540.709	21041
540.775	22224
540.841	21861
540.907	32253
540.973	35773
541.039	28915
541.105	26645
541.171	23568
541.237	21586
541.303	23387
541.369	26326
541.435	29947
541.500	32243
541.566	22739
541.632	20286
541.698	20751
541.764	21594
541.830	20327
541.896	20331
541.961	21291
542.027	21029
542.093	22476
542.159	22090
542.224	23057
542.290	28847
542.356	34364
542.421	30587
542.487	24484
542.553	21638
542.618	24621
542.684	20577
542.750	21236
542.815	23658
542.881	39719
542.947	79780
543.012	35825
543.078	20481
543.143	19394
543.209	20883
543.274	20949
543.340	24554
543.405	43715
543.471	38386
543.536	21419
543.602	22169
543.667	19938
543.732	21349
543.798	21326
543.863	21074
543.928	19819
543.994	19936
544.059	20572
544.124	20391
544.190	20850
544.255	21201
544.320	21562
544.386	21986
544.451	26291
544.516	25360
544.581	29962
544.646	63708
544.712	54732
544.777	25748
544.842	26986
544.907	27551
544.972	24397
545.037	24754
545.102	27362
545.168	26208
545.233	27773
545.298	28282
545.363	31280
545.428	30534
545.493	46978
545.558	57192
545.623	29484
545.688	26619
545.753	27763
545.818	27588
545.883	29042
545.947	28288
546.012	32264
546.077	31119
546.142	31412
546.207	30612
546.272	35766
546.337	33913
546.401	34221
546.466	34900
546.531	35135
546.596	38581
546.661	37825
546.725	38230
546.790	38978
546.855	41365
546.919	43564
546.984	48688
547.049	54584
547.113	60861
547.178	61671
547.243	70436
547.307	80629
547.372	89655
547.436	88090
547.501	88307
547.565	91264
547.630	85948
547.695	86365
547.759	93051
547.823	85603
547.888	84266
547.952	88440
548.017	96236
548.081	107339
548.146	105793
548.210	100021
548.274	99320
548.339	92582
548.403	88174
548.468	83289
548.532	83819
548.596	85787
548.660	86614
548.725	96216
548.789	105246
548.853	99340
548.917	95866
548.982	102797
549.046	86496
549.110	75052
549.174	79839
549.238	90931
549.303	95777
549.367	98433
549.431	89947
549.495	86477
549.559	89249
549.623	106885
549.687	110071
549.751	117591
549.815	131915
549.879	124981
549.943	124455
550.007	131421
550.071	124381
550.135	115931
550.199	111037
550.263	107598
550.327	111992
550.391	124459
550.455	121934
550.519	124286
550.582	135266
550.646	154643
550.710	149979
550.774	147224
550.838	151930
550.901	157214
550.965	167244
551.029	177980
551.093	195340
551.156	229712
551.220	291762
551.284	262086
551.347	202276
551.411	239418
551.475	192534
551.538	157434
551.602	141334
551.666	134671
551.729	125391
551.793	125322
551.856	122002
551.920	122460
551.983	121005
552.047	119745
552.110	122167
552.174	124662
552.237	122043
552.301	112567
552.364	109672
552.428	107328
552.491	110372
552.554	108802
552.618	112480
552.681	114746
552.745	112396
552.808	124594
552.871	126884
552.934	119178
552.998	114238
553.061	116337
553.124	106643
553.187	109924
553.251	112509
553.314	112723
553.377	119419
553.440	148757
553.503	256869
553.567	228643
553.630	121012
553.693	116650
553.756	114946
553.819	114113
553.882	108087
553.945	111110
554.008	109766
554.071	109248
554.134	107540
554.197	101480
554.260	101760
554.323	106050
554.386	104324
554.449	111483
554.512	107407
554.575	104034
554.638	103774
554.701	104952
554.764	100633
554.827	98886
554.889	92808
554.952	86456
555.015	88657
555.078	90511
555.141	89789
555.203	88897
555.266	87693
555.329	87734
555.391	83827
555.454	84557
555.517	81312
555.580	80480
555.642	75950
555.705	74490
555.768	74668
555.830	71449
555.893	69307
555.955	67950
556.018	67731
556.080	68397
556.143	69319
556.206	67840
556.268	67850
556.330	66497
556.393	64569
556.455	65837
556.518	75173
556.580	65466
556.643	57664
556.705	58343
556.767	56410
556.830	57532
556.892	57554
556.955	60545
557.017	55109
557.079	53284
557.142	53194
557.204	56479
557.266	66169
557.328	54002
557.391	46872
557.453	48320
557.515	48783
557.577	51825
557.639	48901
557.701	49982
557.764	50353
557.826	52509
557.888	56258
557.950	56707
558.012	65969
558.074	103648
558.136	285388
558.198	414146
558.260	101467
558.322	65723
558.384	66609
558.446	71644
558.508	77473
558.570	90618
558.632	115301
558.694	155670
558.756	292567
558.818	899745
558.880	1192687
558.942	434469
559.003	473011
559.065	151991
559.127	88846
559.189	87208
559.251	103966
559.312	178208
559.374	510020
559.436	1016840
559.498	296301
559.559	97493
559.621	87467
559.683	115423
559.744	232175
559.806	704539
559.868	568426
559.929	114059
559.991	107681
560.052	226183
560.114	465859
560.176	207528
560.237	340975
560.299	314882
560.360	59376
560.422	40534
560.483	36733
560.545	33745
560.606	31579
560.667	31348
560.729	29222
560.790	27786
560.852	28839
560.913	27223
560.974	26817
561.036	26428
561.097	27128
561.158	26538
561.220	26867
561.281	25550
561.342	25862
561.403	27815
561.465	31762
561.526	51401
561.587	43090
561.648	25341
561.709	25408
561.771	24295
561.832	23539
561.893	23103
561.954	23251
562.015	23807
562.076	22529
562.137	23475
562.198	23293
562.259	23313
562.320	23471
562.381	24989
562.442	28705
562.503	24611
562.564	23021
562.625	21988
562.686	22498
562.747	23422
562.808	22642
562.869	23625
562.930	26237
562.991	25039
563.051	22649
563.112	23269
563.173	21802
563.234	22007
563.294	22236
563.355	20376
563.416	21874
563.477	21922
563.537	23066
563.598	23128
563.659	22238
563.720	21574
563.780	21894
563.841	22706
563.901	21548
563.962	21493
564.023	21557
564.083	22965
564.144	22784
564.204	21635
564.265	22979
564.325	30475
564.386	49160
564.446	30636
564.507	21593
564.567	21748
564.628	20159
564.688	20588
564.749	21657
564.809	26152
564.869	25410
564.930	21494
564.990	21880
565.050	20960
565.111	21102
565.171	20706
565.231	21138
565.292	21183
565.352	21349
565.412	22605
565.472	22277
565.532	22068
565.593	20990
565.653	22173
565.713	22185
565.773	23035
565.833	24190
565.893	26124
565.953	22019
566.013	23369
566.074	24491
566.134	32787
566.194	42892
566.254	37407
566.314	26708
566.374	24804
566.434	24534
566.494	25718
566.554	25496
566.614	26999
566.673	26823
566.733	29885
566.793	30062
566.853	30967
566.913	30053
566.973	31860
567.033	31723
567.092	30415
567.152	30971
567.212	31683
567.272	33210
567.331	35151
567.391	35495
567.451	38870
567.511	45713
567.570	39904
567.630	31193
567.690	32100
567.749	32255
567.809	34420
567.868	37620
567.928	42387
567.988	48639
568.047	53479
568.107	64207
568.166	86612
568.226	123496
568.285	146490
568.345	129018
568.404	112670
568.464	99611
568.523	94360
568.582	95983
568.642	108110
568.701	132878
568.761	186208
568.820	248690
568.879	228603
568.939	188711
568.998	143861
569.057	116231
569.116	96213
569.176	79366
569.235	69632
569.294	60453
569.353	54045
569.413	49052
569.472	44059
569.531	40581
569.590	38365
569.649	35668
569.708	33402
569.767	33661
569.827	34162
569.886	29973
569.945	28081
570.004	27866
570.063	26635
570.122	26542
570.181	27935
570.240	29239
570.299	27563
570.358	26344
570.417	23830
570.475	22443
570.534	24159
570.593	23844
570.652	24695
570.711	23834
570.770	24180
570.829	24444
570.887	22569
570.946	23227
571.005	21413
571.064	21352
571.122	23410
571.181	24563
571.240	21844
571.299	20652
571.357	23564
571.416	23003
571.475	26137
571.533	23342
571.592	23205
571.650	22533
571.709	20829
571.768	22324
571.826	22201
571.885	20432
571.943	19412
572.002	19961
572.060	20634
572.119	18161
572.177	19859
572.236	18787
572.294	19167
572.352	19311
572.411	19007
572.469	18642
572.528	18550
572.586	18488
572.644	20495
572.703	20973
572.761	18309
572.819	17246
572.877	17042
572.936	16690
572.994	17685
573.052	17851
573.110	18160
573.169	17253
573.227	18224
573.285	17584
573.343	17724
573.401	17081
573.459	17338
573.517	17553
573.576	18184
573.634	18252
573.692	18422
573.750	19169
573.808	18125
573.866	19667
573.924	23641
573.982	19885
574.040	18553
574.098	17371
574.155	17033
574.213	16525
574.271	18205
574.329	18069
574.387	16472
574.445	15756
574.503	16725
574.560	14954
574.618	15567
574.676	14919
574.734	15912
574.792	15561
574.849	14503
574.907	13750
574.965	15129
575.022	14801
575.080	14535
575.138	14639
575.195	15198
575.253	14588
575.311	15918
575.368	15152
575.426	15092
575.483	15506
575.541	16066
575.598	14994
575.656	16593
575.713	16265
575.771	16642
575.828	15660
575.886	15759
575.943	16378
576.001	16458
576.058	15300
576.115	17270
576.173	19626
576.230	19320
576.287	18640
576.345	17793
576.402	16474
576.459	17553
576.517	16563
576.574	18285
576.631	17692
576.688	16256
576.746	15264
576.803	15118
576.860	15732
576.917	15285
576.974	15423
577.031	15650
577.089	15187
577.146	15854
577.203	15956
577.260	17406
577.317	17413
577.374	18928
577.431	16652
577.488	16086
577.545	15070
577.602	15239
577.659	15740
577.716	17965
577.773	17842
577.830	16525
577.886	15681
577.943	15995
578.000	15185
578.057	16168
578.114	16098
578.171	17993
578.227	19031
578.284	18002
578.341	17566
578.398	17183
578.454	18110
578.511	19025
578.568	19079
578.625	16310
578.681	15966
578.738	15769
578.794	15294
578.851	16073
578.908	15848
578.964	16281
579.021	16095
579.077	17061
579.134	15440
579.190	14419
579.247	14708
579.303	14921
579.360	13949
579.416	15714
579.473	14797
579.529	15908
579.586	16413
579.642	16294
579.698	16468
579.755	15813
579.811	16512
579.867	16872
579.924	16431
579.980	17870
580.036	19396
580.093	21525
580.149	24021
580.205	23203
580.261	21896
580.317	20527
580.374	21399
580.430	20832
580.486	20435
580.542	19013
580.598	18390
580.619	18430
580.654	18527
580.692	18576
580.710	18644
580.765	18791
580.767	18821
580.823	18222
580.838	18427
580.879	19075
580.911	18247
580.935	17676
580.984	18093
580.991	18182
581.047	18661
581.057	18645
581.103	18664
581.130	19318
581.159	20036
581.203	20119
581.215	20179
581.270	19939
581.276	19758
581.326	18291
581.349	18419
581.382	18653
581.422	18913
581.438	19034
581.494	18295
581.494	18277
581.550	18421
581.567	18640
581.606	19167
581.640	18341
581.661	17853
581.713	19590
581.717	19749
581.773	18331
581.786	18400
581.829	18652
581.859	18825
581.885	19070
581.932	19489
581.940	19561
581.996	19817
582.004	19674
582.052	18997
582.077	19200
582.107	19421
582.150	19590
582.163	19706
582.219	19296
582.223	19311
582.274	19498
582.296	19723
582.330	20189
582.368	20166
582.386	20145
582.441	19503
582.441	19511
582.497	20325
582.514	20364
582.552	20694
582.587	21085
582.608	21248
582.659	20929
582.663	20908
582.719	20623
582.732	20624
582.774	20768
582.805	20479
582.830	20241
582.877	21711
582.885	21950
582.941	22015
582.950	22254
582.996	23499
583.023	24384
583.052	25522
583.095	25351
583.107	25250
583.162	25512
583.168	25438
583.218	24688
583.240	23665
583.273	22245
583.313	21612
583.328	21379
583.384	20296
583.385	20309
583.439	20485
583.458	20329
583.494	20152
583.531	19475
583.549	19244
583.603	19775
583.605	19770
583.660	20115
583.676	20027
583.715	19980
583.748	20058
583.770	20271
583.820	20951
583.825	20952
583.881	20013
583.893	19876
583.936	19712
583.965	20114
583.991	20367
584.038	20439
584.046	20423
584.101	19928
584.110	19959
584.156	20372
584.183	20572
584.211	20591
584.255	19878
584.266	19769
584.321	21329
584.328	21309
584.376	20798
584.400	20867
584.431	20851
584.472	21079
584.486	21216
584.541	21713
584.545	21743
584.596	21868
584.617	22143
584.651	22736
584.689	23324
584.706	23413
584.761	23996
584.762	24008
584.816	23468
584.834	23863
584.871	24508
584.906	24959
584.926	25347
584.978	25455
584.980	25421
585.035	27259
585.051	27509
585.090	28378
585.123	29953
585.145	31007
585.195	32382
585.200	32486
585.254	35027
585.267	36258
585.309	40425
585.340	42876
585.364	44374
585.412	46133
585.419	46411
585.473	53924
585.484	56996
585.528	71402
585.556	89877
585.583	114264
585.628	183921
585.637	202730
585.692	403453
585.700	420382
585.747	475178
585.772	371112
585.801	210672
585.845	90482
585.856	72889
585.910	46339
585.917	44355
585.965	38949
585.989	36787
586.019	34295
586.061	32817
586.074	32434
586.128	31942
586.133	31916
586.183	30842
586.205	30603
586.237	30448
586.277	30542
586.292	30484
586.346	29430
586.349	29555
586.401	30675
586.421	31020
586.455	31910
586.493	33109
586.509	33837
586.564	39771
586.565	40075
586.618	51063
586.637	48859
586.672	41428
586.709	38653
586.727	37715
586.781	38011
586.781	37938
586.835	34011
586.853	33078
586.889	31634
586.925	31754
586.944	31975
586.996	33226
586.998	33179
587.052	34252
587.068	34263
587.106	34326
587.140	35060
587.161	35335
587.212	36745
587.215	36732
587.269	37815
587.284	38270
587.323	39024
587.356	39811
587.377	40241
587.427	41904
587.431	41927
587.485	43986
587.499	44469
587.539	45196
587.571	46902
587.593	48032
587.643	50376
587.648	50502
587.702	53880
587.715	54979
587.755	57317
587.786	59310
587.810	60481
587.858	63970
587.864	64228
587.917	69511
587.930	70993
587.971	75171
588.001	79037
588.025	81772
588.073	87963
588.079	88504
588.133	96650
588.145	99323
588.187	107676
588.217	114694
588.241	120140
588.288	132292
588.295	133626
588.348	152347
588.360	157060
588.402	172926
588.431	187157
588.456	199152
588.503	227716
588.510	231286
588.564	273354
588.575	284507
588.617	327171
588.646	363673
588.671	400057
588.718	478467
588.725	493099
588.778	620676
588.789	645552
588.832	785453
588.861	859707
588.886	921413
588.932	992065
588.939	981213
588.993	964826
589.004	979718
589.047	975491
589.075	920708
589.100	834812
589.147	630957
589.154	612183
589.207	491526
589.218	472788
589.261	436837
589.290	426875
589.314	432899
589.361	464335
589.368	474385
589.421	585381
589.433	609625
589.475	763929
589.504	844892
589.528	874326
589.576	937537
589.582	920640
589.635	845552
589.647	810580
589.689	619715
589.718	471356
589.742	402420
589.790	284047
589.795	274536
589.849	214040
589.861	202727
589.902	173847
589.932	154982
589.955	141516
590.004	120151
590.009	117762
590.062	101561
590.075	98482
590.115	89179
590.146	83704
590.168	79492
590.218	72298
590.222	71414
590.275	65897
590.289	64989
590.328	61246
590.360	58631
590.381	56380
590.431	52839
590.435	52341
590.488	49037
590.503	48443
590.541	46310
590.574	45116
590.594	43830
590.645	41293
590.647	41002
590.700	39839
590.716	39742
590.753	38541
590.787	37759
590.806	37012
590.859	35997
590.859	35781
590.912	34254
590.930	33952
590.965	33175
591.001	32925
591.018	32456
591.071	31337
591.072	31496
591.124	30323
591.143	30075
591.177	29562
591.214	29414
591.230	29027
591.283	28545
591.285	28665
591.336	28054
591.356	28130
591.389	27540
591.427	27129
591.442	26583
591.495	25084
591.498	25117
591.547	25324
591.569	25686
591.600	25120
591.640	24499
591.653	24490
591.706	25260
591.711	25470
591.759	25276
591.782	25457
591.811	25893
591.853	26609
591.864	26250
591.917	25102
591.924	25076
591.969	23846
591.995	23346
592.022	23142
592.066	23187
592.075	23329
592.127	25095
592.137	25559
592.180	25990
592.208	26309
592.233	25234
592.279	23724
592.285	23606
592.338	23672
592.350	23816
592.390	23112
592.421	22765
592.443	22686
592.491	22952
592.495	22811
592.548	22523
592.562	22566
592.600	22231
592.633	22177
592.653	21970
592.704	21634
592.705	21750
592.775	21563
592.846	22254
592.916	22998
592.987	23393
593.058	22528
593.128	22007
593.199	22343
593.270	22863
593.341	21128
593.411	22000
593.482	22038
593.553	24021
593.623	22594
593.694	22853
593.764	25004
593.835	24048
593.906	24396
593.976	24614
594.047	24299
594.117	26659
594.188	28043
594.258	25609
594.329	26467
594.399	25830
594.470	26306
594.540	28165
594.611	27088
594.681	27236
594.751	27384
594.822	28968
594.892	29479
594.963	29378
595.033	31645
595.103	31212
595.174	31852
595.244	35920
595.314	39929
595.384	32641
595.455	33811
595.525	34557
595.595	33485
595.665	35880
595.736	34769
595.806	35533
595.876	35838
595.946	35100
596.016	36965
596.087	38617
596.157	37272
596.227	38111
596.297	39495
596.367	42595
596.437	45637
596.507	48337
596.577	50581
596.647	46098
596.717	47634
596.787	48146
596.857	46543
596.927	48958
596.997	48915
597.067	48367
597.137	51098
597.207	51116
597.277	49602
597.347	48851
597.417	46698
597.487	47314
597.557	48506
597.626	49088
597.696	50570
597.766	52007
597.836	52426
597.906	46634
597.975	45178
598.045	45219
598.115	47872
598.185	50126
598.254	54885
598.324	59670
598.394	60919
598.464	59739
598.533	57903
598.603	54403
598.672	54010
598.742	55284
598.812	54903
598.881	56970
598.951	56038
599.020	56117
599.090	58571
599.159	59833
599.229	57074
599.299	56140
599.368	58336
599.437	58103
599.507	53631
599.576	52400
599.646	52934
599.715	53235
599.785	51514
599.854	51861
599.924	51565
599.993	50335
600.062	50985
600.132	52201
600.201	54327
600.270	62602
600.340	65288
600.409	64901
600.478	64736
600.547	65771
600.617	60297
600.686	51554
600.755	47627
600.824	46020
600.894	46203
600.963	46398
601.032	47501
601.101	45841
601.170	44543
601.239	44063
601.308	45334
601.378	45660
601.447	45424
601.516	45340
601.585	47354
601.654	48921
601.723	48758
601.792	48566
601.861	51347
601.930	54089
601.999	54356
602.068	54110
602.137	56010
602.206	55013
602.275	55552
602.343	55996
602.412	55859
602.481	55186
602.550	55927
602.619	57781
602.688	56457
602.756	58905
602.825	58227
602.894	60376
602.963	60539
603.032	60789
603.100	61350
603.169	60362
603.238	61700
603.307	60803
603.375	61686
603.444	63936
603.513	60664
603.581	62304
603.650	66151
603.719	58942
603.787	59022
603.856	61501
603.924	63400
603.993	64545
604.061	65811
604.130	69503
604.198	70723
604.267	71271
604.335	71450
604.404	72702
604.472	74606
604.541	75433
604.609	76160
604.678	77196
604.746	78235
604.815	80966
604.883	79942
604.951	78993
605.020	81255
605.088	79767
605.156	78537
605.225	79671
605.293	80864
605.361	81719
605.429	81914
605.498	82466
605.566	84134
605.634	88008
605.702	90194
605.771	93447
605.839	92637
605.907	89760
605.975	87553
606.043	85328
606.111	85036
606.180	87061
606.248	84952
606.316	84653
606.384	84288
606.452	81415
606.520	79129
606.588	82312
606.656	80154
606.724	78635
606.792	75055
606.860	68183
606.928	61189
606.996	60569
607.064	58377
607.132	59203
607.200	63862
607.267	66546
607.335	66683
607.403	68765
607.471	65942
607.539	64750
607.607	64624
607.674	58043
607.742	57520
607.810	56890
607.878	56711
607.946	59634
608.013	61404
608.081	61957
608.149	63607
608.216	64683
608.284	67757
608.352	65882
608.419	65444
608.487	69181
608.555	63638
608.622	64859
608.690	69435
608.757	74416
608.825	77076
608.893	75818
608.960	72016
609.028	69216
609.095	71737
609.163	68730
609.230	60698
609.298	56913
609.365	58010
609.432	63641
609.500	68950
609.567	78951
609.635	88953
609.702	92862
609.769	89510
609.837	71482
609.904	61519
609.971	64583
610.039	75246
610.106	102194
610.173	202322
610.241	460283
610.308	253903
610.375	93638
610.442	68562
610.509	65567
610.577	64301
610.644	64577
610.711	66684
610.778	67149
610.845	70458
610.912	74344
610.980	79973
611.047	82054
611.114	77872
611.181	74149
611.248	72909
611.315	78214
611.382	78891
611.449	80874
611.516	83342
611.583	83350
611.650	82937
611.717	83656
611.784	86907
611.851	91269
611.918	99157
611.984	118483
612.051	178011
612.118	364258
612.185	860849
612.252	521227
612.319	145731
612.386	114289
612.452	103750
612.519	97655
612.586	97664
612.653	96459
612.719	97713
612.786	92103
612.853	86692
612.919	85422
612.986	87212
613.053	80662
613.120	76511
613.186	73859
613.253	75989
613.319	74649
613.386	74145
613.453	77159
613.519	76934
613.586	75732
613.652	79358
613.719	75247
613.785	78393
613.852	78321
613.918	76047
613.985	80523
614.051	87399
614.118	107760
614.184	101288
614.250	78532
614.317	78677
614.383	75912
614.449	76865
614.516	78173
614.582	78133
614.648	76298
614.715	75537
614.781	74469
614.847	74946
614.914	75311
614.980	72839
615.046	72788
615.112	74495
615.179	75308
615.245	77741
615.311	77658
615.377	86678
615.443	88065
615.509	82594
615.575	82840
615.642	82263
615.708	83514
615.774	88651
615.840	96893
615.906	107023
615.972	140621
616.038	225735
616.104	455548
616.170	1003372
616.236	805427
616.302	215676
616.368	155887
616.434	110456
616.500	102237
616.565	112842
616.631	143636
616.697	115977
616.763	120684
616.829	186994
616.895	336869
616.961	309566
617.026	129017
617.092	86780
617.158	80945
617.224	77969
617.289	73477
617.355	68745
617.421	67895
617.487	69436
617.552	65074
617.618	63721
617.684	64283
617.749	65888
617.815	61494
617.880	59655
617.946	60890
618.012	62485
618.077	62079
618.143	60190
618.208	62289
618.274	64794
618.339	65033
618.405	53768
618.470	55896
618.536	55207
618.601	54460
618.667	51520
618.732	48894
618.798	48660
618.863	47453
618.928	46655
618.994	49244
619.059	47964
619.124	49686
619.190	48958
619.255	47886
619.320	47926
619.386	47819
619.451	45381
619.516	46559
619.581	47040
619.647	47955
619.712	47515
619.777	46120
619.842	46733
619.907	46563
619.972	47058
620.038	47433
620.103	46170
620.168	45620
620.233	47936
620.298	46704
620.363	48207
620.428	48189
620.493	48727
620.558	50576
620.623	50664
620.688	50169
620.753	50200
620.818	50242
620.883	52023
620.948	51508
621.013	50727
621.078	49943
621.143	50920
621.207	52885
621.272	50626
621.337	49957
621.402	50694
621.467	50987
621.532	51841
621.596	50061
621.661	48291
621.726	46937
621.791	48817
621.855	48596
621.920	47991
621.985	49308
622.049	50953
622.114	50471
622.179	50090
622.243	51089
622.308	52660
622.373	55539
622.437	52331
622.502	50201
622.566	50152
622.631	48499
622.695	51381
622.760	50102
622.824	50905
622.889	50746
622.953	50954
623.018	55934
623.082	56610
623.147	53495
623.211	51838
623.276	52398
623.340	49076
623.404	48692
623.469	49041
623.533	49897
623.597	48222
623.662	47219
623.726	43767
623.790	42520
623.854	41322
623.919	42002
623.983	42065
624.047	43581
624.111	42646
624.176	44133
624.240	44152
624.304	46198
624.368	42836
624.432	44302
624.496	44690
624.560	47484
624.625	48288
624.689	46973
624.753	48083
624.817	46341
624.881	44369
624.945	41612
625.009	40608
625.073	41141
625.137	41608
625.201	44805
625.265	44763
625.329	41852
625.393	42845
625.456	43180
625.520	43242
625.584	45729
625.648	48151
625.712	55071
625.776	72705
625.839	75583
625.903	46578
625.967	37143
626.031	47090
626.095	58740
626.158	41599
626.222	32812
626.286	30824
626.349	30386
626.413	27111
626.477	29049
626.540	27142
626.604	26946
626.668	27674
626.731	26593
626.795	28012
626.858	27632
626.922	26118
626.986	26871
627.049	25507
627.113	28136
627.176	27194
627.240	25303
627.303	25213
627.366	25133
627.430	26473
627.493	25425
627.557	25064
627.620	27191
627.684	27420
627.747	28250
627.810	24319
627.874	22784
627.937	20616
628.000	24950
628.064	23339
628.127	18764
628.190	20188
628.253	19695
628.317	18693
628.380	18828
628.443	17759
628.506	17501
628.569	17495
628.632	15365
628.696	17197
628.759	16074
628.822	14610
628.885	14945
628.948	15481
629.011	15629
629.074	14591
629.137	13745
629.200	14190
629.263	15839
629.326	12726
629.389	13102
629.452	13725
629.515	13351
629.578	13874
629.641	14499
629.704	12863
629.767	13477
629.830	13322
629.892	12953
629.955	12483
630.018	14559
630.081	12306
630.144	14436
630.207	11787
630.269	14035
630.332	12613
630.395	13204
630.458	12058
630.520	10859
630.583	12565
630.646	11629
630.708	12191
630.771	11571
630.834	14262
630.896	12482
630.959	12478
631.021	11127
631.084	11586
631.146	12518
631.209	14133
631.272	11469
631.334	12726
631.397	12460
631.459	12205
631.522	13146
631.584	14030
631.646	15368
631.709	15969
631.771	16170
631.834	15583
631.896	14793
631.958	12097
632.021	13658
632.083	10604
632.145	12207
632.208	11749
632.270	11992
632.332	10409
632.395	11150
632.457	12210
632.519	11003
632.581	13034
632.643	9600
632.706	11602
632.768	10040
632.830	11246
632.892	11181
632.954	10756
633.016	12380
633.078	10753
633.141	11707
633.203	10691
633.265	11551
633.327	11323
633.389	11550
633.451	12267
633.513	11947
633.575	12957
633.637	11749
633.698	11362
633.760	13208
633.822	12930
633.884	12531
633.946	12870
634.008	13059
634.070	14687
634.132	16529
634.193	17194
634.255	19162
634.317	18842
634.379	18557
634.441	15364
634.502	14638
634.564	12999
634.626	13021
634.687	11904
634.749	11926
634.811	10900
634.873	10579
634.934	10267
634.996	11893
635.057	10459
635.119	11170
635.181	11541
635.242	11938
635.304	9508
635.365	14124
635.427	10708
635.488	12028
635.550	10527
635.611	12118
635.673	9601
635.734	12864
635.796	12910
635.857	15777
635.918	15388
635.980	18172
636.041	17996
636.102	20328
636.164	20151
636.225	19966
636.286	15313
636.348	15938
636.409	13032
636.470	11412
636.531	12166
636.593	11290
636.654	10878
636.715	10304
636.776	9810
636.838	9689
636.899	11065
636.960	8857
637.021	9227
637.082	8868
637.143	9630
637.204	8163
637.265	9168
637.326	8903
637.387	9477
637.448	7923
637.509	8669
637.570	8485
637.631	9901
637.692	6876
637.753	7186
637.814	8126
637.875	8028
637.936	9193
637.997	7564
638.058	8395
638.119	9508
638.179	8320
638.240	7663
638.301	7500
638.362	7290
638.423	7700
638.483	9035
638.544	6247
638.605	8868
638.666	8046
638.726	7982
638.787	9240
638.848	8748
638.908	8159
638.969	7180
639.030	7408
639.090	6069
639.151	7114
639.211	8080
639.272	7872
639.332	9770
639.393	8872
639.453	7991
639.514	9075
639.574	8048
639.635	6127
639.695	8458
639.756	6786
639.816	7059
639.877	8030
639.937	8764
639.997	9668
640.058	6349
640.118	6445
640.178	7436
640.239	6972
640.299	6556
640.359	6525
640.420	8242
640.480	8713
640.540	10018
640.600	10022
640.661	9756
640.721	7995
640.781	12521
640.841	9508
640.901	8400
640.961	7189
641.021	8303
641.082	7623
641.142	7948
641.202	7217
641.262	5178
641.322	8134
641.382	5925
641.442	7376
641.502	5854
641.562	6658
641.622	6899
641.682	8094
641.742	8422
641.802	8390
641.861	7967
641.921	7855
641.981	7227
642.041	6492
642.101	6499
642.161	5189
642.221	6037
642.280	5647
642.340	5973
642.400	5298
642.460	6971
642.519	7343
642.579	6027
642.639	6237
642.698	4806
642.758	8539
642.818	6762
642.877	6256
642.937	6579
642.997	7163
643.056	7392
643.116	4866
643.175	8261
643.235	6874
643.294	7091
643.354	7692
643.414	8678
643.473	10545
643.532	13213
643.592	19637
643.651	33276
643.711	61162
643.770	121920
643.830	294805
643.889	592711
643.948	135449
644.008	25601
644.067	15241
644.126	11779
644.186	10063
644.245	8782
644.304	5876
644.363	8818
644.423	6664
644.482	6826
644.541	8055
644.600	6435
644.659	11146
644.719	12834
644.778	20591
644.837	37557
644.896	81546
644.955	183683
645.014	56424
645.073	13215
645.132	8576
645.191	8223
645.250	6670
645.309	9980
645.368	8931
645.427	13112
645.486	21341
645.545	38009
645.604	11594
645.663	7439
645.722	5839
645.781	9456
645.840	10658
645.898	12867
645.957	20189
646.016	29949
646.075	57099
646.134	114373
646.192	311545
646.251	430990
646.310	64118
646.369	18485
646.427	14432
646.486	10645
646.545	9574
646.603	7804
646.662	6913
646.721	7258
646.779	6532
646.838	6380
646.896	10283
646.955	13136
647.014	21349
647.072	42744
647.131	118820
647.189	53690
647.248	8300
647.306	6419
647.365	6537
647.423	3846
647.481	5651
647.540	3377
647.598	5284
647.657	5132
647.715	5301
647.773	3955
647.832	5232
647.890	3278
647.948	3643
648.007	5410
648.065	3571
648.123	3689
648.181	5732
648.240	6212
648.298	3968
648.356	4479
648.414	4927
648.472	4515
648.531	3887
648.589	4079
648.647	4448
648.705	3762
648.763	4093
648.821	4108
648.879	4405
648.937	5457
648.995	7099
649.053	9549
649.111	14931
649.169	26027
649.227	47337
649.285	102688
649.343	289466
649.401	129168
649.459	20309
649.516	12621
649.574	10672
649.632	19743
649.690	22034
649.748	13571
649.806	16995
649.863	34144
649.921	85332
649.979	52071
650.037	8887
650.094	4400
650.152	4900
650.210	3750
650.268	3534
650.325	4912
650.383	5397
650.440	2574
650.498	3485
650.556	3337
650.613	3192
650.671	3431
650.728	2510
650.786	3443
650.843	4511
650.901	1580
650.958	3124
651.016	2939
651.073	2951
651.131	1978
651.188	2082
651.246	2090
651.303	1692
651.360	2752
651.418	2232
651.475	2143
651.532	855
651.590	3430
651.647	822
651.704	2252
651.762	2476
651.819	2478
651.876	2019
651.933	2430
651.990	3134
652.048	1093
652.105	2433
652.162	2488
652.219	702
652.276	1768
652.333	2664
652.390	1438
652.448	2764
652.505	1819
652.562	2129
652.619	2722
652.676	3881
652.733	4327
652.790	2204
652.847	884
652.904	2734
652.961	995
653.017	957
653.074	2184
653.131	1588
653.188	1022
653.245	1269
653.302	1340
653.359	1270
653.415	1676
653.472	1104
653.529	2699
653.586	1059
653.642	1378
653.699	2461
653.756	893
653.813	1592
653.869	2184
653.926	1853
653.983	996
654.039	1735
654.096	1405
654.152	2830
654.209	853
654.266	1588
654.322	990
654.379	1376
654.435	3141
654.492	2398
654.548	3180
654.605	3873
654.661	3157
654.717	1931
654.774	1865
654.830	1834
654.887	1826
654.943	2167
655.000	2814
655.056	2127
655.112	1483
655.168	569
655.225	1016
655.281	2634
655.337	2286
655.394	4119
655.450	3224
655.506	2328
655.562	4258
655.618	4852
655.675	1141
655.731	2153
655.787	1462
655.843	2835
655.899	1487
655.955	2416
656.011	1644
656.067	1920
656.123	3173
656.179	2671
656.235	4076
656.291	848
656.347	2590
656.403	1546
656.459	1567
656.515	2042
656.571	1401
656.627	1756
656.683	2066
656.739	2297
656.795	1163
656.850	1737
656.906	2059
656.962	2504
657.018	1758
657.074	1819
657.129	3160
657.185	4003
657.241	10681
657.297	5468
657.352	1869
657.408	1222
657.464	1980
657.519	1256
657.575	543
657.630	1183
657.686	1795
657.742	569
657.797	931
657.853	1072
657.908	2466
657.964	497
658.019	1559
658.075	1646
658.130	1820
658.186	638
658.241	1857
658.297	935
658.352	1438
658.407	1892
658.463	620
658.518	1013
658.573	1682
658.629	396
658.684	1240
658.739	1588
658.795	1117
658.850	1502
658.905	335
658.960	1457
659.016	1130
659.071	954
659.126	1207
659.181	1469
659.236	2815
659.291	2967
659.346	1665
659.401	1350
659.457	2741
659.512	2268
659.567	2728
659.622	1612
659.677	879
659.732	748
659.787	1834
659.842	2081
659.897	1971
659.952	1681
660.007	1101
660.061	1401
660.116	355
660.171	773
660.226	836
660.281	1930
660.336	614
660.391	1590
660.445	359
660.500	1197
660.555	1200
660.610	740
660.664	1102
660.719	596
660.774	1586
660.828	2066
660.883	909
660.938	905
660.992	18
661.047	1395
661.101	1099
661.156	1198
661.211	1144
661.265	753
661.320	750
661.374	877
661.429	461
661.483	1632
661.538	559
661.592	585
661.647	1801
661.701	1758
661.755	2364
661.810	1814
661.864	495
661.919	711
661.973	1956
662.027	1859
662.081	421
662.136	232
662.190	1842
662.244	915
662.299	340
662.353	1039
662.407	935
662.461	759
662.515	1536
662.569	1560
662.624	1538
662.678	647
662.732	572
662.786	543
662.840	1251
662.894	1712
662.948	277
663.002	1144
663.056	921
663.110	88
663.164	862
663.218	735
663.272	1248
663.326	1249
663.380	1033
663.434	1657
663.488	452
663.542	1532
663.595	670
663.649	936
663.703	771
663.757	1114
663.811	-175
663.864	846
663.918	488
663.972	1492
664.026	590
664.079	1269
664.133	1722
664.187	416
664.240	1317
664.294	1502
664.348	1804
664.401	1933
664.455	1468
664.508	822
664.562	1476
664.615	1184
664.669	469
664.722	954
664.776	775
664.829	1037
664.883	361
664.936	717
664.990	1213
665.043	1660
665.097	782
665.150	1812
665.203	706
665.257	1050
665.310	320
665.363	933
665.417	1702
665.470	845
665.523	1272
665.576	1601
665.630	1350
665.683	1371
665.736	1149
665.789	1437
665.842	905
665.895	1409
665.949	1467
666.002	1869
666.055	1821
666.108	2045
666.161	90
666.214	1070
666.267	1089
666.320	1420
666.373	1320
666.426	789
666.479	1428
666.532	1410
666.585	1418
666.638	1866
666.691	925
666.744	1930
666.796	915
666.849	1704
666.902	1524
666.955	1208
667.008	294
667.060	871
667.113	1444
667.166	1351
667.219	1396
667.271	565
667.324	1355
667.377	1354
667.430	1552
667.482	1769
667.535	1544
667.587	1795
667.640	1766
667.693	551
667.745	1335
667.798	1789
667.850	1247
667.903	1777
667.955	1199
668.008	1312
668.060	2098
668.113	1222
668.165	1612
668.218	778
668.270	1426
668.322	1244
668.375	1789
668.427	1246
668.479	892
668.532	1613
668.584	1317
668.636	997
668.689	1332
668.741	1576
668.793	1223
668.845	1180
668.898	954
668.950	1860
669.002	562
669.054	713
669.106	570
669.158	2154
669.211	1387
669.263	1284
669.315	1410
669.367	2209
669.419	1174
669.471	2225
669.523	1269
669.575	2355
669.627	1190
669.679	1417
669.731	1441
669.783	1900
669.835	1607
669.886	1056
669.938	1642
669.990	1275
670.042	966
670.094	2032
670.146	1004
670.197	1578
670.249	2294
670.301	1895
670.353	3718
670.404	5407
670.456	7018
670.508	12059
670.560	18802
670.611	32006
670.663	56866
670.715	143536
670.766	225555
670.818	68699
670.869	11610
670.921	6343
670.972	4226
671.024	2714
671.075	2724
671.127	2635
671.178	1682
671.230	1971
671.281	2469
671.333	1817
671.384	2536
671.436	3270
671.487	5462
671.538	6474
671.590	10519
671.641	16854
671.692	31997
671.744	60031
671.795	38585
671.846	13695
671.897	6081
671.949	4698
672.000	3046
672.051	2361
672.102	2541
672.153	1351
672.204	949
672.256	2218
672.307	2252
672.358	1574
672.409	1164
672.460	1042
672.511	1007
672.562	512
672.613	801
672.664	803
672.715	765
672.766	665
672.817	1055
672.868	1447
672.919	1475
672.970	777
673.021	1344
673.071	786
673.122	837
673.173	1483
673.224	1091
673.275	714
673.326	570
673.376	1182
673.427	373
673.478	636
673.528	1640
673.579	1027
673.630	599
673.680	1405
673.731	1165
673.782	805
673.832	685
673.883	1223
673.934	860
673.984	995
674.035	1392
674.085	1139
674.136	1187
674.186	1180
674.237	1286
674.287	3600
674.338	1037
674.388	1064
674.438	825
674.489	822
674.539	1195
674.589	1455
674.640	1318
674.690	1195
674.740	839
674.791	1208
674.841	1140
674.891	1419
674.942	1002
674.992	1013
675.042	169
675.092	981
675.142	447
675.193	508
675.243	874
675.293	1111
675.343	111
675.393	754
675.443	989
675.493	655
675.543	-133
675.593	1022
675.643	-23
675.693	1045
675.743	296
675.793	489
675.843	-90
675.893	-43
675.943	543
675.993	483
676.043	472
676.093	628
676.142	988
676.192	728
676.242	380
676.292	444
676.341	223
676.391	569
676.441	-27
676.491	675
676.540	468
676.590	975
676.640	129
676.689	614
676.739	-820
676.789	1117
676.838	-532
676.888	-113
676.937	733
676.987	404
677.037	-82
677.086	938
677.136	801
677.185	314
677.235	-271
677.284	811
677.333	158
677.383	599
677.432	203
677.482	-138
677.531	-9
677.580	-443
677.630	-447
677.679	557
677.728	796
677.778	1031
677.827	379
677.876	1083
677.925	32
677.975	338
678.024	462
678.073	429
678.122	709
678.171	610
678.220	405
678.269	-519
678.319	849
678.368	977
678.417	812
678.466	703
678.515	168
678.564	439
678.613	-132
678.662	383
678.711	667
678.760	-139
678.809	199
678.857	305
678.906	208
678.955	542
679.004	879
679.053	672
679.102	143
679.151	456
679.199	-377
679.248	-411
679.297	300
679.346	877
679.394	-305
679.443	207
679.492	735
679.540	635
679.589	801
679.638	-268
679.686	-315
679.735	1168
679.784	1034
679.832	312
679.881	500
679.929	191
679.978	133
680.026	454
680.075	688
680.123	-39
680.172	-273
680.220	-674
680.268	-97
680.317	-599
680.365	-448
680.414	-587
680.462	-104
680.510	366
680.559	118
680.607	183
680.655	876
680.703	222
680.752	-400
680.800	-922
680.848	418
680.896	-152
680.945	182
680.993	-580
681.041	-441
681.089	897
681.137	1077
681.185	-35
681.233	101
681.258	115
681.281	106
681.329	213
681.377	-805
681.380	-733
681.425	117
681.473	330
681.502	483
681.521	536
681.569	965
681.617	363
681.624	451
681.665	850
681.713	335
681.745	511
681.761	561
681.809	5
681.857	922
681.867	773
681.904	142
681.952	1115
681.989	1202
682.000	1196
682.048	1034
682.096	411
682.111	486
682.143	590
682.191	607
682.233	1155
682.239	1210
682.286	937
682.334	975
682.354	755
682.382	401
682.430	1400
682.476	1664
682.477	1648
682.525	1592
682.572	366
682.598	358
682.620	336
682.667	1323
682.715	2156
682.720	2151
682.763	1848
682.810	1695
682.841	1320
682.857	1100
682.905	1725
682.952	2016
682.963	1915
683.000	1482
683.047	1265
683.085	2126
683.095	2322
683.142	2260
683.190	1863
683.206	1758
683.237	1538
683.284	1723
683.328	2508
683.332	2556
683.379	2016
683.426	2384
683.449	2103
683.473	1808
683.521	1891
683.568	2252
683.571	2282
683.615	2269
683.662	2560
683.693	2490
683.709	2491
683.757	2008
683.804	2626
683.814	2589
683.851	2347
683.898	2981
683.936	3132
683.945	3147
683.992	2417
684.039	2732
684.057	2685
684.086	2612
684.133	3035
684.179	3079
684.180	3063
684.227	3758
684.274	3580
684.300	3814
684.321	3970
684.368	2874
684.415	3227
684.422	3095
684.462	2279
684.509	2834
684.543	2856
684.556	2853
684.603	3779
684.649	3105
684.665	3272
684.696	3550
684.743	3718
684.786	3681
684.790	3667
684.837	3545
684.883	4123
684.908	3941
684.930	3759
684.977	4611
685.023	3803
685.029	3839
685.070	3930
685.117	3767
685.150	3795
685.164	3811
685.210	4205
685.257	4605
685.272	4852
685.303	5318
685.350	4093
685.393	4561
685.396	4592
685.443	4331
685.490	4667
685.514	4630
685.536	4549
685.583	4092
685.629	4546
685.636	4481
685.675	4069
685.722	4113
685.757	4301
685.768	4362
685.815	4883
685.861	4773
685.878	4826
685.908	4912
685.954	5095
686.000	5174
686.000	5171
686.047	5458
686.093	6139
686.121	5996
686.139	5732
686.185	5456
686.232	5025
686.242	5055
686.278	5302
686.324	4734
686.363	4722
686.370	4722
686.416	4944
686.463	5294
686.484	5251
686.509	5290
686.555	5576
686.601	5544
686.606	5630
686.647	6091
686.693	5822
686.727	5269
686.739	5084
686.785	5651
686.831	5883
686.848	5773
686.877	5530
686.923	5251
686.969	5601
686.969	5603
687.015	5080
687.061	5781
687.090	6182
687.107	6315
687.153	5658
687.199	5854
687.211	5838
687.245	5998
687.291	5601
687.332	6069
687.336	6095
687.382	6099
687.428	6082
687.453	6142
687.474	6180
687.520	6604
687.565	5996
687.574	5921
687.611	6095
687.657	7170
687.695	7975
687.702	8188
687.748	9207
687.794	10329
687.816	10634
687.839	9947
687.885	8288
687.931	7110
687.937	6983
687.976	6874
688.022	7167
688.058	6499
688.067	6423
688.113	6431
688.158	6714
688.179	6585
688.204	6428
688.249	6960
688.295	6582
688.300	6558
688.340	6452
688.386	7307
688.421	7120
688.431	7043
688.477	7307
688.522	7049
688.542	7037
688.567	7276
688.613	7665
688.658	7539
688.663	7537
688.703	7065
688.749	7216
688.784	7035
688.794	7077
688.839	7017
688.884	7209
688.905	7350
688.930	7342
688.975	7181
689.020	7469
689.026	7419
689.065	7502
689.110	7792
689.146	7463
689.155	7321
689.201	7619
689.246	8083
689.267	7776
689.291	7535
689.336	7736
689.381	7335
689.388	7338
689.426	7331
689.471	7205
689.509	6886
689.516	6855
689.561	7219
689.606	6911
689.630	7143
689.651	7427
689.696	7190
689.741	7692
689.750	7719
689.785	7920
689.830	7899
689.871	7873
689.875	7832
689.920	7832
689.965	7445
689.992	7212
690.010	7317
690.054	7423
690.099	8188
690.112	8062
690.144	7549
690.189	7523
690.233	7501
690.233	7514
690.278	7545
690.323	7885
690.354	7846
690.367	7767
690.412	8017
690.457	7650
690.474	7788
690.501	8178
690.546	8280
690.590	7884
690.595	7905
690.635	8103
690.680	8174
690.716	8170
690.724	8264
690.769	8678
690.813	9119
690.836	9305
690.857	9801
690.902	11106
690.946	12304
690.957	12490
690.991	14866
691.035	18914
691.077	22609
691.080	22614
691.124	20634
691.168	19567
691.198	18381
691.213	17389
691.257	14877
691.301	12146
691.318	11242
691.346	11044
691.390	9827
691.434	9025
691.439	8953
691.478	9058
691.522	9204
691.559	9166
691.567	9177
691.611	9108
691.655	8745
691.680	8725
691.699	8847
691.743	8842
691.787	9268
691.800	9259
691.831	9244
691.875	9053
691.919	9553
691.921	9537
691.964	9596
692.008	9584
692.041	9525
692.052	9551
692.096	9218
692.139	9663
692.162	9700
692.183	9629
692.227	9235
692.271	9232
692.282	9051
692.315	8773
692.359	9313
692.402	9362
692.403	9383
692.447	9265
692.490	9674
692.523	9728
692.534	9770
692.578	9779
692.622	9788
692.643	9882
692.666	9868
692.709	9723
692.753	9472
692.763	9344
692.797	9126
692.840	9019
692.884	8970
692.884	8993
692.928	9104
692.971	9405
693.004	9369
693.015	9335
693.059	9570
693.102	9630
693.124	9500
693.146	9710
693.189	10025
693.233	10717
693.245	10855
693.276	10814
693.320	10647
693.363	10520
693.365	10492
693.407	10797
693.450	10907
693.485	11157
693.493	11346
693.537	11911
693.580	12670
693.605	13179
693.624	14428
693.667	17348
693.710	20212
693.725	21156
693.753	26245
693.797	34376
693.840	42683
693.845	43509
693.883	40203
693.926	36251
693.966	32951
693.970	32383
694.013	25748
694.056	19214
694.086	14475
694.099	14078
694.142	13002
694.185	12055
694.206	11458
694.229	11418
694.272	11512
694.315	11229
694.326	11141
694.358	10958
694.401	10875
694.444	10759
694.446	10729
694.487	10879
694.530	10873
694.566	11077
694.573	11082
694.616	10806
694.659	10221
694.686	10038
694.702	10125
694.745	10355
694.787	10211
694.806	10245
694.830	10254
694.873	10069
694.916	10175
694.926	10093
694.959	10118
695.002	10401
695.044	10291
695.046	10277
695.087	10612
695.130	10777
695.166	10861
695.172	10920
695.215	10885
695.258	11287
695.286	11378
695.301	11444
695.343	11497
695.386	11642
695.406	11569
695.428	11463
695.471	11612
695.514	11408
695.526	11402
695.556	11925
695.599	12679
695.641	13020
695.646	13042
695.684	12821
695.726	12627
695.766	12365
695.769	12364
695.811	11798
695.854	11456
695.886	11014
695.896	11064
695.938	11133
695.981	11083
696.005	11222
696.023	11530
696.065	11975
696.108	12554
696.125	12777
696.150	12941
696.192	13078
696.235	13002
696.245	13003
696.277	13127
696.319	13305
696.361	13349
696.365	13314
696.404	13456
696.446	13657
696.485	13825
696.488	13861
696.530	13814
696.572	13681
696.604	13591
696.614	13542
696.656	13213
696.698	12868
696.724	12583
696.740	12668
696.783	12906
696.825	13199
696.844	13146
696.867	13183
696.909	13454
696.951	13672
696.964	13717
696.992	13629
697.034	13316
697.076	13011
697.083	12948
697.118	13217
697.160	13390
697.202	13679
697.203	13646
697.244	13606
697.286	13613
697.323	13602
697.327	13637
697.369	13654
697.411	13517
697.442	13459
697.453	13540
697.494	13673
697.536	13934
697.562	13936
697.578	13984
697.620	14148
697.661	14251
697.682	14243
697.703	14170
697.744	14048
697.786	13986
697.801	13866
697.828	14116
697.869	14484
697.911	14870
697.921	14926
697.952	14521
697.994	13908
698.035	13296
698.040	13190
698.077	13247
698.118	13219
698.160	13153
698.160	13114
698.201	13466
698.243	13741
698.279	13953
698.284	14036
698.325	14426
698.367	14867
698.399	15116
698.408	15194
698.449	15360
698.491	15551
698.518	15609
698.532	15550
698.573	15265
698.614	14984
698.638	14755
698.656	14827
698.697	14944
698.738	15031
698.757	15036
698.779	15063
698.820	15018
698.862	14983
698.877	14932
698.903	15043
698.944	15140
698.985	15242
698.996	15230
699.026	15289
699.067	15312
699.116	15299
699.235	15276
699.354	14845
699.474	15075
699.593	15490
699.713	15531
699.832	15551
699.951	15353
700.070	15678
700.190	14248
700.309	14527
700.428	15708
700.547	14952
700.667	13766
700.786	15609
700.905	13396
701.024	14509
701.143	13358
701.262	12915
701.381	13989
701.500	13527
701.619	13911
701.738	13674
701.857	13643
701.976	12599
702.095	13262
702.214	13865
702.333	12820
702.452	13327
702.571	13751
702.690	13706
702.809	13407
702.928	12871
703.047	13038
703.165	12205
703.284	11981
703.403	12240
703.522	12554
703.640	12494
703.759	13397
703.878	15368
703.997	12126
704.115	12154
704.234	12774
704.353	12566
704.471	11594
704.590	10711
704.708	11496
704.827	11303
704.946	11281
705.064	11608
705.183	12614
705.301	12457
705.420	15598
705.538	14389
705.656	13636
705.775	13855
705.893	22680
706.012	27901
706.130	14215
706.249	13112
706.367	13839
706.485	14073
706.604	13394
706.722	13754
706.840	17546
706.958	25301
707.077	17510
707.195	11868
707.313	12154
707.431	11638
707.549	10414
707.668	11453
707.786	12561
707.904	11391
708.022	11828
708.140	12166
708.258	11035
708.376	12274
708.494	11147
708.612	12552
708.730	15596
708.848	14527
708.966	14376
709.084	13325
709.202	13680
709.320	13196
709.438	13301
709.556	13126
709.674	12048
709.791	12767
709.909	11915
710.027	13093
710.145	11950
710.263	12384
710.380	12227
710.498	11972
710.616	11897
710.733	11552
710.851	11416
710.969	12167
711.086	11893
711.204	11514
711.322	11968
711.439	11589
711.557	11618
711.674	10976
711.792	11739
711.909	11731
712.027	12674
712.144	11045
712.262	11070
712.379	11491
712.497	15747
712.614	15264
712.732	12765
712.849	12900
712.966	14108
713.084	15479
713.201	13013
713.318	13520
713.436	13596
713.553	13859
713.670	14405
713.787	14741
713.905	14951
714.022	13629
714.139	14360
714.256	17573
714.373	23830
714.490	41694
714.608	108202
714.725	447993
714.842	436127
714.959	38942
715.076	19756
715.193	16031
715.310	14592
715.427	13066
715.544	12414
715.661	12061
715.778	11833
715.895	12863
716.011	12761
716.128	12129
716.245	11007
716.362	12012
716.479	11610
716.596	11479
716.713	11065
716.829	11005
716.946	10533
717.063	10335
717.180	9993
717.296	10106
717.413	9917
717.530	9477
717.646	9363
717.763	10263
717.880	9046
717.996	8895
718.113	10425
718.229	9090
718.346	8787
718.462	8728
718.579	10456
718.695	11431
718.812	11238
718.928	12062
719.045	9749
719.161	8909
719.277	9225
719.394	9294
719.510	10050
719.626	10151
719.743	14052
719.859	18520
719.975	36024
720.092	143521
720.208	322163
720.324	38187
720.440	12721
720.557	11385
720.673	12750
720.789	15661
720.905	29320
721.021	12006
721.137	8830
721.253	9117
721.369	9204
721.486	10637
721.602	11412
721.718	8136
721.834	8325
721.950	7844
722.066	7491
722.181	7159
722.297	8486
722.413	8311
722.529	7565
722.645	7110
722.761	7627
722.877	7914
722.993	7760
723.108	9669
723.224	8721
723.340	8517
723.456	7249
723.571	7691
723.687	6617
723.803	7182
723.918	6990
724.034	6748
724.150	6669
724.265	7731
724.381	12400
724.497	14895
724.612	6967
724.728	6491
724.843	6456
724.959	8769
725.074	11780
725.190	12913
725.305	7310
725.421	6516
725.536	6436
725.651	6401
725.767	6455
725.882	6424
725.997	6412
726.113	5759
726.228	6718
726.343	5852
726.459	6223
726.574	6410
726.689	5549
726.804	5608
726.920	6524
727.035	5665
727.150	6654
727.265	6010
727.380	7647
727.495	6805
727.610	6245
727.725	5910
727.841	6919
727.956	12657
728.071	10717
728.186	5980
728.301	5575
728.416	6077
728.531	5853
728.645	5767
728.760	6178
728.875	5955
728.990	5876
729.105	6383
729.220	6211
729.335	5436
729.449	5240
729.564	5397
729.679	5324
729.794	5229
729.908	5442
730.023	5450
730.138	5161
730.253	5684
730.367	5270
730.482	6135
730.596	4983
730.711	5976
730.826	8218
730.940	8945
731.055	6163
731.169	5825
731.284	5911
731.398	6037
731.513	6793
731.627	6150
731.742	8126
731.856	8797
731.970	8759
732.085	10553
732.199	15294
732.313	26284
732.428	69235
732.542	208143
732.656	117050
732.771	20681
732.885	12618
732.999	10543
733.113	10373
733.227	9075
733.342	8875
733.456	8049
733.570	8701
733.684	8580
733.798	7338
733.912	7713
734.026	7480
734.140	7064
734.254	7863
734.368	10051
734.482	11125
734.596	7166
734.710	7521
734.824	7306
734.938	6612
735.052	6764
735.166	7806
735.280	7327
735.393	7137
735.507	6580
735.621	8196
735.735	11220
735.849	8168
735.962	6383
736.076	8122
736.190	6936
736.303	7499
736.417	8959
736.531	6330
736.644	6421
736.758	6420
736.872	7022
736.985	6783
737.099	5420
737.212	4762
737.326	5762
737.439	6484
737.553	5698
737.666	6556
737.780	5252
737.893	6413
738.007	6051
738.120	6029
738.233	5248
738.347	5728
738.460	5158
738.573	5820
738.687	5467
738.800	4512
738.913	6470
739.026	6382
739.140	6035
739.253	5923
739.366	5521
739.479	4828
739.592	5511
739.705	5896
739.818	5986
739.932	5224
740.045	5429
740.158	5106
740.271	5375
740.384	5489
740.497	5144
740.610	6311
740.723	5430
740.836	5677
740.949	6452
741.062	6078
741.174	5352
741.287	5168
741.400	5117
741.513	5097
741.626	4942
741.739	5043
741.851	4836
741.964	5533
742.077	4665
742.189	4669
742.302	5169
742.415	4953
742.527	4652
742.640	4456
742.753	5312
742.865	4490
742.978	5151
743.090	4704
743.203	4536
743.316	4943
743.428	4484
743.541	4386
743.653	4920
743.766	3868
743.878	4658
743.990	5669
744.103	6499
744.215	5640
744.327	5080
744.440	5199
744.552	5843
744.664	4779
744.777	4995
744.889	4262
745.001	5070
745.113	3893
745.226	4222
745.338	4116
745.450	4218
745.562	4046
745.674	4053
745.786	4696
745.898	4915
746.010	5130
746.122	4082
746.234	3680
746.347	4911
746.459	5717
746.570	4672
746.682	5142
746.794	6364
746.906	4174
747.018	3932
747.130	4723
747.242	3841
747.354	3633
747.466	4930
747.577	3994
747.689	3691
747.801	4528
747.913	4004
748.024	3786
748.136	4172
748.248	3104
748.359	3300
748.471	4797
748.583	3385
748.694	3637
748.806	6312
748.918	4579
749.029	3767
749.141	4403
749.252	4590
749.364	3632
749.475	5011
749.587	4525
749.698	4718
749.809	3285
749.921	3892
750.032	3775
750.144	3277
750.255	3214
750.366	3703
750.478	3751
750.589	4129
750.700	3668
750.811	3367
750.923	3873
751.034	5428
751.145	5685
751.256	2572
751.367	3322
751.479	3973
751.590	3681
751.701	3556
751.812	3203
751.923	3101
752.034	3889
752.145	3713
752.256	3678
752.367	3120
752.478	1987
752.589	3511
752.700	4128
752.811	2857
752.922	3070
753.032	3710
753.143	4133
753.254	3001
753.365	3440
753.476	3553
753.586	3346
753.697	3616
753.808	3012
753.919	2715
754.029	2995
754.140	3523
754.251	3014
754.361	3897
754.472	3555
754.582	2653
754.693	3249
754.804	3348
754.914	2790
755.025	2826
755.135	3028
755.246	3969
755.356	3337
755.466	2751
755.577	3714
755.687	3246
755.798	2710
755.908	3167
756.018	3229
756.129	3345
756.239	4063
756.349	3626
756.460	3553
756.570	4306
756.680	2785
756.790	3725
756.900	2880
757.011	3480
757.121	3468
757.231	3894
757.341	3287
757.451	3108
757.561	2876
757.671	2738
757.781	2955
757.891	4056
758.001	3015
758.111	3724
758.221	3579
758.331	3464
758.441	3775
758.551	4296
758.661	4762
758.771	3626
758.880	3608
758.990	3970
759.100	3377
759.210	4271
759.320	3278
759.429	4604
759.539	3999
759.649	4467
759.758	5711
759.868	6221
759.978	4484
760.087	4682
760.197	5723
760.307	4601
760.416	5543
760.526	4368
760.635	5651
760.745	4830
760.854	5299
760.964	5678
761.073	5846
761.182	5958
761.292	5082
761.401	5131
761.511	3913
761.620	4666
761.729	5044
761.839	3586
761.948	4754
762.057	3788
762.166	4455
762.276	3437
762.385	4869
762.494	4278
762.603	4620
762.712	5830
762.822	3951
762.931	4954
763.040	4572
763.149	3934
763.258	4641
763.367	5766
763.476	5126
763.585	4834
763.694	5288
763.803	4832
763.912	6211
764.021	6133
764.130	5913
764.238	6898
764.347	7074
764.456	7831
764.565	8341
764.674	7164
764.783	8905
764.891	8810
765.000	10979
765.109	11842
765.217	12153
765.326	15557
765.435	17890
765.543	20976
765.652	25137
765.761	32897
765.869	45374
765.978	66342
766.086	105572
766.195	182189
766.303	324235
766.412	429484
766.520	347747
766.629	271568
766.737	152185
766.846	91931
766.954	61539
767.062	44951
767.171	36302
767.279	27604
767.387	21297
767.496	19652
767.604	16733
767.712	14809
767.820	12472
767.928	12222
768.037	11258
768.145	11224
768.253	10630
768.361	9828
768.469	11007
768.577	9692
768.685	11461
768.793	11795
768.901	11986
769.009	14352
769.117	16811
769.225	20991
769.333	28557
769.441	42343
769.549	73771
769.657	148692
769.765	308946
769.873	347725
769.981	248169
770.088	120595
770.196	63334
770.304	39968
770.412	28735
770.519	22523
770.627	17818
770.735	15195
770.842	12995
770.950	12019
771.058	10355
771.165	9873
771.273	9418
771.380	9194
771.488	9596
771.595	8138
771.703	7777
771.810	7755
771.918	6876
772.025	7260
772.133	7545
772.240	7143
772.348	8265
772.455	7748
772.562	6625
772.670	6958
772.777	7518
772.884	6316
772.991	6620
773.099	7123
773.206	5824
773.313	6804
773.420	6432
773.528	5177
773.635	5677
773.742	6084
773.849	6663
773.956	5381
774.063	5749
774.170	5438
774.277	4832
774.384	5198
774.491	5392
774.598	5324
774.705	5345
774.812	4738
774.919	4892
775.026	5190
775.133	4906
775.239	5434
775.346	4934
775.453	4632
775.560	4752
775.667	5483
775.773	4263
775.880	5288
775.987	5283
776.093	5381
776.200	4528
776.307	3447
776.413	4551
776.520	4416
776.627	4015
776.733	4550
776.840	3522
776.946	6365
777.053	6183
777.159	9281
777.266	5876
777.372	8290
777.478	7582
777.585	4629
777.691	3674
777.798	5183
777.904	4848
778.010	4586
778.117	4517
778.223	3483
778.329	4352
778.435	4161
778.542	4592
778.648	3701
778.754	3348
778.860	4131
778.966	3674
779.072	3540
779.178	3446
779.284	4179
779.391	3547
779.497	3218
779.603	5819
779.708	4092
779.815	9171
779.920	27980
780.026	53436
780.132	9316
780.238	3901
780.344	3209
780.450	4472
780.556	2802
780.661	2972
780.767	3617
780.873	2519
780.979	3072
781.085	2859
781.190	2972
781.296	2207
781.402	2275
781.507	3001
781.613	2822
781.719	3201
781.824	2683
781.930	3352
782.035	3030
782.141	3449
782.246	2346
782.352	2418
782.457	2224
782.563	2649
782.668	2614
782.773	2908
782.879	2056
782.984	3727
783.090	3692
783.195	3299
783.300	2989
783.405	3092
783.511	1976
783.616	3143
783.721	2419
783.826	2499
783.932	3668
784.037	2564
784.142	2985
784.247	2252
784.352	2218
784.457	3048
784.562	2829
784.667	2176
784.772	1958
784.877	1029
784.982	2829
785.087	2502
785.192	3016
785.297	2293
785.402	2297
785.507	1785
785.611	1697
785.716	3096
785.821	1842
785.926	1194
786.031	2014
786.135	2405
786.240	2248
786.345	2401
786.450	2941
786.554	2712
786.659	2077
786.763	1123
786.868	3070
786.973	2056
787.077	1543
787.182	2280
787.286	2700
787.391	2448
787.495	1702
787.600	1992
787.704	1850
787.809	1699
787.913	1731
788.017	2025
788.122	2476
788.226	1407
788.330	1355
788.435	3027
788.539	2309
788.643	2159
788.747	1601
788.852	1130
788.956	1197
789.060	2512
789.164	1953
789.268	849
789.372	1901
789.476	2128
789.580	2279
789.684	1751
789.788	2143
789.892	1872
789.996	2665
790.100	1117
790.204	1912
790.308	1793
790.412	1968
790.516	2280
790.620	2089
790.724	1495
790.828	1849
790.931	1174
791.035	3013
791.139	2285
791.242	569
791.346	2359
791.450	1476
791.554	1560
791.657	886
791.761	2367
791.864	2557
791.968	2022
792.072	2146
792.175	1983
792.279	2299
792.382	1612
792.486	1249
792.589	1348
792.693	1776
792.796	1452
792.899	2137
793.003	2527
793.106	94
793.209	1037
793.313	2835
793.416	-156
793.519	2668
793.623	2290
793.726	2260
793.829	1911
793.932	1940
794.035	1479
794.138	2598
794.242	2536
794.345	2596
794.448	3302
794.551	3600
794.654	15330
794.757	29987
794.860	5903
794.963	2481
795.066	1035
795.169	2588
795.272	1441
795.375	1939
795.477	1440
795.580	1227
795.683	416
795.786	1692
795.889	161
795.991	2351
796.094	1945
796.197	97
796.300	2821
796.402	1608
796.505	1532
796.608	1494
796.710	1624
796.813	1701
796.915	1794
797.018	2482
797.120	1707
797.223	464
797.326	2728
797.428	1148
797.530	1772
797.633	1495
797.735	2722
797.838	2753
797.940	2489
798.042	693
798.145	1024
798.247	1362
798.349	-171
798.452	1615
798.554	1746
798.656	1250
798.758	1595
798.860	698
798.962	-90
799.065	564
799.167	-116
799.269	2135
799.371	2110
799.473	2379
799.575	1732
799.677	1348
799.779	2974
799.881	552
799.983	2352
800.085	1024
800.187	2014
800.289	1094
800.390	877
800.492	858
800.594	2354
800.696	914
800.798	1410
800.899	980
801.001	646
801.103	995
801.205	422
801.306	1370
801.408	430
801.509	634
801.611	1318
801.713	2332
801.814	-133
801.916	929
802.017	945
802.119	25
802.220	1016
802.322	-637
802.423	2712
802.525	-139
802.626	1025
802.727	825
802.829	1704
802.930	-596
803.031	3170
803.133	337
803.234	1240
803.335	1244
803.436	-778
803.538	1451
803.639	5
803.740	1243
803.841	284
803.942	621
804.043	945
804.144	170
804.245	897
804.346	707
804.447	781
804.548	1731
804.649	2469
804.750	1016
804.851	206
804.952	1090
805.053	485
805.154	176
805.255	1177
805.355	786
805.456	176
805.557	761
805.658	-317
805.758	408
805.859	823
805.960	1174
806.061	361
806.161	447
806.262	574
806.362	103
806.463	540
806.564	1541
806.664	763
806.765	737
806.865	800
806.966	360
807.066	271
807.166	1088
807.267	1453
807.367	1167
807.468	1773
807.568	94
807.668	1174
807.769	1999
807.869	19
807.969	661
808.069	722
808.170	1392
808.270	573
808.370	987
808.470	794
808.570	573
808.670	751
808.770	750
808.870	674
808.970	756
809.070	751
809.170	-96
809.271	828
809.370	1255
809.470	805
809.570	-93
809.670	67
809.770	854
809.870	1443
809.970	431
810.070	433
810.169	1572
810.269	-549
810.369	1028
810.469	1086
810.568	1394
810.668	54
810.768	393
810.867	662
810.967	215
811.066	373
811.166	304
811.265	1743
811.365	277
811.464	690
811.564	287
811.663	823
811.763	-342
811.862	1050
811.962	1650
812.061	980
812.160	545
812.260	707
812.359	464
812.458	-510
812.557	2180
812.657	2034
812.756	1344
812.855	170
812.954	958
813.053	908
813.153	1820
813.252	724
813.351	755
813.450	478
813.549	689
813.648	604
813.747	879
813.846	824
813.945	-285
814.044	791
814.143	2060
814.242	1610
814.341	664
814.439	1383
814.538	1295
814.637	759
814.736	84
814.835	2112
814.933	1111
815.032	1624
815.131	1459
815.229	2414
815.328	3697
815.427	2920
815.525	2770
815.624	2708
815.722	2988
815.821	2635
815.919	3156
816.018	1871
816.116	2528
816.215	3058
816.313	2125
816.412	3093
816.510	2972
816.609	4395
816.707	4268
816.805	3523
816.904	3742
817.002	4295
817.100	4697
817.198	5616
817.296	4558
817.395	4851
817.493	6464
817.591	5529
817.689	8229
817.787	10087
817.885	14623
817.983	25319
818.081	49479
818.179	114455
818.277	254472
818.375	222060
818.473	73109
818.571	32007
818.669	21205
818.767	18902
818.865	17908
818.963	21081
819.061	28840
819.158	48169
819.256	93531
819.354	200300
819.452	356256
819.549	252016
819.647	96607
819.745	41993
819.842	25815
819.940	17949
820.038	12835
820.135	10142
820.233	9389
820.330	6980
820.428	6580
820.525	7143
820.623	5127
820.720	4133
820.818	5132
820.915	3911
821.012	4720
821.110	2766
821.207	4771
821.304	2955
821.402	3907
821.499	3924
821.596	4320
821.693	4095
821.791	3534
821.888	2791
821.985	4676
822.082	2394
822.179	3115
822.276	2763
822.373	2309
822.470	2137
822.567	2377
822.664	2292
822.761	2050
822.858	1401
822.955	2502
823.052	2134
823.149	1058
823.246	1386
823.343	1943
823.440	1901
823.536	1462
823.633	1805
823.730	1614
823.827	2670
823.923	2017
824.020	2545
824.117	2310
824.213	1592
824.310	1939
824.407	669
824.503	2102
824.600	2116
824.696	1237
824.793	3243
824.889	2292
824.986	1964
825.082	1523
825.179	2194
825.275	1818
825.371	1568
825.468	2404
825.564	237
825.660	2279
825.757	1748
825.853	2030
825.949	1372
826.045	2093
826.142	981
826.238	695
826.334	1973
826.430	829
826.526	1787
826.622	885
826.718	1405
826.814	543
826.910	2371
827.006	597
827.102	273
827.198	1373
827.294	1500
827.390	1393
827.486	1189
827.582	-125
827.678	55
827.774	2098
827.869	936
827.965	2416
828.061	479
828.157	2210
828.252	1281
828.348	112
828.444	1498
828.539	659
828.635	1116
828.731	1713
828.826	-56
828.922	1697
829.017	410
829.113	1309
829.208	1112
829.304	963
829.399	2319
829.495	901
829.590	1982
829.685	314
829.781	1530
829.876	1172
829.971	413
830.066	-240
830.162	201
830.257	911
830.352	909
830.447	1766
830.543	1610
830.638	297
830.733	1952
830.828	1834
830.923	1603
831.018	1312
831.113	1111
831.208	-26
831.303	847
831.398	1048
831.493	746
831.588	1558
831.683	505
831.778	690
831.873	1347
831.967	1991
832.062	615
832.157	261
832.252	2067
832.346	879
832.441	1957
832.536	706
832.631	2485
832.725	1395
832.820	358
832.914	707
833.009	898
833.104	755
833.198	1139
833.293	680
833.387	775
833.482	1434
833.576	494
833.670	1474
833.765	849
833.859	311
833.954	1603
834.048	1373
834.142	95
834.237	-223
834.331	98
834.425	1095
834.519	374
834.613	886
834.708	-888
834.802	711
834.896	396
834.990	267
835.084	1037
835.178	140
835.272	-230
835.366	1669
835.460	1460
835.554	1042
835.648	1266
835.742	54
835.836	839
835.930	-290
836.024	1815
836.117	1033
836.211	74
836.305	1071
836.399	1749
836.493	-275
836.586	1033
836.680	649
836.774	-385
836.867	1474
836.961	-482
837.055	372
837.148	634
837.242	459
837.335	25
837.429	221
837.522	-158
837.616	543
837.709	309
837.803	787
837.896	637
837.989	147
838.083	1269
838.176	1535
838.269	470
838.363	1505
838.456	62
838.549	1682
838.642	686
838.735	1019
838.829	1134
838.922	540
839.015	441
839.108	-490
839.201	116
839.294	-124
839.387	597
839.480	570
839.573	777
839.666	1569
839.759	806
839.852	52
839.945	346
840.038	-627
840.131	-118
840.223	-137
840.316	125
840.409	683
840.502	381
840.594	1545
840.687	-771
840.780	-382
840.873	210
840.965	-57
841.058	384
841.150	2667
841.243	1260
841.336	698
841.428	163
841.521	-1175
841.613	-459
841.706	561
841.798	408
841.890	708
841.983	71
842.075	352
842.167	-240
842.260	10
842.352	1014
842.444	728
842.537	1462
842.629	2933
842.721	872
842.813	528
842.905	-879
842.997	71
843.090	534
843.182	782
843.274	1205
843.366	5159
843.458	9230
843.550	5436
843.642	219
843.734	1117
843.826	119
843.918	640
844.009	-44
844.101	-421
844.193	188
844.285	32
844.377	428
844.469	1331
844.560	1172
844.652	416
844.744	388
844.835	471
844.927	-322
845.019	664
845.110	-54
845.202	488
845.293	376
845.385	-414
845.476	-210
845.568	948
845.659	-536
845.751	1330
845.842	135
845.934	840
846.025	-415
846.116	859
846.208	334
846.299	-1129
846.390	143
846.482	428
846.573	898
846.664	933
846.755	-293
846.846	888
846.937	-1210
847.029	491
847.120	-59
847.211	97
847.302	420
847.393	-679
847.484	1110
847.575	-747
847.666	-500
847.757	227
847.847	387
847.938	905
848.029	-171
848.120	-793
848.211	550
848.302	-781
848.392	28
848.483	191
848.574	-67
848.664	219
848.755	-129
848.846	495
848.936	249
849.027	895
849.118	1089
849.208	318
849.299	2541
849.389	3279
849.480	7093
849.570	15616
849.661	28541
849.751	49298
849.841	16784
849.932	1896
850.022	754
850.112	1037
850.203	-231
850.293	683
850.383	-105
850.474	-300
850.564	460
850.654	422
850.744	368
850.834	-341
850.924	524
851.014	337
851.104	378
851.194	422
851.284	632
851.374	65
851.464	789
851.554	528
851.644	-594
851.734	600
851.824	54
851.914	516
852.004	2532
852.094	760
852.183	1173
852.273	-4
852.363	226
852.452	306
852.542	399
852.632	92
852.721	736
852.811	-198
852.901	658
852.990	742
853.080	829
853.169	751
853.259	689
853.348	1120
853.438	1683
853.527	3247
853.617	4549
853.706	9428
853.795	17286
853.885	37809
853.974	71002
854.063	133643
854.152	190071
854.242	72985
854.331	14958
854.420	6748
854.509	4013
854.598	2677
854.687	1684
854.777	2020
854.866	1410
854.955	899
855.044	245
855.133	10
855.222	21
855.311	-382
855.400	488
855.488	-667
855.577	353
855.666	150
855.755	305
855.844	1451
855.933	926
856.021	236
856.110	54
856.199	-98
856.288	153
856.376	-218
856.465	-88
856.554	-28
856.642	-688
856.731	574
856.819	811
856.908	-312
856.996	159
857.085	-541
857.173	542
857.262	-854
857.350	6
857.438	-345
857.527	-59
857.615	185
857.703	488
857.792	-959
857.880	-354
857.968	-376
858.056	-545
858.145	-423
858.233	-165
858.321	69
858.409	102
858.497	-806
858.585	-734
858.673	475
858.761	-45
858.849	-333
858.937	-927
859.025	-547
859.113	672
859.201	-942
859.289	507
859.377	-64
859.465	-269
859.552	-306
859.640	-53
859.728	-339
859.816	-255
859.903	287
859.991	-334
860.079	16
860.166	-309
860.254	165
860.342	691
860.429	684
860.517	-487
860.604	-296
860.692	469
860.779	-200
860.867	-412
860.954	-249
861.042	17
861.129	346
861.216	312
861.304	279
861.391	-813
861.478	464
861.565	755
861.653	1151
861.740	-223
861.827	-947
861.914	413
862.001	490
862.089	606
862.176	250
862.263	-269
862.350	-48
862.437	-878
862.524	458
862.611	-77
862.698	572
862.785	866
862.871	515
862.958	-137
863.045	-449
863.132	349
863.219	-167
863.306	-901
863.392	167
863.479	-394
863.566	-339
863.652	-65
863.739	75
863.826	522
863.912	-126
863.999	-537
864.086	-344
864.172	161
864.259	201
864.345	476
864.432	848
864.518	-613
864.604	319
864.691	508
864.777	59
864.863	505
864.950	1670
865.036	1188
865.122	3487
865.209	2504
865.295	2365
865.381	2583
865.467	3037
865.553	4338
865.639	6114
865.726	11143
865.812	21380
865.898	38978
865.984	58771
866.070	107111
866.156	109639
866.242	30708
866.328	8728
866.414	3614
866.499	4600
866.585	3280
866.671	2419
866.757	2578
866.843	2845
866.928	1337
867.014	1955
867.100	2232
867.186	1898
867.271	2072
867.357	1446
867.442	2693
867.528	1990
867.614	1708
867.699	1095
867.785	2730
867.870	2401
867.956	2133
868.041	2642
868.127	1857
868.212	3068
868.297	1909
868.383	1507
868.468	2456
868.553	2302
868.639	2584
868.724	2364
868.809	2334
868.894	1602
868.979	1119
869.065	1736
869.150	241
869.235	1327
869.320	725
869.405	575
869.490	2162
869.575	1085
869.660	468
869.745	1142
869.830	1386
869.915	1081
870.000	1166
870.085	1008
870.169	1673
870.254	1683
870.339	592
870.424	-138
870.509	1447
870.593	1721
870.678	1728
870.763	1177
870.847	1193
870.932	1367
871.016	2333
871.101	1125
871.186	457
871.270	1585
871.355	1025
871.439	1171
871.523	1697
871.608	1129
871.692	1213
871.777	2090
871.861	1274
871.945	1613
872.030	1366
872.114	638
872.198	520
872.282	518
872.367	622
872.451	726
872.535	832
872.619	879
872.703	1158
872.787	752
872.871	298
872.955	137
873.039	600
873.123	1415
873.207	1048
873.291	59
873.375	186
873.459	949
873.543	452
873.627	914
873.711	769
873.794	1233
873.878	572
873.962	-613
874.045	649
874.129	-49
874.137	2
874.213	512
874.245	478
874.296	424
874.352	621
874.380	719
874.460	455
874.464	444
874.547	560
874.568	668
874.631	982
874.676	542
874.714	178
874.784	982
874.798	1138
874.881	2075
874.892	1711
874.965	-801
874.999	97
875.048	1341
875.107	1138
875.131	1032
875.215	570
875.215	570
875.298	-73
875.323	168
875.381	732
875.430	1081
875.465	1324
875.538	1196
875.548	1173
875.631	-306
875.646	-216
875.714	205
875.753	300
875.798	473
875.861	980
875.881	1109
875.964	842
875.968	834
876.047	827
876.076	853
876.130	814
876.183	900
876.213	947
876.291	773
876.296	763
876.379	652
876.398	655
876.462	612
876.506	433
876.545	351
876.613	546
876.628	560
876.711	405
876.721	426
876.794	697
876.828	721
876.877	726
876.935	553
876.960	518
877.043	724
877.043	728
877.125	1690
877.150	1689
877.208	1698
877.258	1077
877.291	665
877.365	333
877.374	292
877.456	1497
877.472	1247
877.539	218
877.579	475
877.622	805
877.687	887
877.704	911
877.787	960
877.794	940
877.869	563
877.901	645
877.952	784
878.008	793
878.034	838
878.115	23
878.117	7
878.199	516
878.222	501
878.282	547
878.329	1162
878.364	1626
878.437	1457
878.447	1391
878.529	293
878.544	324
878.611	780
878.651	826
878.694	890
878.758	1371
878.776	1408
878.858	768
878.865	736
878.941	784
878.972	722
879.023	418
879.078	328
879.105	418
879.185	856
879.187	865
879.269	1162
879.292	1129
879.351	826
879.399	712
879.433	698
879.506	1091
879.516	1127
879.598	600
879.613	520
879.680	423
879.720	517
879.762	622
879.827	552
879.844	482
879.926	682
879.933	679
880.007	946
880.040	955
880.089	866
880.147	780
880.171	703
880.253	1307
880.254	1304
880.335	1093
880.360	1272
880.417	1791
880.467	2385
880.499	3031
880.574	4152
880.580	4100
880.662	1951
880.680	1593
880.744	843
880.787	721
880.825	699
880.893	709
880.907	740
880.989	807
881.000	765
881.070	566
881.106	691
881.152	808
881.213	756
881.233	767
881.315	761
881.319	782
881.396	1104
881.426	1037
881.478	793
881.532	849
881.559	1105
881.639	1500
881.641	1494
881.722	701
881.745	615
881.803	600
881.852	789
881.885	890
881.958	763
881.966	765
882.047	562
882.064	622
882.129	922
882.171	1129
882.210	1310
882.277	1596
882.291	1671
882.372	1459
882.383	1499
882.454	1493
882.489	1145
882.535	645
882.596	748
882.616	894
882.697	875
882.702	880
882.778	689
882.808	556
882.859	414
882.914	428
882.940	528
883.020	672
883.021	676
883.102	984
883.127	1026
883.183	1116
883.233	1296
883.264	1233
883.339	599
883.345	542
883.426	36
883.445	54
883.507	692
883.551	703
883.587	767
883.657	1204
883.668	1243
883.749	1481
883.763	1491
883.830	1047
883.869	664
883.910	340
883.975	425
883.991	584
884.072	797
884.081	858
884.152	1438
884.187	1644
884.233	1661
884.292	1452
884.314	1268
884.394	493
884.398	469
884.475	583
884.504	629
884.555	726
884.610	788
884.636	752
884.716	470
884.716	479
884.797	1451
884.821	1731
884.877	1107
884.927	549
884.958	682
885.033	921
885.038	889
885.118	569
885.139	414
885.199	501
885.244	702
885.279	793
885.350	824
885.359	825
885.439	699
885.456	664
885.520	1284
885.561	1738
885.600	1367
885.667	607
885.680	637
885.760	1188
885.773	1246
885.840	984
885.878	729
885.920	881
885.984	1293
886.000	1276
886.080	770
886.089	771
886.160	1116
886.195	1164
886.240	1065
886.300	900
886.320	948
886.400	1027
886.406	1040
886.480	766
886.511	705
886.560	884
886.616	890
886.640	966
886.720	1109
886.722	1111
886.800	668
886.827	566
886.879	765
886.932	763
886.959	1004
887.038	1842
887.039	1841
887.119	1154
887.143	947
887.198	1007
887.248	1106
887.278	1101
887.354	846
887.358	846
887.437	1005
887.459	1027
887.517	1468
887.564	1773
887.596	1393
887.669	467
887.676	464
887.755	562
887.774	563
887.835	467
887.880	413
887.914	693
887.985	1218
887.994	1208
888.073	1049
888.090	1042
888.153	1254
888.195	1318
888.232	1170
888.300	885
888.311	935
888.391	1307
888.405	1372
888.470	927
888.510	602
888.549	750
888.615	1114
888.628	1153
888.708	1326
888.720	1348
888.787	1349
888.825	1309
888.866	1176
888.930	987
888.945	951
889.024	816
889.035	795
889.103	985
889.140	1049
889.182	879
889.245	659
889.261	662
889.340	665
889.349	666
889.419	726
889.454	743
889.498	900
889.559	1120
889.577	1169
889.656	1392
889.664	1414
889.735	1394
889.768	1381
889.814	1098
889.873	723
889.978	317
890.083	1584
890.187	1223
890.292	1487
890.397	1615
890.501	1072
890.606	1288
890.710	1028
890.815	931
890.919	1307
891.024	1802
891.128	2033
891.233	1109
891.337	1132
891.442	1936
891.546	1773
891.650	958
891.755	619
891.859	2283
891.963	1647
892.068	1631
892.172	1357
892.276	588
892.380	795
892.484	1430
892.589	1788
892.693	2039
892.797	1031
892.901	645
893.005	985
893.109	2025
893.213	1677
893.317	788
893.421	684
893.525	740
893.629	160
893.733	1471
893.837	524
893.941	1006
894.045	969
894.148	512
894.252	1551
894.356	2318
894.460	2002
894.564	947
894.667	1022
894.771	643
894.875	354
894.978	896
895.082	661
895.186	1477
895.289	884
895.393	632
895.496	2054
895.600	313
895.703	885
895.807	331
895.910	1128
896.014	1453
896.117	714
896.221	1268
896.324	1736
896.427	830
896.531	1141
896.634	1185
896.737	576
896.840	732
896.944	390
897.047	1203
897.150	1603
897.253	730
897.356	-42
897.460	119
897.563	1272
897.666	1123
897.769	1631
897.872	447
897.975	1183
898.078	739
898.181	1123
898.284	546
898.387	1155
898.490	858
898.593	915
898.695	178
898.798	1029
898.901	1555
899.004	530
899.107	713
899.209	955
899.312	1455
899.415	781
899.518	1304
899.620	947
899.723	970
899.826	1778
899.928	1415
900.031	1122
900.133	1403
900.236	1066
900.338	438
900.441	978
900.543	391
900.646	1190
900.748	529
900.851	497
900.953	1063
901.055	415
901.158	816
901.260	1530
901.362	316
901.465	124
901.567	887
901.669	1292
901.771	333
901.873	76
901.976	895
902.078	936
902.180	36
902.282	902
902.384	759
902.486	1393
902.588	318
902.690	1933
902.792	469
902.894	442
902.996	679
903.098	866
903.200	937
903.302	898
903.404	191
903.505	459
903.607	1073
903.709	686
903.811	1433
903.913	528
904.014	481
904.116	933
904.218	595
904.319	633
904.421	1710
904.523	1399
904.624	1203
904.726	1081
904.827	608
904.929	654
905.030	980
905.132	524
905.233	1246
905.335	641
905.436	1083
905.537	1001
905.639	1533
905.740	814
905.841	829
905.943	1079
906.044	216
906.145	357
906.247	841
906.348	980
906.449	985
906.550	1038
906.651	553
906.752	138
906.854	208
906.955	463
907.056	1069
907.157	997
907.258	1249
907.359	444
907.460	482
907.561	339
907.662	-11
907.762	733
907.863	1728
907.964	731
908.065	884
908.166	1338
908.267	392
908.367	760
908.468	1058
908.569	738
908.670	296
908.770	1355
908.871	1099
908.971	1091
909.072	1002
909.173	394
909.273	697
909.374	293
909.474	1178
909.575	413
909.675	609
909.776	340
909.876	921
909.977	961
910.077	789
910.177	644
910.278	999
910.378	668
910.478	357
910.579	230
910.679	562
910.779	1002
910.879	812
910.980	913
911.080	631
911.180	229
911.280	-157
911.380	1263
911.480	-534
911.580	769
911.680	1660
911.780	1196
911.880	1632
911.980	310
912.080	664
912.180	1424
912.280	547
912.380	59
912.480	504
912.580	979
912.679	285
912.779	545
912.879	332
912.979	779
913.078	518
913.178	243
913.278	179
913.377	109
913.477	920
913.577	-652
913.676	713
913.776	1608
913.875	817
913.975	788
914.074	53
914.174	1396
914.273	-316
914.373	1092
914.472	721
914.572	589
914.671	870
914.770	10
914.870	178
914.969	471
915.068	827
915.167	1300
915.267	259
915.366	1191
915.465	362
915.564	321
915.663	1321
915.763	-203
915.862	654
915.961	926
916.060	721
916.159	535
916.258	249
916.357	981
916.456	1370
916.555	935
916.654	523
916.752	927
916.851	704
916.950	263
917.049	825
917.148	1313
917.247	695
917.345	66
917.444	288
917.543	612
917.642	414
917.740	378
917.839	906
917.937	529
918.036	611
918.135	407
918.233	736
918.332	917
918.430	267
918.529	158
918.627	291
918.726	1494
918.824	426
918.923	55
919.021	655
919.119	964
919.218	98
919.316	147
919.414	490
919.512	1253
919.611	1081
919.709	845
919.807	1088
919.905	456
920.003	1014
920.102	1327
920.200	863
920.298	913
920.396	1655
920.494	718
920.592	1160
920.690	442
920.788	1418
920.886	133
920.984	980
921.082	1182
921.180	2349
921.277	1222
921.375	965
921.473	2026
921.571	1368
921.669	1909
921.766	1698
921.864	1907
921.962	1735
922.060	1171
922.157	1265
922.255	1607
922.352	1969
922.450	1871
922.548	1608
922.645	1607
922.743	1931
922.840	2881
922.938	4454
923.035	4247
923.133	3364
923.230	3996
923.327	6574
923.425	5236
923.522	5325
923.619	4931
923.717	3626
923.814	3778
923.911	3594
924.008	4439
924.106	4126
924.203	3297
924.300	3198
924.397	3474
924.494	3990
924.591	3598
924.688	3287
924.786	4756
924.883	3614
924.979	3157
925.077	3013
925.173	3912
925.270	3739
925.367	3498
925.464	4465
925.561	3662
925.658	4285
925.755	4663
925.852	4584
925.948	3401
926.045	3549
926.142	4373
926.239	4694
926.335	3967
926.432	2711
926.529	3618
926.625	4541
926.722	3572
926.818	3135
926.915	3624
927.011	3134
927.108	3216
927.204	3569
927.301	3528
927.397	3108
927.494	4811
927.590	3405
927.687	2423
927.783	3257
927.879	3858
927.976	4114
928.072	2730
928.168	3430
928.264	3203
928.361	2391
928.457	3644
928.553	3084
928.649	1952
928.745	3282
928.841	2511
928.937	3321
929.033	3347
929.129	3574
929.225	3695
929.321	2285
929.417	2346
929.513	3460
929.609	2770
929.705	1831
929.801	3079
929.897	1978
929.993	1831
930.089	3007
930.184	3021
930.280	2698
930.376	3889
930.471	2803
930.567	3062
930.663	2469
930.758	2909
930.854	3030
930.950	2823
931.045	2441
931.141	2633
931.236	3515
931.332	2768
931.427	1708
931.523	2700
931.618	3111
931.714	2409
931.809	2553
931.905	3057
932.000	2330
932.095	1406
932.191	2728
932.286	3403
932.381	2155
932.476	1136
932.572	2062
932.667	1688
932.762	2602
932.857	2438
932.952	3116
933.047	2356
933.142	1702
933.237	1877
933.332	3278
933.427	2455
933.522	2613
933.617	2441
933.712	2809
933.807	2045
933.902	3213
933.997	3172
934.092	2243
934.187	1885
934.282	2511
934.376	1641
934.471	3629
934.566	1452
934.661	1725
934.755	2735
934.850	2626
934.945	2384
935.039	1972
935.134	1774
935.228	2316
935.323	2923
935.417	2710
935.512	1397
935.606	1176
935.701	2367
935.795	1272
935.890	2414
935.984	1598
936.079	1313
936.173	1868
936.267	1440
936.362	1663
936.456	2286
936.550	2572
936.644	2539
936.738	1656
936.833	1688
936.927	1644
937.021	1919
937.115	1521
937.209	1836
937.303	2720
937.397	1207
937.491	1754
937.585	2457
937.679	1969
937.773	1039
937.867	1559
937.961	788
938.055	2545
938.149	2599
938.243	1130
938.337	1582
938.430	1138
938.524	3380
938.618	2444
938.712	1348
938.805	1504
938.899	1754
938.993	2907
939.086	2051
939.180	959
939.274	2478
939.367	2459
939.461	2686
939.554	1126
939.648	1527
939.741	754
939.835	1151
939.928	2320
940.022	2325
940.115	1766
940.208	3028
940.302	1730
940.395	2269
940.488	845
940.582	1878
940.675	844
940.768	1234
940.861	2124
940.954	2494
941.048	1183
941.141	1171
941.234	1227
941.327	2043
941.420	3330
941.513	2939
941.606	1084
941.699	2326
941.792	2134
941.885	2327
941.978	3287
942.071	2045
942.164	1017
942.257	590
942.349	775
942.442	1887
942.535	1101
942.628	1474
942.721	2075
942.813	879
942.906	1890
942.999	832
943.091	767
943.184	2075
943.277	1055
943.369	1268
943.462	1159
943.554	1630
943.647	1193
943.739	1644
943.832	1525
943.924	945
944.017	1789
944.109	537
944.201	178
944.294	1627
944.386	1554
944.478	214
944.571	723
944.663	1099
944.755	1128
944.847	608
944.940	1646
945.032	495
945.124	392
945.216	2235
945.308	1009
945.400	1913
945.492	864
945.584	1657
945.676	1519
945.768	1469
945.860	1365
945.952	1858
946.044	2021
946.136	592
946.228	649
946.320	1022
946.412	1347
946.503	1560
946.595	1676
946.687	1405
946.779	404
946.870	945
946.962	1211
947.054	553
947.145	2284
947.237	1115
947.329	778
947.420	715
947.512	449
947.603	112
947.695	1114
947.786	489
947.878	974
947.969	1127
948.061	844
948.152	505
948.243	301
948.335	275
948.426	1499
948.517	853
948.609	1276
948.700	830
948.791	438
948.882	549
948.973	632
949.065	1329
949.156	1385
949.247	122
949.338	897
949.429	323
949.520	768
949.611	760
949.702	1109
949.793	1284
949.884	1080
949.975	809
950.066	119
950.157	1579
950.247	240
950.338	-85
950.429	486
950.520	662
950.611	1421
950.701	1569
950.792	1681
950.883	885
950.973	182
951.064	901
951.155	1136
951.245	1390
951.336	1224
951.427	518
951.517	1854
951.608	1351
951.698	962
951.788	442
951.879	216
951.969	978
952.060	241
952.150	1403
952.240	499
952.331	-432
952.421	1925
952.511	104
952.602	272
952.692	141
952.782	497
952.872	176
952.962	339
953.052	662
953.143	303
953.233	1272
953.323	995
953.413	542
953.503	1570
953.593	1199
953.683	1170
953.773	62
953.863	-329
953.953	356
954.042	695
954.132	941
954.222	1835
954.312	-171
954.402	906
954.492	983
954.581	1876
954.671	1008
954.761	-97
954.850	2502
954.940	266
955.030	313
955.119	-139
955.209	465
955.298	475
955.388	309
955.477	1380
955.567	142
955.656	688
955.746	1250
955.835	590
955.925	-472
956.014	891
956.103	612
956.193	1161
956.282	1384
956.371	107
956.461	1466
956.550	23
956.639	616
956.728	598
956.817	378
956.906	300
956.995	864
957.085	-49
957.174	1327
957.263	310
957.352	486
957.441	131
957.530	873
957.619	573
957.708	450
957.796	416
957.885	1154
957.974	-75
958.063	310
958.152	-329
958.241	713
958.329	-81
958.418	567
958.507	845
958.596	1101
958.684	-188
958.773	589
958.861	398
958.950	754
959.039	801
959.127	335
959.216	1008
959.304	809
959.393	-320
959.481	907
959.570	671
959.658	475
959.746	807
959.835	1129
959.923	2713
960.011	690
960.100	1083
960.188	260
960.276	-117
960.365	630
960.453	-438
960.541	-852
960.629	899
960.717	82
960.805	237
960.893	778
960.981	192
961.069	1535
961.158	582
961.245	1202
961.333	1285
961.421	475
961.509	106
961.597	999
961.685	660
961.773	476
961.861	-130
961.949	547
962.036	-332
962.124	595
962.212	-351
962.299	131
962.387	422
962.475	921
962.562	-711
962.650	816
962.738	-321
962.825	1085
962.913	550
963.000	18
963.088	104
963.175	650
963.263	514
963.350	573
963.438	250
963.525	340
963.612	1147
963.700	3604
963.787	11169
963.874	4799
963.962	570
964.049	-175
964.136	574
964.223	-179
964.310	13
964.398	246
964.485	138
964.572	730
964.659	1358
964.746	1508
964.833	16
964.920	-297
965.007	35
965.094	674
965.181	-240
965.268	203
965.355	224
965.441	-96
965.528	-870
965.615	668
965.702	-35
965.789	294
965.875	70
965.962	108
966.049	285
966.136	127
966.222	66
966.309	824
966.395	323
966.482	511
966.569	298
966.655	290
966.742	232
966.828	601
966.915	-233
967.001	-74
967.087	-267
967.174	212
967.260	702
967.347	1088
967.433	3331
967.519	7718
967.605	2149
967.692	-210
967.778	760
967.864	-269
967.950	-65
968.036	-411
968.123	228
968.209	-543
968.295	-674
968.381	1339
968.467	456
968.553	-1565
968.639	1383
968.725	-187
968.811	2009
968.897	2094
968.983	-410
969.069	-25
969.154	-372
969.240	1283
969.326	-1067
969.412	-54
969.497	-495
969.583	-591
969.669	308
969.755	114
969.840	-55
969.926	657
970.012	1013
970.097	2166
970.183	1961
970.268	1145
970.354	1839
970.439	881
970.525	4508
970.610	1135
970.696	1466
970.781	-435
970.866	-1021
970.952	-110
971.037	-982
971.122	473
971.208	618
971.293	36
971.378	-1390
971.463	30
971.549	-184
971.634	95
971.719	-586
971.804	693
971.889	1597
971.974	71
972.059	-1050
972.144	-384
972.229	861
972.314	-990
972.399	135
972.484	-296
972.569	309
972.654	-555
972.739	1858
972.824	1966
972.908	637
972.993	-638
973.078	-822
973.163	-616
973.247	-49
973.332	-1422
973.417	1184
973.501	-1439
973.586	476
973.671	225
973.755	-300
973.840	1057
973.924	1131
974.009	357
974.093	306
974.178	1140
974.262	1511
974.346	1687
974.431	313
974.515	-756
974.600	-332
974.684	315
974.768	-1018
974.852	-270
974.937	-1034
975.021	-297
975.105	-53
975.189	-264
975.273	932
975.358	-608
975.442	-592
975.526	135
975.610	-1107
975.694	-591
975.778	-230
975.862	-951
975.946	-1717
976.030	1241
976.114	-794
976.198	101
976.281	-731
976.365	571
976.449	-867
976.533	6
976.617	-806
976.700	-1046
976.784	-319
976.868	-145
976.951	657
977.035	628
977.119	-119
977.202	-227
977.286	-502
977.369	-615
977.453	765
977.536	1381
977.620	-721
977.703	1210
977.787	-206
977.870	971
977.953	1279
978.037	-746
978.120	230
978.203	1595
978.287	2460
978.370	1083
978.453	-113
978.536	83
978.620	483
978.703	1869
978.786	765
978.869	-231
978.952	-1254
979.035	802
979.118	484
979.201	142
979.284	122
979.367	-777
979.450	-92
979.533	-647
979.616	-889
979.699	-940
979.782	-549
979.865	36
979.948	227
980.030	-506
980.113	-358
980.196	-915
980.279	362
980.361	61
980.444	-460
980.526	-146
980.609	-334
980.692	388
980.774	867
980.857	-1125
980.939	565
981.022	-166
981.104	-14
981.187	-415
981.269	330
981.352	-523
981.434	-1042
981.516	-1130
981.599	432
981.681	675
981.763	-579
981.846	-651
981.928	-122
982.010	46
982.092	-1110
982.174	567
982.256	-325
982.339	-508
982.421	-185
982.503	408
982.585	-847
982.667	907
982.749	757
982.831	403
982.913	-969
982.995	782
983.077	-506
983.158	1793
983.240	-587
983.322	634
983.404	1323
983.486	-257
983.568	555
983.649	361
983.731	203
983.813	129
983.894	515
983.976	-799
984.058	-507
984.139	454
984.221	-988
984.302	263
984.384	-1035
984.465	-678
984.547	23
984.628	-550
984.710	414
984.791	-1069
984.872	-379
984.954	-248
985.035	-299
985.116	-176
985.198	-616
985.279	1342
985.360	-919
985.441	-260
985.522	596
985.604	-56
985.685	-952
985.766	1114
985.847	744
985.928	-979
986.009	-145
986.090	-166
986.171	429
986.252	-1310
986.333	-222
986.414	-387
986.495	492
986.576	-820
986.656	91
986.737	920
986.818	-1044
986.899	-303
986.980	62
987.060	969
987.141	3
987.222	124
987.302	816
987.383	707
987.464	-634
987.544	354
987.625	-312
987.705	1161
987.786	839
987.866	-316
987.947	-944
988.027	477
988.108	512
988.188	594
988.268	-216
988.349	-240
988.429	40
988.509	846
988.589	536
988.670	-1212
988.750	1040
988.830	-327
988.910	184
988.990	22
989.070	-187
989.151	-70
989.231	-1426
989.311	1790
989.391	-35
989.471	-151
989.551	-117
989.631	-688
989.711	819
989.791	-304
989.870	-76
989.950	830
990.030	31
990.110	224
990.190	-774
990.269	-716
990.349	-510
990.429	268
990.509	-400
990.588	-841
990.668	-130
990.747	196
990.827	-1114
990.907	150
990.986	-288
991.066	9
991.145	-991
991.225	-453
991.304	-193
991.383	653
991.463	-732
991.542	591
991.622	-1646
991.701	-1057
991.780	-1153
991.859	276
991.939	-286
992.018	-653
992.097	54
992.176	-184
992.256	-1356
992.335	-1055
992.414	310
992.493	-504
992.572	-877
992.651	96
992.730	-350
992.809	41
992.888	-639
992.967	-483
993.046	402
993.125	-1226
993.203	-835
993.282	340
993.361	-805
993.440	-891
993.519	-1080
993.597	-1054
993.676	-1581
993.755	-150
993.834	-270
993.912	-1212
993.991	-67
994.069	-1453
994.148	-724
994.226	-606
994.305	-1038
994.384	-182
994.462	-246
994.540	-1200
994.619	-853
994.697	79
994.776	-711
994.854	-213
994.932	-1154
995.011	-666
995.089	-701
995.167	-550
995.245	-1176
995.324	-1469
995.402	-698
995.480	-1574
995.558	-212
995.636	-1895
995.714	-929
995.792	-643
995.870	-474
995.948	-1559
996.026	-1201
996.104	-1282
996.182	-1164
996.260	-726
996.338	-771
996.416	-1873
996.494	-1425
996.572	328
996.649	-1695
996.727	-1335
996.805	-460
996.883	-1634
996.960	-1084
997.038	-1272
997.116	-552
997.193	-1218
997.271	-1541
997.348	-2249
997.426	-885
997.504	-1607
997.581	-273
997.658	-652
997.736	-1338
997.813	-1170
997.891	-603
997.968	-1571
998.046	-1971
998.123	-913
998.200	-1151
998.277	-871
998.355	116
998.432	-1432
998.509	-1304
998.586	-373
998.663	-1163
998.741	-734
998.818	-782
998.895	-1786
998.972	-503
999.049	-677
999.126	-1165
999.203	-1006
999.280	-696
999.357	-1609
999.434	-1649
999.511	-1503
999.587	-1425
999.664	-1431
999.741	-1353
999.818	-1104
999.895	-1138
999.971	-2198
1000.048	-1805
1000.125	-939
1000.202	-1825
1000.278	-1765
1000.355	-733
1000.431	-944
1000.508	-2103
1000.584	-1323
1000.661	-681
1000.738	-1619
1000.814	-2183
1000.890	-1241
1000.967	-1241
1001.043	-918
1001.120	-2773
1001.196	-1053
1001.272	-1972
1001.349	-1742
1001.425	-1090
1001.501	-1159
1001.577	-1663
1001.654	-1281
1001.730	-2325
1001.806	-929
1001.882	-1565
1001.958	-898
1002.034	-1494
1002.110	-1373
1002.186	-1390
1002.262	-1596
1002.338	-1729
1002.414	-1314
1002.490	-2056
1002.566	-1546
1002.642	-1578
1002.718	-1023
1002.794	-928
1002.870	-1332
1002.945	-1738
1003.021	-1563
1003.097	-1289
1003.173	-939
1003.248	-1981
1003.324	-1201
1003.400	-1268
1003.475	-2168
1003.551	-1512
1003.626	-1581
1003.702	-1607
1003.777	-1584
1003.853	-2170
1003.928	-2138
1004.004	-1688
1004.079	-982
1004.155	-1092
1004.230	-2875
1004.305	-820
1004.381	-1609
1004.456	-1498
1004.531	-1764
1004.607	-2075
1004.682	-2395
1004.757	-1745
1004.832	-2201
1004.907	-2058
1004.982	-1182
1005.057	-1397
1005.133	-2585
1005.208	-1551
1005.283	-1259
1005.358	-645
1005.433	-2002
1005.508	-651
1005.583	-1917
1005.657	-1540
1005.732	-850
1005.807	-2158
1005.882	-1409
1005.957	-1692
1006.032	-1163
1006.106	-2515
1006.181	-1568
1006.256	-770
1006.331	-2423
1006.405	-1707
1006.480	-1400
1006.554	-1703
1006.629	-1109
1006.704	-1788
1006.778	-1203
1006.853	-1861
1006.927	-1518
1007.002	-1282
1007.076	-1927
1007.150	-1758
1007.225	-2286
1007.299	-2246
1007.373	-2529
1007.448	-1637
1007.522	-1443
1007.596	-2224
1007.671	-1521
1007.745	-1188
1007.819	-2714
1007.893	-1819
1007.967	-1168
1008.041	-3579
1008.115	-1280
1008.190	-2060
1008.264	-532
1008.338	-1674
1008.412	-2382
1008.486	-1706
1008.560	-1884
1008.633	-2665
1008.707	-1658
1008.781	-1042
1008.855	-1876
1008.929	-2081
1009.003	-2203
1009.076	-1551
1009.150	-1909
1009.224	-1747
1009.298	-1228
1009.371	-2649
1009.445	-1064
1009.519	-1868
1009.592	-2304
1009.666	-1741
1009.739	-2029
1009.813	-2240
1009.886	-737
1009.960	-2274
1010.033	-1580
1010.107	-1654
1010.180	-2182
1010.253	-2281
1010.327	-2178
1010.400	-2072
1010.473	-1879
1010.547	-169
1010.620	-1891
1010.693	-521
1010.766	-1774
1010.840	-1214
1010.913	-1483
1010.986	-2798
1011.059	-1619
1011.132	-1880
1011.205	-2035
1011.278	-1875
1011.351	-2367
1011.424	-1766
1011.497	-1752
1011.570	-1891
1011.643	-1928
1011.716	-2405
1011.789	-1406
1011.862	-1711
1011.934	-1558
1012.007	-2672
1012.080	-1734
1012.153	-2147
1012.225	-1187
1012.298	-2206
1012.371	-2119
1012.443	-1517
1012.516	-2754
1012.588	-2252
1012.661	-613
1012.733	-2401
1012.806	-1621
1012.879	-1850
1012.951	-1913
1013.023	-1201
1013.096	-2181
1013.168	-1860
1013.241	-1878
1013.313	-1987
1013.385	-1979
1013.458	-1527
1013.530	-1469
1013.602	-3034
1013.674	-1529
1013.746	-1945
1013.819	-2395
1013.891	-1942
1013.963	-2050
1014.035	-1326
1014.107	-1826
1014.179	-1499
1014.251	-2760
1014.323	-1765
1014.395	-1419
1014.467	-2143
1014.539	-1282
1014.611	-2122
1014.683	-2111
1014.754	-1003
1014.826	-2607
1014.898	-1882
1014.970	-2457
1015.042	-1285
1015.113	-1846
1015.185	-1417
1015.257	-2442
1015.328	-796
1015.400	-2387
1015.471	-2071
1015.543	-3099
1015.615	-1629
1015.686	-1434
1015.757	-1083
1015.829	-1102
1015.901	-2267
1015.972	-2444
1016.043	-2167
1016.115	-1933
1016.186	-2521
1016.257	-2132
1016.328	-1457
1016.400	-1769
1016.471	-3189
1016.542	-1924
1016.613	-2228
1016.685	-1790
1016.756	-1574
1016.827	-1703
1016.898	-3108
1016.969	-1004
1017.040	-1417
1017.111	-2265
1017.182	-2320
1017.253	-2321
1017.324	-1758
1017.395	-1575
1017.466	-1173
1017.537	-1897
1017.608	-1617
1017.678	-1932
1017.749	-1401
1017.820	-1555
1017.891	-2482
1017.961	-1962
1018.032	-2093
1018.103	-2359
1018.173	-1839
1018.244	-2311
1018.315	-2486
1018.385	-2007
1018.456	-2246
1018.526	-3086
1018.597	-2124
1018.667	-1421
1018.738	-1648
1018.808	-2392
1018.878	-2459
1018.949	-2423
1019.019	-1810
1019.089	-1587
1019.160	-1826
1019.230	-2621
1019.300	-2320
1019.371	-2740
1019.441	-1634
1019.511	-2097
1019.581	-1980
1019.651	-1627
1019.721	-987
1019.791	-2254
1019.861	-2261
1019.931	-2358
1020.001	-1947
1020.071	-952
1020.141	-1827
1020.211	-2589
1020.281	-2030
1020.351	-2436
1020.421	-2494
1020.491	-1797
1020.560	-2544
1020.630	-2820
1020.700	-2439
1020.770	-1525
1020.839	-1873
1020.909	-1536
1020.979	-1583
1021.048	-1783
1021.118	-1864
1021.187	-2157
1021.257	-2232
1021.326	-2076
1021.396	-1880
1021.465	-1953
1021.535	-2227
1021.604	-2363
1021.674	-2229
1021.743	-2086
1021.812	-2186
1021.882	-2201
1021.951	-2191
1022.020	-1237
1022.089	-1908
1022.159	-1636
1022.228	-2150
1022.297	-2025
1022.366	-2609
1022.435	-1633
1022.504	-1798
1022.573	-1734
1022.642	-2258
1022.711	-2484
1022.781	-2629
1022.849	-1598
1022.918	-2191
1022.987	-1477
1023.056	-2025
1023.125	-1897
1023.194	-2164
1023.263	-1699
1023.331	-1317
1023.400	-2626
1023.469	-2609
1023.538	-2115
1023.606	-1905
1023.675	-1829
1023.744	-2367
1023.812	-2421
1023.881	-1481
1023.949	-1755
1024.018	-1811
1024.086	-2301
1024.155	-2275
1024.223	-2698
1024.292	-2373
1024.360	-1564
1024.429	-1965
1024.497	-1564
1024.565	-2059
1024.634	-1676
1024.702	-1353
1024.770	-1828
1024.838	-1588
1024.907	-2314
1024.975	-1850
1025.043	-2124
1025.111	-2407
1025.179	-2112
1025.247	-2620
1025.315	-2428
1025.383	-1792
1025.451	-2480
1025.519	-1600
1025.587	-2036
1025.655	-1366
1025.723	-1659
1025.791	-1534
1025.859	-2417
1025.927	-1807
1025.995	-2417
1026.062	-2485
1026.130	-1955
1026.198	-1795
1026.266	-2193
1026.333	-796
1026.401	-1573
1026.469	-2444
1026.536	-2214
1026.604	-2259
1026.671	-2212
1026.739	-3292
1026.806	-1695
1026.874	-1910
1026.941	-2274
1027.009	-2270
1027.076	-2390
1027.144	-2748
1027.211	-2767
1027.278	-3046
1027.345	-2067
1027.413	-2198
1027.480	-2561
1027.547	-2110
1027.614	-2386
1027.682	-1350
1027.749	-2398
1027.816	-2313
1027.883	-2032
1027.950	-1665
1028.017	-2306
1028.084	-2882
1028.151	-2126
1028.218	-2120
1028.285	-2636
1028.352	-2188
1028.419	-2082
1028.486	-1629
1028.553	-2242
1028.619	-1860
1028.686	-2267
1028.753	-2500
1028.820	-2335
1028.886	-2519
1028.953	-1967
1029.020	-1817
1029.086	-2748
1029.153	-2185
1029.220	-2292
1029.286	-2207
1029.353	-1974
1029.419	-2045
1029.486	-1679
1029.552	-2072
1029.619	-2435
1029.685	-2468
1029.751	-2386
1029.818	-794
1029.884	-1752
1029.951	-509
1030.017	-2646
1030.083	-1914
1030.149	-1578
1030.216	-2132
1030.282	-2457
1030.348	-1668
1030.414	-2403
1030.480	-2134
1030.546	-1741
1030.612	-2110
1030.678	-1491
1030.744	-2921
1030.810	-1713
1030.876	-1831
1030.942	-2232
1031.008	-2172
1031.074	-2180
1031.140	-1835
1031.206	-1860
1031.272	-2603
1031.337	-1632
1031.403	-1805
1031.469	-2266
1031.534	-2410
1031.600	-1941
1031.666	-2666
1031.731	-2509
1031.797	-1372
1031.863	-1391
1031.928	-2187
1031.994	-2609
1032.059	-1181
1032.125	-2329
1032.190	-1894
1032.256	-2045
1032.321	-2654
1032.386	-2055
1032.452	-1657
1032.517	-1477
1032.582	-1413
1032.647	-2472
1032.713	-2127
1032.778	-1825
1032.843	-2103
1032.908	-2177
1032.974	-2444
1033.039	-2250
1033.104	-1390
1033.169	-1929
1033.234	-1789
1033.299	-1109
1033.364	-1978
1033.429	-2371
1033.494	-1606
1033.559	-1990
1033.624	-1643
1033.688	-1378
1033.753	-2179
1033.818	-2355
1033.883	-1996
1033.948	-1469
1034.013	-1678
1034.077	-929
1034.142	112
1034.207	-1056
1034.271	153
1034.336	1826
1034.400	867
1034.465	-801
1034.530	-1383
1034.594	-1927
1034.658	-1827
1034.723	-2065
1034.787	-2471
1034.852	-2044
1034.916	-2271
1034.981	-3010
1035.045	-986
1035.109	-2738
1035.173	-1857
1035.238	-2240
1035.302	-1894
1035.366	-2398
1035.430	-2773
1035.495	-2119
1035.559	-1409
1035.623	-2478
1035.687	-2634
1035.751	-2224
1035.815	-2305
1035.879	-1922
1035.943	-1781
1036.007	-1978
1036.071	-1640
1036.135	-2362
1036.198	-1738
1036.262	-1423
1036.326	-2122
1036.390	-2137
1036.454	-1730
1036.517	-1979
1036.581	-2395
1036.645	-1608
1036.709	-2252
1036.772	-2073
1036.836	-1935
1036.900	-2559
1036.963	-2505
1037.026	-2353
1037.090	-2647
1037.154	-2253
1037.217	-2153
1037.280	-2250
1037.344	-1859
1037.407	-2837
1037.471	-2604
1037.534	-2637
1037.597	-1826
1037.661	-1637
1037.724	-1472
1037.787	-1969
1037.850	-2027
1037.913	-1927
1037.977	-838
1038.040	-1358
1038.103	-2107
1038.166	-2644
1038.229	-1793
1038.292	-1909
1038.355	-2258
1038.418	-1658
1038.481	-1128
1038.544	-2480
1038.607	-2126
1038.670	-1541
1038.732	-2228
1038.795	-2706
1038.858	-2208
1038.921	-1400
1038.984	-1519
1039.046	-2301
1039.109	-2295
1039.172	-1961
1039.234	-2160
1039.297	-1939
1039.360	-2187
1039.422	-2653
1039.485	-1884
1039.547	-2126
1039.610	-2021
1039.672	-2002
1039.734	-2500
1039.797	-2075
1039.859	-1883
1039.922	-2352
1039.984	-2418
1040.046	-2269
1040.109	-2422
1040.171	-2452
1040.233	-2847
1040.295	-1934
1040.358	-1727
1040.420	-2341
1040.482	-2441
1040.544	-2482
1040.606	-2129
1040.668	-1842
1040.730	-2742
1040.792	-2877
1040.854	-2131
1040.916	-1999
1040.978	-2900
1041.040	-1818
1041.102	-1318
1041.164	-2888
1041.225	-2591
1041.287	-2478
1041.349	-2317
1041.411	-1982
1041.472	-2152
1041.534	-2122
1041.596	-2852
1041.657	-2282
1041.719	-2067
1041.781	-2390
1041.842	-2001
1041.904	-2425
1041.965	-2018
1042.027	-1827
1042.088	-2102
1042.150	-1658
1042.211	-2419
1042.272	-1059
1042.334	-1831
1042.395	-1991
1042.456	-2403
1042.518	-2684
1042.579	-1507
1042.640	-2548
1042.701	-2051
1042.763	-1629
1042.824	-2152
1042.885	-2483
1042.946	-2296
1043.007	-2152
1043.068	-2729
1043.129	-1784
1043.190	-2947
1043.251	-1358
1043.312	-2288
1043.373	-2660
1043.434	-2119
1043.495	-2748
1043.556	-1884
1043.616	-2241
1043.677	-2345
1043.738	-2044
1043.799	-2324
1043.859	-1813
1043.920	-2546
1043.981	-2485
1044.041	-2303
1044.102	-2544
1044.162	-1890
1044.223	-2378
1044.284	-1647
1044.344	-1644
1044.405	-2308
1044.465	-1318
1044.525	-2149
1044.586	-2419
1044.646	-1736
1044.707	-1779
1044.767	-1769
1044.827	-1422
1044.887	-2538
1044.948	-1590
1045.008	-2019
1045.068	-2290
1045.128	-2119
1045.188	-1992
1045.249	-1718
1045.309	-1841
1045.369	-1240
1045.429	-1538
1045.489	-2223
1045.549	-1441
1045.609	-1847
1045.669	-2528
1045.729	-2682
1045.789	-1501
1045.848	-2135
1045.908	-2153
1045.968	-1880
1046.028	-2114
1046.088	-1384
1046.147	-902
1046.207	-1273
1046.267	-1855
1046.326	-1889
1046.386	-2440
1046.446	-951
1046.505	-1797
1046.565	-1362
1046.624	-1400
1046.684	-866
1046.743	-884
1046.803	-1070
1046.862	-481
1046.922	0
