'Start Wavelength	183.907
'End Wavelength	1046.922
'Gate Delay	5.000
'Gate Width (ms)	1.050
'Laser Output Level	0.000
'X Position	0.000
'Y Position	0.000
'Z Position	0.000
'Grid Point Number	1.000
'Shot Number	100.000
183.907	496.000
183.977	67.000
184.047	61
184.116	1131
184.186	-498
184.256	1462
184.325	220
184.395	5
184.465	781
184.534	914
184.604	321
184.674	1154
184.743	-412
184.813	1397
184.883	894
184.952	764
185.022	461
185.092	1275
185.161	951
185.231	744
185.301	156
185.370	1167
185.440	667
185.509	404
185.579	95
185.649	886
185.718	594
185.788	578
185.857	-86
185.927	128
185.996	76
186.066	769
186.136	233
186.205	276
186.275	1165
186.344	663
186.414	-13
186.483	315
186.553	1539
186.622	3228
186.692	-88
186.761	848
186.831	-212
186.900	915
186.970	586
187.039	1117
187.109	1367
187.178	542
187.248	317
187.317	1188
187.387	523
187.456	817
187.526	1381
187.595	1648
187.664	450
187.734	2079
187.803	415
187.873	1167
187.942	1228
188.012	1601
188.081	-7
188.150	684
188.220	844
188.289	1648
188.358	629
188.428	2002
188.497	-365
188.567	2386
188.636	409
188.705	1165
188.775	219
188.844	440
188.913	984
188.983	421
189.052	676
189.121	1082
189.191	468
189.260	1065
189.329	1338
189.399	1496
189.468	1436
189.537	1403
189.606	907
189.676	1071
189.745	492
189.814	1102
189.883	1044
189.953	927
190.022	982
190.091	4322
190.161	6522
190.230	1883
190.299	958
190.368	1414
190.437	628
190.507	1309
190.576	897
190.645	747
190.714	474
190.783	1394
190.853	1835
190.922	1681
190.991	482
191.060	526
191.129	218
191.198	1818
191.268	528
191.337	1344
191.406	1164
191.475	932
191.544	993
191.613	1467
191.682	834
191.752	996
191.821	307
191.890	1551
191.959	1472
192.028	1790
192.097	-196
192.166	1722
192.235	-268
192.304	1468
192.373	423
192.442	1278
192.511	525
192.580	1066
192.650	388
192.719	845
192.788	1437
192.857	1255
192.926	61
192.995	1723
193.064	1198
193.133	2530
193.202	2569
193.271	3356
193.340	2069
193.409	2494
193.478	2483
193.547	3476
193.615	3914
193.684	4881
193.753	3059
193.822	2103
193.891	932
193.960	2121
194.029	1492
194.098	2028
194.167	241
194.236	1737
194.305	584
194.374	1478
194.443	717
194.512	2239
194.580	900
194.649	2204
194.718	2105
194.787	1513
194.856	508
194.925	2032
194.994	1862
195.062	2006
195.131	2371
195.200	3065
195.269	3604
195.338	2574
195.407	1006
195.475	1695
195.544	2678
195.613	3179
195.682	1545
195.751	3296
195.819	2919
195.888	2242
195.957	2531
196.026	4406
196.094	2881
196.163	3854
196.232	2733
196.301	3106
196.369	2101
196.438	2074
196.507	1320
196.576	1307
196.644	930
196.713	506
196.782	1305
196.850	1682
196.919	1624
196.988	1776
197.056	1357
197.125	2180
197.194	1185
197.262	1127
197.331	883
197.400	1428
197.468	1366
197.537	1960
197.606	1066
197.674	3850
197.743	6076
197.812	2884
197.880	4348
197.949	5012
198.017	4505
198.086	3863
198.155	1445
198.223	2905
198.292	6455
198.360	4117
198.429	1179
198.497	2888
198.566	3816
198.635	7367
198.703	2730
198.772	3135
198.840	7006
198.909	9354
198.977	2498
199.046	2444
199.114	2229
199.183	2351
199.251	1527
199.320	1669
199.388	1487
199.457	2371
199.525	1580
199.594	2628
199.662	778
199.731	2445
199.799	2121
199.867	2199
199.936	2077
200.004	2338
200.073	2216
200.141	1715
200.210	1307
200.278	2168
200.346	1370
200.415	2329
200.483	2620
200.552	2511
200.620	1636
200.688	3078
200.757	1496
200.825	1689
200.893	1653
200.962	2499
201.030	614
201.098	2088
201.167	2646
201.235	1828
201.303	1512
201.372	2036
201.440	1347
201.508	2010
201.577	2294
201.645	2513
201.713	1178
201.781	1745
201.850	2966
201.918	2053
201.986	2129
202.055	2642
202.123	1576
202.191	2161
202.259	1704
202.327	2298
202.396	1552
202.464	2958
202.532	2214
202.600	8048
202.669	4282
202.737	2099
202.805	1659
202.873	2111
202.941	2088
203.009	1673
203.078	835
203.146	1877
203.214	827
203.282	2444
203.350	1446
203.418	2212
203.487	1395
203.555	1397
203.623	922
203.691	2541
203.759	1057
203.827	2205
203.895	1750
203.963	2251
204.031	2003
204.099	2353
204.168	1697
204.236	2800
204.304	1248
204.372	2082
204.440	1914
204.508	2163
204.576	1399
204.644	2156
204.712	1401
204.780	2504
204.848	1974
204.916	2476
204.984	1778
205.052	2524
205.120	1951
205.188	2371
205.256	1741
205.324	2142
205.392	1658
205.460	2407
205.528	2221
205.596	2938
205.664	1049
205.732	2286
205.799	6596
205.867	13086
205.935	2801
206.003	3724
206.071	2282
206.139	2045
206.207	2881
206.275	2028
206.343	1899
206.411	2998
206.478	1739
206.546	3103
206.614	1612
206.682	2378
206.750	1798
206.818	3336
206.885	3094
206.953	1329
207.021	2620
207.089	2351
207.157	1995
207.225	1974
207.292	2073
207.360	1910
207.428	2358
207.496	2285
207.563	2307
207.631	2785
207.699	792
207.767	2703
207.834	2177
207.902	2686
207.970	2398
208.038	2387
208.105	1913
208.173	3212
208.241	3524
208.309	3325
208.376	3549
208.444	7452
208.512	3963
208.579	2076
208.647	2753
208.715	4103
208.782	2317
208.850	2870
208.918	2127
208.985	2123
209.053	3068
209.120	3238
209.188	1724
209.256	2623
209.323	3037
209.391	5649
209.459	4384
209.526	3927
209.594	3090
209.661	3503
209.729	2684
209.796	2741
209.864	2610
209.932	2655
209.999	3843
210.067	4664
210.134	3922
210.202	4213
210.269	5370
210.337	4650
210.404	3187
210.472	2631
210.539	2567
210.607	3914
210.674	5878
210.742	3632
210.809	3082
210.877	4600
210.944	4868
211.012	3971
211.079	5174
211.146	2852
211.214	3188
211.281	5080
211.349	5128
211.416	4380
211.484	4899
211.551	4161
211.618	3768
211.686	3649
211.753	2541
211.821	4029
211.888	3159
211.955	3550
212.023	2646
212.090	3686
212.157	3570
212.225	4306
212.292	7387
212.359	14283
212.427	40143
212.494	18366
212.561	6761
212.629	5177
212.696	4326
212.763	4985
212.831	3185
212.898	3937
212.965	3550
213.032	4700
213.100	5073
213.167	5561
213.234	4995
213.301	4428
213.369	3673
213.436	3894
213.503	2668
213.570	4656
213.638	4171
213.705	3553
213.772	2798
213.839	5166
213.906	6176
213.973	6074
214.041	3783
214.108	4061
214.175	4553
214.242	3761
214.309	4337
214.376	4386
214.444	4370
214.511	5920
214.578	4765
214.645	4364
214.712	5410
214.779	5144
214.846	3379
214.913	5418
214.980	5013
215.048	6912
215.115	6804
215.182	6618
215.249	5281
215.316	4664
215.383	4162
215.450	4255
215.517	4302
215.584	4118
215.651	3406
215.718	4083
215.785	6295
215.852	5746
215.919	6628
215.986	6604
216.053	5108
216.120	4097
216.187	5267
216.254	6690
216.321	3600
216.388	5783
216.455	6380
216.522	5732
216.589	6909
216.656	12730
216.722	12860
216.789	7649
216.856	7461
216.923	6005
216.990	5495
217.057	5793
217.124	7586
217.191	6954
217.258	7836
217.324	10389
217.391	10546
217.458	8304
217.525	5859
217.592	5842
217.659	4752
217.725	7505
217.792	8704
217.859	9931
217.926	3947
217.993	3475
218.059	4095
218.126	3771
218.193	3121
218.260	3513
218.327	2900
218.393	4450
218.460	3669
218.527	3237
218.594	4240
218.660	10824
218.727	11556
218.794	5500
218.860	3359
218.927	3741
218.994	2435
219.061	3875
219.127	6445
219.194	9305
219.261	4445
219.327	4096
219.394	3579
219.461	2224
219.527	2939
219.594	7465
219.661	4921
219.727	2569
219.794	3672
219.860	3052
219.927	4449
219.994	5848
220.060	11689
220.127	7664
220.193	3654
220.260	4935
220.326	6562
220.393	11004
220.460	14914
220.526	10963
220.593	5847
220.659	6831
220.726	6945
220.792	19190
220.859	16409
220.925	17804
220.992	24948
221.058	25847
221.125	27768
221.191	21567
221.258	8350
221.324	6570
221.391	5941
221.457	4961
221.524	4516
221.590	6762
221.657	23949
221.723	18691
221.789	14889
221.856	14465
221.922	7398
221.989	5598
222.055	4922
222.121	3844
222.188	6117
222.254	5604
222.321	3649
222.387	3326
222.453	3843
222.520	3461
222.586	2569
222.652	3530
222.719	2948
222.785	4859
222.851	3289
222.918	3422
222.984	3129
223.050	3388
223.116	2579
223.183	4734
223.249	2106
223.315	1889
223.382	3312
223.448	3334
223.514	2330
223.580	3117
223.647	2056
223.713	2355
223.779	3136
223.845	2864
223.911	2782
223.978	2337
224.044	3444
224.110	3376
224.176	2922
224.242	3549
224.309	1752
224.375	4175
224.441	2731
224.507	2998
224.573	2800
224.639	4046
224.705	2841
224.772	3639
224.838	2891
224.904	5413
224.970	3986
225.036	5020
225.102	3857
225.168	5110
225.234	3708
225.300	5319
225.366	3852
225.432	3484
225.499	2915
225.565	4285
225.631	3704
225.697	3750
225.763	4603
225.829	5992
225.895	5211
225.961	10525
226.027	9422
226.093	7554
226.159	6962
226.225	9684
226.291	19550
226.357	36629
226.423	20024
226.489	14262
226.554	8259
226.620	7265
226.686	10293
226.752	17733
226.818	19289
226.884	46457
226.950	42807
227.016	16132
227.082	11079
227.148	8848
227.214	11101
227.279	9293
227.345	6140
227.411	6943
227.477	5471
227.543	11228
227.609	13232
227.674	8403
227.740	5771
227.806	5518
227.872	4501
227.938	5701
228.003	10711
228.069	5760
228.135	3820
228.201	5383
228.267	3673
228.332	6619
228.398	8787
228.464	6716
228.530	3851
228.595	4184
228.661	3200
228.727	10069
228.792	7781
228.858	4595
228.924	4849
228.990	7289
229.055	5880
229.121	7973
229.187	4368
229.252	7203
229.318	4877
229.384	5407
229.449	8060
229.515	2978
229.581	2042
229.646	6223
229.712	6364
229.777	14800
229.843	16209
229.909	11370
229.974	10417
230.040	10878
230.105	6861
230.171	8369
230.236	8466
230.302	14232
230.368	12707
230.433	6701
230.499	6008
230.564	6405
230.630	5232
230.695	4916
230.761	5051
230.826	3700
230.892	10012
230.957	6670
231.023	3740
231.088	3158
231.154	3317
231.219	5055
231.284	6671
231.350	9599
231.415	4402
231.481	3996
231.546	3506
231.612	4023
231.677	3353
231.742	2526
231.808	5315
231.873	3924
231.939	2139
232.004	9169
232.069	10186
232.135	5463
232.200	4191
232.265	4253
232.331	2423
232.396	3328
232.461	2719
232.527	3271
232.592	2918
232.657	5024
232.723	13916
232.788	11889
232.853	4838
232.918	4568
232.984	3428
233.049	4776
233.114	12968
233.179	12411
233.245	15945
233.310	24644
233.375	6030
233.440	5623
233.506	3635
233.571	4703
233.636	4051
233.701	5080
233.766	13855
233.832	21560
233.897	7409
233.962	9333
234.027	10403
234.092	8532
234.157	6440
234.222	7322
234.288	10805
234.353	41459
234.418	43698
234.483	22547
234.548	13765
234.613	10278
234.678	9732
234.743	11821
234.808	44728
234.873	31431
234.938	10610
235.004	8086
235.069	6971
235.134	8852
235.199	7413
235.264	5918
235.329	3760
235.394	6367
235.459	10952
235.524	11928
235.589	6486
235.654	6560
235.719	4370
235.784	6476
235.849	8689
235.913	25977
235.978	28343
236.043	36651
236.108	11514
236.173	11913
236.238	11909
236.303	7102
236.368	7182
236.433	12781
236.498	28237
236.563	14709
236.627	18874
236.692	61764
236.757	50935
236.822	24765
236.887	25043
236.952	16329
237.017	12006
237.081	15137
237.146	14869
237.211	26281
237.276	57704
237.341	112312
237.405	62152
237.470	25811
237.535	24488
237.600	13015
237.664	10481
237.729	8795
237.794	10472
237.859	20027
237.923	22912
237.988	13972
238.053	20576
238.118	24278
238.182	50629
238.247	52344
238.312	30396
238.376	20191
238.441	16532
238.506	14453
238.570	6245
238.635	7940
238.700	5922
238.764	7808
238.829	23120
238.893	33994
238.958	13877
239.023	13226
239.087	7431
239.152	10948
239.216	6166
239.281	7011
239.346	5594
239.410	6661
239.475	9448
239.539	52111
239.604	44836
239.668	12941
239.733	8089
239.797	9175
239.862	18277
239.926	41024
239.991	18903
240.055	10143
240.120	7944
240.184	7652
240.249	6613
240.313	7109
240.378	8086
240.442	31671
240.507	53128
240.571	17808
240.635	23339
240.700	34317
240.764	11691
240.829	8106
240.893	5266
240.957	8252
241.022	27068
241.086	58536
241.151	29523
241.215	10906
241.279	13967
241.344	32896
241.408	14321
241.472	9077
241.537	9385
241.601	9064
241.665	6349
241.730	7522
241.794	8181
241.858	6997
241.922	7254
241.987	8149
242.051	5541
242.115	5754
242.179	6196
242.244	6202
242.308	7752
242.372	9350
242.436	13489
242.501	8909
242.565	6622
242.629	6591
242.693	6860
242.757	5790
242.822	6940
242.886	9925
242.950	9192
243.014	11250
243.078	11057
243.142	10632
243.206	8696
243.271	11435
243.335	8481
243.399	12097
243.463	39317
243.527	119403
243.591	41620
243.655	19368
243.719	10799
243.783	12561
243.847	17632
243.911	24352
243.975	35083
244.040	27129
244.104	12662
244.168	9633
244.232	16780
244.296	23564
244.360	21671
244.424	16875
244.488	15151
244.552	14435
244.615	9415
244.679	9115
244.743	12128
244.807	14302
244.871	7535
244.935	8511
244.999	6720
245.063	9284
245.127	9867
245.191	15388
245.255	14927
245.319	13520
245.383	13995
245.446	11678
245.510	7585
245.574	11329
245.638	11350
245.702	10139
245.766	25063
245.829	17062
245.893	14754
245.957	10881
246.021	10983
246.085	12835
246.149	16668
246.212	35906
246.276	53277
246.340	26328
246.404	18721
246.467	17836
246.531	29467
246.595	18137
246.659	16942
246.722	17118
246.786	20098
246.850	19222
246.913	25608
246.977	12743
247.041	12451
247.104	15365
247.168	11833
247.232	33247
247.295	70782
247.359	38501
247.423	16282
247.486	32098
247.550	20144
247.614	16402
247.677	22275
247.741	14743
247.804	11456
247.868	14930
247.932	28600
247.995	67729
248.059	28741
248.122	13824
248.186	17368
248.249	31423
248.313	101991
248.376	114398
248.440	73660
248.503	29466
248.567	22831
248.630	34417
248.694	44416
248.757	52855
248.821	113116
248.884	71173
248.948	63208
249.011	90607
249.075	133226
249.138	118998
249.202	47123
249.265	32626
249.328	50554
249.392	32154
249.455	22014
249.519	16099
249.582	21754
249.645	34111
249.709	24578
249.772	17387
249.835	16660
249.899	24906
249.962	17478
250.025	16038
250.089	39643
250.152	61525
250.215	30544
250.279	22076
250.342	21154
250.405	21844
250.468	16714
250.532	23371
250.595	32841
250.658	106103
250.721	188455
250.785	68784
250.848	37947
250.911	23062
250.974	20505
251.038	28754
251.101	64698
251.164	40016
251.227	37588
251.290	30377
251.354	38052
251.417	148067
251.480	158188
251.543	92634
251.606	276109
251.669	215710
251.732	79708
251.795	87797
251.859	85733
251.922	178396
251.985	109732
252.048	40330
252.111	33469
252.174	32476
252.237	57247
252.300	131732
252.363	127110
252.426	243496
252.489	113771
252.552	65686
252.615	46265
252.678	44704
252.741	95115
252.804	112550
252.867	240822
252.930	162043
252.993	94575
253.056	53135
253.119	40817
253.182	30749
253.245	45678
253.308	38541
253.371	48076
253.434	45060
253.497	38686
253.559	68507
253.622	50746
253.685	69506
253.748	73961
253.811	34388
253.874	47840
253.937	48721
254.000	29034
254.062	45890
254.125	73420
254.188	58932
254.251	57143
254.314	30169
254.376	51572
254.439	59324
254.502	53655
254.565	50315
254.628	85526
254.690	59363
254.753	35880
254.816	28603
254.878	32372
254.941	52748
255.004	57879
255.067	29119
255.129	29335
255.192	16123
255.255	14349
255.317	18559
255.380	13531
255.443	10345
255.505	10354
255.568	12511
255.631	10792
255.693	13028
255.756	10723
255.819	10076
255.881	9253
255.944	9594
256.006	10039
256.069	11345
256.132	8984
256.194	17028
256.257	55530
256.319	43013
256.382	40281
256.444	17352
256.507	12436
256.569	10393
256.632	11757
256.694	24617
256.757	34059
256.819	93525
256.882	41036
256.944	20427
257.007	17778
257.069	24181
257.132	15075
257.194	10729
257.257	10742
257.319	13758
257.381	11854
257.444	29185
257.506	106715
257.569	138394
257.631	119856
257.693	57868
257.756	26810
257.818	31775
257.880	16384
257.943	14589
258.005	12526
258.067	11520
258.130	11355
258.192	16385
258.254	45340
258.317	27541
258.379	13538
258.441	39528
258.503	39133
258.566	51708
258.628	75924
258.690	19604
258.753	17728
258.815	36418
258.877	19510
258.939	12055
259.001	10490
259.064	11146
259.126	18145
259.188	31936
259.250	16665
259.312	26138
259.375	76520
259.437	50243
259.499	15929
259.561	14410
259.623	14821
259.685	12943
259.747	14284
259.809	47035
259.872	99857
259.934	132131
259.996	122491
260.058	34428
260.120	17247
260.182	13353
260.244	10989
260.306	10628
260.368	10355
260.430	10215
260.492	21053
260.554	61233
260.616	64138
260.678	70024
260.740	109777
260.802	30045
260.864	21734
260.926	17577
260.988	16645
261.050	16445
261.112	28329
261.174	85287
261.236	83349
261.298	26820
261.359	45347
261.421	74890
261.483	21475
261.545	15965
261.607	11206
261.669	12842
261.731	29233
261.793	80843
261.854	34692
261.916	20983
261.978	14332
262.040	18560
262.102	16235
262.164	33230
262.225	28421
262.287	13813
262.349	34693
262.411	31212
262.472	14947
262.534	31287
262.596	79345
262.658	24194
262.719	13949
262.781	20168
262.843	71628
262.904	33165
262.966	20103
263.028	25660
263.090	92775
263.151	243458
263.213	81497
263.275	42087
263.336	21558
263.398	15069
263.459	11313
263.521	12195
263.583	31224
263.644	24735
263.706	11024
263.767	9174
263.829	8361
263.891	6423
263.952	6794
264.014	6582
264.075	9389
264.137	24806
264.198	17001
264.260	7205
264.321	7438
264.383	20713
264.444	41419
264.506	13938
264.567	9938
264.629	13343
264.690	24937
264.752	15041
264.813	10749
264.875	8140
264.936	7626
264.998	6525
265.059	5850
265.120	8091
265.182	11411
265.243	43444
265.305	45691
265.366	13464
265.427	9287
265.489	8959
265.550	4610
265.611	10905
265.673	10741
265.734	7371
265.795	5103
265.857	6631
265.918	6630
265.979	14563
266.040	70194
266.102	62746
266.163	20139
266.224	20128
266.286	13054
266.347	8223
266.408	9937
266.469	14850
266.530	11179
266.592	7717
266.653	19835
266.714	41060
266.775	12822
266.836	8723
266.898	6137
266.959	12507
267.020	9579
267.081	7534
267.142	4977
267.203	6117
267.264	5270
267.326	9883
267.387	6150
267.448	6149
267.509	6763
267.570	7889
267.631	5559
267.692	5799
267.753	5708
267.814	6459
267.875	15617
267.936	43345
267.997	17352
268.058	16436
268.119	11170
268.180	12677
268.241	9492
268.302	8162
268.363	6247
268.424	10832
268.485	11097
268.546	7597
268.607	5175
268.668	5597
268.729	5812
268.790	7798
268.851	8655
268.912	26208
268.972	35891
269.033	19247
269.094	9468
269.155	7561
269.216	6391
269.277	11808
269.338	8942
269.398	7970
269.459	10526
269.520	15882
269.581	21037
269.642	27971
269.702	16573
269.763	11023
269.824	9454
269.885	13057
269.945	22632
270.006	10013
270.067	6020
270.128	7160
270.188	7445
270.249	7965
270.310	7176
270.370	7119
270.431	10095
270.492	7095
270.553	8845
270.613	23481
270.674	44214
270.734	21656
270.795	10787
270.856	17279
270.916	16566
270.977	10018
271.038	13050
271.098	14709
271.159	21788
271.219	25489
271.280	10384
271.340	8766
271.401	13832
271.462	48059
271.522	24239
271.583	12600
271.643	13471
271.704	11245
271.764	14009
271.825	31028
271.885	95475
271.946	137227
272.006	46772
272.066	56956
272.127	103971
272.187	33430
272.248	18997
272.308	19356
272.369	65990
272.429	42560
272.489	34271
272.550	36420
272.610	32852
272.671	28963
272.731	27970
272.791	58424
272.852	28128
272.912	21545
272.972	12301
273.033	12283
273.093	26306
273.153	20612
273.214	12607
273.274	15365
273.334	42473
273.394	100918
273.455	46547
273.515	38529
273.575	90720
273.635	39662
273.696	55087
273.756	107162
273.816	42982
273.876	25539
273.936	60341
273.997	121003
274.057	31317
274.117	22323
274.177	28828
274.237	118112
274.297	117614
274.358	104484
274.418	87096
274.478	68646
274.538	28335
274.598	28020
274.658	101234
274.718	143984
274.778	54303
274.838	27097
274.898	57637
274.958	196012
275.018	127537
275.078	76109
275.138	34619
275.198	20523
275.258	15802
275.318	22762
275.378	41885
275.438	40125
275.498	27650
275.558	70918
275.618	151174
275.678	84653
275.738	47809
275.798	37319
275.858	19000
275.918	12667
275.978	15345
276.038	15728
276.098	11898
276.157	25740
276.217	79034
276.277	38812
276.337	27463
276.397	16045
276.457	19602
276.517	13403
276.576	9478
276.636	9618
276.696	19949
276.756	49384
276.815	40051
276.875	17940
276.935	22156
276.995	18518
277.055	10582
277.114	11092
277.174	16150
277.234	59501
277.293	29265
277.353	17497
277.413	10512
277.472	12644
277.532	13445
277.592	12917
277.651	29576
277.711	57980
277.771	22635
277.830	76305
277.890	68464
277.950	45109
278.009	118189
278.069	48155
278.128	39112
278.188	59482
278.248	27871
278.307	57818
278.367	42801
278.426	20261
278.486	12135
278.545	11002
278.605	9084
278.664	10154
278.724	11754
278.783	34088
278.843	97381
278.902	30496
278.962	17881
279.021	20774
279.081	23051
279.140	23706
279.199	18421
279.259	15169
279.318	14715
279.378	19458
279.437	39868
279.496	152158
279.556	360701
279.615	302813
279.675	78376
279.734	49587
279.793	80788
279.853	141132
279.912	53948
279.971	28808
280.031	25939
280.090	48447
280.149	94306
280.208	58049
280.268	224190
280.327	266638
280.386	66230
280.445	53986
280.505	55582
280.564	24661
280.623	21438
280.682	30682
280.742	52136
280.801	17780
280.860	12986
280.919	12210
280.978	10461
281.037	9751
281.097	8896
281.156	9925
281.215	9036
281.274	15057
281.333	58932
281.392	53516
281.451	13381
281.510	9905
281.569	9398
281.628	8073
281.688	8146
281.747	10713
281.806	11737
281.865	8784
281.924	8925
281.983	10279
282.042	5138
282.101	7641
282.160	6525
282.219	6829
282.278	10044
282.337	36720
282.396	28401
282.454	11601
282.513	13182
282.572	56016
282.631	37438
282.690	12615
282.749	8555
282.808	13364
282.867	13119
282.926	13487
282.985	6832
283.043	5510
283.102	7069
283.161	12087
283.220	25879
283.279	63571
283.338	19755
283.396	12475
283.455	10573
283.514	12234
283.573	21148
283.631	16114
283.690	8999
283.749	9348
283.808	23169
283.866	30374
283.925	10046
283.984	9500
284.043	15102
284.101	17591
284.160	8783
284.219	13363
284.277	11301
284.336	20056
284.395	72127
284.453	64040
284.512	19664
284.570	26491
284.629	21563
284.688	14919
284.746	15267
284.805	15976
284.863	20066
284.922	24908
284.981	24070
285.039	32551
285.098	59118
285.156	156722
285.215	436337
285.273	424380
285.332	182615
285.390	89874
285.449	56164
285.507	38200
285.566	29251
285.624	22600
285.683	17339
285.741	14608
285.799	13481
285.858	14745
285.916	12708
285.975	10298
286.033	7539
286.091	7674
286.150	6914
286.208	8984
286.267	11299
286.325	12228
286.383	20685
286.442	18053
286.500	7263
286.558	7547
286.616	6536
286.675	11906
286.733	10781
286.791	11320
286.850	11940
286.908	16895
286.966	31372
287.024	13798
287.083	8290
287.141	7689
287.199	8259
287.257	16194
287.315	11673
287.374	13655
287.432	31885
287.490	22798
287.548	12516
287.606	9913
287.664	8236
287.723	14563
287.781	19136
287.839	10433
287.897	11668
287.955	14158
288.013	21219
288.071	51933
288.129	183969
288.187	546239
288.245	250479
288.303	74663
288.361	43710
288.419	35610
288.477	24072
288.535	17947
288.593	12837
288.651	11953
288.709	9172
288.767	9412
288.825	9568
288.883	7859
288.941	7485
288.999	7890
289.057	6474
289.115	6462
289.173	7406
289.231	8725
289.289	9347
289.346	7218
289.404	9672
289.462	19327
289.520	21423
289.578	11147
289.636	5436
289.694	4424
289.751	5016
289.809	5944
289.867	5960
289.925	9624
289.983	12196
290.040	6012
290.098	4386
290.156	9468
290.214	11758
290.271	8249
290.329	4568
290.387	4296
290.444	5047
290.502	3988
290.560	3982
290.617	5645
290.675	6102
290.733	6115
290.790	7962
290.848	6468
290.906	7776
290.963	7702
291.021	6740
291.078	7129
291.136	7047
291.194	23233
291.251	56875
291.309	18825
291.366	7379
291.424	7935
291.481	8427
291.539	7058
291.596	5617
291.654	3891
291.711	4865
291.769	8353
291.826	23011
291.884	14777
291.941	7313
291.999	7552
292.056	9790
292.114	11903
292.171	7032
292.228	7349
292.286	11267
292.343	24216
292.401	28196
292.458	18550
292.515	11577
292.573	15485
292.630	15363
292.687	17897
292.745	11605
292.802	13298
292.859	28851
292.917	66181
292.974	44346
293.031	15183
293.089	9321
293.146	8371
293.203	8287
293.260	8574
293.318	17724
293.375	18281
293.432	8559
293.489	7022
293.546	6631
293.604	13469
293.661	36388
293.718	99370
293.775	53030
293.832	27044
293.889	20216
293.947	33397
294.004	24071
294.061	18124
294.118	30607
294.175	56095
294.232	48829
294.289	21775
294.346	12523
294.403	12068
294.460	14857
294.517	12934
294.574	9594
294.631	8609
294.688	12046
294.745	30799
294.802	103061
294.859	103099
294.916	56415
294.973	44802
295.030	28326
295.087	23505
295.144	14749
295.201	12438
295.258	10452
295.315	15301
295.372	43649
295.429	87849
295.486	39104
295.542	20145
295.599	30153
295.656	54230
295.713	47267
295.770	76508
295.827	31465
295.883	16249
295.940	15763
295.997	29082
296.054	28993
296.111	14908
296.167	9409
296.224	7680
296.281	7172
296.338	7353
296.394	8468
296.451	12739
296.508	33550
296.564	69307
296.621	45490
296.678	82544
296.734	129476
296.791	49673
296.848	24117
296.904	28375
296.961	61149
297.018	92040
297.074	70746
297.131	26811
297.187	20182
297.244	30764
297.301	81443
297.357	160788
297.414	60064
297.470	23752
297.527	16429
297.583	13709
297.640	14289
297.696	12234
297.753	8576
297.809	8202
297.866	6032
297.922	7317
297.979	7056
298.035	10712
298.092	17758
298.148	50718
298.204	53435
298.261	26900
298.317	36546
298.374	105413
298.430	68015
298.486	38083
298.543	31319
298.599	22735
298.656	20537
298.712	33846
298.768	77190
298.824	56582
298.881	19920
298.937	12196
298.993	11472
299.050	16850
299.106	14263
299.162	11820
299.218	12545
299.275	10531
299.331	11742
299.387	25787
299.443	87844
299.500	99753
299.556	36263
299.612	17885
299.668	17294
299.724	17046
299.780	16887
299.837	14931
299.893	22983
299.949	75278
300.005	95806
300.061	74296
300.117	125085
300.173	67313
300.229	30125
300.285	36097
300.341	44562
300.397	23331
300.453	13376
300.510	12465
300.566	12333
300.622	14283
300.678	31602
300.734	71936
300.790	76247
300.845	98732
300.901	59042
300.957	76758
301.013	68487
301.069	27930
301.125	19614
301.181	22312
301.237	14504
301.293	11042
301.349	10756
301.405	9292
301.461	9042
301.516	10591
301.572	12994
301.628	28437
301.684	26350
301.740	34126
301.796	58851
301.851	40326
301.907	63062
301.963	70508
302.019	98263
302.074	251833
302.130	260737
302.186	117058
302.242	48274
302.297	33361
302.353	32565
302.409	57516
302.464	52555
302.520	43065
302.576	96911
302.631	119351
302.687	69431
302.743	30008
302.798	16837
302.854	14332
302.910	14716
302.965	17729
303.021	35317
303.076	35713
303.132	42381
303.187	54060
303.243	26860
303.299	14858
303.354	11458
303.410	10052
303.465	9302
303.521	10419
303.576	10500
303.632	14981
303.687	25885
303.743	80013
303.798	73390
303.853	29867
303.909	16395
303.964	15702
304.020	22647
304.075	41240
304.130	34111
304.186	63011
304.241	63698
304.297	51364
304.352	26647
304.358	25678
304.407	17820
304.449	16845
304.463	16526
304.518	18139
304.539	17285
304.573	15941
304.629	15537
304.630	15732
304.684	25369
304.720	48476
304.739	59953
304.794	97793
304.811	83813
304.850	50356
304.902	23565
304.905	21854
304.960	14746
304.992	13666
305.015	12924
305.071	11685
305.083	10982
305.126	8460
305.173	7538
305.181	7413
305.236	7047
305.264	7901
305.292	8794
305.347	11872
305.354	11920
305.402	12199
305.445	12471
305.457	12584
305.512	18012
305.535	19292
305.567	20839
305.622	19132
305.626	19705
305.678	34957
305.716	68648
305.733	80415
305.788	104086
305.807	90345
305.843	66326
305.897	79312
305.898	79403
305.953	85048
305.988	56389
306.008	40805
306.063	23670
306.078	21570
306.118	17260
306.168	13151
306.173	12797
306.228	10646
306.259	9817
306.283	9308
306.338	8369
306.349	8594
306.393	9491
306.440	9839
306.448	9980
306.503	12319
306.530	13632
306.558	19562
306.613	43580
306.620	47447
306.668	68145
306.711	88407
306.723	90373
306.778	74540
306.801	56952
306.833	37338
306.888	19183
306.892	18467
306.943	13393
306.982	11449
306.997	10912
307.052	11117
307.072	11219
307.107	13389
307.162	18167
307.163	18255
307.217	29966
307.253	37196
307.272	37938
307.327	38758
307.343	35985
307.381	29581
307.434	23904
307.436	24689
307.491	51388
307.524	76572
307.546	81058
307.600	83052
307.614	73339
307.655	43749
307.704	21660
307.710	20919
307.765	24743
307.795	29712
307.819	36002
307.874	59040
307.885	60398
307.929	46430
307.975	26640
307.984	25718
308.038	29731
308.065	35475
308.093	61308
308.148	129334
308.156	145961
308.202	227932
308.246	286125
308.257	283357
308.312	154386
308.336	112974
308.366	88507
308.421	64643
308.426	61656
308.475	36179
308.517	23472
308.530	21537
308.585	17877
308.607	16896
308.639	17567
308.694	21335
308.697	21633
308.748	46078
308.787	71567
308.803	70115
308.857	52884
308.877	42977
308.912	33429
308.967	25994
308.967	25923
309.021	31658
309.058	38118
309.076	49161
309.130	92418
309.148	110340
309.185	204248
309.238	359083
309.239	359795
309.293	397129
309.328	352036
309.348	300395
309.402	132058
309.418	93095
309.457	61640
309.508	38197
309.511	37469
309.566	33903
309.598	33520
309.620	38954
309.674	57107
309.688	62125
309.729	59151
309.778	47888
309.783	46967
309.837	36002
309.868	32043
309.892	45536
309.946	82741
309.959	94409
310.001	127354
310.049	155596
310.055	150430
310.109	86142
310.139	48916
310.163	36936
310.218	21353
310.229	18916
310.272	16346
310.319	14373
310.326	14291
310.381	14258
310.409	14435
310.435	14268
310.489	13718
310.499	13693
310.543	14653
310.589	15675
310.598	15516
310.652	15133
310.679	14259
310.706	11866
310.760	7307
310.769	6627
310.814	6193
310.859	5997
310.868	6167
310.923	7095
310.948	7671
310.977	9118
311.031	11878
311.038	12287
311.085	12041
311.128	11131
311.139	10953
311.193	10569
311.218	10183
311.247	9177
311.301	7441
311.308	7225
311.356	7637
311.398	8188
311.410	8122
311.464	7678
311.488	7415
311.518	7711
311.572	8425
311.578	8520
311.626	13092
311.668	17188
311.680	17318
311.734	17419
311.758	17457
311.788	16434
311.842	14631
311.847	14423
311.896	19740
311.937	24452
311.950	24166
312.004	22693
312.027	21954
312.058	17981
312.112	10873
312.117	10166
312.165	9810
312.207	9518
312.297	14592
312.386	11630
312.476	12214
312.566	28785
312.656	12731
312.745	7808
312.835	8927
312.925	10752
313.015	11756
313.104	14947
313.194	8021
313.284	8320
313.374	12097
313.463	11499
313.553	8329
313.643	6900
313.732	6582
313.822	5550
313.912	8347
314.001	11063
314.091	11658
314.180	15815
314.270	16602
314.360	22256
314.449	16378
314.539	8377
314.628	7535
314.718	11762
314.808	19598
314.897	9095
314.987	8366
315.076	14312
315.166	20847
315.255	20526
315.345	18382
315.434	21982
315.524	17433
315.613	21669
315.703	24771
315.792	34599
315.881	97057
315.971	36939
316.060	42280
316.150	72042
316.239	75877
316.328	25534
316.418	9643
316.507	10985
316.597	14255
316.686	14500
316.775	28675
316.865	75002
316.954	13422
317.043	7756
317.133	8990
317.222	8218
317.311	8896
317.400	8593
317.490	15789
317.579	18819
317.668	13523
317.757	23780
317.847	51862
317.936	172306
318.025	72851
318.114	38745
318.203	23170
318.293	21334
318.382	32453
318.471	30544
318.560	37603
318.649	84639
318.738	22004
318.828	19531
318.917	22068
319.006	26763
319.095	74600
319.184	113214
319.273	76886
319.362	47591
319.451	18387
319.540	17289
319.629	40258
319.718	64469
319.807	24393
319.896	40187
319.985	135537
320.074	59789
320.163	20606
320.252	45825
320.341	28306
320.430	22064
320.519	31743
320.608	17954
320.697	12832
320.786	14634
320.875	21989
320.964	28605
321.053	46889
321.142	68790
321.230	68133
321.319	50041
321.408	117177
321.497	48665
321.586	49245
321.675	70712
321.764	62372
321.852	38485
321.941	66270
322.030	43288
322.119	46465
322.207	126462
322.296	99459
322.385	44506
322.474	49566
322.562	143642
322.651	72122
322.740	62101
322.829	93097
322.917	106475
323.006	53755
323.095	41093
323.183	32366
323.272	48496
323.361	71519
323.449	209128
323.538	74742
323.626	160983
323.715	100393
323.804	43656
323.892	161054
323.981	92888
324.069	29154
324.158	87528
324.246	84147
324.335	27327
324.424	43216
324.512	14379
324.601	17444
324.689	23631
324.778	34897
324.866	76525
324.954	18714
325.043	18672
325.131	44155
325.220	81329
325.308	95724
325.397	65752
325.485	37362
325.574	12874
325.662	11759
325.750	12468
325.839	11093
325.927	9985
326.015	18140
326.104	34858
326.192	52533
326.280	11783
326.369	11560
326.457	18682
326.545	34021
326.634	14323
326.722	7538
326.810	8959
326.898	8259
326.987	10441
327.075	34180
327.163	41583
327.251	17444
327.340	8023
327.428	10139
327.516	7280
327.604	10907
327.692	14666
327.781	18883
327.869	39354
327.957	21192
328.045	17093
328.133	9696
328.221	17635
328.309	11952
328.397	8983
328.485	13522
328.574	21579
328.662	74386
328.750	50584
328.838	21096
328.926	10147
329.014	8439
329.102	14146
329.190	38751
329.278	25021
329.366	6676
329.454	6028
329.542	5438
329.630	5683
329.718	6799
329.806	10281
329.893	9332
329.981	7018
330.069	4432
330.157	6709
330.245	9555
330.333	7643
330.421	8989
330.509	21571
330.597	92275
330.684	56868
330.772	19085
330.860	28307
330.948	32683
331.036	13258
331.123	5710
331.211	6830
331.299	11138
331.387	25541
331.475	49021
331.562	18105
331.650	7699
331.738	13321
331.825	22583
331.913	8031
332.001	6037
332.089	14687
332.176	37265
332.264	93503
332.352	69180
332.439	17674
332.527	11160
332.614	12987
332.702	20506
332.790	14446
332.877	40971
332.965	86935
333.052	16585
333.140	17005
333.228	37514
333.315	10811
333.403	14437
333.490	57461
333.578	43560
333.665	24586
333.753	15292
333.840	9670
333.928	16454
334.015	59394
334.103	62402
334.190	160010
334.278	41123
334.365	22311
334.452	12631
334.540	8233
334.627	16890
334.715	29086
334.802	50688
334.889	257251
334.977	224411
335.064	26626
335.151	12057
335.239	12838
335.326	18212
335.413	63149
335.501	85267
335.588	14521
335.675	9633
335.762	11844
335.850	23848
335.937	18096
336.024	49772
336.111	227808
336.199	87137
336.286	14515
336.373	7715
336.460	6064
336.547	6973
336.635	12401
336.722	10377
336.809	9453
336.896	17189
336.983	48764
337.070	110398
337.157	142813
337.245	158928
337.332	113350
337.419	15833
337.506	8845
337.593	11958
337.680	35297
337.767	103939
337.854	34851
337.941	45616
338.028	77486
338.115	22805
338.202	22191
338.289	46117
338.376	177183
338.463	51310
338.550	62448
338.637	63627
338.724	39786
338.811	69740
338.898	13689
338.984	7711
339.071	10484
339.158	13492
339.245	42004
339.332	25384
339.419	47643
339.506	44810
339.593	7144
339.679	7744
339.766	7129
339.853	12913
339.940	32111
340.027	10042
340.113	10619
340.200	16931
340.287	11874
340.374	15655
340.460	26743
340.547	10300
340.634	23026
340.720	87626
340.807	47816
340.894	7843
340.980	10054
341.067	9123
341.154	9935
341.240	17024
341.327	41097
341.414	9174
341.500	4944
341.587	8861
341.674	9069
341.760	28195
341.847	33977
341.933	10413
342.020	3366
342.106	4294
342.193	10416
342.279	21838
342.366	14830
342.452	27846
342.539	15733
342.625	39199
342.712	93840
342.798	37437
342.885	15268
342.971	4445
343.058	4252
343.144	5148
343.230	6024
343.317	5427
343.403	4886
343.490	4078
343.576	3991
343.662	7009
343.749	7936
343.835	12322
343.921	27531
344.008	147611
344.094	290885
344.180	67620
344.267	32486
344.353	98194
344.439	111367
344.525	45103
344.612	13454
344.698	12266
344.784	8397
344.870	6351
344.957	7871
345.043	16172
345.129	11937
345.215	26301
345.301	12116
345.387	5704
345.474	4696
345.560	6631
345.646	12540
345.732	7185
345.818	8004
345.904	7631
345.990	14803
346.076	15635
346.162	31911
346.249	10303
346.335	6027
346.421	9133
346.507	42624
346.593	127853
346.679	28046
346.765	9209
346.851	7941
346.937	7811
347.023	6998
347.108	9902
347.194	7656
347.280	6947
347.366	12905
347.452	41615
347.538	153438
347.624	113139
347.710	101265
347.796	19027
347.882	8666
347.967	6519
348.053	10866
348.139	7144
348.225	7156
348.311	8134
348.397	5271
348.482	10246
348.568	11407
348.654	4887
348.740	6532
348.825	7545
348.911	19473
348.997	78889
349.083	138645
349.168	25177
349.254	7015
349.340	5975
349.425	6141
349.511	12242
349.597	13812
349.682	31257
349.768	95717
349.854	40340
349.939	8473
350.025	6248
350.110	5295
350.196	3462
350.282	3089
350.367	5906
350.453	23059
350.538	23404
350.624	11954
350.709	10398
350.795	5770
350.880	7399
350.966	9134
351.051	20770
351.137	17090
351.222	9972
351.308	30684
351.393	83043
351.479	16291
351.564	4978
351.649	7293
351.735	5536
351.820	5110
351.906	6617
351.991	13963
352.076	58431
352.162	79863
352.247	15251
352.332	11025
352.418	17919
352.503	24964
352.588	126023
352.673	100414
352.759	23387
352.844	11038
352.929	12552
353.014	17917
353.100	12018
353.185	28722
353.270	39103
353.355	33391
353.441	9924
353.526	15506
353.611	32725
353.696	37466
353.781	19264
353.866	8399
353.952	10627
354.037	31562
354.122	73906
354.207	64792
354.292	20294
354.377	8077
354.462	7616
354.547	13539
354.632	12101
354.717	20445
354.802	32014
354.887	11676
354.972	6010
355.057	5374
355.142	4442
355.227	9151
355.312	19662
355.397	46397
355.482	115306
355.567	51010
355.652	36872
355.737	40936
355.822	114985
355.907	85170
355.991	13695
356.076	7107
356.161	7358
356.246	6395
356.331	8308
356.416	28541
356.501	173882
356.585	163957
356.670	21993
356.755	15961
356.840	28725
356.924	140022
357.009	431676
357.094	148743
357.179	36760
357.263	22453
357.348	24685
357.433	23674
357.517	20977
357.602	15610
357.687	12045
357.771	17210
357.856	21565
357.941	22184
358.025	94500
358.110	365264
358.195	154175
358.279	26979
358.364	22735
358.448	88349
358.533	220690
358.617	157335
358.702	152684
358.787	52925
358.871	32715
358.956	26086
359.040	7572
359.125	5473
359.209	6348
359.294	10722
359.378	14958
359.462	23715
359.547	15761
359.631	13735
359.716	7585
359.800	6801
359.885	15114
359.969	10207
360.053	8883
360.138	8291
360.222	16821
360.306	33206
360.391	22279
360.475	29652
360.559	69531
360.644	87043
360.728	64294
360.812	103130
360.896	246573
360.981	105676
361.065	58708
361.149	16758
361.233	15695
361.318	11405
361.402	15031
361.486	12175
361.570	9216
361.654	15622
361.739	45945
361.823	177516
361.907	234452
361.991	39301
362.075	28572
362.159	67421
362.243	40164
362.327	28511
362.411	27359
362.495	22094
362.580	10182
362.664	6651
362.748	5656
362.832	6918
362.916	10484
363.000	40707
363.084	173107
363.168	273593
363.252	63561
363.336	24586
363.420	34225
363.503	98687
363.587	105344
363.671	22348
363.755	19316
363.839	29460
363.923	11644
364.007	31713
364.091	36393
364.175	38659
364.258	134290
364.342	77018
364.426	58865
364.510	36474
364.594	30350
364.677	50450
364.761	220621
364.845	140173
364.929	54969
365.013	45429
365.096	38056
365.180	44271
365.264	39122
365.347	139210
365.431	59358
365.515	20847
365.598	12585
365.682	10408
365.766	19008
365.849	24397
365.933	16193
366.017	19445
366.100	12431
366.184	6911
366.267	9526
366.351	6936
366.435	7132
366.518	4771
366.602	4683
366.685	7899
366.769	9793
366.852	18924
366.936	36719
367.019	20846
367.103	13921
367.186	26548
367.270	7379
367.353	5607
367.436	6167
367.520	6164
367.603	11563
367.687	20564
367.770	39911
367.853	21849
367.937	68370
368.020	105080
368.104	26429
368.187	29723
368.270	39919
368.353	33105
368.437	56169
368.520	144733
368.603	77348
368.687	88431
368.770	146510
368.853	34385
368.936	36723
369.020	31971
369.103	12651
369.186	6330
369.269	8849
369.352	26541
369.436	37938
369.519	21719
369.602	6895
369.685	11348
369.768	13354
369.851	9251
369.934	6244
370.018	11937
370.101	34145
370.184	22938
370.267	13288
370.350	24060
370.433	43629
370.516	117052
370.599	140811
370.682	49787
370.765	85612
370.848	100493
370.931	182120
371.014	65035
371.097	15388
371.180	9036
371.263	5248
371.346	2710
371.429	5230
371.511	7030
371.594	18865
371.677	29850
371.760	27988
371.843	27221
371.926	132018
372.009	265120
372.091	76519
372.174	73373
372.257	154689
372.340	52200
372.423	44873
372.505	47148
372.588	20824
372.671	59442
372.754	183763
372.836	80371
372.919	49007
373.002	93222
373.085	31639
373.167	29510
373.250	79890
373.332	161684
373.415	210117
373.498	401392
373.580	139428
373.663	206104
373.746	244164
373.828	56352
373.911	25564
373.993	26815
374.076	90013
374.159	91941
374.241	54940
374.324	158567
374.406	96754
374.489	130127
374.571	331103
374.654	127077
374.736	72923
374.819	213545
374.901	298896
374.983	280665
375.066	45334
375.148	17625
375.231	68477
375.313	133564
375.395	54944
375.478	13063
375.560	10072
375.643	17932
375.725	75010
375.807	282035
375.890	226129
375.972	125583
376.054	65445
376.136	122644
376.219	48503
376.301	86105
376.383	237990
376.465	81093
376.548	65268
376.630	76968
376.712	206967
376.794	83176
376.877	10623
376.959	7383
377.041	10056
377.123	21634
377.205	24267
377.287	5654
377.369	6892
377.452	9260
377.534	7361
377.616	7549
377.698	7245
377.780	5321
377.862	8842
377.944	8189
378.026	2986
378.108	4802
378.190	5056
378.272	5068
378.354	3417
378.436	4158
378.518	13584
378.600	52806
378.682	48015
378.764	110784
378.846	78916
378.928	23995
379.010	33302
379.091	15244
379.173	8114
379.255	6967
379.337	13213
379.419	54651
379.501	150383
379.583	52846
379.664	15159
379.746	42978
379.828	109333
379.910	145408
379.991	115847
380.073	19136
380.155	13369
380.237	9754
380.318	5600
380.400	7059
380.482	25483
380.564	42378
380.645	42654
380.727	36750
380.809	17290
380.890	12142
380.972	9665
381.053	7771
381.135	11795
381.217	37457
381.298	110562
381.380	49233
381.461	46836
381.543	210581
381.624	231161
381.706	38597
381.787	18675
381.869	20759
381.951	90201
382.032	317641
382.113	177364
382.195	38322
382.276	25675
382.358	69912
382.439	178827
382.521	192127
382.602	287940
382.684	121426
382.765	246757
382.846	187073
382.928	170489
383.009	83956
383.090	56433
383.172	239396
383.253	373313
383.334	158145
383.416	256582
383.497	109929
383.578	31344
383.659	54152
383.741	204254
383.822	573388
383.903	273981
383.984	163115
384.066	330568
384.147	193444
384.228	33125
384.309	27932
384.390	19478
384.471	11545
384.553	14252
384.634	26683
384.715	26275
384.796	10887
384.877	17142
384.958	96077
385.039	111861
385.120	36008
385.201	14390
385.282	20004
385.363	19769
385.444	13716
385.525	32581
385.606	131934
385.687	102235
385.768	22203
385.849	34176
385.930	146941
386.011	217322
386.092	51300
386.173	12490
386.254	10984
386.335	11880
386.416	13791
386.496	62494
386.577	102245
386.658	34775
386.739	21322
386.820	18384
386.901	15002
386.981	13537
387.062	8531
387.143	24287
387.224	105338
387.304	88277
387.385	29443
387.466	15041
387.547	19990
387.627	12728
387.708	38326
387.789	186373
387.869	206642
387.950	47773
388.031	8086
388.111	8570
388.192	28425
388.273	45484
388.353	25327
388.434	14524
388.514	38416
388.595	160201
388.676	195989
388.756	95943
388.837	100863
388.917	57473
388.998	10263
389.078	9264
389.159	7978
389.239	8665
389.320	18247
389.400	15215
389.480	38743
389.561	107175
389.641	44884
389.722	18137
389.802	31909
389.883	46372
389.963	126398
390.043	82108
390.124	28415
390.204	36501
390.284	122008
390.365	70960
390.445	72719
390.525	188313
390.605	155578
390.686	51524
390.766	17102
390.846	9085
390.927	5501
391.007	7810
391.087	9879
391.167	9371
391.247	8808
391.328	26554
391.408	31269
391.488	17540
391.568	5916
391.648	14606
391.728	20335
391.808	19485
391.888	24021
391.969	59183
392.049	90078
392.129	34591
392.209	46434
392.289	115605
392.369	53590
392.449	43857
392.529	29425
392.609	24365
392.689	35345
392.769	115870
392.849	87018
392.929	59796
393.009	155270
393.089	102843
393.169	70544
393.248	258070
393.328	997092
393.408	973915
393.488	224607
393.568	61507
393.648	30811
393.728	19836
393.807	15201
393.887	12572
393.967	11665
394.047	14709
394.127	17797
394.206	27597
394.286	109694
394.366	477327
394.446	428988
394.525	76303
394.605	19931
394.685	22377
394.764	59698
394.844	101937
394.924	67126
395.003	21362
395.083	16061
395.163	13549
395.242	12563
395.322	12803
395.402	7732
395.481	12739
395.561	41102
395.640	116027
395.720	77227
395.799	107560
395.879	79809
395.958	36588
396.038	149337
396.117	617392
396.197	572251
396.276	138893
396.356	50254
396.435	42773
396.515	28929
396.594	38604
396.673	74025
396.753	288280
396.832	898806
396.912	632773
396.991	151607
397.070	38408
397.150	20127
397.229	13546
397.308	14433
397.388	19811
397.467	11274
397.546	7326
397.625	6918
397.705	13361
397.784	15907
397.863	7067
397.942	4723
398.022	6124
398.101	32328
398.180	100978
398.259	52192
398.338	15114
398.417	12010
398.497	8303
398.576	8624
398.655	5686
398.734	5301
398.813	6102
398.892	28870
398.971	105623
399.050	47585
399.129	5176
399.208	4170
399.287	3947
399.366	3117
399.445	4205
399.524	4999
399.603	4517
399.682	16746
399.761	41845
399.840	112453
399.919	79549
399.998	10808
400.077	3296
400.156	3560
400.235	8145
400.313	4992
400.392	10570
400.471	58930
400.550	91038
400.629	23052
400.708	10088
400.786	9033
400.865	26952
400.944	30827
401.023	14560
401.102	3277
401.180	3149
401.259	4822
401.338	7348
401.416	12033
401.495	10602
401.574	7396
401.652	6183
401.731	10295
401.810	10757
401.888	4931
401.967	2665
402.046	3578
402.124	9022
402.203	14753
402.281	7682
402.360	8678
402.438	34030
402.517	23705
402.596	8360
402.674	7355
402.753	4753
402.831	4481
402.910	9478
402.988	49736
403.066	154631
403.145	73468
403.223	47778
403.302	123368
403.380	85778
403.459	88645
403.537	30289
403.615	11862
403.694	2038
403.772	3545
403.850	3189
403.929	2626
404.007	5142
404.085	17974
404.164	21931
404.242	5893
404.320	6194
404.398	11773
404.477	54080
404.555	258435
404.633	194719
404.711	24555
404.789	7592
404.868	8880
404.946	5184
405.024	2501
405.102	2704
405.180	2809
405.258	2701
405.336	4564
405.415	4409
405.493	15226
405.571	15447
405.649	4254
405.727	3269
405.805	8947
405.883	9099
405.961	9333
406.039	10752
406.117	5028
406.195	12721
406.273	66539
406.351	228364
406.429	115933
406.507	18241
406.585	5119
406.663	7771
406.740	11755
406.818	9858
406.896	4281
406.974	6186
407.052	20912
407.130	139738
407.208	175237
407.285	28943
407.363	5795
407.441	5947
407.519	4974
407.596	6731
407.674	13212
407.752	16303
407.830	26809
407.907	20962
407.985	8591
408.063	3994
408.141	2228
408.218	9448
408.296	11797
408.373	10192
408.451	9022
408.529	8003
408.606	2564
408.684	1631
408.762	582
408.839	-47
408.917	1051
408.994	1389
409.072	1095
409.149	1712
409.227	3153
409.304	4084
409.382	2433
409.459	3439
409.537	5484
409.614	4834
409.692	2976
409.769	4015
409.846	7000
409.924	8081
410.001	4241
410.079	3552
410.156	4148
410.233	3936
410.311	3838
410.388	2793
410.465	3035
410.543	2329
410.620	2230
410.697	5707
410.775	7156
410.852	1951
410.929	5548
411.006	8085
411.083	3583
411.161	7176
411.238	9910
411.315	6789
411.392	3765
411.469	6649
411.547	3676
411.624	595
411.701	1336
411.778	7294
411.855	20087
411.932	8967
412.009	3184
412.086	2937
412.163	5719
412.240	6079
412.317	7391
412.394	6168
412.471	2569
412.548	2671
412.625	3667
412.702	6397
412.779	12152
412.856	6660
412.933	2527
413.010	2408
413.087	9255
413.164	53039
413.241	71427
413.318	16728
413.395	9675
413.471	15314
413.548	6898
413.625	3937
413.702	6976
413.779	4652
413.855	474
413.932	1065
414.009	1128
414.086	2355
414.162	2978
414.239	8398
414.316	55647
414.393	117752
414.469	36803
414.546	3983
414.623	2464
414.699	3046
414.776	4913
414.853	2586
414.929	3859
415.006	3449
415.082	5160
415.159	3657
415.236	2754
415.312	4544
415.389	13920
415.465	19780
415.542	8937
415.618	4535
415.695	11600
415.771	7935
415.848	5961
415.924	5216
416.000	2874
416.077	2796
416.153	561
416.230	-402
416.306	2056
416.383	3493
416.459	2668
416.535	542
416.612	809
416.688	1806
416.764	2614
416.841	1724
416.917	997
416.993	2316
417.069	4895
417.146	7766
417.222	8803
417.298	5695
417.374	3152
417.451	4188
417.527	8244
417.603	8368
417.679	6085
417.755	4571
417.831	1871
417.908	1284
417.984	856
418.060	2380
418.136	15658
418.212	21044
418.288	5788
418.364	3266
418.440	4240
418.516	8981
418.592	11809
418.668	26280
418.744	39559
418.820	26593
418.896	5625
418.972	2054
419.048	4422
419.124	16841
419.200	11485
419.276	2106
419.352	493
419.428	1463
419.504	4377
419.579	6699
419.655	3807
419.731	5803
419.807	24960
419.883	48206
419.959	29612
420.034	7242
420.110	17540
420.186	74393
420.262	51131
420.337	8978
420.413	7088
420.489	2956
420.565	2355
420.640	1911
420.716	2469
420.792	2116
420.867	2365
420.943	3124
421.019	9472
421.094	6568
421.170	2501
421.245	522
421.321	2270
421.397	1948
421.472	3133
421.548	6357
421.623	7913
421.699	4988
421.774	5848
421.850	4245
421.925	12657
422.001	9340
422.076	4187
422.152	5483
422.227	12969
422.302	9613
422.378	11651
422.453	23469
422.529	62302
422.604	233679
422.679	382514
422.755	189235
422.830	50399
422.905	16362
422.981	9174
423.056	5761
423.131	4931
423.207	3705
423.282	7463
423.357	22005
423.432	13289
423.508	14408
423.583	39559
423.658	24338
423.733	6140
423.808	9330
423.883	11379
423.959	7948
424.034	5128
424.109	2484
424.184	767
424.259	1756
424.334	2171
424.409	1263
424.484	2370
424.559	3618
424.634	3117
424.709	8690
424.784	10027
424.859	4397
424.934	12290
425.009	54248
425.084	85370
425.159	25879
425.234	3600
425.309	1749
425.384	2990
425.459	2761
425.534	2737
425.609	2558
425.683	2022
425.758	1917
425.833	3775
425.908	6440
425.983	35727
426.058	92798
426.132	33356
426.207	6563
426.282	9742
426.357	8794
426.431	2599
426.506	3266
426.581	3602
426.655	3813
426.730	3007
426.805	3245
426.879	3446
426.954	4083
427.029	14991
427.103	87313
427.178	194786
427.253	73642
427.327	8067
427.402	7652
427.476	15145
427.551	5868
427.625	4040
427.700	4491
427.774	2578
427.849	3722
427.923	1872
427.998	1792
428.072	3248
428.147	11264
428.221	39658
428.296	78860
428.370	31085
428.444	7077
428.519	12287
428.593	25628
428.667	21566
428.742	26159
428.816	21301
428.890	58053
428.965	70258
429.039	29414
429.113	29941
429.188	10439
429.262	3470
429.336	11874
429.410	42742
429.485	24020
429.559	21343
429.633	16880
429.707	4766
429.781	14418
429.855	76824
429.930	108782
430.004	77205
430.078	115973
430.152	90269
430.226	109733
430.300	89393
430.374	12426
430.448	8369
430.522	33461
430.596	101849
430.670	61021
430.744	142030
430.818	203549
430.892	43314
430.966	8157
431.040	3483
431.114	1252
431.188	2033
431.262	3798
431.336	4036
431.410	12445
431.484	38736
431.557	25482
431.631	3301
431.705	3119
431.779	14007
431.853	57900
431.927	34868
432.000	4319
432.074	2170
432.148	5822
432.222	4101
432.295	1728
432.369	2235
432.443	10128
432.516	79959
432.590	188995
432.664	61730
432.737	8034
432.811	1674
432.885	453
432.958	592
433.032	248
433.106	460
433.179	120
433.253	516
433.326	-293
433.400	-477
433.473	843
433.547	153
433.620	1478
433.694	8658
433.767	9478
433.841	4332
433.914	720
433.988	-35
434.061	883
434.134	177
434.208	598
434.281	456
434.355	579
434.428	1691
434.501	495
434.575	930
434.648	1524
434.721	703
434.795	-18
434.868	-756
434.941	-747
435.014	369
435.088	517
435.161	2532
435.234	6323
435.307	8483
435.381	2613
435.454	1674
435.527	2770
435.600	1721
435.673	1881
435.746	289
435.819	855
435.892	745
435.966	1192
436.039	823
436.112	1519
436.185	239
436.258	337
436.331	-508
436.404	-324
436.477	-940
436.550	250
436.623	469
436.696	703
436.769	3267
436.842	2322
436.915	2302
436.987	5447
437.060	2867
437.133	3
437.206	140
437.279	1347
437.352	1165
437.425	1118
437.498	4038
437.570	10065
437.643	7886
437.716	1750
437.789	861
437.861	3144
437.934	10081
438.007	4079
438.080	831
438.152	2396
438.225	13369
438.298	103083
438.370	250015
438.443	86759
438.516	14655
438.588	3506
438.661	1489
438.734	1277
438.806	4181
438.879	3890
438.951	2764
439.024	5472
439.096	2049
439.169	820
439.241	476
439.314	484
439.386	5626
439.459	11182
439.531	18823
439.604	5274
439.676	915
439.749	227
439.821	900
439.893	1142
439.966	2255
440.038	3572
440.110	3650
440.183	2719
440.255	2400
440.327	6316
440.400	43423
440.472	172797
440.544	98519
440.617	12401
440.689	5645
440.761	7226
440.833	9688
440.905	6081
440.978	1010
441.050	-488
441.122	1245
441.194	928
441.266	751
441.338	1404
441.411	7562
441.483	56617
441.555	77500
441.627	14790
441.699	7208
441.771	10388
441.843	3002
441.915	1032
441.987	-136
442.059	333
442.131	2695
442.203	6652
442.275	8512
442.347	5843
442.419	5445
442.491	23406
442.563	52766
442.635	28020
442.706	34972
442.778	28998
442.850	3801
442.922	941
442.994	3144
443.066	8148
443.137	5688
443.209	2850
443.281	4307
443.353	11330
443.425	36856
443.496	107294
443.568	90944
443.640	30295
443.711	7489
443.783	3422
443.855	1635
443.926	844
443.998	2957
444.070	5460
444.141	5209
444.213	9067
444.285	11440
444.356	12718
444.428	12141
444.499	3759
444.571	352
444.642	891
444.714	3291
444.785	7882
444.857	9845
444.928	26004
445.000	16440
445.071	17377
445.143	22384
445.214	10031
445.285	13145
445.357	44124
445.428	95456
445.500	184497
445.571	113781
445.642	50081
445.714	31323
445.785	42712
445.856	15374
445.928	12175
445.999	7040
446.070	3587
446.141	7550
446.213	11732
446.284	5040
446.355	5358
446.426	4738
446.497	4791
446.569	8422
446.640	16982
446.711	12462
446.782	4127
446.853	11828
446.924	12360
446.995	5801
447.066	4472
447.138	10357
447.209	5607
447.280	692
447.351	547
447.422	543
447.493	4084
447.564	6268
447.635	11141
447.706	4007
447.777	686
447.847	1117
447.918	648
447.989	4988
448.060	7075
448.131	18920
448.202	19698
448.273	11903
448.344	4915
448.414	3026
448.485	2130
448.556	1604
448.627	1288
448.698	1063
448.768	-504
448.839	1842
448.910	8646
448.981	9704
449.051	3144
449.122	793
449.193	292
449.263	955
449.334	1458
449.405	4504
449.475	13931
449.546	8920
449.616	10576
449.687	8828
449.758	1912
449.828	1144
449.899	1093
449.969	656
450.040	1091
450.110	6813
450.181	9838
450.251	2751
450.322	1636
450.392	2056
450.463	1055
450.533	640
450.604	1040
450.674	1467
450.744	1608
450.815	361
450.885	2061
450.955	1036
451.026	670
451.096	814
451.166	3124
451.237	11773
451.307	29642
451.377	13048
451.447	2581
451.518	1506
451.588	1171
451.658	1882
451.728	6156
451.799	29904
451.869	37609
451.939	9216
452.009	1292
452.079	1310
452.149	1722
452.219	7894
452.289	35662
452.360	30379
452.430	6068
452.500	4172
452.570	5273
452.640	6603
452.710	20984
452.780	35561
452.850	29832
452.920	26310
452.990	8590
453.060	4316
453.129	6623
453.199	10213
453.269	33246
453.339	79118
453.409	125039
453.479	121920
453.549	176482
453.619	193557
453.688	85166
453.758	12952
453.828	3920
453.898	3233
453.968	2802
454.037	2050
454.087	2283
454.107	2358
454.168	1104
454.177	899
454.247	1348
454.249	1369
454.316	1284
454.330	1791
454.386	3626
454.411	8670
454.456	16677
454.492	22747
454.525	28232
454.574	14786
454.595	8955
454.655	2815
454.665	1855
454.734	4076
454.736	4299
454.804	10809
454.817	15279
454.873	32504
454.898	37516
454.943	46214
454.979	35413
455.013	25991
455.060	14081
455.082	9066
455.141	8080
455.152	7662
455.221	22442
455.222	22787
455.291	41763
455.303	37457
455.360	18767
455.384	14420
455.430	7401
455.465	9737
455.499	11233
455.546	24974
455.569	30625
455.627	24436
455.638	23550
455.707	5629
455.708	5638
455.777	2377
455.789	2553
455.846	3392
455.869	3144
455.916	2666
455.950	3014
455.985	3247
456.031	3493
456.054	3540
456.112	2785
456.124	2687
456.193	2045
456.193	2014
456.262	3844
456.274	4337
456.332	6413
456.355	8175
456.401	10927
456.436	8920
456.470	7082
456.516	3900
456.540	2397
456.597	2231
456.609	2169
456.678	2217
456.678	2195
456.747	2535
456.759	2312
456.817	1393
456.840	1589
456.886	1758
456.920	1885
456.955	2197
457.001	2631
457.024	2937
457.082	3912
457.093	4112
457.162	9092
457.163	9139
457.232	15727
457.243	14659
457.301	8816
457.324	6447
457.370	2837
457.405	2879
457.439	2888
457.485	2633
457.508	2496
457.566	2815
457.577	2966
457.646	4493
457.647	4531
457.715	6549
457.727	6903
457.784	9833
457.808	12100
457.853	14329
457.889	15277
457.922	13954
457.969	9741
457.991	10447
458.050	14563
458.060	15223
458.129	23397
458.130	23641
458.198	19412
458.211	17442
458.267	10418
458.292	7413
458.336	5544
458.372	5635
458.405	7819
458.453	11393
458.474	14380
458.533	25662
458.543	26460
458.611	36961
458.614	37168
458.680	20547
458.694	15957
458.749	9193
458.775	7332
458.818	5131
458.855	4537
458.887	4553
458.936	4810
458.955	4740
459.016	5076
459.024	5223
459.093	5903
459.097	5932
459.162	6452
459.177	6848
459.230	8129
459.257	8761
459.299	8509
459.338	7777
459.368	7608
459.418	7357
459.437	6817
459.499	5754
459.505	5817
459.574	5749
459.579	5831
459.643	5848
459.659	5643
459.711	5768
459.740	6085
459.780	6259
459.820	6551
459.849	6697
459.900	6988
459.917	6876
459.981	6752
459.986	6765
460.054	6089
460.061	6048
460.123	6504
460.141	6786
460.191	8894
460.222	10342
460.260	11377
460.302	13257
460.328	12258
460.382	8296
460.397	7918
460.462	5770
460.465	5733
460.534	6392
460.543	6559
460.602	10749
460.623	12147
460.671	16804
460.703	20638
460.739	18860
460.783	15986
460.808	13752
460.864	7165
460.876	6939
460.944	6241
460.945	6237
461.013	7761
461.024	7853
461.081	8612
461.104	9320
461.150	8943
461.184	8403
461.218	7963
461.264	6591
461.286	6540
461.345	7059
461.355	6954
461.423	6870
461.425	6857
461.491	7146
461.505	7303
461.559	12569
461.585	15091
461.628	23728
461.665	33095
461.696	37232
461.745	49730
461.764	46506
461.825	20898
461.832	20289
461.901	10426
461.905	10364
461.969	9032
461.985	8724
462.037	8186
462.065	7908
462.105	8487
462.145	9314
462.173	12687
462.225	19289
462.241	20920
462.305	31022
462.310	30515
462.378	21895
462.385	19878
462.446	12565
462.465	11252
462.514	9689
462.545	9629
462.582	8965
462.625	8172
462.650	7864
462.705	7474
462.718	7846
462.785	9684
462.786	9734
462.854	12288
462.865	12850
462.922	16995
462.945	19076
462.990	15818
463.025	11419
463.058	10267
463.104	8561
463.126	8058
463.184	8224
463.194	8440
463.262	9131
463.264	9192
463.330	9682
463.344	9574
463.398	10520
463.424	11134
463.466	10657
463.504	10246
463.533	10700
463.583	11287
463.601	11658
463.663	12660
463.669	12982
463.737	17374
463.743	17780
463.805	23591
463.823	25236
463.873	35923
463.903	42944
463.940	45169
463.982	49970
464.008	43173
464.062	22362
464.076	20854
464.142	10634
464.144	10499
464.211	9753
464.221	9792
464.279	10328
464.301	10518
464.347	12026
464.381	13278
464.414	14004
464.461	14866
464.482	15263
464.540	16797
464.550	16347
464.617	12155
464.620	11987
464.685	15554
464.699	16471
464.753	17953
464.779	18644
464.820	19203
464.859	19523
464.888	18687
464.938	17292
464.956	17707
465.018	19425
465.023	19083
465.091	14092
465.098	13481
465.158	13769
465.177	14018
465.226	14496
465.257	14746
465.293	15901
465.336	17282
465.361	19033
465.416	22979
465.428	23933
465.495	29104
465.496	29238
465.563	43324
465.575	45851
465.631	56043
465.654	60893
465.698	40594
465.734	21439
465.765	18849
465.813	14856
465.833	14039
465.893	13130
465.900	13159
465.968	13174
465.972	13164
466.035	13289
466.052	13269
466.102	13716
466.131	13982
466.170	13683
466.210	13206
466.237	13586
466.290	14349
466.304	14311
466.369	13909
466.372	13988
466.439	15581
466.449	15789
466.506	16354
466.528	16519
466.573	24177
466.607	29877
466.641	44902
466.687	65748
466.708	72612
466.766	91994
466.775	85323
466.842	33685
466.845	31161
466.909	21286
466.925	19107
466.977	16803
467.004	15682
467.044	17159
467.083	18636
467.111	20064
467.163	22637
467.178	23698
467.242	27882
467.245	27826
467.312	25481
467.321	25120
467.379	24402
467.400	24065
467.446	25763
467.480	26903
467.559	24957
467.638	19816
467.717	22487
467.796	26850
467.875	31066
467.955	26268
468.034	34796
468.113	75176
468.192	108725
468.271	32119
468.350	21703
468.429	22783
468.508	24548
468.588	21113
468.667	20137
468.746	19827
468.825	19257
468.904	18916
468.983	22609
469.062	33333
469.141	40752
469.220	20189
469.299	19567
469.378	20747
469.456	24180
469.535	21684
469.614	21194
469.693	21940
469.772	28098
469.851	35967
469.930	27935
470.009	21534
470.088	21545
470.166	23055
470.245	31241
470.324	34311
470.403	23528
470.482	21314
470.560	19922
470.639	23950
470.718	29438
470.797	22581
470.875	25262
470.954	32913
471.033	34274
471.111	17682
471.190	17657
471.269	15902
471.347	16419
471.426	16925
471.505	21028
471.583	22268
471.662	20027
471.740	18071
471.819	18716
471.898	18029
471.976	17827
472.055	18407
472.133	19561
472.212	24922
472.290	25805
472.369	18285
472.447	17810
472.526	16760
472.604	18908
472.683	21166
472.761	25507
472.839	21251
472.918	18056
472.996	17871
473.075	21831
473.153	20317
473.231	17870
473.310	20788
473.388	22004
473.466	19656
473.545	24468
473.623	35561
473.701	35502
473.780	18876
473.858	17108
473.936	20490
474.014	19072
474.093	20435
474.171	26570
474.249	35070
474.327	25621
474.405	16419
474.484	17993
474.562	17990
474.640	17028
474.718	16923
474.796	16888
474.874	16444
474.952	15183
475.030	15622
475.108	16407
475.187	16669
475.265	22524
475.343	42558
475.421	51184
475.499	19447
475.577	18517
475.655	21133
475.733	40298
475.811	65204
475.889	62020
475.966	43041
476.044	22084
476.122	32224
476.200	45759
476.278	35620
476.356	19309
476.434	20765
476.512	29994
476.590	42631
476.667	35130
476.745	18827
476.823	20703
476.901	18779
476.979	18682
477.056	17174
477.134	18841
477.212	18738
477.290	18951
477.367	16730
477.445	17541
477.523	16414
477.601	17091
477.678	16318
477.756	20374
477.834	21181
477.911	17602
477.989	17079
478.066	18087
478.144	20695
478.222	30640
478.299	59585
478.377	52983
478.454	15350
478.532	16738
478.609	18194
478.687	21237
478.764	15536
478.842	18532
478.919	20541
478.997	19379
479.074	15150
479.152	18211
479.229	21530
479.307	16813
479.384	13004
479.461	14398
479.539	15113
479.616	17000
479.694	15072
479.771	17772
479.848	18448
479.926	22839
480.003	24917
480.080	15942
480.157	14557
480.235	14805
480.312	15432
480.389	17625
480.467	26187
480.544	32066
480.621	18291
480.698	18245
480.775	20063
480.853	21340
480.930	17004
481.007	18205
481.084	18670
481.161	19268
481.238	18741
481.315	15998
481.392	15591
481.470	15511
481.547	14673
481.624	16201
481.701	16168
481.778	17752
481.855	18707
481.932	24998
482.009	40219
482.086	32194
482.163	19625
482.240	37610
482.317	77551
482.393	57986
482.470	17282
482.547	17925
482.624	15288
482.701	16380
482.778	14351
482.855	14342
482.932	13857
483.009	14520
483.085	15688
483.162	18026
483.239	18072
483.316	15842
483.393	15252
483.469	15109
483.546	17095
483.623	17734
483.699	15366
483.776	16571
483.853	18976
483.930	25419
484.006	59826
484.083	99157
484.160	52417
484.236	67668
484.313	53615
484.389	41904
484.466	36953
484.543	35176
484.619	35958
484.696	37731
484.772	38473
484.849	41145
484.925	34007
485.002	33490
485.078	35705
485.155	35491
485.231	33542
485.308	33124
485.384	34210
485.461	40706
485.537	61999
485.614	74401
485.690	36130
485.766	32641
485.843	35651
485.919	59402
485.995	64357
486.072	31217
486.148	29124
486.224	29575
486.301	31445
486.377	35308
486.453	33510
486.530	33767
486.606	41339
486.682	47637
486.758	55601
486.835	65424
486.911	51781
486.987	83133
487.063	117542
487.139	168600
487.215	109844
487.292	44769
487.368	32873
487.444	36684
487.520	41769
487.596	39732
487.672	50183
487.748	119736
487.824	173165
487.900	59410
487.976	32741
488.052	34080
488.128	41788
488.204	37278
488.280	33284
488.356	38317
488.432	66875
488.508	106273
488.584	45367
488.660	33370
488.736	33667
488.812	37859
488.888	46586
488.964	63221
489.039	158308
489.115	261080
489.191	149417
489.267	34813
489.343	29894
489.418	25389
489.494	24690
489.570	23515
489.646	25770
489.722	26107
489.797	27085
489.873	37393
489.949	75801
490.024	71215
490.100	25234
490.176	25117
490.251	36067
490.327	51349
490.403	28215
490.478	23708
490.554	20035
490.629	21870
490.705	21236
490.781	24702
490.856	23549
490.932	31103
491.007	32529
491.083	28390
491.158	23564
491.234	29639
491.309	58728
491.385	63675
491.460	25767
491.536	27381
491.611	26233
491.686	31772
491.762	44024
491.837	104420
491.913	171533
491.988	240227
492.063	325039
492.139	71561
492.214	35521
492.289	21619
492.365	22019
492.440	26171
492.515	24596
492.590	24219
492.666	19322
492.741	26843
492.816	36520
492.891	22924
492.967	18239
493.042	17159
493.117	16723
493.192	17311
493.267	18965
493.342	26815
493.418	24714
493.493	17983
493.568	15508
493.643	16903
493.718	22664
493.793	36552
493.868	50037
493.943	33090
494.018	20583
494.093	17192
494.168	16692
494.243	17662
494.318	14660
494.393	15407
494.468	14700
494.543	16982
494.618	21847
494.693	17341
494.768	16326
494.842	17644
494.917	14319
494.992	18674
495.067	15416
495.142	15198
495.217	18102
495.292	19753
495.366	23436
495.441	33050
495.516	41545
495.591	56598
495.665	214686
495.740	567905
495.815	237047
495.890	32593
495.964	22231
496.039	25129
496.114	21351
496.188	22458
496.263	23189
496.338	22373
496.412	23853
496.487	27179
496.561	34327
496.636	36568
496.710	23723
496.785	27711
496.860	29201
496.934	23791
497.009	24017
497.083	22154
497.158	20045
497.232	23868
497.307	32355
497.381	24652
497.455	26336
497.530	35085
497.604	24357
497.679	25182
497.753	39991
497.827	51413
497.902	41597
497.976	48270
498.050	107720
498.125	478698
498.199	527539
498.273	88991
498.348	55419
498.422	41572
498.496	42206
498.570	42320
498.645	25569
498.719	27039
498.793	34751
498.867	55327
498.941	67900
499.016	181257
499.090	542247
499.164	210732
499.238	26796
499.312	24140
499.386	34629
499.460	31000
499.534	24504
499.609	30441
499.683	45452
499.757	44371
499.831	80140
499.905	345223
499.979	350692
500.053	59571
500.127	64270
500.201	58643
500.275	33570
500.349	30893
500.422	33624
500.496	54210
500.570	116260
500.644	217802
500.718	385015
500.792	100818
500.866	28646
500.940	34991
501.013	30608
501.087	31936
501.161	61567
501.235	74232
501.309	111673
501.382	327903
501.456	310964
501.530	75705
501.603	109466
501.677	51735
501.751	24078
501.825	31695
501.898	45690
501.972	132113
502.046	90106
502.119	29982
502.193	62738
502.266	147118
502.340	75396
502.413	61014
502.487	124297
502.561	74256
502.634	28651
502.708	29864
502.781	25211
502.855	20914
502.928	15412
503.002	17382
503.075	15053
503.149	18466
503.222	18340
503.295	19927
503.369	23924
503.442	30127
503.516	86538
503.589	236399
503.662	161272
503.736	50508
503.809	108666
503.882	94484
503.956	134491
504.029	133366
504.102	87866
504.175	107446
504.249	34772
504.322	23329
504.395	23918
504.468	17329
504.542	16745
504.615	14687
504.688	14648
504.761	15206
504.834	21563
504.907	29360
504.980	51871
505.053	25293
505.127	31270
505.200	33477
505.273	24624
505.346	19098
505.419	13760
505.492	15510
505.565	11992
505.638	12162
505.711	12865
505.784	12953
505.857	12469
505.930	15689
506.003	13167
506.076	15965
506.149	17931
506.221	23691
506.294	20576
506.367	49869
506.440	182995
506.513	112522
506.586	26660
506.659	18370
506.731	15685
506.804	20198
506.877	33770
506.950	20264
507.022	13852
507.095	16790
507.168	23737
507.241	19154
507.313	13358
507.386	18093
507.459	30222
507.531	18966
507.604	13529
507.677	14280
507.749	11005
507.822	18714
507.894	38604
507.967	41290
508.040	20419
508.112	18114
508.185	17708
508.257	17729
508.330	31240
508.402	19206
508.475	15845
508.547	17185
508.620	16803
508.692	26486
508.765	19230
508.837	14042
508.909	13699
508.982	15676
509.054	19893
509.127	16634
509.199	12669
509.271	12554
509.344	11400
509.416	12945
509.488	12981
509.560	14779
509.633	15568
509.705	21808
509.777	18263
509.849	29708
509.922	19785
509.994	12934
510.066	12887
510.138	13823
510.210	26630
510.283	24125
510.355	20246
510.427	19739
510.499	17638
510.571	17356
510.643	17984
510.715	35385
510.787	33138
510.859	19605
510.931	23079
511.003	33734
511.076	30784
511.148	15769
511.219	15856
511.291	24611
511.363	28707
511.435	15180
511.507	13724
511.579	14755
511.651	14922
511.723	14272
511.795	13429
511.867	16112
511.939	16716
512.010	34427
512.082	29736
512.154	17734
512.226	16990
512.298	23815
512.369	37351
512.441	30225
512.513	32197
512.585	22996
512.656	21804
512.728	26444
512.800	17593
512.871	18335
512.943	17419
513.015	15520
513.086	17308
513.158	21684
513.230	20517
513.301	36418
513.373	51419
513.444	24904
513.516	17639
513.588	18194
513.659	21347
513.731	31842
513.802	24648
513.874	55529
513.945	115518
514.016	36639
514.088	17857
514.159	21887
514.231	30836
514.302	36979
514.374	22778
514.445	21689
514.516	39202
514.588	31657
514.659	20616
514.730	37329
514.802	33386
514.873	20630
514.944	19668
515.016	20647
515.087	26212
515.158	29797
515.229	38144
515.301	15775
515.372	16521
515.443	13980
515.514	13819
515.585	13069
515.656	14989
515.728	15253
515.799	14184
515.870	18572
515.941	17792
516.012	17931
516.083	23828
516.154	29265
516.225	46970
516.296	39017
516.367	28412
516.438	33162
516.509	42426
516.580	56093
516.651	141791
516.722	571425
516.793	301934
516.864	63369
516.935	57511
517.006	56812
517.077	76409
517.148	170868
517.219	485064
517.289	786184
517.360	248386
517.431	88721
517.502	27948
517.573	28185
517.643	26067
517.714	29129
517.785	29852
517.856	31223
517.926	38388
517.997	44526
518.068	52334
518.138	68073
518.209	85410
518.280	292333
518.350	1222074
518.421	477518
518.492	56627
518.562	35326
518.633	35497
518.703	30849
518.774	44775
518.845	97989
518.915	103667
518.986	43103
519.056	41769
519.127	83595
519.197	120527
519.268	226555
519.338	137402
519.408	38650
519.479	56646
519.549	45628
519.620	27292
519.690	20283
519.760	19345
519.831	21989
519.901	23080
519.971	18306
520.042	20177
520.112	22840
520.182	28248
520.253	36278
520.323	19862
520.393	20382
520.463	27401
520.534	20028
520.604	31689
520.674	24016
520.744	23931
520.814	40828
520.885	46040
520.955	57983
521.025	223540
521.095	100508
521.165	21295
521.235	20037
521.305	17570
521.375	18279
521.445	21176
521.515	32129
521.585	37151
521.655	37244
521.725	27595
521.795	23827
521.865	15585
521.935	26426
522.005	21560
522.075	16308
522.145	17926
522.215	20397
522.285	27168
522.355	34529
522.424	63551
522.494	57408
522.564	33843
522.634	76252
522.704	261173
522.774	109145
522.843	25161
522.913	22604
522.983	32626
523.053	23843
523.122	22117
523.192	33004
523.262	136857
523.331	146806
523.401	25160
523.471	15737
523.540	18454
523.610	14065
523.680	13781
523.749	14157
523.819	16995
523.888	16569
523.958	13625
524.027	15462
524.097	17159
524.166	15947
524.236	19786
524.305	20638
524.375	15146
524.444	13167
524.514	15900
524.583	14548
524.653	18706
524.722	21212
524.791	14147
524.861	16931
524.930	13641
524.999	16366
525.069	25247
525.138	19015
525.207	20151
525.277	16207
525.346	16257
525.415	16038
525.484	15835
525.554	18957
525.623	17291
525.692	15296
525.761	16313
525.830	17241
525.900	19116
525.969	27335
526.038	36021
526.107	57912
526.176	170128
526.245	146166
526.314	64644
526.383	100593
526.452	124820
526.522	205441
526.591	241617
526.660	138902
526.729	70440
526.797	63516
526.867	128549
526.935	630829
527.004	752343
527.073	351754
527.142	39678
527.211	22269
527.280	24883
527.349	29350
527.418	13803
527.487	16076
527.555	12683
527.624	12682
527.693	10478
527.762	13491
527.831	12009
527.899	13333
527.968	13299
528.037	13409
528.106	19115
528.174	41192
528.243	28882
528.312	39417
528.380	62916
528.449	20109
528.518	13516
528.586	10489
528.655	10734
528.723	11330
528.792	10040
528.861	12596
528.929	10239
528.998	11759
529.066	9064
529.135	10053
529.203	10647
529.272	9156
529.340	10844
529.409	13703
529.477	9439
529.545	13054
529.614	15709
529.682	14061
529.751	18276
529.819	18460
529.887	14159
529.956	10797
530.024	12492
530.092	9819
530.161	14842
530.229	31902
530.297	14938
530.365	10910
530.434	9406
530.502	8619
530.570	10297
530.638	8552
530.707	12613
530.775	14760
530.843	9582
530.911	11162
530.979	9924
531.047	10480
531.115	10515
531.183	10540
531.252	10051
531.320	11153
531.388	9439
531.456	11141
531.524	7887
531.592	11902
531.660	13472
531.728	11332
531.796	9970
531.864	10346
531.932	11967
532.000	12489
532.067	13116
532.135	15534
532.203	18303
532.271	17899
532.339	32993
532.407	113363
532.475	68925
532.542	28660
532.610	29238
532.678	39328
532.746	162758
532.814	489458
532.881	130294
532.949	22768
533.017	14625
533.084	12331
533.152	10622
533.220	12321
533.287	17441
533.355	12882
533.423	10484
533.490	9943
533.558	10397
533.625	11857
533.693	14041
533.761	13851
533.828	14366
533.896	13718
533.963	31517
534.031	42915
534.098	63988
534.166	28519
534.233	11201
534.300	12978
534.368	12513
534.435	11938
534.503	11436
534.570	13421
534.637	12777
534.705	13316
534.772	15103
534.840	19974
534.907	75360
534.974	103948
535.041	19348
535.109	16583
535.176	11189
535.243	11732
535.310	12516
535.378	13067
535.445	10535
535.512	9661
535.579	11485
535.646	10284
535.714	11353
535.781	14156
535.848	13145
535.915	14757
535.982	11905
536.049	12610
536.116	14318
536.183	12716
536.250	14155
536.317	15261
536.384	18207
536.451	33051
536.518	37107
536.585	22653
536.652	25998
536.719	46170
536.786	41514
536.853	26316
536.920	35746
536.987	70361
537.053	62209
537.120	225603
537.187	221687
537.254	25441
537.321	15056
537.388	17238
537.454	12022
537.521	12171
537.588	12386
537.654	15973
537.721	16646
537.788	17905
537.855	12704
537.921	16300
537.988	15323
538.055	15060
538.121	14092
538.188	16177
538.254	26936
538.321	74178
538.388	48047
538.454	16749
538.521	13836
538.587	12863
538.654	12967
538.720	12720
538.787	13126
538.853	15271
538.920	19452
538.986	20529
539.053	15753
539.119	18287
539.185	18244
539.252	21295
539.318	39076
539.385	27360
539.451	21123
539.517	22376
539.583	24029
539.650	57070
539.716	177911
539.782	53826
539.849	19049
539.915	18621
539.981	18637
540.047	26608
540.114	21467
540.180	20558
540.246	20016
540.312	29708
540.378	66047
540.444	77593
540.510	63705
540.576	203545
540.643	68930
540.709	19358
540.775	16078
540.841	15066
540.907	19857
540.973	27026
541.039	30848
541.105	44203
541.171	20574
541.237	16073
541.303	16536
541.369	21470
541.435	27176
541.500	61699
541.566	41771
541.632	17185
541.698	14417
541.764	15021
541.830	13350
541.896	13583
541.961	14724
542.027	17358
542.093	17502
542.159	17899
542.224	18594
542.290	27258
542.356	54620
542.421	83318
542.487	29753
542.553	19320
542.618	20575
542.684	18543
542.750	19026
542.815	23544
542.881	38282
542.947	163407
543.012	135126
543.078	22071
543.143	17089
543.209	18546
543.274	19032
543.340	23214
543.405	57462
543.471	107102
543.536	24164
543.602	16745
543.667	14083
543.732	15902
543.798	13162
543.863	15740
543.928	12614
543.994	11384
544.059	12986
544.124	14028
544.190	14923
544.255	16359
544.320	16474
544.386	18545
544.451	27251
544.516	37493
544.581	31981
544.646	97260
544.712	173600
544.777	34631
544.842	19781
544.907	20782
544.972	17187
545.037	18653
545.102	20872
545.168	21034
545.233	22344
545.298	23939
545.363	26159
545.428	30352
545.493	54943
545.558	147176
545.623	59926
545.688	22341
545.753	20205
545.818	18950
545.883	20175
545.947	19473
546.012	20521
546.077	22739
546.142	21804
546.207	21256
546.272	31692
546.337	37748
546.401	23693
546.466	21116
546.531	20191
546.596	23383
546.661	25408
546.725	22799
546.790	18806
546.855	21436
546.919	19777
546.984	24021
547.049	25279
547.113	27930
547.178	26076
547.243	28578
547.307	32877
547.372	39086
547.436	40538
547.501	33578
547.565	36018
547.630	43343
547.695	41312
547.759	39988
547.823	35782
547.888	32142
547.952	31200
548.017	32986
548.081	36899
548.146	45288
548.210	39448
548.274	34774
548.339	32737
548.403	32925
548.468	29566
548.532	30241
548.596	31378
548.660	31175
548.725	35102
548.789	42504
548.853	41017
548.917	35579
548.982	39335
549.046	39703
549.110	29147
549.174	28708
549.238	30848
549.303	32346
549.367	35871
549.431	33154
549.495	31222
549.559	31490
549.623	35131
549.687	42435
549.751	56250
549.815	47491
549.879	42815
549.943	39878
550.007	42740
550.071	44821
550.135	51732
550.199	45026
550.263	38357
550.327	39469
550.391	44896
550.455	40996
550.519	40307
550.582	45777
550.646	59686
550.710	63263
550.774	45810
550.838	46628
550.901	47307
550.965	50171
551.029	50792
551.093	55949
551.156	63655
551.220	94132
551.284	118187
551.347	70344
551.411	92064
551.475	103766
551.538	52251
551.602	45516
551.666	43401
551.729	39495
551.793	40035
551.856	39051
551.920	36135
551.983	38589
552.047	38001
552.110	38142
552.174	37040
552.237	38688
552.301	36565
552.364	34925
552.428	34727
552.491	36830
552.554	37327
552.618	37460
552.681	38429
552.745	39329
552.808	51791
552.871	63935
552.934	42660
552.998	38084
553.061	37750
553.124	35290
553.187	33476
553.251	36492
553.314	36129
553.377	34898
553.440	36407
553.503	40103
553.567	39702
553.630	35957
553.693	35314
553.756	37467
553.819	34586
553.882	33997
553.945	34219
554.008	34265
554.071	32938
554.134	33598
554.197	31978
554.260	31878
554.323	35406
554.386	36283
554.449	34894
554.512	33848
554.575	31619
554.638	35588
554.701	32988
554.764	31890
554.827	30630
554.889	30482
554.952	27597
555.015	29136
555.078	28440
555.141	29919
555.203	28580
555.266	29425
555.329	30507
555.391	28015
555.454	29954
555.517	31891
555.580	27014
555.642	26998
555.705	25877
555.768	27403
555.830	26421
555.893	25568
555.955	25549
556.018	26888
556.080	25351
556.143	26103
556.206	24121
556.268	26820
556.330	27708
556.393	27280
556.455	25887
556.518	34930
556.580	38031
556.643	25039
556.705	23451
556.767	24383
556.830	24988
556.892	29666
556.955	50012
557.017	37248
557.079	24869
557.142	25069
557.204	29858
557.266	64043
557.328	56475
557.391	23287
557.453	20482
557.515	21748
557.577	28940
557.639	32535
557.701	20894
557.764	20055
557.826	21376
557.888	23822
557.950	22956
558.012	23528
558.074	27338
558.136	52130
558.198	122692
558.260	52755
558.322	27960
558.384	30648
558.446	32824
558.508	38337
558.570	48999
558.632	82966
558.694	130511
558.756	91555
558.818	237432
558.880	639181
558.942	196006
559.003	131033
559.065	71301
559.127	34919
559.189	33790
559.251	37186
559.312	45990
559.374	104784
559.436	375289
559.498	195198
559.559	38567
559.621	35239
559.683	38159
559.744	59946
559.806	172142
559.868	269461
559.929	58160
559.991	38000
560.052	47241
560.114	117986
560.176	82225
560.237	71938
560.299	123332
560.360	37867
560.422	22581
560.483	21109
560.545	19826
560.606	19613
560.667	19066
560.729	19950
560.790	18566
560.852	19708
560.913	18794
560.974	19744
561.036	18892
561.097	20407
561.158	20636
561.220	21772
561.281	20805
561.342	23240
561.403	25633
561.465	34944
561.526	86526
561.587	127745
561.648	33113
561.709	21970
561.771	20070
561.832	19719
561.893	18828
561.954	19646
562.015	17238
562.076	17994
562.137	17862
562.198	18878
562.259	18459
562.320	19274
562.381	22695
562.442	35079
562.503	26751
562.564	19622
562.625	17615
562.686	18212
562.747	19072
562.808	19809
562.869	17905
562.930	24660
562.991	22868
563.051	20808
563.112	19232
563.173	19070
563.234	17831
563.294	17852
563.355	18462
563.416	20706
563.477	18741
563.537	20160
563.598	20044
563.659	20534
563.720	20010
563.780	21724
563.841	22692
563.901	18825
563.962	18023
564.023	19633
564.083	19147
564.144	21326
564.204	19714
564.265	19576
564.325	22476
564.386	38677
564.446	38047
564.507	18816
564.567	17408
564.628	18300
564.688	16553
564.749	18629
564.809	20454
564.869	24214
564.930	18177
564.990	18535
565.050	17191
565.111	17958
565.171	17217
565.231	18183
565.292	16098
565.352	17581
565.412	17389
565.472	18871
565.532	20692
565.593	18723
565.653	17433
565.713	19113
565.773	19144
565.833	25274
565.893	34272
565.953	20625
566.013	17436
566.074	18661
566.134	25193
566.194	38105
566.254	41885
566.314	26275
566.374	18560
566.434	19517
566.494	16951
566.554	17924
566.614	17061
566.673	16972
566.733	18815
566.793	19633
566.853	18398
566.913	18536
566.973	18249
567.033	18597
567.092	18744
567.152	19395
567.212	19372
567.272	19347
567.331	19089
567.391	19101
567.451	19107
567.511	27187
567.570	27201
567.630	17530
567.690	16750
567.749	17618
567.809	16361
567.868	19114
567.928	18485
567.988	20959
568.047	18292
568.107	17140
568.166	17919
568.226	19893
568.285	22273
568.345	19641
568.404	18515
568.464	18952
568.523	16814
568.582	19667
568.642	19819
568.701	20887
568.761	21735
568.820	27874
568.879	25497
568.939	27317
568.998	21662
569.057	17937
569.116	17080
569.176	16466
569.235	14978
569.294	15566
569.353	16447
569.413	16867
569.472	16297
569.531	15555
569.590	15384
569.649	16610
569.708	14313
569.767	17177
569.827	18944
569.886	18194
569.945	14958
570.004	16129
570.063	17245
570.122	18899
570.181	18819
570.240	20324
570.299	20007
570.358	19084
570.417	16782
570.475	16672
570.534	18374
570.593	20244
570.652	19286
570.711	18783
570.770	17594
570.829	20246
570.887	19834
570.946	23763
571.005	16865
571.064	16661
571.122	17725
571.181	19849
571.240	17050
571.299	15171
571.357	16538
571.416	17661
571.475	19145
571.533	22215
571.592	16439
571.650	18571
571.709	16111
571.768	16941
571.826	15277
571.885	14994
571.943	14247
572.002	16249
572.060	15955
572.119	14798
572.177	13974
572.236	13843
572.294	12546
572.352	14519
572.411	13919
572.469	14030
572.528	13054
572.586	14486
572.644	15460
572.703	18311
572.761	15403
572.819	14873
572.877	13829
572.936	14060
572.994	13321
573.052	13708
573.110	14001
573.169	15199
573.227	12885
573.285	13852
573.343	12868
573.401	14371
573.459	13312
573.517	13528
573.576	13345
573.634	14129
573.692	13615
573.750	13868
573.808	13254
573.866	14815
573.924	18847
573.982	18173
574.040	13844
574.098	14143
574.155	13197
574.213	13277
574.271	12521
574.329	13651
574.387	12236
574.445	12568
574.503	11188
574.560	11533
574.618	11208
574.676	12114
574.734	11679
574.792	12752
574.849	12187
574.907	11429
574.965	12250
575.022	12251
575.080	10910
575.138	12962
575.195	13564
575.253	14253
575.311	15484
575.368	13658
575.426	11661
575.483	12661
575.541	11637
575.598	12264
575.656	12672
575.713	13103
575.771	11666
575.828	12599
575.886	12705
575.943	14308
576.001	12829
576.058	13814
576.115	14764
576.173	18180
576.230	20963
576.287	24396
576.345	18878
576.402	14078
576.459	13594
576.517	14767
576.574	16603
576.631	19046
576.688	14183
576.746	14213
576.803	13678
576.860	13451
576.917	12950
576.974	13790
577.031	13379
577.089	14347
577.146	13697
577.203	13810
577.260	13903
577.317	15653
577.374	17579
577.431	18323
577.488	14552
577.545	13562
577.602	13353
577.659	12945
577.716	12201
577.773	12381
577.830	11314
577.886	12956
577.943	12433
578.000	12770
578.057	14657
578.114	13730
578.171	11664
578.227	12354
578.284	11797
578.341	13295
578.398	11728
578.454	14925
578.511	16445
578.568	20286
578.625	16070
578.681	13016
578.738	12030
578.794	12417
578.851	10997
578.908	12989
578.964	12752
579.021	13350
579.077	12292
579.134	12085
579.190	11435
579.247	12602
579.303	11440
579.360	12417
579.416	11597
579.473	11327
579.529	10828
579.586	12017
579.642	11617
579.698	12780
579.755	12787
579.811	12158
579.867	12242
579.924	11553
579.980	10325
580.036	11535
580.093	11330
580.149	11659
580.205	11936
580.261	12997
580.317	14626
580.374	15057
580.430	18342
580.486	16066
580.542	13126
580.598	12822
580.619	13127
580.654	13668
580.692	12789
580.710	12369
580.765	11374
580.767	11352
580.823	13235
580.838	13230
580.879	13246
580.911	13084
580.935	12981
580.984	11271
580.991	11052
581.047	12334
581.057	12241
581.103	11841
581.130	12375
581.159	12951
581.203	13083
581.215	13114
581.270	13730
581.276	13598
581.326	12463
581.349	13073
581.382	14003
581.422	13345
581.438	13058
581.494	14675
581.494	14668
581.550	14729
581.567	14955
581.606	15362
581.640	14356
581.661	13757
581.713	14008
581.717	14048
581.773	12439
581.786	12780
581.829	13748
581.859	13512
581.885	13384
581.932	13788
581.940	13855
581.996	13380
582.004	13515
582.052	14248
582.077	13749
582.107	13196
582.150	13781
582.163	13970
582.219	13254
582.223	13281
582.274	13653
582.296	13912
582.330	14256
582.368	14858
582.386	15145
582.441	12981
582.441	12978
582.497	13596
582.514	13344
582.552	12985
582.587	12937
582.608	12846
582.659	12668
582.663	12659
582.719	14040
582.732	13654
582.774	12513
582.805	13299
582.830	13892
582.877	13749
582.885	13711
582.941	13053
582.950	12987
582.996	12603
583.023	13510
583.052	14706
583.095	13295
583.107	12912
583.162	14479
583.168	14487
583.218	14227
583.240	13920
583.273	13561
583.313	13589
583.328	13640
583.384	14416
583.385	14410
583.439	13914
583.458	13744
583.494	13425
583.531	13035
583.549	13004
583.603	13648
583.605	13657
583.660	13287
583.676	13556
583.715	14400
583.748	14735
583.770	14980
583.820	15458
583.825	15473
583.881	14300
583.893	14226
583.936	14202
583.965	14202
583.991	14165
584.038	14377
584.046	14442
584.101	14862
584.110	14827
584.156	14127
584.183	13981
584.211	14020
584.255	13816
584.266	13788
584.321	13650
584.328	13763
584.376	14888
584.400	14674
584.431	14167
584.472	13940
584.486	13851
584.541	13740
584.545	13741
584.596	14060
584.617	14398
584.651	15578
584.689	16746
584.706	16774
584.761	15563
584.762	15558
584.816	16164
584.834	15903
584.871	15345
584.906	15963
584.926	16169
584.978	15733
584.980	15746
585.035	17275
585.051	17388
585.090	17741
585.123	18405
585.145	18702
585.195	18734
585.200	18778
585.254	19759
585.267	19929
585.309	20127
585.340	20860
585.364	21637
585.412	22435
585.419	22519
585.473	24027
585.484	24431
585.528	27543
585.556	31017
585.583	36451
585.628	50722
585.637	55385
585.692	104414
585.700	113615
585.747	148980
585.772	118922
585.801	72526
585.845	33996
585.856	28684
585.910	23471
585.917	23065
585.965	21937
585.989	21239
586.019	20762
586.061	20245
586.074	20172
586.128	20937
586.133	21038
586.183	23446
586.205	24697
586.237	25667
586.277	24830
586.292	24423
586.346	23349
586.349	23306
586.401	22725
586.421	22950
586.455	25432
586.493	28293
586.509	32408
586.564	48159
586.565	48633
586.618	78369
586.637	83146
586.672	63090
586.709	37385
586.727	31316
586.781	23461
586.781	23471
586.835	21464
586.853	21289
586.889	21287
586.925	20334
586.944	20015
586.996	20726
586.998	20782
587.052	22064
587.068	22282
587.106	22366
587.140	21875
587.161	21607
587.212	22429
587.215	22528
587.269	22600
587.284	22979
587.323	23369
587.356	22986
587.377	22914
587.427	23367
587.431	23437
587.485	23455
587.499	23582
587.539	23907
587.571	23721
587.593	24018
587.643	25292
587.648	25369
587.702	25691
587.715	25802
587.755	26364
587.786	26259
587.810	25851
587.858	24984
587.864	25069
587.917	26229
587.930	26614
587.971	29209
588.001	30539
588.025	29772
588.073	27894
588.079	27879
588.133	27536
588.145	27532
588.187	28133
588.217	28712
588.241	29691
588.288	31892
588.295	32146
588.348	33525
588.360	34034
588.402	36193
588.431	37342
588.456	38350
588.503	41505
588.510	42018
588.564	45703
588.575	46810
588.617	50943
588.646	53550
588.671	56957
588.718	65719
588.725	67789
588.778	88368
588.789	94564
588.832	144888
588.861	191605
588.886	274433
588.932	480096
588.939	499783
588.993	638226
589.004	620158
589.047	323561
589.075	164379
589.100	111613
589.147	66943
589.154	64876
589.207	56981
589.218	56076
589.261	56590
589.290	57810
589.314	59797
589.361	66563
589.368	69338
589.421	97972
589.433	106884
589.475	190008
589.504	264266
589.528	352807
589.576	553889
589.582	541762
589.635	264323
589.647	210966
589.689	101390
589.718	53281
589.742	48708
589.790	44764
589.795	45863
589.849	56781
589.861	60026
589.902	70168
589.932	75344
589.955	63561
590.004	36828
590.009	36246
590.062	32027
590.075	31001
590.115	30729
590.146	30375
590.168	30591
590.218	31011
590.222	31171
590.275	32703
590.289	33110
590.328	33522
590.360	33302
590.381	32608
590.431	31011
590.435	31136
590.488	32380
590.503	32702
590.541	32972
590.574	33019
590.594	32855
590.645	32293
590.647	32327
590.700	31280
590.716	30960
590.753	30866
590.787	30776
590.806	30898
590.859	30968
590.859	31021
590.912	30389
590.930	30240
590.965	30613
591.001	30613
591.018	30611
591.071	30606
591.072	30546
591.124	31958
591.143	32386
591.177	32298
591.214	32125
591.230	32753
591.283	34673
591.285	34678
591.336	36906
591.356	37780
591.389	37736
591.427	37065
591.442	36212
591.495	32964
591.498	32656
591.547	32074
591.569	31832
591.600	31948
591.640	31790
591.653	32390
591.706	34792
591.711	34980
591.759	38610
591.782	40367
591.811	43173
591.853	46903
591.864	45157
591.917	35610
591.924	34153
591.969	34312
591.995	34373
592.022	35332
592.066	36679
592.075	38084
592.127	46303
592.137	47733
592.180	55356
592.208	59948
592.233	52769
592.279	38601
592.285	38326
592.338	35457
592.350	34731
592.390	34524
592.421	34229
592.443	34501
592.491	34875
592.495	34995
592.548	35599
592.562	35686
592.600	35393
592.633	35011
592.653	35034
592.704	34713
592.705	34918
592.775	35215
592.846	36581
592.916	36745
592.987	40191
593.058	38544
593.128	34853
593.199	35161
593.270	33036
593.341	33227
593.411	35238
593.482	35358
593.553	33756
593.623	32259
593.694	36842
593.764	41353
593.835	35273
593.906	33329
593.976	35438
594.047	37900
594.117	49921
594.188	48915
594.258	33763
594.329	32981
594.399	33528
594.470	32713
594.540	32732
594.611	33249
594.681	32600
594.751	34472
594.822	36534
594.892	37836
594.963	39455
595.033	39480
595.103	40293
595.174	47999
595.244	77626
595.314	97387
595.384	42464
595.455	37961
595.525	40169
595.595	40061
595.665	40752
595.736	39961
595.806	39439
595.876	37074
595.946	37313
596.016	36208
596.087	39545
596.157	38407
596.227	37811
596.297	40580
596.367	42527
596.437	49280
596.507	74753
596.577	93668
596.647	46589
596.717	40646
596.787	40800
596.857	40450
596.927	41267
596.997	40563
597.067	39258
597.137	43123
597.207	40673
597.277	41448
597.347	42974
597.417	40456
597.487	41444
597.557	43447
597.626	43975
597.696	50302
597.766	64947
597.836	89229
597.906	49590
597.975	41177
598.045	39393
598.115	38851
598.185	39995
598.254	43575
598.324	45566
598.394	46119
598.464	47859
598.533	43635
598.603	40040
598.672	41930
598.742	42042
598.812	41906
598.881	41353
598.951	39325
599.020	39114
599.090	38537
599.159	40185
599.229	39196
599.299	37724
599.368	39818
599.437	37920
599.507	39624
599.576	41986
599.646	38087
599.715	38914
599.785	40300
599.854	44831
599.924	52750
599.993	45458
600.062	38851
600.132	39011
600.201	42081
600.270	45497
600.340	42362
600.409	39283
600.478	40925
600.547	40318
600.617	41448
600.686	40084
600.755	38190
600.824	40319
600.894	37959
600.963	33960
601.032	34194
601.101	35214
601.170	32849
601.239	36362
601.308	38550
601.378	35706
601.447	33798
601.516	33796
601.585	36024
601.654	39065
601.723	34361
601.792	34508
601.861	34059
601.930	37728
601.999	40582
602.068	36250
602.137	40467
602.206	38249
602.275	36092
602.343	43877
602.412	42949
602.481	34900
602.550	33937
602.619	33813
602.688	36533
602.756	34874
602.825	33312
602.894	33933
602.963	34876
603.032	34714
603.100	33396
603.169	34941
603.238	34739
603.307	33260
603.375	32634
603.444	34119
603.513	33760
603.581	34383
603.650	33697
603.719	34047
603.787	33712
603.856	34374
603.924	34738
603.993	34880
604.061	33974
604.130	36544
604.198	37255
604.267	36389
604.335	36145
604.404	36086
604.472	36146
604.541	36602
604.609	35857
604.678	35735
604.746	35387
604.815	37744
604.883	37649
604.951	37358
605.020	35738
605.088	38505
605.156	39506
605.225	39319
605.293	38741
605.361	39365
605.429	39193
605.498	41368
605.566	42954
605.634	41644
605.702	43475
605.771	43255
605.839	42583
605.907	42515
605.975	40163
606.043	39881
606.111	40417
606.180	40909
606.248	39993
606.316	40653
606.384	45676
606.452	55401
606.520	55744
606.588	44478
606.656	39832
606.724	39803
606.792	38462
606.860	37077
606.928	33838
606.996	34159
607.064	33187
607.132	34423
607.200	36029
607.267	35939
607.335	34625
607.403	36372
607.471	36852
607.539	35682
607.607	35462
607.674	32476
607.742	36390
607.810	37986
607.878	34623
607.946	32466
608.013	33523
608.081	35042
608.149	34723
608.216	33835
608.284	35878
608.352	35901
608.419	41171
608.487	62023
608.555	41532
608.622	34951
608.690	36248
608.757	37246
608.825	38552
608.893	38907
608.960	41359
609.028	49761
609.095	68324
609.163	40982
609.230	38356
609.298	34706
609.365	31623
609.432	33764
609.500	36721
609.567	39419
609.635	42441
609.702	43480
609.769	44318
609.837	47496
609.904	36696
609.971	33293
610.039	37601
610.106	45994
610.173	80947
610.241	165842
610.308	83585
610.375	38651
610.442	34093
610.509	32905
610.577	32069
610.644	33639
610.711	33347
610.778	34590
610.845	34963
610.912	36234
610.980	37213
611.047	37720
611.114	37955
611.181	35581
611.248	34317
611.315	38349
611.382	35880
611.449	37267
611.516	39061
611.583	38978
611.650	39264
611.717	41065
611.784	39559
611.851	41680
611.918	46307
611.984	53910
612.051	79854
612.118	157746
612.185	380980
612.252	196333
612.319	53276
612.386	46063
612.452	44649
612.519	52061
612.586	75141
612.653	51844
612.719	41855
612.786	40200
612.853	38383
612.919	37276
612.986	37452
613.053	35078
613.120	34575
613.186	34012
613.253	36989
613.319	34826
613.386	35352
613.453	35987
613.519	39684
613.586	48833
613.652	62938
613.719	53451
613.785	46718
613.852	37213
613.918	34208
613.985	34835
614.051	34578
614.118	36961
614.184	35406
614.250	32825
614.317	33427
614.383	33743
614.449	33824
614.516	35539
614.582	38573
614.648	34946
614.715	33929
614.781	33853
614.847	38532
614.914	38462
614.980	37430
615.046	34833
615.112	33481
615.179	32555
615.245	33313
615.311	34833
615.377	35429
615.443	35813
615.509	36327
615.575	38293
615.642	37543
615.708	41227
615.774	44022
615.840	49825
615.906	55489
615.972	65838
616.038	96650
616.104	205960
616.170	513514
616.236	359890
616.302	81480
616.368	64841
616.434	50911
616.500	51673
616.565	54581
616.631	62163
616.697	51226
616.763	55224
616.829	75916
616.895	122710
616.961	106624
617.026	55210
617.092	43866
617.158	43016
617.224	41121
617.289	42150
617.355	42768
617.421	45106
617.487	44445
617.552	40481
617.618	38780
617.684	38206
617.749	40760
617.815	36729
617.880	37087
617.946	38185
618.012	38450
618.077	36706
618.143	37481
618.208	37505
618.274	39657
618.339	42086
618.405	37780
618.470	39172
618.536	40962
618.601	48008
618.667	43433
618.732	40240
618.798	38180
618.863	38145
618.928	37759
618.994	42085
619.059	47736
619.124	59669
619.190	45155
619.255	40097
619.320	39485
619.386	38963
619.451	36579
619.516	37187
619.581	38384
619.647	37483
619.712	38317
619.777	37657
619.842	37495
619.907	38041
619.972	38334
620.038	39620
620.103	37397
620.168	34804
620.233	36738
620.298	36292
620.363	36735
620.428	36975
620.493	37059
620.558	35320
620.623	36512
620.688	37005
620.753	35966
620.818	37432
620.883	38672
620.948	37134
621.013	36857
621.078	38804
621.143	39964
621.207	43911
621.272	42326
621.337	44988
621.402	50681
621.467	72851
621.532	69960
621.596	50542
621.661	45612
621.726	44099
621.791	44535
621.855	46713
621.920	49885
621.985	56261
622.049	65769
622.114	59216
622.179	50172
622.243	53072
622.308	51231
622.373	52052
622.437	50269
622.502	47522
622.566	48750
622.631	48332
622.695	48534
622.760	50070
622.824	47120
622.889	48593
622.953	52926
623.018	71039
623.082	64343
623.147	49525
623.211	46471
623.276	47859
623.340	44548
623.404	41948
623.469	44766
623.533	45349
623.597	42817
623.662	43371
623.726	42519
623.790	41956
623.854	42783
623.919	43533
623.983	42164
624.047	43429
624.111	40720
624.176	42360
624.240	43122
624.304	45403
624.368	41662
624.432	43055
624.496	44436
624.560	46553
624.625	51036
624.689	42274
624.753	40961
624.817	41131
624.881	40523
624.945	39837
625.009	39997
625.073	39925
625.137	42618
625.201	50905
625.265	49282
625.329	41264
625.393	43820
625.456	42016
625.520	44869
625.584	52246
625.648	64653
625.712	112369
625.776	272130
625.839	290805
625.903	97249
625.967	56927
626.031	105693
626.095	161966
626.158	52110
626.222	36049
626.286	35641
626.349	34102
626.413	33726
626.477	37206
626.540	33071
626.604	32796
626.668	34637
626.731	32412
626.795	37537
626.858	36700
626.922	34147
626.986	33426
627.049	31219
627.113	32186
627.176	31326
627.240	30944
627.303	31444
627.366	32393
627.430	31220
627.493	33105
627.557	34021
627.620	34006
627.684	33501
627.747	34476
627.810	31611
627.874	32423
627.937	28595
628.000	33470
628.064	32295
628.127	28069
628.190	31403
628.253	30257
628.317	29219
628.380	29563
628.443	28407
628.506	29925
628.569	28172
628.632	26771
628.696	27242
628.759	26997
628.822	26878
628.885	25911
628.948	27000
629.011	27682
629.074	27156
629.137	26317
629.200	26465
629.263	29538
629.326	24571
629.389	25819
629.452	26948
629.515	28374
629.578	26291
629.641	29512
629.704	28016
629.767	28484
629.830	24166
629.892	25178
629.955	24379
630.018	28664
630.081	29049
630.144	35479
630.207	27433
630.269	30725
630.332	33893
630.395	28228
630.458	23133
630.520	23555
630.583	24073
630.646	23114
630.708	23234
630.771	22844
630.834	23328
630.896	22269
630.959	21390
631.021	23246
631.084	24970
631.146	28249
631.209	33150
631.272	22128
631.334	21549
631.397	22724
631.459	21677
631.522	22820
631.584	23601
631.646	23362
631.709	25544
631.771	32625
631.834	25760
631.896	22200
631.958	19417
632.021	21507
632.083	20571
632.145	23947
632.208	21254
632.270	21389
632.332	19766
632.395	19860
632.457	21793
632.519	20721
632.581	21544
632.643	19462
632.706	20968
632.768	19422
632.830	20307
632.892	20225
632.954	20615
633.016	22505
633.078	18480
633.141	19582
633.203	20602
633.265	20560
633.327	20318
633.389	19441
633.451	23271
633.513	26866
633.575	28257
633.637	26884
633.698	23257
633.760	20300
633.822	19160
633.884	19519
633.946	18604
634.008	19425
634.070	19123
634.132	19110
634.193	20849
634.255	20239
634.317	19531
634.379	21356
634.441	19557
634.502	18871
634.564	19579
634.626	18320
634.687	18638
634.749	18259
634.811	18917
634.873	15540
634.934	17150
634.996	19991
635.057	17477
635.119	17357
635.181	17822
635.242	18632
635.304	15956
635.365	18985
635.427	17638
635.488	18578
635.550	15742
635.611	17292
635.673	16453
635.734	21061
635.796	18578
635.857	20384
635.918	17981
635.980	20287
636.041	20463
636.102	20476
636.164	19939
636.225	20286
636.286	17967
636.348	18568
636.409	17715
636.470	16837
636.531	19215
636.593	23157
636.654	20617
636.715	15831
636.776	15142
636.838	15288
636.899	18047
636.960	15752
637.021	15313
637.082	16543
637.143	17194
637.204	14429
637.265	15086
637.326	15051
637.387	15459
637.448	13145
637.509	14848
637.570	14745
637.631	15071
637.692	13971
637.753	12345
637.814	14180
637.875	14111
637.936	15044
637.997	13884
638.058	16094
638.119	16585
638.179	14333
638.240	14306
638.301	14364
638.362	13369
638.423	15154
638.483	15748
638.544	12010
638.605	14955
638.666	12731
638.726	15234
638.787	14209
638.848	12581
638.908	13544
638.969	14260
639.030	14151
639.090	12496
639.151	12401
639.211	15554
639.272	19183
639.332	29582
639.393	18169
639.453	13533
639.514	14589
639.574	12764
639.635	12597
639.695	14938
639.756	12422
639.816	15128
639.877	17037
639.937	30055
639.997	35259
640.058	14140
640.118	12076
640.178	13346
640.239	11610
640.299	12109
640.359	12728
640.420	12264
640.480	13017
640.540	12963
640.600	12867
640.661	13643
640.721	13349
640.781	17736
640.841	10777
640.901	13141
640.961	13422
641.021	14339
641.082	16200
641.142	22267
641.202	14635
641.262	10391
641.322	12517
641.382	10665
641.442	12663
641.502	12123
641.562	13006
641.622	10821
641.682	12454
641.742	12396
641.802	13886
641.861	15091
641.921	14801
641.981	16494
642.041	15164
642.101	18997
642.161	12272
642.221	11248
642.280	10766
642.340	10898
642.400	10243
642.460	12139
642.519	12388
642.579	11339
642.639	13090
642.698	8872
642.758	13808
642.818	12130
642.877	11051
642.937	12864
642.997	14735
643.056	19710
643.116	12671
643.175	13117
643.235	9967
643.294	11092
643.354	11333
643.414	12662
643.473	15208
643.532	13736
643.592	18523
643.651	24686
643.711	40427
643.770	74579
643.830	173906
643.889	341548
643.948	69239
644.008	17420
644.067	13565
644.126	10864
644.186	11383
644.245	10916
644.304	9611
644.363	12393
644.423	9069
644.482	11002
644.541	11045
644.600	8625
644.659	13006
644.719	12591
644.778	16376
644.837	20685
644.896	36341
644.955	69324
645.014	25213
645.073	12856
645.132	12758
645.191	11777
645.250	10898
645.309	13174
645.368	11845
645.427	11849
645.486	13079
645.545	19221
645.604	10259
645.663	11130
645.722	10659
645.781	10545
645.840	11586
645.898	12846
645.957	16138
646.016	20274
646.075	35503
646.134	62261
646.192	163862
646.251	216726
646.310	30124
646.369	13435
646.427	12104
646.486	8980
646.545	10026
646.603	10356
646.662	10686
646.721	10079
646.779	8771
646.838	9292
646.896	11442
646.955	12095
647.014	15632
647.072	19984
647.131	44236
647.189	21805
647.248	9229
647.306	9234
647.365	9809
647.423	6957
647.481	10638
647.540	8253
647.598	8593
647.657	7403
647.715	9382
647.773	8388
647.832	9547
647.890	8838
647.948	8746
648.007	10357
648.065	8265
648.123	8418
648.181	9983
648.240	8224
648.298	7644
648.356	9226
648.414	10005
648.472	10103
648.531	9677
648.589	9116
648.647	8420
648.705	9190
648.763	9012
648.821	9134
648.879	8388
648.937	9499
648.995	10607
649.053	10237
649.111	14962
649.169	19418
649.227	27106
649.285	49822
649.343	129015
649.401	62340
649.459	38908
649.516	22393
649.574	11066
649.632	12451
649.690	11501
649.748	13649
649.806	10989
649.863	16959
649.921	32419
649.979	20165
650.037	9256
650.094	7596
650.152	8862
650.210	7837
650.268	8681
650.325	7297
650.383	6793
650.440	6927
650.498	8033
650.556	7770
650.613	6157
650.671	7884
650.728	8964
650.786	9738
650.843	8464
650.901	6037
650.958	7844
651.016	6765
651.073	7162
651.131	6856
651.188	8122
651.246	8306
651.303	7223
651.360	7227
651.418	7825
651.475	7025
651.532	6095
651.590	7563
651.647	6822
651.704	7304
651.762	7160
651.819	7603
651.876	7202
651.933	7785
651.990	7632
652.048	6139
652.105	6914
652.162	7551
652.219	6686
652.276	7491
652.333	6977
652.390	5888
652.448	7281
652.505	6984
652.562	6643
652.619	5289
652.676	6649
652.733	7538
652.790	6226
652.847	5786
652.904	6267
652.961	5755
653.017	6135
653.074	7133
653.131	6576
653.188	5589
653.245	5987
653.302	7423
653.359	6435
653.415	6417
653.472	6773
653.529	7235
653.586	5474
653.642	5934
653.699	6188
653.756	5579
653.813	5951
653.869	5856
653.926	5997
653.983	5623
654.039	6215
654.096	5749
654.152	7641
654.209	5719
654.266	7619
654.322	7028
654.379	8473
654.435	10344
654.492	10312
654.548	15593
654.605	24126
654.661	10670
654.717	8344
654.774	8330
654.830	7587
654.887	6887
654.943	7479
655.000	7121
655.056	7981
655.112	8606
655.168	6940
655.225	7604
655.281	10247
655.337	14820
655.394	27048
655.450	18212
655.506	15442
655.562	28191
655.618	18578
655.675	6833
655.731	7722
655.787	7424
655.843	8182
655.899	6478
655.955	7761
656.011	7842
656.067	6899
656.123	7431
656.179	8177
656.235	8676
656.291	7236
656.347	8633
656.403	9347
656.459	9181
656.515	11285
656.571	9936
656.627	8398
656.683	7729
656.739	8412
656.795	7331
656.850	8586
656.906	9655
656.962	7651
657.018	6214
657.074	6515
657.129	7206
657.185	8071
657.241	9102
657.297	7749
657.352	7052
657.408	6327
657.464	8899
657.519	7997
657.575	5816
657.630	7229
657.686	6025
657.742	6414
657.797	6345
657.853	6461
657.908	7518
657.964	6560
658.019	6017
658.075	6799
658.130	7109
658.186	5378
658.241	5924
658.297	5904
658.352	5943
658.407	7877
658.463	6149
658.518	6831
658.573	6239
658.629	5201
658.684	5530
658.739	6003
658.795	5515
658.850	5562
658.905	6042
658.960	6214
659.016	5216
659.071	6764
659.126	6512
659.181	8019
659.236	12780
659.291	11995
659.346	8277
659.401	7349
659.457	6813
659.512	6013
659.567	7133
659.622	6677
659.677	6251
659.732	6392
659.787	7060
659.842	9838
659.897	12797
659.952	7874
660.007	6212
660.061	6722
660.116	6229
660.171	5797
660.226	5116
660.281	6972
660.336	4916
660.391	6899
660.445	5596
660.500	6123
660.555	7328
660.610	6125
660.664	6326
660.719	6982
660.774	7032
660.828	7124
660.883	6734
660.938	6853
660.992	5353
661.047	7055
661.101	5683
661.156	6428
661.211	5712
661.265	6093
661.320	5687
661.374	5941
661.429	5446
661.483	7479
661.538	5343
661.592	5975
661.647	5106
661.701	6073
661.755	6265
661.810	6507
661.864	6115
661.919	6972
661.973	6351
662.027	6470
662.081	6152
662.136	6243
662.190	7659
662.244	7983
662.299	6454
662.353	6715
662.407	6213
662.461	6854
662.515	7907
662.569	7209
662.624	8271
662.678	7060
662.732	6154
662.786	7811
662.840	7895
662.894	6732
662.948	6388
663.002	6395
663.056	6774
663.110	5265
663.164	5982
663.218	6447
663.272	6096
663.326	7906
663.380	7785
663.434	6951
663.488	6503
663.542	8122
663.595	7330
663.649	6810
663.703	6868
663.757	7334
663.811	6023
663.864	7637
663.918	6759
663.972	6220
664.026	7061
664.079	6954
664.133	6587
664.187	6356
664.240	5414
664.294	6781
664.348	7037
664.401	5851
664.455	6113
664.508	6512
664.562	7112
664.615	6197
664.669	5155
664.722	6239
664.776	6287
664.829	6563
664.883	6504
664.936	6284
664.990	7299
665.043	7631
665.097	8681
665.150	10133
665.203	7718
665.257	7789
665.310	7635
665.363	7083
665.417	8428
665.470	7272
665.523	7831
665.576	7121
665.630	7510
665.683	7949
665.736	8509
665.789	7914
665.842	7481
665.895	7623
665.949	6498
666.002	6860
666.055	7459
666.108	7461
666.161	8292
666.214	8503
666.267	8603
666.320	8462
666.373	8471
666.426	8462
666.479	8260
666.532	9977
666.585	12075
666.638	13149
666.691	10890
666.744	13031
666.796	11906
666.849	9662
666.902	7844
666.955	7490
667.008	7014
667.060	6502
667.113	6108
667.166	6617
667.219	6724
667.271	7241
667.324	7232
667.377	6870
667.430	7102
667.482	7112
667.535	8040
667.587	7741
667.640	7436
667.693	10926
667.745	14351
667.798	14807
667.850	8931
667.903	7882
667.955	7957
668.008	8522
668.060	10465
668.113	9886
668.165	9150
668.218	10274
668.270	9466
668.322	9759
668.375	9276
668.427	8685
668.479	7973
668.532	8772
668.584	9223
668.636	6948
668.689	8256
668.741	8729
668.793	8954
668.845	7516
668.898	8338
668.950	9009
669.002	8785
669.054	8329
669.106	8874
669.158	9669
669.211	8625
669.263	7745
669.315	8552
669.367	7401
669.419	9194
669.471	9277
669.523	8720
669.575	9677
669.627	8200
669.679	7514
669.731	7430
669.783	9047
669.835	9070
669.886	7806
669.938	7768
669.990	8124
670.042	7139
670.094	7613
670.146	7313
670.197	6459
670.249	7803
670.301	7238
670.353	7656
670.404	8561
670.456	7853
670.508	8706
670.560	8823
670.611	10001
670.663	12149
670.715	20343
670.766	28661
670.818	13190
670.869	7969
670.921	7301
670.972	7790
671.024	7654
671.075	7723
671.127	7400
671.178	7185
671.230	7181
671.281	8049
671.333	8696
671.384	8834
671.436	9639
671.487	10789
671.538	10198
671.590	11671
671.641	14844
671.692	19044
671.744	29496
671.795	19847
671.846	11074
671.897	9882
671.949	9749
672.000	8850
672.051	9164
672.102	9160
672.153	8647
672.204	8286
672.256	8790
672.307	9217
672.358	10380
672.409	8465
672.460	8863
672.511	8241
672.562	7982
672.613	7859
672.664	7730
672.715	8918
672.766	8429
672.817	7708
672.868	8471
672.919	8181
672.970	8306
673.021	8082
673.071	7186
673.122	8216
673.173	8184
673.224	7639
673.275	8273
673.326	7786
673.376	8122
673.427	7606
673.478	7536
673.528	8261
673.579	7300
673.630	7071
673.680	8653
673.731	6830
673.782	7309
673.832	8352
673.883	9202
673.934	7526
673.984	8225
674.035	8144
674.085	7852
674.136	8597
674.186	9535
674.237	12646
674.287	18154
674.338	8979
674.388	8681
674.438	7580
674.489	7953
674.539	8887
674.589	8490
674.640	7689
674.690	8640
674.740	9023
674.791	9834
674.841	8506
674.891	8810
674.942	7495
674.992	8248
675.042	6869
675.092	7507
675.142	6898
675.193	7122
675.243	6614
675.293	8637
675.343	8204
675.393	8367
675.443	7832
675.493	7415
675.543	6174
675.593	8688
675.643	7804
675.693	6874
675.743	7730
675.793	7377
675.843	7321
675.893	7331
675.943	6596
675.993	5887
676.043	7883
676.093	7454
676.142	6813
676.192	7622
676.242	7034
676.292	6685
676.341	7351
676.391	7971
676.441	6646
676.491	7029
676.540	5743
676.590	6013
676.640	7221
676.689	6830
676.739	6765
676.789	5980
676.838	6122
676.888	6937
676.937	6405
676.987	6271
677.037	5187
677.086	5822
677.136	7058
677.185	6600
677.235	5836
677.284	5989
677.333	5250
677.383	5998
677.432	4371
677.482	5831
677.531	6145
677.580	6450
677.630	5480
677.679	5949
677.728	6230
677.778	6269
677.827	5420
677.876	6079
677.925	5188
677.975	6224
678.024	5869
678.073	6151
678.122	7688
678.171	7549
678.220	7143
678.269	8163
678.319	7214
678.368	7029
678.417	6722
678.466	6828
678.515	7892
678.564	7779
678.613	6707
678.662	6149
678.711	6707
678.760	6650
678.809	6150
678.857	5829
678.906	6347
678.955	6457
679.004	5859
679.053	6464
679.102	6016
679.151	6717
679.199	6056
679.248	6190
679.297	6972
679.346	7013
679.394	6181
679.443	6544
679.492	6295
679.540	6110
679.589	7401
679.638	6327
679.686	5447
679.735	6331
679.784	6698
679.832	6785
679.881	4907
679.929	5538
679.978	5549
680.026	6651
680.075	5896
680.123	6001
680.172	6155
680.220	4866
680.268	5130
680.317	5120
680.365	4695
680.414	5265
680.462	5669
680.510	5876
680.559	5156
680.607	5747
680.655	5729
680.703	5670
680.752	5593
680.800	4468
680.848	4575
680.896	4704
680.945	5112
680.993	5458
681.041	5234
681.089	4596
681.137	6028
681.185	4548
681.233	5612
681.258	5297
681.281	4958
681.329	5679
681.377	4775
681.380	4909
681.425	6641
681.473	6382
681.502	6440
681.521	6409
681.569	6234
681.617	5618
681.624	5758
681.665	6363
681.713	6248
681.745	6184
681.761	6088
681.809	6063
681.857	6937
681.867	6741
681.904	5924
681.952	6040
681.989	6922
682.000	7131
682.048	6898
682.096	5513
682.111	5953
682.143	6741
682.191	6211
682.233	7209
682.239	7321
682.286	6202
682.334	6881
682.354	6525
682.382	5974
682.430	7387
682.476	7015
682.477	6972
682.525	6405
682.572	6685
682.598	6587
682.620	6458
682.667	7782
682.715	7882
682.720	7892
682.763	7588
682.810	7777
682.841	7360
682.857	7078
682.905	7797
682.952	7848
682.963	7822
683.000	7613
683.047	7605
683.085	8271
683.095	8398
683.142	7259
683.190	8000
683.206	7612
683.237	6920
683.284	7827
683.328	7971
683.332	7937
683.379	7879
683.426	7636
683.449	7815
683.473	8029
683.521	7969
683.568	8178
683.571	8169
683.615	7584
683.662	8584
683.693	8165
683.709	7898
683.757	7279
683.804	8842
683.814	8784
683.851	8532
683.898	8364
683.936	8487
683.945	8489
683.992	8721
684.039	8871
684.057	9109
684.086	9405
684.133	8740
684.179	9184
684.180	9169
684.227	9336
684.274	9602
684.300	9893
684.321	10028
684.368	9092
684.415	9602
684.422	9521
684.462	9010
684.509	9161
684.543	8748
684.556	8565
684.603	9612
684.649	8671
684.665	9050
684.696	9951
684.743	10256
684.786	10226
684.790	10219
684.837	10358
684.883	12383
684.908	12489
684.930	12281
684.977	12328
685.023	11055
685.029	11069
685.070	10836
685.117	10856
685.150	11358
685.164	11753
685.210	12315
685.257	13252
685.272	13244
685.303	12687
685.350	11841
685.393	12211
685.396	12277
685.443	12783
685.490	14282
685.514	14244
685.536	13797
685.583	12714
685.629	13005
685.636	12869
685.675	12181
685.722	12102
685.757	12574
685.768	12777
685.815	13076
685.861	12907
685.878	13020
685.908	13354
685.954	14789
686.000	15369
686.000	15385
686.047	17148
686.093	20708
686.121	20618
686.139	19161
686.185	16693
686.232	14236
686.242	14000
686.278	14081
686.324	12678
686.363	11881
686.370	11824
686.416	12449
686.463	12871
686.484	12647
686.509	12388
686.555	12354
686.601	12402
686.606	12461
686.647	12981
686.693	12363
686.727	12393
686.739	12381
686.785	12229
686.831	12049
686.848	12255
686.877	12638
686.923	12408
686.969	12092
686.969	12089
687.015	12379
687.061	12909
687.090	13537
687.107	13853
687.153	13656
687.199	13739
687.211	13412
687.245	12776
687.291	14519
687.332	15189
687.336	15221
687.382	15100
687.428	13848
687.453	13930
687.474	13699
687.520	13509
687.565	12569
687.574	12405
687.611	12438
687.657	12910
687.695	12911
687.702	12896
687.748	13194
687.794	12850
687.816	12963
687.839	13054
687.885	12711
687.931	12208
687.937	12250
687.976	12692
688.022	13192
688.058	13650
688.067	13747
688.113	13621
688.158	13257
688.179	13677
688.204	14146
688.249	14059
688.295	13910
688.300	13929
688.340	14456
688.386	15081
688.421	14890
688.431	14677
688.477	14506
688.522	14543
688.542	14096
688.567	13827
688.613	14481
688.658	14544
688.663	14491
688.703	14187
688.749	14077
688.784	14266
688.794	14256
688.839	14350
688.884	14038
688.905	13848
688.930	13760
688.975	13536
689.020	13622
689.026	13672
689.065	14266
689.110	14063
689.146	14246
689.155	14210
689.201	13783
689.246	13370
689.267	13407
689.291	13796
689.336	14044
689.381	14730
689.388	14735
689.426	14489
689.471	13844
689.509	13945
689.516	13995
689.561	14138
689.606	13676
689.630	13918
689.651	14248
689.696	14445
689.741	14226
689.750	14362
689.785	14553
689.830	14113
689.871	13665
689.875	13659
689.920	13885
689.965	14007
689.992	13415
690.010	13109
690.054	13830
690.099	13903
690.112	13946
690.144	14065
690.189	13668
690.233	13812
690.233	13829
690.278	13700
690.323	13550
690.354	13505
690.367	13675
690.412	13934
690.457	14317
690.474	14413
690.501	14240
690.546	14011
690.590	13754
690.595	13690
690.635	13632
690.680	13716
690.716	13932
690.724	13980
690.769	14025
690.813	14257
690.836	13754
690.857	13400
690.902	13730
690.946	14076
690.957	13984
690.991	13804
691.035	13832
691.077	14573
691.080	14660
691.124	14776
691.168	15668
691.198	16128
691.213	16441
691.257	17173
691.301	17678
691.318	17975
691.346	17303
691.390	15985
691.434	14543
691.439	14399
691.478	14832
691.522	15481
691.559	15592
691.567	15604
691.611	15860
691.655	15337
691.680	15598
691.699	15821
691.743	16237
691.787	15876
691.800	15785
691.831	16016
691.875	16694
691.919	17244
691.921	17235
691.964	17831
692.008	18329
692.041	18464
692.052	18444
692.096	18365
692.139	18605
692.162	18389
692.183	17974
692.227	17451
692.271	17293
692.282	17137
692.315	17358
692.359	17605
692.402	17837
692.403	17870
692.447	17695
692.490	17633
692.523	18031
692.534	18236
692.578	18809
692.622	18363
692.643	18625
692.666	18364
692.709	17438
692.753	16441
692.763	16186
692.797	16266
692.840	16070
692.884	16129
692.884	16164
692.928	16767
692.971	16877
693.004	17324
693.015	17399
693.059	17031
693.102	16844
693.124	16739
693.146	17132
693.189	17973
693.233	18719
693.245	18942
693.276	19124
693.320	18810
693.363	18810
693.365	18784
693.407	18969
693.450	18821
693.485	18275
693.493	18298
693.537	19093
693.580	19071
693.605	19338
693.624	18996
693.667	18118
693.710	16954
693.725	16483
693.753	16559
693.797	16815
693.840	17014
693.845	17021
693.883	16743
693.926	16412
693.966	15786
693.970	15781
694.013	15382
694.056	15589
694.086	15365
694.099	15749
694.142	16865
694.185	18080
694.206	18608
694.229	19210
694.272	20425
694.315	21445
694.326	21611
694.358	20767
694.401	20136
694.444	18965
694.446	18887
694.487	18965
694.530	18591
694.566	18361
694.573	18261
694.616	17310
694.659	16396
694.686	15824
694.702	15846
694.745	15954
694.787	15439
694.806	15475
694.830	15757
694.873	16176
694.916	16349
694.926	16321
694.959	16090
695.002	15914
695.044	15650
695.046	15611
695.087	16052
695.130	16390
695.166	16728
695.172	16848
695.215	16958
695.258	17595
695.286	17816
695.301	17687
695.343	17105
695.386	16654
695.406	16346
695.428	16263
695.471	16040
695.514	15978
695.526	15918
695.556	16023
695.599	16064
695.641	16074
695.646	16005
695.684	15929
695.726	16279
695.766	16436
695.769	16485
695.811	16581
695.854	16661
695.886	16814
695.896	16743
695.938	16102
695.981	15274
696.005	14929
696.023	15218
696.065	15782
696.108	16376
696.125	16521
696.150	16653
696.192	16922
696.235	17233
696.245	17228
696.277	16789
696.319	16140
696.361	15598
696.365	15511
696.404	15431
696.446	15424
696.485	15201
696.488	15275
696.530	15840
696.572	16342
696.604	16709
696.614	16648
696.656	16157
696.698	15840
696.724	15468
696.740	15516
696.783	15655
696.825	15803
696.844	15806
696.867	16038
696.909	16479
696.951	16703
696.964	16829
696.992	16528
697.034	15789
697.076	15065
697.083	14916
697.118	15209
697.160	15505
697.202	15790
697.203	15755
697.244	15696
697.286	15831
697.323	15640
697.327	15664
697.369	15635
697.411	15608
697.442	15599
697.453	15796
697.494	16255
697.536	16815
697.562	17160
697.578	17093
697.620	16689
697.661	16365
697.682	16154
697.703	16425
697.744	16846
697.786	17363
697.801	17468
697.828	17542
697.869	17586
697.911	17625
697.921	17603
697.952	17252
697.994	16688
698.035	16171
698.040	16065
698.077	15827
698.118	15453
698.160	15052
698.160	15007
698.201	15454
698.243	15827
698.279	16165
698.284	16203
698.325	16079
698.367	16008
698.399	15862
698.408	15819
698.449	15474
698.491	15114
698.518	14820
698.532	14980
698.573	15361
698.614	15737
698.638	15906
698.656	16017
698.697	16196
698.738	16346
698.757	16385
698.779	16608
698.820	16923
698.862	17257
698.877	17335
698.903	17967
698.944	18890
698.985	19825
698.996	20032
699.026	19243
699.067	18080
699.116	16647
699.235	15809
699.354	14288
699.474	17400
699.593	23364
699.713	19940
699.832	18509
699.951	18966
700.070	16074
700.190	16478
700.309	17242
700.428	22861
700.547	17231
700.667	17182
700.786	21779
700.905	16655
701.024	20197
701.143	17569
701.262	13055
701.381	14571
701.500	15100
701.619	16815
701.738	14123
701.857	12727
701.976	13963
702.095	13862
702.214	15020
702.333	15829
702.452	14490
702.571	13023
702.690	13313
702.809	12938
702.928	12389
703.047	14588
703.165	13096
703.284	12873
703.403	13211
703.522	19045
703.640	17548
703.759	25969
703.878	39275
703.997	16519
704.115	14056
704.234	13895
704.353	12105
704.471	11980
704.590	11013
704.708	11574
704.827	11742
704.946	14039
705.064	16877
705.183	12350
705.301	18965
705.420	29043
705.538	23639
705.656	19084
705.775	16797
705.893	18747
706.012	20568
706.130	20930
706.249	19428
706.367	22435
706.485	24309
706.604	22650
706.722	22920
706.840	30305
706.958	23977
707.077	19375
707.195	18663
707.313	18740
707.431	17381
707.549	19345
707.668	18010
707.786	20231
707.904	17521
708.022	16389
708.140	16014
708.258	17208
708.376	17281
708.494	17203
708.612	20041
708.730	32610
708.848	29914
708.966	26840
709.084	24156
709.202	24179
709.320	24082
709.438	24319
709.556	25196
709.674	25022
709.791	23971
709.909	23304
710.027	24311
710.145	22719
710.263	24147
710.380	23813
710.498	23059
710.616	24468
710.733	24384
710.851	27446
710.969	26341
711.086	24714
711.204	21856
711.322	24182
711.439	24938
711.557	26690
711.674	23753
711.792	23780
711.909	20863
712.027	20156
712.144	21108
712.262	21725
712.379	27595
712.497	40867
712.614	37306
712.732	30049
712.849	29560
712.966	35811
713.084	41021
713.201	30976
713.318	29916
713.436	28274
713.553	29192
713.670	30295
713.787	35629
713.905	35236
714.022	28691
714.139	27617
714.256	28566
714.373	31763
714.490	35586
714.608	55532
714.725	160797
714.842	122019
714.959	29674
715.076	25740
715.193	24532
715.310	23559
715.427	23794
715.544	22812
715.661	24211
715.778	23959
715.895	26914
716.011	28076
716.128	23825
716.245	24800
716.362	26950
716.479	26583
716.596	22251
716.713	22931
716.829	21887
716.946	21981
717.063	21060
717.180	20965
717.296	21649
717.413	21292
717.530	21171
717.646	20384
717.763	20604
717.880	19450
717.996	20529
718.113	20903
718.229	20413
718.346	18276
718.462	20223
718.579	26280
718.695	42321
718.812	35029
718.928	39187
719.045	23165
719.161	18404
719.277	17364
719.394	17781
719.510	19239
719.626	18840
719.743	23599
719.859	20883
719.975	24329
720.092	52555
720.208	77016
720.324	24051
720.440	19098
720.557	25124
720.673	36720
720.789	60462
720.905	142734
721.021	35159
721.137	19762
721.253	20512
721.369	21319
721.486	26198
721.602	38889
721.718	18542
721.834	16648
721.950	16811
722.066	14768
722.181	15531
722.297	16427
722.413	14579
722.529	15662
722.645	15323
722.761	15406
722.877	14255
722.993	13644
723.108	15783
723.224	13752
723.340	15575
723.456	13741
723.571	14852
723.687	13669
723.803	13967
723.918	13525
724.034	14845
724.150	15292
724.265	20220
724.381	54273
724.497	60227
724.612	14887
724.728	13154
724.843	14403
724.959	19322
725.074	51100
725.190	52001
725.305	17698
725.421	14562
725.536	11042
725.651	12188
725.767	11716
725.882	10774
725.997	11889
726.113	11925
726.228	11203
726.343	11061
726.459	10474
726.574	12783
726.689	10986
726.804	12468
726.920	11301
727.035	12106
727.150	12522
727.265	11334
727.380	12243
727.495	10682
727.610	9715
727.725	11059
727.841	9951
727.956	10913
728.071	14846
728.186	10729
728.301	8949
728.416	11017
728.531	9630
728.645	9016
728.760	10314
728.875	10767
728.990	10098
729.105	10281
729.220	10518
729.335	9819
729.449	9117
729.564	7865
729.679	8887
729.794	8866
729.908	13398
730.023	10071
730.138	7422
730.253	9073
730.367	7880
730.482	8845
730.596	8340
730.711	9405
730.826	8017
730.940	6984
731.055	8922
731.169	7874
731.284	8760
731.398	8656
731.513	11141
731.627	10718
731.742	13850
731.856	13746
731.970	7827
732.085	8308
732.199	8771
732.313	9530
732.428	18200
732.542	43839
732.656	20541
732.771	8174
732.885	7306
732.999	8366
733.113	9682
733.227	8428
733.342	6601
733.456	6423
733.570	6802
733.684	7060
733.798	7453
733.912	6017
734.026	5396
734.140	6973
734.254	9831
734.368	26072
734.482	29464
734.596	6735
734.710	6590
734.824	5896
734.938	5649
735.052	7241
735.166	10116
735.280	8009
735.393	5748
735.507	8012
735.621	13613
735.735	34275
735.849	8728
735.962	7392
736.076	7791
736.190	8330
736.303	16155
736.417	21002
736.531	6627
736.644	7059
736.758	5197
736.872	4683
736.985	5996
737.099	5601
737.212	4457
737.326	5237
737.439	4643
737.553	4622
737.666	5925
737.780	4559
737.893	5244
738.007	4127
738.120	4999
738.233	5230
738.347	5319
738.460	5684
738.573	6303
738.687	6137
738.800	6234
738.913	8464
739.026	5436
739.140	4609
739.253	3734
739.366	5487
739.479	4192
739.592	3929
739.705	4541
739.818	4420
739.932	4311
740.045	4748
740.158	4701
740.271	5645
740.384	4293
740.497	5519
740.610	5233
740.723	4719
740.836	3769
740.949	5538
741.062	8726
741.174	6905
741.287	5833
741.400	4130
741.513	5132
741.626	6426
741.739	4567
741.851	5516
741.964	4360
742.077	4732
742.189	4607
742.302	7243
742.415	6287
742.527	4498
742.640	4612
742.753	3369
742.865	3810
742.978	3407
743.090	4081
743.203	4121
743.316	4221
743.428	2994
743.541	3296
743.653	3619
743.766	4696
743.878	4837
743.990	10292
744.103	8424
744.215	6382
744.327	4703
744.440	6661
744.552	11580
744.664	4212
744.777	3934
744.889	3644
745.001	3986
745.113	3572
745.226	3519
745.338	3385
745.450	2848
745.562	3115
745.674	3440
745.786	3181
745.898	2670
746.010	3294
746.122	3009
746.234	3105
746.347	3266
746.459	3778
746.570	3253
746.682	5026
746.794	7288
746.906	4096
747.018	3517
747.130	3110
747.242	2960
747.354	3219
747.466	4253
747.577	2517
747.689	3346
747.801	2838
747.913	2749
748.024	2551
748.136	2244
748.248	1906
748.359	2584
748.471	2619
748.583	2153
748.694	3132
748.806	4255
748.918	8058
749.029	4207
749.141	4847
749.252	4043
749.364	6072
749.475	14430
749.587	8625
749.698	3497
749.809	3061
749.921	2834
750.032	2364
750.144	2640
750.255	1320
750.366	2333
750.478	2704
750.589	3203
750.700	3250
750.811	3768
750.923	5508
751.034	16544
751.145	11887
751.256	2603
751.367	2836
751.479	2518
751.590	2375
751.701	2342
751.812	1858
751.923	2804
752.034	1555
752.145	2108
752.256	1956
752.367	1710
752.478	2108
752.589	2326
752.700	2125
752.811	2620
752.922	2337
753.032	2662
753.143	5044
753.254	2205
753.365	2382
753.476	2619
753.586	2080
753.697	1730
753.808	2191
753.919	1264
754.029	2281
754.140	2883
754.251	2457
754.361	2718
754.472	1960
754.582	2941
754.693	2841
754.804	2158
754.914	2375
755.025	1233
755.135	1706
755.246	2165
755.356	2278
755.466	2490
755.577	2473
755.687	2117
755.798	1959
755.908	2068
756.018	2584
756.129	2339
756.239	1853
756.349	1931
756.460	1606
756.570	2617
756.680	2224
756.790	2556
756.900	3652
757.011	2227
757.121	1714
757.231	1987
757.341	2187
757.451	2129
757.561	1757
757.671	2051
757.781	1626
757.891	2679
758.001	3169
758.111	1802
758.221	2342
758.331	3186
758.441	4072
758.551	6449
758.661	4290
758.771	3064
758.880	2510
758.990	3649
759.100	2834
759.210	2133
759.320	2218
759.429	2376
759.539	3113
759.649	2378
759.758	2823
759.868	3084
759.978	2043
760.087	3209
760.197	2676
760.307	2445
760.416	2037
760.526	2097
760.635	3216
760.745	2592
760.854	2601
760.964	2760
761.073	2915
761.182	2543
761.292	2504
761.401	5266
761.511	3001
761.620	2554
761.729	3228
761.839	4233
761.948	3363
762.057	3573
762.166	2546
762.276	982
762.385	3936
762.494	3353
762.603	2655
762.712	3479
762.822	2503
762.931	2626
763.040	2328
763.149	2936
763.258	2317
763.367	2365
763.476	3108
763.585	2863
763.694	2243
763.803	3318
763.912	3497
764.021	2725
764.130	2633
764.238	2695
764.347	1830
764.456	2860
764.565	2340
764.674	2238
764.783	2206
764.891	1432
765.000	3516
765.109	2976
765.217	1619
765.326	4492
765.435	6132
765.543	3008
765.652	3114
765.761	3392
765.869	2827
765.978	3815
766.086	5471
766.195	9601
766.303	25987
766.412	90377
766.520	44266
766.629	6353
766.737	5174
766.846	3638
766.954	3078
767.062	3953
767.171	4213
767.279	3431
767.387	3253
767.496	3747
767.604	3398
767.712	3499
767.820	2959
767.928	4406
768.037	2599
768.145	3909
768.253	3124
768.361	3428
768.469	3138
768.577	3661
768.685	4317
768.793	3903
768.901	3178
769.009	3351
769.117	2888
769.225	3223
769.333	3604
769.441	4348
769.549	4578
769.657	8400
769.765	31677
769.873	56981
769.981	9158
770.088	4311
770.196	3387
770.304	4171
770.412	3437
770.519	4429
770.627	4191
770.735	3860
770.842	3730
770.950	3938
771.058	3050
771.165	3130
771.273	3620
771.380	3509
771.488	3786
771.595	2486
771.703	2814
771.810	3751
771.918	3460
772.025	3387
772.133	3232
772.240	3828
772.348	4291
772.455	3887
772.562	3185
772.670	3866
772.777	3107
772.884	3085
772.991	2857
773.099	3222
773.206	2064
773.313	3526
773.420	2811
773.528	2607
773.635	2147
773.742	3446
773.849	3307
773.956	2879
774.063	3534
774.170	3134
774.277	3521
774.384	2974
774.491	2538
774.598	4391
774.705	4659
774.812	4498
774.919	4342
775.026	4144
775.133	3655
775.239	3279
775.346	3690
775.453	3476
775.560	2798
775.667	2984
775.773	2902
775.880	3350
775.987	3042
776.093	2816
776.200	2825
776.307	3381
776.413	3831
776.520	3138
776.627	3081
776.733	3599
776.840	2453
776.946	5325
777.053	6458
777.159	12453
777.266	6384
777.372	11470
777.478	8892
777.585	4974
777.691	3389
777.798	4196
777.904	4700
778.010	7001
778.117	4313
778.223	2993
778.329	3221
778.435	2937
778.542	3886
778.648	3632
778.754	2096
778.860	2776
778.966	3931
779.072	3189
779.178	2584
779.284	2919
779.391	2854
779.497	1219
779.603	4004
779.708	1497
779.815	3470
779.920	3161
780.026	3034
780.132	3641
780.238	2453
780.344	2521
780.450	3676
780.556	3826
780.661	2321
780.767	3157
780.873	2276
780.979	3318
781.085	3072
781.190	2987
781.296	2398
781.402	2332
781.507	1139
781.613	2487
781.719	1524
781.824	2682
781.930	2872
782.035	2860
782.141	2404
782.246	1962
782.352	2554
782.457	2072
782.563	2285
782.668	1976
782.773	2738
782.879	2290
782.984	3109
783.090	4410
783.195	7459
783.300	4024
783.405	3572
783.511	3420
783.616	2885
783.721	3231
783.826	2565
783.932	3320
784.037	2805
784.142	2630
784.247	2764
784.352	2831
784.457	2279
784.562	2393
784.667	2765
784.772	1459
784.877	3140
784.982	2409
785.087	2449
785.192	3452
785.297	2322
785.402	2733
785.507	2112
785.611	2158
785.716	2369
785.821	1998
785.926	1400
786.031	2006
786.135	2924
786.240	2222
786.345	1627
786.450	2196
786.554	1537
786.659	1811
786.763	964
786.868	2672
786.973	2471
787.077	1075
787.182	1538
787.286	1965
787.391	2317
787.495	1247
787.600	2150
787.704	1555
787.809	2027
787.913	1433
788.017	2629
788.122	2205
788.226	1757
788.330	1204
788.435	1503
788.539	1257
788.643	1400
788.747	1881
788.852	1262
788.956	1513
789.060	2737
789.164	2126
789.268	1063
789.372	2096
789.476	951
789.580	1557
789.684	539
789.788	1534
789.892	1656
789.996	2363
790.100	1673
790.204	2278
790.308	2915
790.412	1803
790.516	2253
790.620	2204
790.724	2337
790.828	1427
790.931	1771
791.035	2943
791.139	1288
791.242	1118
791.346	2337
791.450	883
791.554	1919
791.657	972
791.761	2780
791.864	2885
791.968	1228
792.072	2070
792.175	2138
792.279	1395
792.382	2082
792.486	1929
792.589	2751
792.693	2615
792.796	1234
792.899	2682
793.003	2615
793.106	593
793.209	1570
793.313	2405
793.416	-170
793.519	3074
793.623	4485
793.726	5932
793.829	2374
793.932	1752
794.035	780
794.138	2595
794.242	1833
794.345	3931
794.448	3710
794.551	5382
794.654	4379
794.757	2486
794.860	5929
794.963	3362
795.066	828
795.169	2296
795.272	249
795.375	1854
795.477	873
795.580	2019
795.683	634
795.786	1787
795.889	1357
795.991	2443
796.094	3667
796.197	1798
796.300	1835
796.402	1056
796.505	1328
796.608	596
796.710	1650
796.813	890
796.915	1261
797.018	2517
797.120	1268
797.223	-600
797.326	973
797.428	-82
797.530	1480
797.633	1289
797.735	4124
797.838	10153
797.940	6147
798.042	791
798.145	283
798.247	1620
798.349	91
798.452	1320
798.554	761
798.656	332
798.758	2281
798.860	912
798.962	1029
799.065	891
799.167	658
799.269	2278
799.371	2173
799.473	1718
799.575	3563
799.677	4365
799.779	4077
799.881	3811
799.983	2153
800.085	1054
800.187	1669
800.289	1210
800.390	865
800.492	976
800.594	1225
800.696	62
800.798	800
800.899	440
801.001	240
801.103	570
801.205	662
801.306	749
801.408	-429
801.509	1100
801.611	1383
801.713	1911
801.814	526
801.916	771
802.017	888
802.119	169
802.220	907
802.322	-628
802.423	5221
802.525	2370
802.626	1322
802.727	982
802.829	1830
802.930	-1658
803.031	1797
803.133	1058
803.234	-611
803.335	1139
803.436	-929
803.538	1264
803.639	112
803.740	2641
803.841	241
803.942	1271
804.043	899
804.144	-431
804.245	730
804.346	-144
804.447	191
804.548	3079
804.649	3161
804.750	160
804.851	189
804.952	470
805.053	491
805.154	-477
805.255	844
805.355	599
805.456	58
805.557	457
805.658	-958
805.758	222
805.859	-154
805.960	925
806.061	68
806.161	-734
806.262	707
806.362	1141
806.463	138
806.564	992
806.664	1069
806.765	2952
806.865	2588
806.966	824
807.066	77
807.166	988
807.267	856
807.367	165
807.468	1315
807.568	-749
807.668	802
807.769	1744
807.869	-86
807.969	507
808.069	598
808.170	-298
808.270	279
808.370	1297
808.470	2429
808.570	342
808.670	249
808.770	882
808.870	-969
808.970	601
809.070	-217
809.170	166
809.271	-360
809.370	-217
809.470	239
809.570	-11
809.670	-884
809.770	-12
809.870	428
809.970	594
810.070	-234
810.169	316
810.269	-691
810.369	1135
810.469	-1045
810.568	-286
810.668	-956
810.768	-184
810.867	-29
810.967	-412
811.066	220
811.166	-509
811.265	1204
811.365	-1006
811.464	-250
811.564	1199
811.663	70
811.763	-1138
811.862	-700
811.962	862
812.061	-274
812.160	-863
812.260	-331
812.359	-887
812.458	-656
812.557	-234
812.657	282
812.756	658
812.855	820
812.954	-348
813.053	964
813.153	283
813.252	-1107
813.351	765
813.450	-439
813.549	-787
813.648	240
813.747	-778
813.846	921
813.945	319
814.044	-674
814.143	-261
814.242	169
814.341	-610
814.439	-74
814.538	-252
814.637	-330
814.736	-588
814.835	-470
814.933	-667
815.032	-105
815.131	-839
815.229	179
815.328	274
815.427	368
815.525	12
815.624	551
815.722	-195
815.821	-276
815.919	-416
816.018	-109
816.116	300
816.215	-73
816.313	-615
816.412	-227
816.510	259
816.609	916
816.707	-338
816.805	-853
816.904	53
817.002	-103
817.100	602
817.198	310
817.296	436
817.395	-521
817.493	198
817.591	-246
817.689	556
817.787	-326
817.885	834
817.983	1069
818.081	2124
818.179	4339
818.277	12913
818.375	7886
818.473	2705
818.571	1368
818.669	1187
818.767	1012
818.865	92
818.963	327
819.061	840
819.158	618
819.256	4480
819.354	11448
819.452	25916
819.549	9540
819.647	2263
819.745	529
819.842	1216
819.940	433
820.038	597
820.135	-378
820.233	975
820.330	-234
820.428	-493
820.525	621
820.623	-415
820.720	-114
820.818	708
820.915	260
821.012	161
821.110	-699
821.207	1079
821.304	-663
821.402	94
821.499	1771
821.596	2729
821.693	1813
821.791	988
821.888	2436
821.985	7691
822.082	3655
822.179	1563
822.276	969
822.373	643
822.470	-370
822.567	-266
822.664	-1015
822.761	478
822.858	-1230
822.955	276
823.052	-440
823.149	16
823.246	-46
823.343	-572
823.440	445
823.536	326
823.633	-367
823.730	-83
823.827	-456
823.923	58
824.020	1456
824.117	755
824.213	14
824.310	418
824.407	-225
824.503	53
824.600	826
824.696	156
824.793	455
824.889	-103
824.986	-299
825.082	-364
825.179	951
825.275	-983
825.371	-1075
825.468	541
825.564	-626
825.660	-309
825.757	70
825.853	189
825.949	-913
826.045	-796
826.142	-1156
826.238	-112
826.334	111
826.430	-325
826.526	77
826.622	-588
826.718	209
826.814	-1288
826.910	585
827.006	-100
827.102	-544
827.198	866
827.294	-137
827.390	-251
827.486	306
827.582	-1481
827.678	-718
827.774	67
827.869	-1442
827.965	746
828.061	-585
828.157	111
828.252	-1146
828.348	-1688
828.444	314
828.539	-762
828.635	-90
828.731	1010
828.826	-967
828.922	-94
829.017	508
829.113	28
829.208	-29
829.304	-192
829.399	792
829.495	-1036
829.590	369
829.685	-877
829.781	-524
829.876	-252
829.971	-86
830.066	119
830.162	-287
830.257	22
830.352	45
830.447	1050
830.543	330
830.638	171
830.733	-13
830.828	-871
830.923	1274
831.018	135
831.113	925
831.208	-436
831.303	0
831.398	-267
831.493	-189
831.588	360
831.683	-748
831.778	-478
831.873	-201
831.967	928
832.062	-352
832.157	-984
832.252	628
832.346	31
832.441	1003
832.536	1894
832.631	4495
832.725	3291
832.820	-518
832.914	-458
833.009	78
833.104	1061
833.198	1557
833.293	-751
833.387	490
833.482	-621
833.576	-1160
833.670	107
833.765	-226
833.859	-92
833.954	-144
834.048	189
834.142	-233
834.237	-72
834.331	-781
834.425	110
834.519	-752
834.613	647
834.708	-1415
834.802	609
834.896	-751
834.990	-636
835.084	-274
835.178	954
835.272	210
835.366	-54
835.460	750
835.554	625
835.648	-454
835.742	-838
835.836	-646
835.930	-743
836.024	252
836.117	1044
836.211	1048
836.305	2705
836.399	5225
836.493	-62
836.586	-11
836.680	-167
836.774	-1014
836.867	420
836.961	-567
837.055	152
837.148	158
837.242	-434
837.335	-465
837.429	323
837.522	103
837.616	1962
837.709	5761
837.803	3037
837.896	630
837.989	622
838.083	3489
838.176	8939
838.269	7054
838.363	846
838.456	194
838.549	2285
838.642	2989
838.735	6367
838.829	2115
838.922	-536
839.015	-97
839.108	-725
839.201	-79
839.294	-32
839.387	334
839.480	200
839.573	2150
839.666	4648
839.759	-297
839.852	-1439
839.945	-327
840.038	-22
840.131	-229
840.223	-248
840.316	261
840.409	-106
840.502	-1150
840.594	956
840.687	-1212
840.780	-138
840.873	-273
840.965	764
841.058	3065
841.150	7735
841.243	4322
841.336	116
841.428	-242
841.521	70
841.613	199
841.706	1903
841.798	338
841.890	-140
841.983	-940
842.075	762
842.167	-157
842.260	536
842.352	2670
842.444	3788
842.537	9579
842.629	13178
842.721	1047
842.813	101
842.905	-570
842.997	477
843.090	896
843.182	4051
843.274	9685
843.366	22774
843.458	43992
843.550	24133
843.642	2954
843.734	316
843.826	2543
843.918	1804
844.009	714
844.101	-51
844.193	-164
844.285	-547
844.377	171
844.469	1416
844.560	968
844.652	2063
844.744	1034
844.835	127
844.927	701
845.019	1827
845.110	676
845.202	-42
845.293	-31
845.385	-1017
845.476	-430
845.568	-159
845.659	-881
845.751	43
845.842	229
845.934	-247
846.025	-825
846.116	-123
846.208	29
846.299	184
846.390	577
846.482	337
846.573	2424
846.664	2619
846.755	3607
846.846	2612
846.937	-1899
847.029	-22
847.120	-208
847.211	-176
847.302	435
847.393	-1150
847.484	289
847.575	-745
847.666	-375
847.757	-140
847.847	-81
847.938	371
848.029	-397
848.120	-705
848.211	-115
848.302	-472
848.392	-1023
848.483	89
848.574	-841
848.664	-219
848.755	-837
848.846	253
848.936	-847
849.027	-340
849.118	-695
849.208	-614
849.299	998
849.389	1809
849.480	4466
849.570	8769
849.661	16772
849.751	24552
849.841	5755
849.932	273
850.022	-300
850.112	397
850.203	-515
850.293	-788
850.383	-15
850.474	-675
850.564	-286
850.654	-163
850.744	-365
850.834	-71
850.924	-185
851.014	86
851.104	219
851.194	-480
851.284	93
851.374	673
851.464	321
851.554	856
851.644	366
851.734	3233
851.824	1481
851.914	-752
852.004	147
852.094	-181
852.183	-393
852.273	563
852.363	-647
852.452	125
852.542	259
852.632	-635
852.721	-355
852.811	-1044
852.901	-315
852.990	98
853.080	431
853.169	-766
853.259	-42
853.348	263
853.438	678
853.527	1250
853.617	2532
853.706	5783
853.795	12002
853.885	28815
853.974	54089
854.063	104675
854.152	145864
854.242	39581
854.331	5191
854.420	1815
854.509	1977
854.598	935
854.687	1843
854.777	1578
854.866	-139
854.955	342
855.044	-348
855.133	198
855.222	491
855.311	-807
855.400	7
855.488	-239
855.577	164
855.666	-152
855.755	683
855.844	212
855.933	-603
856.021	188
856.110	-330
856.199	-695
856.288	-655
856.376	-94
856.465	-893
856.554	-691
856.642	-1185
856.731	-494
856.819	-265
856.908	-180
856.996	-549
857.085	-126
857.173	-34
857.262	-728
857.350	-234
857.438	-119
857.527	314
857.615	376
857.703	301
857.792	-279
857.880	-390
857.968	-1016
858.056	-387
858.145	-265
858.233	-1372
858.321	-571
858.409	-139
858.497	-671
858.585	-600
858.673	-406
858.761	-727
858.849	-410
858.937	-408
859.025	-174
859.113	491
859.201	366
859.289	471
859.377	-18
859.465	-173
859.552	-129
859.640	-71
859.728	342
859.816	101
859.903	-84
859.991	-623
860.079	-452
860.166	-203
860.254	-1125
860.342	-805
860.429	-220
860.517	-944
860.604	60
860.692	-587
860.779	-845
860.867	-813
860.954	-54
861.042	444
861.129	189
861.216	-258
861.304	-356
861.391	98
861.478	-667
861.565	-996
861.653	526
861.740	-715
861.827	-824
861.914	-778
862.001	-1318
862.089	-848
862.176	-1063
862.263	-462
862.350	-210
862.437	-1280
862.524	-1630
862.611	-670
862.698	286
862.785	228
862.871	1204
862.958	-1026
863.045	39
863.132	-287
863.219	-1013
863.306	-1294
863.392	172
863.479	-1523
863.566	-285
863.652	-47
863.739	-759
863.826	-429
863.912	-68
863.999	-987
864.086	-636
864.172	-61
864.259	-669
864.345	-954
864.432	-659
864.518	-869
864.604	-765
864.691	-1233
864.777	-667
864.863	-89
864.950	-14
865.036	-290
865.122	302
865.209	-42
865.295	-66
865.381	597
865.467	566
865.553	624
865.639	1977
865.726	5201
865.812	12730
865.898	25805
865.984	38048
866.070	78680
866.156	69313
866.242	12675
866.328	2039
866.414	939
866.499	1258
866.585	371
866.671	827
866.757	231
866.843	1148
866.928	-864
867.014	-248
867.100	513
867.186	289
867.271	1754
867.357	2099
867.442	3325
867.528	155
867.614	212
867.699	-119
867.785	1185
867.870	1590
867.956	1885
868.041	865
868.127	1904
868.212	2822
868.297	1735
868.383	800
868.468	537
868.553	2753
868.639	3052
868.724	7864
868.809	6242
868.894	1042
868.979	110
869.065	156
869.150	497
869.235	-367
869.320	-1237
869.405	-290
869.490	-1212
869.575	-581
869.660	-409
869.745	93
869.830	-945
869.915	-1225
870.000	471
870.085	-30
870.169	107
870.254	489
870.339	-672
870.424	-417
870.509	35
870.593	-474
870.678	-510
870.763	-209
870.847	13
870.932	237
871.016	-58
871.101	-614
871.186	-670
871.270	-302
871.355	-322
871.439	-249
871.523	-1030
871.608	-1258
871.692	-171
871.777	89
871.861	-85
871.945	-1108
872.030	-351
872.114	-1743
872.198	-399
872.282	-483
872.367	-455
872.451	-807
872.535	-1618
872.619	-615
872.703	-980
872.787	-478
872.871	-676
872.955	-1004
873.039	-1226
873.123	-99
873.207	-135
873.291	-106
873.375	-547
873.459	-365
873.543	-971
873.627	-586
873.711	-1020
873.794	-160
873.878	-1369
873.962	-1501
874.045	-826
874.129	-895
874.137	-824
874.213	-109
874.245	-127
874.296	-161
874.352	-780
874.380	-1083
874.460	-645
874.464	-628
874.547	-864
874.568	-741
874.631	-383
874.676	50
874.714	423
874.784	4
874.798	-77
874.881	419
874.892	263
874.965	-852
874.999	-802
875.048	-727
875.107	-923
875.131	-1014
875.215	211
875.215	210
875.298	-564
875.323	-536
875.381	-469
875.430	-452
875.465	-425
875.538	-429
875.548	-432
875.631	-515
875.646	-657
875.714	-1390
875.753	-1303
875.798	-1155
875.861	-803
875.881	-720
875.964	-816
875.968	-822
876.047	-841
876.076	-793
876.130	-747
876.183	-258
876.213	65
876.291	-278
876.296	-313
876.379	287
876.398	241
876.462	155
876.506	-60
876.545	-251
876.613	-459
876.628	-483
876.711	137
876.721	126
876.794	-99
876.828	-414
876.877	-855
876.935	-415
876.960	-210
877.043	-456
877.043	-454
877.125	301
877.150	477
877.208	799
877.258	86
877.291	-289
877.365	52
877.374	76
877.456	-288
877.472	-38
877.539	990
877.579	376
877.622	-269
877.687	-257
877.704	-266
877.787	-47
877.794	-107
877.869	-667
877.901	-598
877.952	-446
878.008	-155
878.034	-14
878.115	-489
878.117	-497
878.199	-510
878.222	-365
878.282	-116
878.329	-245
878.364	-262
878.437	-624
878.447	-680
878.529	-910
878.544	-765
878.611	-193
878.651	-349
878.694	-250
878.758	78
878.776	70
878.858	345
878.865	353
878.941	474
878.972	122
879.023	-512
879.078	-354
879.105	-104
879.185	747
879.187	758
879.269	81
879.292	-168
879.351	-921
879.399	-481
879.433	-21
879.506	463
879.516	497
879.598	23
879.613	-153
879.680	-625
879.720	-338
879.762	-170
879.827	-411
879.844	-444
879.926	63
879.933	55
880.007	-71
880.040	-186
880.089	-309
880.147	180
880.171	425
880.253	1569
880.254	1571
880.335	2031
880.360	2225
880.417	3681
880.467	5743
880.499	6947
880.574	8026
880.580	7809
880.662	2433
880.680	1624
880.744	516
880.787	47
880.825	-75
880.893	242
880.907	226
880.989	-718
881.000	-711
881.070	-25
881.106	189
881.152	168
881.213	29
881.233	34
881.315	410
881.319	408
881.396	453
881.426	391
881.478	231
881.532	289
881.559	307
881.639	-253
881.641	-262
881.722	330
881.745	211
881.803	78
881.852	252
881.885	327
881.958	454
881.966	498
882.047	1040
882.064	1115
882.129	1289
882.171	1567
882.210	2405
882.277	3877
882.291	3781
882.372	1907
882.383	1714
882.454	975
882.489	818
882.535	562
882.596	-22
882.616	35
882.697	14
882.702	39
882.778	136
882.808	158
882.859	188
882.914	468
882.940	705
883.020	634
883.021	636
883.102	544
883.127	500
883.183	251
883.233	74
883.264	20
883.339	219
883.345	239
883.426	-220
883.445	-240
883.507	165
883.551	551
883.587	626
883.657	333
883.668	307
883.749	277
883.763	283
883.830	114
883.869	-8
883.910	163
883.975	503
883.991	473
884.072	142
884.081	91
884.152	8
884.187	-5
884.233	86
884.292	275
884.314	282
884.394	230
884.398	209
884.475	-50
884.504	123
884.555	442
884.610	182
884.636	93
884.716	311
884.716	317
884.797	165
884.821	148
884.877	157
884.927	60
884.958	18
885.033	120
885.038	141
885.118	58
885.139	166
885.199	363
885.244	336
885.279	401
885.350	294
885.359	295
885.439	684
885.456	681
885.520	578
885.561	614
885.600	585
885.667	564
885.680	566
885.760	324
885.773	326
885.840	494
885.878	467
885.920	542
885.984	565
886.000	519
886.080	698
886.089	653
886.160	417
886.195	469
886.240	610
886.300	836
886.320	923
886.400	815
886.406	816
886.480	1233
886.511	1438
886.560	1498
886.616	1390
886.640	1301
886.720	1146
886.722	1133
886.800	909
886.827	870
886.879	781
886.932	489
886.959	605
887.038	1202
887.039	1209
887.119	1087
887.143	1077
887.198	760
887.248	294
887.278	495
887.354	913
887.358	884
887.437	406
887.459	223
887.517	350
887.564	522
887.596	547
887.669	582
887.676	604
887.755	717
887.774	761
887.835	459
887.880	225
887.914	318
887.985	433
887.994	441
888.073	467
888.090	467
888.153	1128
888.195	1627
888.232	1354
888.300	747
888.311	736
888.391	671
888.405	651
888.470	965
888.510	1105
888.549	1150
888.615	1323
888.628	1239
888.708	598
888.720	499
888.787	574
888.825	587
888.866	569
888.930	580
888.945	561
889.024	399
889.035	375
889.103	487
889.140	531
889.182	796
889.245	1192
889.261	1096
889.340	620
889.349	561
889.419	913
889.454	1076
889.498	924
889.559	717
889.577	656
889.656	373
889.664	345
889.735	1126
889.768	1493
889.814	1579
889.873	1681
889.978	605
890.083	1055
890.187	141
890.292	741
890.397	1264
890.501	961
890.606	592
890.710	1154
890.815	1261
890.919	805
891.024	1536
891.128	970
891.233	1112
891.337	873
891.442	783
891.546	826
891.650	1208
891.755	1188
891.859	1956
891.963	1107
892.068	724
892.172	777
892.276	346
892.380	905
892.484	973
892.589	1513
892.693	742
892.797	983
892.901	1238
893.005	1041
893.109	421
893.213	1350
893.317	1339
893.421	950
893.525	1358
893.629	-416
893.733	1178
893.837	901
893.941	430
894.045	956
894.148	623
894.252	1160
894.356	1545
894.460	1568
894.564	1124
894.667	810
894.771	701
894.875	338
894.978	640
895.082	885
895.186	1072
895.289	1188
895.393	891
895.496	1069
895.600	-101
895.703	378
895.807	1321
895.910	1144
896.014	795
896.117	866
896.221	545
896.324	881
896.427	-79
896.531	121
896.634	-374
896.737	862
896.840	251
896.944	760
897.047	1220
897.150	759
897.253	445
897.356	1609
897.460	637
897.563	871
897.666	691
897.769	1374
897.872	494
897.975	716
898.078	531
898.181	452
898.284	488
898.387	940
898.490	1100
898.593	949
898.695	308
898.798	465
898.901	924
899.004	1086
899.107	93
899.209	1351
899.312	1363
899.415	713
899.518	570
899.620	448
899.723	919
899.826	3141
899.928	4143
900.031	246
900.133	214
900.236	472
900.338	142
900.441	23
900.543	231
900.646	712
900.748	1101
900.851	124
900.953	221
901.055	666
901.158	1004
901.260	1039
901.362	657
901.465	534
901.567	206
901.669	339
901.771	374
901.873	730
901.976	281
902.078	846
902.180	214
902.282	-16
902.384	622
902.486	412
902.588	589
902.690	1020
902.792	1108
902.894	419
902.996	175
903.098	504
903.200	110
903.302	492
903.404	1035
903.505	369
903.607	282
903.709	1549
903.811	184
903.913	23
904.014	245
904.116	303
904.218	225
904.319	701
904.421	623
904.523	1306
904.624	381
904.726	381
904.827	574
904.929	-279
905.030	559
905.132	443
905.233	976
905.335	949
905.436	248
905.537	518
905.639	368
905.740	-384
905.841	235
905.943	769
906.044	650
906.145	1202
906.247	611
906.348	366
906.449	645
906.550	-83
906.651	865
906.752	834
906.854	33
906.955	-55
907.056	21
907.157	407
907.258	761
907.359	700
907.460	508
907.561	-253
907.662	1122
907.762	893
907.863	474
907.964	1017
908.065	-14
908.166	718
908.267	1051
908.367	1352
908.468	207
908.569	1185
908.670	694
908.770	1387
908.871	1306
908.971	1458
909.072	389
909.173	779
909.273	268
909.374	443
909.474	297
909.575	236
909.675	162
909.776	897
909.876	67
909.977	1268
910.077	762
910.177	970
910.278	530
910.378	-425
910.478	1349
910.579	287
910.679	-446
910.779	305
910.879	689
910.980	295
911.080	52
911.180	319
911.280	521
911.380	576
911.480	921
911.580	281
911.680	-485
911.780	-161
911.880	1086
911.980	405
912.080	66
912.180	717
912.280	122
912.380	1274
912.480	171
912.580	480
912.679	424
912.779	996
912.879	30
912.979	703
913.078	413
913.178	-766
913.278	116
913.377	127
913.477	393
913.577	299
913.676	715
913.776	83
913.875	670
913.975	581
914.074	920
914.174	503
914.273	-196
914.373	608
914.472	-368
914.572	65
914.671	741
914.770	-129
914.870	-121
914.969	1020
915.068	591
915.167	182
915.267	0
915.366	-209
915.465	136
915.564	727
915.663	46
915.763	210
915.862	-231
915.961	403
916.060	698
916.159	395
916.258	512
916.357	248
916.456	894
916.555	-129
916.654	598
916.752	720
916.851	156
916.950	108
917.049	719
917.148	52
917.247	563
917.345	-180
917.444	275
917.543	277
917.642	841
917.740	432
917.839	562
917.937	607
918.036	683
918.135	586
918.233	857
918.332	365
918.430	18
918.529	1025
918.627	370
918.726	1074
918.824	63
918.923	33
919.021	870
919.119	-11
919.218	-104
919.316	117
919.414	60
919.512	10
919.611	320
919.709	-297
919.807	26
919.905	938
920.003	74
920.102	419
920.200	416
920.298	345
920.396	573
920.494	353
920.592	611
920.690	151
920.788	590
920.886	55
920.984	263
921.082	510
921.180	37
921.277	1089
921.375	1052
921.473	438
921.571	886
921.669	693
921.766	-144
921.864	924
921.962	1233
922.060	375
922.157	1042
922.255	946
922.352	673
922.450	1076
922.548	333
922.645	712
922.743	711
922.840	751
922.938	1248
923.035	1415
923.133	711
923.230	1865
923.327	1557
923.425	1139
923.522	2029
923.619	1416
923.717	672
923.814	924
923.911	1347
924.008	2033
924.106	979
924.203	668
924.300	1275
924.397	994
924.494	1779
924.591	1085
924.688	1864
924.786	1398
924.883	2184
924.979	873
925.077	1633
925.173	1343
925.270	1937
925.367	1764
925.464	1063
925.561	2069
925.658	1959
925.755	1354
925.852	2160
925.948	1690
926.045	1284
926.142	1738
926.239	1566
926.335	1736
926.432	2131
926.529	1814
926.625	1172
926.722	1017
926.818	229
926.915	1010
927.011	1478
927.108	2514
927.204	1468
927.301	734
927.397	1503
927.494	738
927.590	997
927.687	749
927.783	772
927.879	860
927.976	608
928.072	432
928.168	771
928.264	323
928.361	207
928.457	1471
928.553	928
928.649	1633
928.745	1749
928.841	1831
928.937	416
929.033	1675
929.129	980
929.225	1272
929.321	909
929.417	1227
929.513	1012
929.609	635
929.705	1750
929.801	677
929.897	489
929.993	148
930.089	464
930.184	853
930.280	60
930.376	1762
930.471	574
930.567	1489
930.663	770
930.758	513
930.854	1239
930.950	498
931.045	430
931.141	857
931.236	1196
931.332	1291
931.427	989
931.523	1276
931.618	715
931.714	743
931.809	726
931.905	824
932.000	1431
932.095	191
932.191	1214
932.286	21
932.381	673
932.476	693
932.572	768
932.667	998
932.762	1125
932.857	738
932.952	669
933.047	819
933.142	288
933.237	631
933.332	863
933.427	1054
933.522	1027
933.617	981
933.712	591
933.807	743
933.902	305
933.997	1526
934.092	613
934.187	748
934.282	423
934.376	311
934.471	1067
934.566	110
934.661	540
934.755	534
934.850	477
934.945	593
935.039	1072
935.134	-33
935.228	869
935.323	1065
935.417	199
935.512	565
935.606	977
935.701	895
935.795	868
935.890	521
935.984	1209
936.079	266
936.173	205
936.267	42
936.362	462
936.456	1153
936.550	800
936.644	586
936.738	-104
936.833	414
936.927	382
937.021	814
937.115	-9
937.209	37
937.303	1115
937.397	424
937.491	625
937.585	851
937.679	607
937.773	543
937.867	382
937.961	645
938.055	143
938.149	981
938.243	329
938.337	-42
938.430	171
938.524	929
938.618	1247
938.712	919
938.805	442
938.899	1227
938.993	185
939.086	989
939.180	1056
939.274	2234
939.367	1086
939.461	2114
939.554	1237
939.648	241
939.741	542
939.835	1183
939.928	208
940.022	1337
940.115	623
940.208	200
940.302	627
940.395	1540
940.488	-171
940.582	1603
940.675	-86
940.768	583
940.861	664
940.954	285
941.048	871
941.141	314
941.234	936
941.327	2188
941.420	2716
941.513	847
941.606	-246
941.699	1042
941.792	341
941.885	391
941.978	920
942.071	650
942.164	-227
942.257	521
942.349	301
942.442	326
942.535	-338
942.628	95
942.721	735
942.813	-623
942.906	1360
942.999	-104
943.091	-225
943.184	-161
943.277	-70
943.369	614
943.462	-155
943.554	524
943.647	47
943.739	591
943.832	275
943.924	-256
944.017	647
944.109	-36
944.201	305
944.294	672
944.386	-232
944.478	654
944.571	216
944.663	489
944.755	20
944.847	1212
944.940	-6
945.032	-20
945.124	-191
945.216	1330
945.308	793
945.400	812
945.492	797
945.584	997
945.676	130
945.768	565
945.860	912
945.952	1002
946.044	793
946.136	-30
946.228	414
946.320	-168
946.412	687
946.503	634
946.595	535
946.687	-190
946.779	-153
946.870	-889
946.962	188
947.054	-467
947.145	724
947.237	793
947.329	982
947.420	686
947.512	564
947.603	-163
947.695	693
947.786	-307
947.878	-410
947.969	993
948.061	647
948.152	161
948.243	155
948.335	284
948.426	-804
948.517	-369
948.609	314
948.700	-732
948.791	-112
948.882	705
948.973	-83
949.065	-375
949.156	-14
949.247	-474
949.338	-532
949.429	-181
949.520	806
949.611	-816
949.702	306
949.793	104
949.884	-38
949.975	-3
950.066	-123
950.157	48
950.247	5
950.338	492
950.429	-296
950.520	485
950.611	337
950.701	87
950.792	-44
950.883	-302
950.973	620
951.064	734
951.155	152
951.245	232
951.336	736
951.427	62
951.517	109
951.608	547
951.698	52
951.788	49
951.879	-379
951.969	236
952.060	-394
952.150	-1013
952.240	595
952.331	-1454
952.421	1331
952.511	-835
952.602	192
952.692	-518
952.782	538
952.872	432
952.962	-446
953.052	-783
953.143	-617
953.233	-521
953.323	-165
953.413	57
953.503	606
953.593	198
953.683	-73
953.773	-769
953.863	653
953.953	-805
954.042	156
954.132	-413
954.222	714
954.312	-559
954.402	-419
954.492	219
954.581	1609
954.671	-62
954.761	-288
954.850	499
954.940	-89
955.030	172
955.119	-270
955.209	202
955.298	-267
955.388	-777
955.477	-26
955.567	-718
955.656	335
955.746	704
955.835	-314
955.925	-885
956.014	472
956.103	309
956.193	806
956.282	-152
956.371	99
956.461	-250
956.550	-229
956.639	-196
956.728	-588
956.817	233
956.906	354
956.995	-113
957.085	-770
957.174	710
957.263	-332
957.352	-292
957.441	-443
957.530	-370
957.619	841
957.708	-409
957.796	-387
957.885	223
957.974	-649
958.063	56
958.152	-1516
958.241	-93
958.329	-1187
958.418	-513
958.507	-1046
958.596	-142
958.684	-1179
958.773	-287
958.861	-649
958.950	-300
959.039	-232
959.127	-209
959.216	626
959.304	133
959.393	-820
959.481	87
959.570	-594
959.658	-685
959.746	-232
959.835	173
959.923	1551
960.011	1298
960.100	4
960.188	-345
960.276	-608
960.365	-350
960.453	-370
960.541	-632
960.629	-1207
960.717	-422
960.805	-588
960.893	-166
960.981	-570
961.069	533
961.158	455
961.245	40
961.333	-382
961.421	-302
961.509	-210
961.597	126
961.685	-1192
961.773	-498
961.861	-795
961.949	219
962.036	-1004
962.124	141
962.212	-215
962.299	231
962.387	-386
962.475	-123
962.562	-1018
962.650	-299
962.738	-291
962.825	-474
962.913	-341
963.000	-70
963.088	-236
963.175	155
963.263	394
963.350	-88
963.438	-393
963.525	355
963.612	1175
963.700	3867
963.787	10768
963.874	4442
963.962	-275
964.049	311
964.136	-755
964.223	-1206
964.310	-744
964.398	849
964.485	-400
964.572	-216
964.659	1105
964.746	1931
964.833	-791
964.920	-16
965.007	-429
965.094	-367
965.181	-3
965.268	297
965.355	-907
965.441	-334
965.528	-196
965.615	615
965.702	-304
965.789	-198
965.875	-721
965.962	158
966.049	-986
966.136	278
966.222	-996
966.309	-697
966.395	-283
966.482	-249
966.569	-739
966.655	-1322
966.742	-168
966.828	-38
966.915	-991
967.001	-531
967.087	-868
967.174	-117
967.260	3
967.347	918
967.433	2366
967.519	6185
967.605	1101
967.692	-743
967.778	-119
967.864	-471
967.950	-573
968.036	-938
968.123	-841
968.209	-394
968.295	-1052
968.381	644
968.467	297
968.553	-1840
968.639	-22
968.725	-252
968.811	716
968.897	1468
968.983	-703
969.069	-595
969.154	-277
969.240	115
969.326	-1740
969.412	-1215
969.497	-574
969.583	-1314
969.669	-601
969.755	-619
969.840	-819
969.926	-282
970.012	-1025
970.097	1030
970.183	-291
970.268	-554
970.354	-122
970.439	875
970.525	4487
970.610	834
970.696	437
970.781	-493
970.866	-1240
970.952	-488
971.037	-1094
971.122	61
971.208	-800
971.293	-323
971.378	-1696
971.463	-9
971.549	-137
971.634	208
971.719	-318
971.804	-220
971.889	685
971.974	-764
972.059	-148
972.144	354
972.229	-1389
972.314	-409
972.399	144
972.484	-571
972.569	-15
972.654	-157
972.739	2693
972.824	1558
972.908	88
972.993	-304
973.078	-369
973.163	-108
973.247	-790
973.332	-1530
973.417	627
973.501	-1035
973.586	-948
973.671	-132
973.755	840
973.840	655
973.924	175
974.009	-36
974.093	-186
974.178	584
974.262	553
974.346	1501
974.431	-471
974.515	-540
974.600	-469
974.684	-552
974.768	-500
974.852	482
974.937	-1254
975.021	315
975.105	-169
975.189	-864
975.273	392
975.358	-416
975.442	-1575
975.526	-194
975.610	-1052
975.694	-368
975.778	264
975.862	-751
975.946	-1978
976.030	526
976.114	-1110
976.198	-606
976.281	82
976.365	-152
976.449	-733
976.533	-96
976.617	-937
976.700	-858
976.784	-413
976.868	-276
976.951	156
977.035	161
977.119	-1060
977.202	-560
977.286	478
977.369	-565
977.453	-335
977.536	-692
977.620	-1683
977.703	-430
977.787	-1083
977.870	-403
977.953	-166
978.037	-1439
978.120	729
978.203	177
978.287	1630
978.370	307
978.453	-544
978.536	-876
978.620	272
978.703	28
978.786	335
978.869	-1115
978.952	-1475
979.035	499
979.118	-132
979.201	-1488
979.284	64
979.367	-1285
979.450	485
979.533	-604
979.616	-210
979.699	-685
979.782	-417
979.865	-241
979.948	-369
980.030	-996
980.113	-648
980.196	-1035
980.279	-988
980.361	-921
980.444	-510
980.526	37
980.609	-216
980.692	-644
980.774	-918
980.857	-1285
980.939	84
981.022	-1222
981.104	-756
981.187	-1092
981.269	12
981.352	-603
981.434	-1138
981.516	-629
981.599	598
981.681	-400
981.763	429
981.846	6
981.928	-444
982.010	-861
982.092	-1885
982.174	214
982.256	-1108
982.339	-836
982.421	-1090
982.503	-223
982.585	-1314
982.667	-624
982.749	-617
982.831	-361
982.913	-1256
982.995	933
983.077	-1001
983.158	1086
983.240	-1413
983.322	48
983.404	24
983.486	-481
983.568	433
983.649	-715
983.731	-369
983.813	-925
983.894	-152
983.976	-1039
984.058	-1708
984.139	226
984.221	-1057
984.302	648
984.384	-371
984.465	-1143
984.547	-1217
984.628	-1206
984.710	31
984.791	-745
984.872	-449
984.954	261
985.035	-527
985.116	-1030
985.198	-1747
985.279	-113
985.360	-902
985.441	-672
985.522	771
985.604	-663
985.685	-2420
985.766	437
985.847	848
985.928	-1309
986.009	-915
986.090	-451
986.171	28
986.252	-739
986.333	132
986.414	-450
986.495	-285
986.576	-419
986.656	-668
986.737	-359
986.818	-473
986.899	-194
986.980	-1089
987.060	19
987.141	-1081
987.222	-692
987.302	-235
987.383	164
987.464	-721
987.544	379
987.625	-922
987.705	104
987.786	-1387
987.866	-6
987.947	-978
988.027	-223
988.108	-1264
988.188	-533
988.268	-383
988.349	-246
988.429	-247
988.509	343
988.589	149
988.670	-2569
988.750	123
988.830	-591
988.910	-714
988.990	-1066
989.070	-1109
989.151	-276
989.231	-1482
989.311	41
989.391	-427
989.471	-714
989.551	-1109
989.631	-965
989.711	689
989.791	-1241
989.870	-1327
989.950	562
990.030	-1149
990.110	-455
990.190	-645
990.269	-685
990.349	-730
990.429	-583
990.509	-217
990.588	-1225
990.668	294
990.747	-786
990.827	-1131
990.907	-595
990.986	-1927
991.066	-701
991.145	-554
991.225	135
991.304	-1465
991.383	329
991.463	-1056
991.542	77
991.622	-1255
991.701	-918
991.780	-663
991.859	-47
991.939	-904
992.018	-565
992.097	-384
992.176	-669
992.256	-247
992.335	-1926
992.414	-270
992.493	-922
992.572	-1217
992.651	890
992.730	-678
992.809	145
992.888	-1848
992.967	-219
993.046	79
993.125	-1188
993.203	-260
993.282	-9
993.361	-189
993.440	-703
993.519	-1715
993.597	-207
993.676	-747
993.755	67
993.834	-1614
993.912	-1178
993.991	539
994.069	-943
994.148	-1114
994.226	-542
994.305	-496
994.384	-625
994.462	-147
994.540	-1361
994.619	-1447
994.697	-872
994.776	-1275
994.854	-245
994.932	-930
995.011	-641
995.089	-1056
995.167	-576
995.245	-623
995.324	-1639
995.402	-821
995.480	-1043
995.558	-342
995.636	-1766
995.714	-859
995.792	-690
995.870	-1217
995.948	-452
996.026	-170
996.104	-1458
996.182	242
996.260	-1272
996.338	-227
996.416	-1690
996.494	-1241
996.572	-309
996.649	-433
996.727	-1255
996.805	-520
996.883	-1053
996.960	-587
997.038	-972
997.116	-718
997.193	-857
997.271	-940
997.348	94
997.426	-653
997.504	-397
997.581	588
997.658	-12
997.736	-1531
997.813	-988
997.891	-337
997.968	-1059
998.046	-1226
998.123	-783
998.200	720
998.277	-1153
998.355	-34
998.432	-1669
998.509	-728
998.586	-451
998.663	-903
998.741	-759
998.818	-958
998.895	-775
998.972	-181
999.049	-1169
999.126	-595
999.203	-106
999.280	-297
999.357	-1264
999.434	-1145
999.511	-1043
999.587	-742
999.664	-545
999.741	-331
999.818	381
999.895	-1656
999.971	-1324
1000.048	-1070
1000.125	354
1000.202	-1420
1000.278	-654
1000.355	-1569
1000.431	-958
1000.508	-1224
1000.584	-1081
1000.661	-1265
1000.738	-1322
1000.814	-637
1000.890	-262
1000.967	-435
1001.043	-280
1001.120	-1816
1001.196	-519
1001.272	-1319
1001.349	-571
1001.425	-695
1001.501	-1562
1001.577	-1516
1001.654	-704
1001.730	-1062
1001.806	251
1001.882	-1265
1001.958	-509
1002.034	-658
1002.110	-49
1002.186	-1553
1002.262	-397
1002.338	-1568
1002.414	-1077
1002.490	-573
1002.566	-804
1002.642	-2010
1002.718	-68
1002.794	-509
1002.870	-1725
1002.945	-1782
1003.021	-1040
1003.097	-603
1003.173	-582
1003.248	-1708
1003.324	-216
1003.400	-1173
1003.475	-1684
1003.551	-1166
1003.626	-124
1003.702	-1218
1003.777	-1199
1003.853	-971
1003.928	-900
1004.004	-1208
1004.079	95
1004.155	-821
1004.230	-1091
1004.305	-328
1004.381	-2110
1004.456	-1136
1004.531	-334
1004.607	-953
1004.682	-1248
1004.757	-1223
1004.832	-929
1004.907	-1349
1004.982	-976
1005.057	-1558
1005.133	-1137
1005.208	-823
1005.283	-1280
1005.358	-935
1005.433	-1232
1005.508	-630
1005.583	-1127
1005.657	-482
1005.732	-575
1005.807	-1836
1005.882	-1412
1005.957	-1146
1006.032	-596
1006.106	-918
1006.181	-1047
1006.256	-1572
1006.331	-1321
1006.405	-1634
1006.480	-273
1006.554	-1484
1006.629	-270
1006.704	-1300
1006.778	-1115
1006.853	-396
1006.927	-1201
1007.002	-1577
1007.076	-970
1007.150	-1623
1007.225	-539
1007.299	-963
1007.373	-994
1007.448	-1680
1007.522	-981
1007.596	-1564
1007.671	-925
1007.745	-589
1007.819	-1554
1007.893	-1251
1007.967	-550
1008.041	-2146
1008.115	-608
1008.190	-1532
1008.264	187
1008.338	-2372
1008.412	-1082
1008.486	-1327
1008.560	-404
1008.633	-1651
1008.707	-1331
1008.781	-379
1008.855	-637
1008.929	-1298
1009.003	-1512
1009.076	-1870
1009.150	-1037
1009.224	-1409
1009.298	-722
1009.371	-1435
1009.445	-445
1009.519	-1013
1009.592	-1304
1009.666	-1027
1009.739	-1024
1009.813	-1699
1009.886	-566
1009.960	-1803
1010.033	-795
1010.107	-703
1010.180	-2073
1010.253	-1544
1010.327	-681
1010.400	-1792
1010.473	-1469
1010.547	-734
1010.620	-2236
1010.693	-1078
1010.766	-2156
1010.840	-438
1010.913	-577
1010.986	-1961
1011.059	-1089
1011.132	-1006
1011.205	-828
1011.278	-1389
1011.351	-1782
1011.424	-854
1011.497	-1440
1011.570	-1424
1011.643	-1525
1011.716	-1332
1011.789	-1229
1011.862	-1872
1011.934	-781
1012.007	-1864
1012.080	-1454
1012.153	-970
1012.225	-333
1012.298	-1626
1012.371	-1341
1012.443	-675
1012.516	-2238
1012.588	-1452
1012.661	-868
1012.733	-2112
1012.806	-732
1012.879	-1645
1012.951	-1035
1013.023	-1305
1013.096	-1120
1013.168	-1025
1013.241	-476
1013.313	-895
1013.385	-1780
1013.458	-1874
1013.530	-636
1013.602	-1494
1013.674	-1577
1013.746	-1580
1013.819	-1478
1013.891	-563
1013.963	-2070
1014.035	-1371
1014.107	-993
1014.179	-616
1014.251	-1098
1014.323	-1289
1014.395	-1227
1014.467	-1170
1014.539	-778
1014.611	-1976
1014.683	-2166
1014.754	-1249
1014.826	-1092
1014.898	-2130
1014.970	-1532
1015.042	-975
1015.113	-1066
1015.185	-1259
1015.257	-2770
1015.328	-1497
1015.400	-1899
1015.471	-943
1015.543	-1721
1015.615	-664
1015.686	-1673
1015.757	-1193
1015.829	-1676
1015.901	-1751
1015.972	-1850
1016.043	-1907
1016.115	-876
1016.186	-1072
1016.257	-1367
1016.328	-1300
1016.400	-995
1016.471	-2385
1016.542	-890
1016.613	-1418
1016.685	-583
1016.756	-1086
1016.827	-2162
1016.898	-1598
1016.969	-795
1017.040	-1676
1017.111	-1509
1017.182	-1040
1017.253	-1093
1017.324	-1647
1017.395	-1935
1017.466	-1861
1017.537	-1994
1017.608	-1186
1017.678	-1388
1017.749	-1277
1017.820	-1315
1017.891	-1701
1017.961	-2318
1018.032	-1823
1018.103	-1359
1018.173	-1870
1018.244	-893
1018.315	-1959
1018.385	-1259
1018.456	-2416
1018.526	-2706
1018.597	-2435
1018.667	-1384
1018.738	-2018
1018.808	-1500
1018.878	-1853
1018.949	-822
1019.019	-1929
1019.089	-944
1019.160	-1970
1019.230	-2000
1019.300	-1006
1019.371	-2236
1019.441	-862
1019.511	-1124
1019.581	-1461
1019.651	-1271
1019.721	-1115
1019.791	-1675
1019.861	-1363
1019.931	-1824
1020.001	-1514
1020.071	-2090
1020.141	-1949
1020.211	-963
1020.281	-2039
1020.351	-1664
1020.421	-978
1020.491	-1035
1020.560	-1368
1020.630	-1324
1020.700	-1961
1020.770	-1206
1020.839	-1431
1020.909	-2091
1020.979	-2055
1021.048	-1225
1021.118	-1964
1021.187	-1586
1021.257	-1520
1021.326	-867
1021.396	-1753
1021.465	-1636
1021.535	-2016
1021.604	-1932
1021.674	-2176
1021.743	-1396
1021.812	-2070
1021.882	-1542
1021.951	-1356
1022.020	-1561
1022.089	-1381
1022.159	-1409
1022.228	-1501
1022.297	-1663
1022.366	-2490
1022.435	-2233
1022.504	-1182
1022.573	-1797
1022.642	-1840
1022.711	-1748
1022.781	-1798
1022.849	-1824
1022.918	-1656
1022.987	-1521
1023.056	-2206
1023.125	-1326
1023.194	-1249
1023.263	-1249
1023.331	-1421
1023.400	-1893
1023.469	-1695
1023.538	-1062
1023.606	-1946
1023.675	-708
1023.744	-2115
1023.812	-2071
1023.881	-1986
1023.949	-1379
1024.018	-2026
1024.086	-2288
1024.155	-1762
1024.223	-1425
1024.292	-2084
1024.360	-1723
1024.429	-1157
1024.497	-1762
1024.565	-1799
1024.634	-2345
1024.702	-1057
1024.770	-1540
1024.838	-1864
1024.907	-1249
1024.975	-2041
1025.043	-562
1025.111	-2214
1025.179	-1596
1025.247	-1622
1025.315	-2232
1025.383	-1375
1025.451	-1811
1025.519	-2054
1025.587	-2331
1025.655	-1490
1025.723	-1826
1025.791	-1447
1025.859	-978
1025.927	-1233
1025.995	-1699
1026.062	-1117
1026.130	-1733
1026.198	-2340
1026.266	-1738
1026.333	-2548
1026.401	-1485
1026.469	-1998
1026.536	-1127
1026.604	-1946
1026.671	-1874
1026.739	-1467
1026.806	-1955
1026.874	-1654
1026.941	-1326
1027.009	-2407
1027.076	-2265
1027.144	-2056
1027.211	-2209
1027.278	-2313
1027.345	-1417
1027.413	-1640
1027.480	-1473
1027.547	-1908
1027.614	-1713
1027.682	-2898
1027.749	-2124
1027.816	-1828
1027.883	-1462
1027.950	-1627
1028.017	-2062
1028.084	-1434
1028.151	-1329
1028.218	-2369
1028.285	-2270
1028.352	-2403
1028.419	-2034
1028.486	-1083
1028.553	-2216
1028.619	-2135
1028.686	-1051
1028.753	-2733
1028.820	-1878
1028.886	-1914
1028.953	-1537
1029.020	-1902
1029.086	-1760
1029.153	-2614
1029.220	-2449
1029.286	-1560
1029.353	-1355
1029.419	-1724
1029.486	-1933
1029.552	-2039
1029.619	-2053
1029.685	-2210
1029.751	-2311
1029.818	-1383
1029.884	-1688
1029.951	-876
1030.017	-2112
1030.083	-1958
1030.149	-2407
1030.216	-2216
1030.282	-1180
1030.348	-2074
1030.414	-2227
1030.480	-2499
1030.546	-2259
1030.612	-1934
1030.678	-2166
1030.744	-1821
1030.810	-964
1030.876	-1546
1030.942	-2270
1031.008	-1435
1031.074	-1960
1031.140	-2194
1031.206	-1291
1031.272	-2455
1031.337	-1497
1031.403	-1936
1031.469	-2242
1031.534	-2427
1031.600	-1564
1031.666	-2069
1031.731	-2523
1031.797	-2128
1031.863	-1288
1031.928	-2208
1031.994	-2464
1032.059	-2182
1032.125	-2148
1032.190	-2451
1032.256	-2911
1032.321	-2151
1032.386	-2026
1032.452	-2300
1032.517	-1907
1032.582	-2157
1032.647	-1681
1032.713	-2240
1032.778	-1588
1032.843	-2106
1032.908	-2206
1032.974	-2117
1033.039	-1727
1033.104	-2662
1033.169	-2363
1033.234	-2189
1033.299	-652
1033.364	-1186
1033.429	-1847
1033.494	-1727
1033.559	-2575
1033.624	-2230
1033.688	-2220
1033.753	-2894
1033.818	-1170
1033.883	-1966
1033.948	-2361
1034.013	-1418
1034.077	-1368
1034.142	-1380
1034.207	-1802
1034.271	-1302
1034.336	-683
1034.400	-1180
1034.465	-1608
1034.530	-2559
1034.594	-2415
1034.658	-1711
1034.723	-2485
1034.787	-2440
1034.852	-2007
1034.916	-2332
1034.981	-2362
1035.045	-2204
1035.109	-1990
1035.173	-1246
1035.238	-2603
1035.302	-2385
1035.366	-2292
1035.430	-1645
1035.495	-1651
1035.559	-2138
1035.623	-1837
1035.687	-2235
1035.751	-1544
1035.815	-1793
1035.879	-1689
1035.943	-1879
1036.007	-2658
1036.071	-1570
1036.135	-1465
1036.198	-2014
1036.262	-2287
1036.326	-2092
1036.390	-2571
1036.454	-1880
1036.517	-1745
1036.581	-1821
1036.645	-1180
1036.709	-1450
1036.772	-1947
1036.836	-1993
1036.900	-1209
1036.963	-2701
1037.026	-1693
1037.090	-2131
1037.154	-1727
1037.217	-1429
1037.280	-2445
1037.344	-1980
1037.407	-3078
1037.471	-2152
1037.534	-1763
1037.597	-2747
1037.661	-2220
1037.724	-1784
1037.787	-2354
1037.850	-1752
1037.913	-1938
1037.977	-1631
1038.040	-2153
1038.103	-2498
1038.166	-2469
1038.229	-1934
1038.292	-1716
1038.355	-2211
1038.418	-2765
1038.481	-1091
1038.544	-2047
1038.607	-2021
1038.670	-1589
1038.732	-1622
1038.795	-2074
1038.858	-2144
1038.921	-1378
1038.984	-1530
1039.046	-1989
1039.109	-2368
1039.172	-2150
1039.234	-2383
1039.297	-2267
1039.360	-2104
1039.422	-1520
1039.485	-1869
1039.547	-2295
1039.610	-1624
1039.672	-2037
1039.734	-2023
1039.797	-1684
1039.859	-2108
1039.922	-1569
1039.984	-2083
1040.046	-2043
1040.109	-3092
1040.171	-2032
1040.233	-2450
1040.295	-2201
1040.358	-2355
1040.420	-2280
1040.482	-1971
1040.544	-1343
1040.606	-1973
1040.668	-1176
1040.730	-2401
1040.792	-1454
1040.854	-1767
1040.916	-1564
1040.978	-3099
1041.040	-863
1041.102	-1979
1041.164	-1911
1041.225	-1772
1041.287	-2467
1041.349	-1984
1041.411	-2064
1041.472	-2148
1041.534	-1488
1041.596	-2556
1041.657	-2390
1041.719	-1830
1041.781	-2305
1041.842	-1985
1041.904	-1945
1041.965	-2106
1042.027	-1514
1042.088	-1517
1042.150	-1622
1042.211	-2188
1042.272	-1542
1042.334	-1112
1042.395	-1993
1042.456	-2216
1042.518	-1423
1042.579	-1538
1042.640	-2105
1042.701	-2298
1042.763	-1843
1042.824	-2018
1042.885	-2271
1042.946	-1445
1043.007	-1317
1043.068	-1343
1043.129	-1910
1043.190	-2870
1043.251	-904
1043.312	-1510
1043.373	-1622
1043.434	-1613
1043.495	-2329
1043.556	-795
1043.616	-1604
1043.677	-2675
1043.738	-1604
1043.799	-2121
1043.859	-1902
1043.920	-1766
1043.981	-2332
1044.041	-1882
1044.102	-2514
1044.162	-1994
1044.223	-1782
1044.284	-1733
1044.344	-1694
1044.405	-997
1044.465	-1618
1044.525	-1874
1044.586	-1438
1044.646	-1537
1044.707	-1353
1044.767	-2006
1044.827	-1964
1044.887	-1962
1044.948	-1742
1045.008	-1401
1045.068	-1576
1045.128	-1418
1045.188	-1598
1045.249	-933
1045.309	-1006
1045.369	-1225
1045.429	-1707
1045.489	-1591
1045.549	-1445
1045.609	-1586
1045.669	-1807
1045.729	-1062
1045.789	-1340
1045.848	-1847
1045.908	-1574
1045.968	-944
1046.028	-1194
1046.088	-1609
1046.147	-1802
1046.207	-1756
1046.267	-809
1046.326	-962
1046.386	-1681
1046.446	-751
1046.505	-1018
1046.565	-756
1046.624	-931
1046.684	-630
1046.743	-715
1046.803	-474
1046.862	-737
1046.922	0
