'Start Wavelength	183.907
'End Wavelength	1046.922
'Gate Delay	5.000
'Gate Width (ms)	1.050
'Laser Output Level	0.000
'X Position	0.000
'Y Position	0.000
'Z Position	0.000
'Grid Point Number	1.000
'Shot Number	100.000
183.907	466.000
183.977	-139.000
184.047	-626
184.116	839
184.186	-107
184.256	182
184.325	-53
184.395	-557
184.465	344
184.534	475
184.604	-65
184.674	104
184.743	237
184.813	-166
184.883	-197
184.952	-217
185.022	-295
185.092	788
185.161	46
185.231	328
185.301	-393
185.370	157
185.440	-646
185.509	-547
185.579	-574
185.649	-46
185.718	-314
185.788	279
185.857	-406
185.927	483
185.996	-394
186.066	-75
186.136	54
186.205	-251
186.275	-126
186.344	-178
186.414	-749
186.483	161
186.553	303
186.622	494
186.692	-205
186.761	-292
186.831	569
186.900	-78
186.970	340
187.039	1101
187.109	543
187.178	149
187.248	609
187.317	18
187.387	-606
187.456	112
187.526	963
187.595	1170
187.664	187
187.734	602
187.803	467
187.873	-37
187.942	532
188.012	-136
188.081	113
188.150	150
188.220	226
188.289	312
188.358	-197
188.428	556
188.497	-656
188.567	207
188.636	-885
188.705	278
188.775	-40
188.844	-124
188.913	633
188.983	-470
189.052	-591
189.121	415
189.191	-589
189.260	662
189.329	-263
189.399	313
189.468	502
189.537	248
189.606	426
189.676	271
189.745	24
189.814	774
189.883	475
189.953	345
190.022	716
190.091	1917
190.161	3127
190.230	1557
190.299	5
190.368	-162
190.437	-95
190.507	171
190.576	-375
190.645	359
190.714	689
190.783	430
190.853	198
190.922	679
190.991	504
191.060	146
191.129	-1189
191.198	174
191.268	116
191.337	235
191.406	292
191.475	490
191.544	348
191.613	695
191.682	-28
191.752	-34
191.821	334
191.890	244
191.959	196
192.028	-555
192.097	349
192.166	639
192.235	364
192.304	490
192.373	-85
192.442	517
192.511	378
192.580	933
192.650	-416
192.719	461
192.788	-222
192.857	787
192.926	32
192.995	31
193.064	33
193.133	116
193.202	640
193.271	563
193.340	313
193.409	1353
193.478	-78
193.547	378
193.615	969
193.684	1468
193.753	307
193.822	704
193.891	-90
193.960	648
194.029	-400
194.098	455
194.167	-651
194.236	512
194.305	-697
194.374	298
194.443	-1049
194.512	226
194.580	624
194.649	1097
194.718	509
194.787	129
194.856	-661
194.925	1258
194.994	-377
195.062	440
195.131	706
195.200	245
195.269	275
195.338	654
195.407	662
195.475	872
195.544	942
195.613	186
195.682	359
195.751	1325
195.819	738
195.888	1062
195.957	563
196.026	446
196.094	348
196.163	-27
196.232	355
196.301	788
196.369	122
196.438	972
196.507	604
196.576	592
196.644	-226
196.713	1103
196.782	581
196.850	293
196.919	-5
196.988	190
197.056	118
197.125	121
197.194	649
197.262	320
197.331	718
197.400	-238
197.468	-204
197.537	265
197.606	668
197.674	1095
197.743	2687
197.812	1335
197.880	1941
197.949	554
198.017	2100
198.086	1191
198.155	616
198.223	682
198.292	2241
198.360	1136
198.429	18
198.497	948
198.566	479
198.635	2497
198.703	1239
198.772	1223
198.840	2159
198.909	3582
198.977	770
199.046	468
199.114	676
199.183	1162
199.251	950
199.320	582
199.388	406
199.457	358
199.525	175
199.594	243
199.662	-118
199.731	-51
199.799	-750
199.867	519
199.936	-510
200.004	320
200.073	-91
200.141	198
200.210	53
200.278	191
200.346	682
200.415	106
200.483	815
200.552	-138
200.620	428
200.688	519
200.757	-58
200.825	385
200.893	-228
200.962	345
201.030	-137
201.098	580
201.167	-102
201.235	-37
201.303	257
201.372	820
201.440	511
201.508	-277
201.577	-292
201.645	-201
201.713	373
201.781	423
201.850	590
201.918	1262
201.986	426
202.055	1243
202.123	134
202.191	1207
202.259	302
202.327	886
202.396	269
202.464	96
202.532	1138
202.600	2047
202.669	659
202.737	759
202.805	229
202.873	733
202.941	-16
203.009	553
203.078	-182
203.146	813
203.214	-582
203.282	592
203.350	-63
203.418	-44
203.487	353
203.555	682
203.623	-138
203.691	800
203.759	587
203.827	637
203.895	604
203.963	417
204.031	220
204.099	-63
204.168	281
204.236	974
204.304	356
204.372	503
204.440	-153
204.508	349
204.576	397
204.644	456
204.712	89
204.780	679
204.848	426
204.916	369
204.984	363
205.052	580
205.120	-184
205.188	718
205.256	53
205.324	-70
205.392	272
205.460	955
205.528	301
205.596	790
205.664	-46
205.732	1055
205.799	2357
205.867	5495
205.935	705
206.003	1282
206.071	82
206.139	1176
206.207	726
206.275	415
206.343	-68
206.411	1003
206.478	676
206.546	537
206.614	23
206.682	316
206.750	-651
206.818	-23
206.885	478
206.953	-1
207.021	1179
207.089	141
207.157	93
207.225	1043
207.292	61
207.360	400
207.428	36
207.496	1130
207.563	481
207.631	1042
207.699	-194
207.767	746
207.834	126
207.902	316
207.970	219
208.038	740
208.105	460
208.173	865
208.241	588
208.309	979
208.376	846
208.444	2321
208.512	934
208.579	-424
208.647	544
208.715	1393
208.782	148
208.850	1364
208.918	463
208.985	382
209.053	283
209.120	1319
209.188	-692
209.256	668
209.323	178
209.391	1297
209.459	833
209.526	727
209.594	-10
209.661	921
209.729	1276
209.796	700
209.864	365
209.932	-1020
209.999	1481
210.067	1183
210.134	625
210.202	346
210.269	856
210.337	1571
210.404	770
210.472	517
210.539	647
210.607	921
210.674	1026
210.742	1358
210.809	15
210.877	794
210.944	1561
211.012	42
211.079	1215
211.146	201
211.214	373
211.281	721
211.349	918
211.416	921
211.484	701
211.551	521
211.618	743
211.686	778
211.753	-183
211.821	1509
211.888	-176
211.955	828
212.023	460
212.090	524
212.157	127
212.225	1380
212.292	2738
212.359	5643
212.427	15951
212.494	6232
212.561	2347
212.629	837
212.696	1891
212.763	1179
212.831	489
212.898	1535
212.965	1092
213.032	1822
213.100	740
213.167	560
213.234	1336
213.301	1159
213.369	966
213.436	774
213.503	487
213.570	909
213.638	347
213.705	1181
213.772	488
213.839	1563
213.906	1877
213.973	1093
214.041	262
214.108	843
214.175	429
214.242	197
214.309	230
214.376	681
214.444	15
214.511	1348
214.578	363
214.645	1489
214.712	452
214.779	1202
214.846	304
214.913	1467
214.980	1472
215.048	1536
215.115	1553
215.182	943
215.249	1201
215.316	1665
215.383	560
215.450	1296
215.517	-195
215.584	777
215.651	-208
215.718	530
215.785	1455
215.852	879
215.919	810
215.986	787
216.053	968
216.120	961
216.187	962
216.254	1060
216.321	965
216.388	1436
216.455	1102
216.522	593
216.589	1088
216.656	2474
216.722	2759
216.789	1389
216.856	1231
216.923	1572
216.990	1610
217.057	1094
217.124	420
217.191	878
217.258	938
217.324	2100
217.391	3522
217.458	2389
217.525	1719
217.592	660
217.659	349
217.725	2071
217.792	2024
217.859	2843
217.926	6
217.993	577
218.059	1026
218.126	1301
218.193	98
218.260	910
218.327	467
218.393	804
218.460	235
218.527	-420
218.594	472
218.660	2387
218.727	2656
218.794	1549
218.860	826
218.927	564
218.994	299
219.061	343
219.127	950
219.194	2405
219.261	1042
219.327	411
219.394	1125
219.461	642
219.527	461
219.594	1602
219.661	795
219.727	387
219.794	1288
219.860	-71
219.927	505
219.994	1118
220.060	1996
220.127	2057
220.193	-50
220.260	596
220.326	1341
220.393	2469
220.460	4610
220.526	2524
220.593	876
220.659	2213
220.726	1477
220.792	7508
220.859	5142
220.925	5049
220.992	8386
221.058	9484
221.125	10759
221.191	7445
221.258	2594
221.324	2831
221.391	490
221.457	349
221.524	1047
221.590	2731
221.657	8862
221.723	6139
221.789	5096
221.856	5724
221.922	1782
221.989	1618
222.055	905
222.121	118
222.188	2043
222.254	173
222.321	225
222.387	455
222.453	-238
222.520	859
222.586	-106
222.652	680
222.719	620
222.785	1243
222.851	961
222.918	326
222.984	244
223.050	526
223.116	-415
223.183	2025
223.249	-135
223.315	593
223.382	863
223.448	769
223.514	71
223.580	989
223.647	-359
223.713	-271
223.779	603
223.845	257
223.911	331
223.978	-543
224.044	909
224.110	229
224.176	1009
224.242	432
224.309	-1005
224.375	791
224.441	495
224.507	704
224.573	-91
224.639	960
224.705	219
224.772	435
224.838	-466
224.904	1703
224.970	24
225.036	557
225.102	546
225.168	1099
225.234	888
225.300	337
225.366	-110
225.432	509
225.499	-352
225.565	621
225.631	-300
225.697	352
225.763	1034
225.829	1059
225.895	1085
225.961	1876
226.027	1606
226.093	750
226.159	2423
226.225	3033
226.291	5354
226.357	12725
226.423	5401
226.489	2976
226.554	1917
226.620	2100
226.686	1865
226.752	2850
226.818	4783
226.884	17058
226.950	16341
227.016	4878
227.082	2661
227.148	1285
227.214	1295
227.279	1806
227.345	729
227.411	1631
227.477	1507
227.543	2486
227.609	2583
227.674	2318
227.740	450
227.806	1301
227.872	764
227.938	909
228.003	2280
228.069	728
228.135	-183
228.201	878
228.267	985
228.332	34
228.398	779
228.464	2456
228.530	-305
228.595	1029
228.661	15
228.727	1750
228.792	1910
228.858	397
228.924	-951
228.990	2852
229.055	-2
229.121	2012
229.187	668
229.252	769
229.318	-254
229.384	518
229.449	973
229.515	-767
229.581	-348
229.646	1783
229.712	807
229.777	3114
229.843	2759
229.909	2482
229.974	2579
230.040	1905
230.105	697
230.171	808
230.236	2727
230.302	5135
230.368	2503
230.433	1417
230.499	1385
230.564	1840
230.630	764
230.695	1424
230.761	918
230.826	-73
230.892	2392
230.957	980
231.023	-2
231.088	491
231.154	624
231.219	1561
231.284	556
231.350	2240
231.415	83
231.481	1121
231.546	611
231.612	720
231.677	-252
231.742	-591
231.808	1255
231.873	-307
231.939	-1686
232.004	1880
232.069	2809
232.135	1034
232.200	326
232.265	1010
232.331	-74
232.396	211
232.461	-651
232.527	792
232.592	148
232.657	-98
232.723	1881
232.788	1573
232.853	700
232.918	880
232.984	-451
233.049	442
233.114	771
233.179	2005
233.245	3515
233.310	5612
233.375	275
233.440	1756
233.506	678
233.571	979
233.636	752
233.701	1050
233.766	2328
233.832	4166
233.897	705
233.962	97
234.027	989
234.092	1068
234.157	975
234.222	524
234.288	2048
234.353	9810
234.418	7690
234.483	3835
234.548	2399
234.613	919
234.678	1201
234.743	1620
234.808	9312
234.873	5214
234.938	3038
235.004	1095
235.069	1488
235.134	1147
235.199	1553
235.264	1543
235.329	49
235.394	1336
235.459	1841
235.524	1046
235.589	1008
235.654	770
235.719	-996
235.784	1064
235.849	1628
235.913	4152
235.978	4799
236.043	6306
236.108	1184
236.173	1804
236.238	2013
236.303	372
236.368	272
236.433	3032
236.498	5134
236.563	2940
236.627	4024
236.692	20150
236.757	17856
236.822	5790
236.887	4472
236.952	3676
237.017	1416
237.081	4144
237.146	2050
237.211	7983
237.276	19756
237.341	40563
237.405	16607
237.470	5181
237.535	4596
237.600	2938
237.664	1863
237.729	2101
237.794	1082
237.859	4856
237.923	3594
237.988	1965
238.053	3290
238.118	3717
238.182	11590
238.247	13741
238.312	2872
238.376	3149
238.441	842
238.506	3251
238.570	912
238.635	2168
238.700	882
238.764	36
238.829	5404
238.893	6594
238.958	2475
239.023	2680
239.087	1282
239.152	1866
239.216	274
239.281	1302
239.346	425
239.410	904
239.475	524
239.539	12276
239.604	11055
239.668	2856
239.733	1027
239.797	1052
239.862	3129
239.926	8330
239.991	3841
240.055	959
240.120	617
240.184	1573
240.249	-112
240.313	1077
240.378	921
240.442	6613
240.507	13164
240.571	4462
240.635	5208
240.700	7803
240.764	1969
240.829	121
240.893	530
240.957	1988
241.022	6093
241.086	13329
241.151	5513
241.215	1068
241.279	2233
241.344	6734
241.408	3549
241.472	921
241.537	1897
241.601	1981
241.665	-527
241.730	775
241.794	1228
241.858	1264
241.922	91
241.987	1850
242.051	655
242.115	-450
242.179	297
242.244	750
242.308	739
242.372	998
242.436	1320
242.501	1532
242.565	307
242.629	-42
242.693	1056
242.757	40
242.822	-111
242.886	1541
242.950	1495
243.014	1161
243.078	1542
243.142	1723
243.206	715
243.271	1800
243.335	762
243.399	3383
243.463	13945
243.527	48708
243.591	15261
243.655	5088
243.719	1855
243.783	2432
243.847	4212
243.911	7760
243.975	4815
244.040	2993
244.104	2902
244.168	1920
244.232	2035
244.296	4308
244.360	4797
244.424	1959
244.488	1905
244.552	2077
244.615	1216
244.679	1479
244.743	827
244.807	1549
244.871	843
244.935	2095
244.999	-802
245.063	790
245.127	1985
245.191	4366
245.255	3344
245.319	2068
245.383	959
245.446	3314
245.510	418
245.574	1268
245.638	1698
245.702	-183
245.766	5267
245.829	3613
245.893	1083
245.957	497
246.021	1519
246.085	889
246.149	1982
246.212	6618
246.276	11068
246.340	4209
246.404	2173
246.467	3324
246.531	3404
246.595	3321
246.659	2616
246.722	916
246.786	2501
246.850	3013
246.913	4384
246.977	474
247.041	1580
247.104	1920
247.168	1695
247.232	6310
247.295	15076
247.359	7081
247.423	2332
247.486	5067
247.550	3583
247.614	1154
247.677	3183
247.741	1868
247.804	1879
247.868	2079
247.932	3633
247.995	14533
248.059	3360
248.122	271
248.186	2844
248.249	4530
248.313	21138
248.376	23910
248.440	14805
248.503	5191
248.567	3917
248.630	4053
248.694	5984
248.757	9343
248.821	24538
248.884	13204
248.948	11202
249.011	18301
249.075	28668
249.138	26258
249.202	7945
249.265	4919
249.328	7941
249.392	3669
249.455	3745
249.519	2965
249.582	2455
249.645	5623
249.709	3411
249.772	2563
249.835	2223
249.899	3810
249.962	2307
250.025	2869
250.089	8707
250.152	14227
250.215	4681
250.279	4189
250.342	3525
250.405	3312
250.468	2412
250.532	4261
250.595	8212
250.658	37608
250.721	73523
250.785	20859
250.848	10740
250.911	5771
250.974	5490
251.038	6297
251.101	15924
251.164	7307
251.227	7142
251.290	6424
251.354	11038
251.417	56279
251.480	59605
251.543	33113
251.606	111006
251.669	84495
251.732	25644
251.795	23978
251.859	25153
251.922	67525
251.985	40102
252.048	13209
252.111	7816
252.174	6042
252.237	11628
252.300	30309
252.363	33379
252.426	90740
252.489	34473
252.552	16392
252.615	9419
252.678	9849
252.741	22295
252.804	32556
252.867	89939
252.930	48090
252.993	23701
253.056	12085
253.119	9283
253.182	7649
253.245	13722
253.308	9970
253.371	6986
253.434	6241
253.497	6307
253.559	14485
253.622	9349
253.685	8018
253.748	9637
253.811	4047
253.874	6332
253.937	5762
254.000	3315
254.062	8061
254.125	15593
254.188	11592
254.251	9148
254.314	4372
254.376	7297
254.439	8999
254.502	7167
254.565	8141
254.628	17681
254.690	8194
254.753	4675
254.816	3388
254.878	4105
254.941	9200
255.004	11544
255.067	4122
255.129	3016
255.192	2015
255.255	522
255.317	1400
255.380	1676
255.443	940
255.505	713
255.568	352
255.631	517
255.693	1064
255.756	239
255.819	1830
255.881	-35
255.944	553
256.006	160
256.069	1088
256.132	268
256.194	2262
256.257	9179
256.319	6590
256.382	5560
256.444	2860
256.507	542
256.569	2028
256.632	826
256.694	2703
256.757	8943
256.819	31959
256.882	11059
256.944	3989
257.007	3161
257.069	2938
257.132	2515
257.194	3432
257.257	1537
257.319	1563
257.381	1182
257.444	7078
257.506	36261
257.569	37751
257.631	11885
257.693	8021
257.756	4086
257.818	4020
257.880	1328
257.943	1881
258.005	888
258.067	1634
258.130	1273
258.192	1550
258.254	5708
258.317	3463
258.379	1188
258.441	6688
258.503	7484
258.566	11976
258.628	19555
258.690	3561
258.753	2898
258.815	5240
258.877	2198
258.939	1650
259.001	2055
259.064	1261
259.126	1557
259.188	3986
259.250	2473
259.312	1848
259.375	3646
259.437	3797
259.499	408
259.561	1429
259.623	1378
259.685	1349
259.747	1722
259.809	11347
259.872	26385
259.934	34961
259.996	30497
260.058	6418
260.120	2574
260.182	2226
260.244	1331
260.306	1369
260.368	2575
260.430	702
260.492	3071
260.554	5054
260.616	2468
260.678	12952
260.740	25944
260.802	5005
260.864	3528
260.926	2284
260.988	3331
261.050	1548
261.112	5445
261.174	22902
261.236	22520
261.298	4660
261.359	8976
261.421	17046
261.483	2963
261.545	2726
261.607	407
261.669	2520
261.731	4357
261.793	15332
261.854	3594
261.916	3242
261.978	684
262.040	2674
262.102	3298
262.164	3766
262.225	4444
262.287	1347
262.349	4300
262.411	4805
262.472	1219
262.534	4694
262.596	16626
262.658	4322
262.719	1492
262.781	3633
262.843	13743
262.904	6725
262.966	2363
263.028	5002
263.090	27877
263.151	83120
263.213	24434
263.275	9094
263.336	3532
263.398	3675
263.459	1708
263.521	1559
263.583	5010
263.644	2746
263.706	1310
263.767	888
263.829	726
263.891	815
263.952	909
264.014	510
264.075	1544
264.137	6422
264.198	2335
264.260	656
264.321	1020
264.383	3606
264.444	9004
264.506	2050
264.567	1316
264.629	3568
264.690	6446
264.752	2190
264.813	674
264.875	762
264.936	1051
264.998	449
265.059	-91
265.120	1175
265.182	1516
265.243	12316
265.305	13585
265.366	2175
265.427	1001
265.489	2134
265.550	-413
265.611	1305
265.673	276
265.734	1150
265.795	1070
265.857	257
265.918	330
265.979	3167
266.040	24244
266.102	20071
266.163	4950
266.224	2859
266.286	1815
266.347	536
266.408	1509
266.469	1421
266.530	433
266.592	642
266.653	1808
266.714	4236
266.775	983
266.836	778
266.898	104
266.959	1503
267.020	1366
267.081	1836
267.142	-237
267.203	496
267.264	-50
267.326	1376
267.387	-49
267.448	290
267.509	647
267.570	732
267.631	-458
267.692	-89
267.753	194
267.814	81
267.875	1803
267.936	6898
267.997	2273
268.058	1972
268.119	5
268.180	1849
268.241	70
268.302	633
268.363	-162
268.424	35
268.485	488
268.546	53
268.607	896
268.668	184
268.729	-601
268.790	157
268.851	699
268.912	3504
268.972	4210
269.033	1533
269.094	-92
269.155	336
269.216	254
269.277	599
269.338	130
269.398	1026
269.459	509
269.520	847
269.581	2488
269.642	2985
269.702	1369
269.763	1562
269.824	91
269.885	1560
269.945	2721
270.006	675
270.067	50
270.128	848
270.188	111
270.249	682
270.310	99
270.370	615
270.431	432
270.492	377
270.553	555
270.613	2406
270.674	6076
270.734	2183
270.795	248
270.856	1696
270.916	372
270.977	485
271.038	1598
271.098	791
271.159	1676
271.219	1904
271.280	673
271.340	1117
271.401	474
271.462	6214
271.522	2378
271.583	1573
271.643	1303
271.704	1201
271.764	766
271.825	4565
271.885	18082
271.946	30407
272.006	7661
272.066	11597
272.127	25382
272.187	6361
272.248	3325
272.308	3372
272.369	17780
272.429	9754
272.489	4079
272.550	4399
272.610	4724
272.671	3394
272.731	3750
272.791	8570
272.852	2091
272.912	2034
272.972	1321
273.033	1072
273.093	2661
273.153	2703
273.214	1015
273.274	2478
273.334	9394
273.394	24778
273.455	7011
273.515	6223
273.575	17320
273.635	6789
273.696	10151
273.756	26024
273.816	7803
273.876	4990
273.936	11352
273.997	26916
274.057	5555
274.117	2761
274.177	4351
274.237	25171
274.297	26125
274.358	17710
274.418	17661
274.478	13065
274.538	4373
274.598	4218
274.658	18911
274.718	25790
274.778	9057
274.838	5094
274.898	10188
274.958	38673
275.018	27998
275.078	17757
275.138	5196
275.198	2852
275.258	1534
275.318	3316
275.378	3663
275.438	5194
275.498	3675
275.558	14219
275.618	35150
275.678	17236
275.738	7360
275.798	5651
275.858	2809
275.918	1432
275.978	1048
276.038	1590
276.098	803
276.157	3064
276.217	10434
276.277	5091
276.337	1848
276.397	1406
276.457	2059
276.517	1535
276.576	749
276.636	861
276.696	1287
276.756	6959
276.815	4737
276.875	1321
276.935	2094
276.995	2214
277.055	1097
277.114	934
277.174	2349
277.234	9489
277.293	3349
277.353	2036
277.413	1803
277.472	2405
277.532	1040
277.592	1901
277.651	9784
277.711	21559
277.771	6612
277.830	22268
277.890	20257
277.950	13733
278.009	50022
278.069	19549
278.128	13694
278.188	22561
278.248	8443
278.307	22620
278.367	15250
278.426	4289
278.486	2811
278.545	1179
278.605	1179
278.664	2126
278.724	2014
278.783	8239
278.843	26220
278.902	7517
278.962	2627
279.021	3626
279.081	6115
279.140	6415
279.199	3564
279.259	3398
279.318	3738
279.378	5021
279.437	9439
279.496	31134
279.556	138916
279.615	131661
279.675	30443
279.734	15419
279.793	18621
279.853	21978
279.912	8356
279.971	5048
280.031	4211
280.090	5925
280.149	8978
280.208	15750
280.268	94622
280.327	114179
280.386	24276
280.445	14609
280.505	11934
280.564	6018
280.623	3847
280.682	6160
280.742	9501
280.801	2655
280.860	1495
280.919	1539
280.978	1217
281.037	1932
281.097	620
281.156	1452
281.215	1379
281.274	2320
281.333	13201
281.392	11944
281.451	1996
281.510	1412
281.569	607
281.628	1072
281.688	202
281.747	1568
281.806	1683
281.865	1165
281.924	-150
281.983	533
282.042	403
282.101	365
282.160	223
282.219	551
282.278	348
282.337	4994
282.396	3609
282.454	1576
282.513	2329
282.572	8057
282.631	4711
282.690	622
282.749	556
282.808	1736
282.867	1179
282.926	1801
282.985	-266
283.043	666
283.102	449
283.161	1122
283.220	4188
283.279	13571
283.338	2452
283.396	1186
283.455	908
283.514	-47
283.573	2535
283.631	1986
283.690	1162
283.749	613
283.808	2583
283.866	4591
283.925	445
283.984	1630
284.043	1149
284.101	1898
284.160	1277
284.219	3728
284.277	2100
284.336	2728
284.395	11624
284.453	11975
284.512	2758
284.570	3363
284.629	3580
284.688	3443
284.746	3359
284.805	4166
284.863	5631
284.922	6869
284.981	6683
285.039	9943
285.098	19643
285.156	55210
285.215	159574
285.273	163030
285.332	66576
285.390	32034
285.449	19599
285.507	13438
285.566	8682
285.624	7108
285.683	4672
285.741	3324
285.799	2312
285.858	2944
285.916	1619
285.975	1482
286.033	824
286.091	1625
286.150	82
286.208	1595
286.267	1601
286.325	987
286.383	1632
286.442	2356
286.500	837
286.558	1590
286.616	578
286.675	811
286.733	643
286.791	665
286.850	1118
286.908	2072
286.966	3998
287.024	1851
287.083	-104
287.141	717
287.199	1233
287.257	1649
287.315	1140
287.374	1791
287.432	4026
287.490	3604
287.548	986
287.606	664
287.664	1101
287.723	2500
287.781	3508
287.839	1913
287.897	2100
287.955	3209
288.013	6313
288.071	18286
288.129	73841
288.187	234490
288.245	103523
288.303	28968
288.361	16248
288.419	12064
288.477	8056
288.535	4874
288.593	3025
288.651	2817
288.709	805
288.767	1159
288.825	841
288.883	1555
288.941	1375
288.999	595
289.057	548
289.115	233
289.173	880
289.231	0
289.289	220
289.346	579
289.404	292
289.462	2218
289.520	1523
289.578	902
289.636	178
289.694	390
289.751	336
289.809	297
289.867	-617
289.925	738
289.983	149
290.040	781
290.098	-208
290.156	1229
290.214	470
290.271	-409
290.329	381
290.387	275
290.444	-901
290.502	-343
290.560	275
290.617	114
290.675	-132
290.733	5
290.790	212
290.848	5
290.906	280
290.963	64
291.021	176
291.078	-378
291.136	-251
291.194	4137
291.251	11326
291.309	2683
291.366	934
291.424	377
291.481	339
291.539	-184
291.596	132
291.654	-250
291.711	-654
291.769	537
291.826	1316
291.884	832
291.941	-359
291.999	-151
292.056	716
292.114	-56
292.171	-307
292.228	203
292.286	227
292.343	1257
292.401	3023
292.458	1266
292.515	-100
292.573	833
292.630	871
292.687	1476
292.745	724
292.802	1417
292.859	5385
292.917	11682
292.974	6422
293.031	1406
293.089	204
293.146	-19
293.203	-410
293.260	232
293.318	-1118
293.375	1158
293.432	106
293.489	-354
293.546	165
293.604	1865
293.661	8490
293.718	27766
293.775	11879
293.832	3707
293.889	1459
293.947	1709
294.004	1255
294.061	1071
294.118	2989
294.175	9797
294.232	12675
294.289	5228
294.346	1642
294.403	2240
294.460	1450
294.517	1245
294.574	259
294.631	845
294.688	498
294.745	6319
294.802	27625
294.859	28014
294.916	8250
294.973	3974
295.030	3552
295.087	2598
295.144	1003
295.201	1387
295.258	572
295.315	1697
295.372	8528
295.429	22049
295.486	8606
295.542	4498
295.599	8535
295.656	16536
295.713	10976
295.770	17464
295.827	6113
295.883	2422
295.940	2571
295.997	3207
296.054	2658
296.111	1765
296.167	675
296.224	680
296.281	-34
296.338	419
296.394	515
296.451	944
296.508	5998
296.564	13409
296.621	9157
296.678	19856
296.734	32661
296.791	9959
296.848	4786
296.904	3939
296.961	9298
297.018	19338
297.074	16129
297.131	6083
297.187	2999
297.244	6029
297.301	20780
297.357	48845
297.414	14166
297.470	5705
297.527	2115
297.583	2397
297.640	1849
297.696	619
297.753	391
297.809	81
297.866	-259
297.922	69
297.979	196
298.035	-163
298.092	2628
298.148	10137
298.204	10529
298.261	5037
298.317	8104
298.374	28628
298.430	18017
298.486	7001
298.543	4377
298.599	3529
298.656	3169
298.712	6254
298.768	21820
298.824	19494
298.881	5100
298.937	2139
298.993	1230
299.050	1703
299.106	2158
299.162	511
299.218	1241
299.275	1241
299.331	863
299.387	4952
299.443	22606
299.500	25988
299.556	7403
299.612	2710
299.668	2486
299.724	1320
299.780	1975
299.837	1387
299.893	2956
299.949	14698
300.005	18525
300.061	14914
300.117	32738
300.173	17410
300.229	4946
300.285	5348
300.341	5689
300.397	3352
300.453	1114
300.510	1614
300.566	298
300.622	1250
300.678	3745
300.734	11422
300.790	15511
300.845	24159
300.901	11652
300.957	12450
301.013	12041
301.069	3994
301.125	2968
301.181	2662
301.237	1300
301.293	1155
301.349	538
301.405	352
301.461	212
301.516	-459
301.572	767
301.628	2689
301.684	2766
301.740	5124
301.796	9420
301.851	6153
301.907	9813
301.963	12301
302.019	21367
302.074	68805
302.130	70072
302.186	28774
302.242	10958
302.297	6987
302.353	5206
302.409	10724
302.464	10408
302.520	6856
302.576	20480
302.631	27055
302.687	12777
302.743	4846
302.798	2137
302.854	2072
302.910	2071
302.965	2288
303.021	4319
303.076	4650
303.132	4639
303.187	6666
303.243	3302
303.299	2203
303.354	305
303.410	1202
303.465	757
303.521	1256
303.576	928
303.632	2797
303.687	5519
303.743	22051
303.798	20010
303.853	7092
303.909	1927
303.964	1741
304.020	3028
304.075	5394
304.130	3503
304.186	7318
304.241	8117
304.297	6142
304.352	3433
304.358	3254
304.407	1798
304.449	1105
304.463	877
304.518	1926
304.539	1425
304.573	614
304.629	1579
304.630	1638
304.684	4644
304.720	11504
304.739	14867
304.794	27448
304.811	23401
304.850	13278
304.902	5358
304.905	4881
304.960	2755
304.992	2368
305.015	2050
305.071	2279
305.083	1932
305.126	772
305.173	1328
305.181	1419
305.236	414
305.264	563
305.292	744
305.347	1164
305.354	1154
305.402	1132
305.445	1475
305.457	1554
305.512	2412
305.535	2737
305.567	3235
305.622	3382
305.626	3529
305.678	8645
305.716	19125
305.733	22371
305.788	27751
305.807	23923
305.843	18526
305.897	25633
305.898	25673
305.953	26683
305.988	16884
306.008	11877
306.063	5651
306.078	4874
306.118	3660
306.168	2478
306.173	2378
306.228	1624
306.259	1428
306.283	1396
306.338	899
306.349	1063
306.393	1837
306.440	2239
306.448	2267
306.503	2989
306.530	3274
306.558	5334
306.613	12565
306.620	13762
306.668	20612
306.711	24502
306.723	24056
306.778	18532
306.801	13461
306.833	8324
306.888	3327
306.892	3174
306.943	2920
306.982	2588
306.997	2487
307.052	2133
307.072	2145
307.107	2972
307.162	5662
307.163	5696
307.217	10588
307.253	13500
307.272	13827
307.327	13571
307.343	12317
307.381	9479
307.434	7496
307.436	7825
307.491	18176
307.524	27104
307.546	28109
307.600	23693
307.614	20755
307.655	12249
307.704	6342
307.710	6392
307.765	8478
307.795	11240
307.819	14579
307.874	26328
307.885	26742
307.929	19353
307.975	10484
307.984	10306
308.038	13122
308.065	16221
308.093	33379
308.148	73165
308.156	81707
308.202	129588
308.246	167834
308.257	161218
308.312	78481
308.336	47047
308.366	34173
308.421	21016
308.426	19728
308.475	12647
308.517	8878
308.530	8397
308.585	7224
308.607	6764
308.639	7196
308.694	9676
308.697	9823
308.748	22337
308.787	35418
308.803	34754
308.857	25350
308.877	20036
308.912	15146
308.967	11894
308.967	11847
309.021	16209
309.058	19800
309.076	25577
309.130	46660
309.148	54499
309.185	120525
309.238	226901
309.239	227643
309.293	247091
309.328	227427
309.348	190955
309.402	78793
309.418	50515
309.457	34397
309.508	19862
309.511	19636
309.566	18764
309.598	18827
309.620	23874
309.674	39063
309.688	42961
309.729	38986
309.778	29840
309.783	29005
309.837	18376
309.868	13253
309.892	16647
309.946	25801
309.959	28489
310.001	36961
310.049	45046
310.055	43356
310.109	25165
310.139	14424
310.163	11387
310.218	6711
310.229	5839
310.272	5291
310.319	4921
310.326	4853
310.381	4685
310.409	4545
310.435	4570
310.489	4272
310.499	4292
310.543	4866
310.589	5206
310.598	5113
310.652	4832
310.679	4434
310.706	3902
310.760	3065
310.769	2892
310.814	2384
310.859	2120
310.868	2224
310.923	2685
310.948	2939
310.977	3425
311.031	4223
311.038	4333
311.085	3956
311.128	3374
311.139	3289
311.193	3198
311.218	2994
311.247	2864
311.301	2614
311.308	2580
311.356	2987
311.398	3390
311.410	3381
311.464	3127
311.488	3061
311.518	2916
311.572	2602
311.578	2559
311.626	4194
311.668	5621
311.680	5656
311.734	5670
311.758	5653
311.788	5522
311.842	5294
311.847	5252
311.896	6878
311.937	8252
311.950	8158
312.004	7662
312.027	7393
312.058	6157
312.112	3937
312.117	3709
312.165	3996
312.207	4231
312.297	5397
312.386	4391
312.476	3774
312.566	7906
312.656	3223
312.745	3269
312.835	3323
312.925	4037
313.015	3614
313.104	4609
313.194	2149
313.284	2839
313.374	4181
313.463	3992
313.553	2638
313.643	2080
313.732	2503
313.822	1826
313.912	3171
314.001	3057
314.091	3944
314.180	5894
314.270	5234
314.360	6703
314.449	4880
314.539	2874
314.628	3315
314.718	3870
314.808	7318
314.897	2447
314.987	3072
315.076	3871
315.166	6229
315.255	6080
315.345	5033
315.434	7024
315.524	5106
315.613	5092
315.703	6484
315.792	7445
315.881	16404
315.971	6657
316.060	11577
316.150	23280
316.239	24608
316.328	8862
316.418	3457
316.507	3905
316.597	4895
316.686	5181
316.775	9379
316.865	27201
316.954	5087
317.043	2192
317.133	2125
317.222	3359
317.311	2749
317.400	2158
317.490	5199
317.579	4594
317.668	2699
317.757	6322
317.847	10025
317.936	29634
318.025	15463
318.114	7587
318.203	5580
318.293	7468
318.382	12192
318.471	11082
318.560	16484
318.649	50305
318.738	9695
318.828	6369
318.917	6919
319.006	10376
319.095	26865
319.184	62713
319.273	30000
319.362	13426
319.451	5251
319.540	4530
319.629	10078
319.718	18166
319.807	10324
319.896	18880
319.985	77216
320.074	25735
320.163	7043
320.252	14328
320.341	9092
320.430	6967
320.519	8915
320.608	5420
320.697	4544
320.786	3536
320.875	5627
320.964	7712
321.053	11913
321.142	16307
321.230	17925
321.319	12792
321.408	31473
321.497	14083
321.586	13287
321.675	21346
321.764	19189
321.852	11775
321.941	17971
322.030	12340
322.119	13524
322.207	36431
322.296	34062
322.385	14697
322.474	13602
322.562	38889
322.651	20352
322.740	15122
322.829	21416
322.917	33269
323.006	14616
323.095	10523
323.183	10498
323.272	16338
323.361	29539
323.449	107879
323.538	33364
323.626	72580
323.715	43377
323.804	16475
323.892	66642
323.981	31682
324.069	11616
324.158	36917
324.246	34089
324.335	8042
324.424	11300
324.512	4380
324.601	5348
324.689	8363
324.778	15090
324.866	21688
324.954	6541
325.043	6574
325.131	14332
325.220	27863
325.308	31627
325.397	21526
325.485	11873
325.574	2320
325.662	1271
325.750	2780
325.839	1839
325.927	2350
326.015	4526
326.104	9934
326.192	16474
326.280	3655
326.369	2894
326.457	4502
326.545	8491
326.634	4268
326.722	2455
326.810	2945
326.898	3129
326.987	2715
327.075	8585
327.163	11985
327.251	4930
327.340	5221
327.428	5657
327.516	1996
327.604	2394
327.692	3900
327.781	6104
327.869	11684
327.957	6209
328.045	4338
328.133	2611
328.221	5632
328.309	3337
328.397	3007
328.485	3987
328.574	5863
328.662	20528
328.750	14653
328.838	6286
328.926	3237
329.014	2363
329.102	5459
329.190	12316
329.278	8829
329.366	2267
329.454	2795
329.542	2194
329.630	1638
329.718	2897
329.806	3453
329.893	3150
329.981	2839
330.069	4480
330.157	15084
330.245	53438
330.333	25061
330.421	5296
330.509	6327
330.597	24394
330.684	14983
330.772	6474
330.860	10282
330.948	12481
331.036	4630
331.123	1458
331.211	3879
331.299	3493
331.387	10158
331.475	17212
331.562	5762
331.650	3347
331.738	4892
331.825	6679
331.913	2739
332.001	2172
332.089	4453
332.176	13228
332.264	35924
332.352	24931
332.439	5638
332.527	3894
332.614	3728
332.702	6496
332.790	4731
332.877	13335
332.965	33633
333.052	7437
333.140	6933
333.228	17788
333.315	4923
333.403	4972
333.490	21234
333.578	15394
333.665	19217
333.753	7888
333.840	3909
333.928	6179
334.015	21871
334.103	29516
334.190	94017
334.278	20417
334.365	7869
334.452	4631
334.540	3656
334.627	6019
334.715	10978
334.802	21990
334.889	125562
334.977	121369
335.064	11567
335.151	5232
335.239	5305
335.326	9130
335.413	39825
335.501	54818
335.588	6718
335.675	3389
335.762	6192
335.850	9639
335.937	7846
336.024	24670
336.111	121151
336.199	42693
336.286	6416
336.373	3953
336.460	2550
336.547	3465
336.635	4198
336.722	3637
336.809	3112
336.896	6638
336.983	21494
337.070	55535
337.157	91325
337.245	81518
337.332	58872
337.419	7094
337.506	3763
337.593	4939
337.680	16633
337.767	52492
337.854	14558
337.941	16119
338.028	26191
338.115	8160
338.202	9395
338.289	20503
338.376	84778
338.463	23914
338.550	28902
338.637	32692
338.724	15302
338.811	25147
338.898	4156
338.984	2974
339.071	3566
339.158	4251
339.245	12728
339.332	8672
339.419	16544
339.506	15452
339.593	2114
339.679	2666
339.766	1880
339.853	3949
339.940	8490
340.027	3477
340.113	2985
340.200	4567
340.287	3505
340.374	3524
340.460	7740
340.547	2355
340.634	6133
340.720	24200
340.807	13625
340.894	2863
340.980	3240
341.067	1902
341.154	3417
341.240	4199
341.327	12110
341.414	3343
341.500	3503
341.587	2819
341.674	3255
341.760	7134
341.847	9239
341.933	2208
342.020	447
342.106	1648
342.193	3923
342.279	5448
342.366	3566
342.452	7147
342.539	4302
342.625	10245
342.712	25419
342.798	10351
342.885	3699
342.971	1336
343.058	1665
343.144	1344
343.230	1659
343.317	2689
343.403	2003
343.490	1308
343.576	915
343.662	2518
343.749	3155
343.835	5670
343.921	11774
344.008	69898
344.094	171382
344.180	33210
344.267	9413
344.353	37339
344.439	42555
344.525	13036
344.612	4829
344.698	4658
344.784	3197
344.870	2098
344.957	1769
345.043	4418
345.129	2748
345.215	6827
345.301	4230
345.387	2094
345.474	1565
345.560	1738
345.646	3762
345.732	3424
345.818	2929
345.904	3040
345.990	3157
346.076	5023
346.162	10546
346.249	4070
346.335	2356
346.421	3448
346.507	15515
346.593	58258
346.679	12134
346.765	3978
346.851	1512
346.937	2198
347.023	3433
347.108	3167
347.194	1929
347.280	1861
347.366	4073
347.452	15361
347.538	74001
347.624	46800
347.710	36776
347.796	5585
347.882	3490
347.967	2419
348.053	4033
348.139	2988
348.225	1908
348.311	2237
348.397	1648
348.482	3427
348.568	3497
348.654	1206
348.740	1595
348.825	809
348.911	6398
348.997	30944
349.083	70494
349.168	10373
349.254	2217
349.340	2849
349.425	1871
349.511	3516
349.597	4064
349.682	8523
349.768	31353
349.854	14028
349.939	2445
350.025	2005
350.110	2648
350.196	1725
350.282	1195
350.367	1918
350.453	6855
350.538	6539
350.624	2959
350.709	3037
350.795	1703
350.880	1668
350.966	3388
351.051	5778
351.137	5156
351.222	3250
351.308	8105
351.393	25820
351.479	6164
351.564	1845
351.649	2992
351.735	1643
351.820	1685
351.906	2233
351.991	3787
352.076	16999
352.162	24529
352.247	4751
352.332	2717
352.418	5163
352.503	7968
352.588	35625
352.673	26817
352.759	5246
352.844	2676
352.929	2980
353.014	3633
353.100	2537
353.185	3030
353.270	6469
353.355	8357
353.441	3527
353.526	4197
353.611	7946
353.696	9041
353.781	5690
353.866	1929
353.952	3089
354.037	7603
354.122	17421
354.207	15867
354.292	5659
354.377	2512
354.462	1429
354.547	2769
354.632	2687
354.717	4558
354.802	1750
354.887	2300
354.972	2000
355.057	1803
355.142	873
355.227	2875
355.312	4948
355.397	11059
355.482	29312
355.567	12685
355.652	10658
355.737	11190
355.822	38931
355.907	30356
355.991	5715
356.076	1925
356.161	2617
356.246	2022
356.331	2985
356.416	9761
356.501	77062
356.585	78274
356.670	8448
356.755	6412
356.840	8171
356.924	42498
357.009	183160
357.094	61836
357.179	10188
357.263	7179
357.348	6470
357.433	7094
357.517	6122
357.602	5225
357.687	3613
357.771	3373
357.856	4652
357.941	7463
358.025	35550
358.110	182258
358.195	76131
358.279	9315
358.364	6333
358.448	22552
358.533	66718
358.617	44437
358.702	48158
358.787	15573
358.871	8677
358.956	6102
359.040	1559
359.125	2144
359.209	1699
359.294	2753
359.378	2716
359.462	5538
359.547	4454
359.631	3806
359.716	1386
359.800	2093
359.885	4780
359.969	2489
360.053	3535
360.138	1730
360.222	3926
360.306	7742
360.391	5704
360.475	7107
360.559	16217
360.644	22956
360.728	17307
360.812	38307
360.896	117573
360.981	39646
361.065	16872
361.149	5437
361.233	4913
361.318	2840
361.402	3354
361.486	3797
361.570	2771
361.654	3472
361.739	12405
361.823	70980
361.907	117355
361.991	16811
362.075	7738
362.159	15934
362.243	10509
362.327	7112
362.411	9318
362.495	6331
362.580	2811
362.664	2227
362.748	1306
362.832	2148
362.916	2894
363.000	13453
363.084	67956
363.168	131959
363.252	25250
363.336	7269
363.420	11916
363.503	53779
363.587	62679
363.671	8816
363.755	5608
363.839	8785
363.923	2453
364.007	8396
364.091	11223
364.175	17543
364.258	87185
364.342	40183
364.426	22116
364.510	12260
364.594	10520
364.677	17528
364.761	100992
364.845	68300
364.929	16707
365.013	11918
365.096	10078
365.180	12514
365.264	22030
365.347	93368
365.431	35289
365.515	7591
365.598	2606
365.682	4307
365.766	6028
365.849	8529
365.933	4359
366.017	6259
366.100	4132
366.184	1255
366.267	2320
366.351	1950
366.435	1358
366.518	1511
366.602	1449
366.685	2585
366.769	2948
366.852	5949
366.936	10787
367.019	5128
367.103	4361
367.186	9919
367.270	2248
367.353	876
367.436	2211
367.520	1179
367.603	3042
367.687	3784
367.770	9193
367.853	6414
367.937	24738
368.020	42953
368.104	7344
368.187	7451
368.270	9370
368.353	9176
368.437	17744
368.520	54550
368.603	25440
368.687	26947
368.770	51815
368.853	10495
368.936	10815
369.020	11155
369.103	3355
369.186	1154
369.269	1545
369.352	6770
369.436	9419
369.519	5202
369.602	2253
369.685	4363
369.768	2515
369.851	3265
369.934	925
370.018	4048
370.101	6948
370.184	7651
370.267	4012
370.350	7119
370.433	13331
370.516	46896
370.599	57924
370.682	12196
370.765	22461
370.848	32063
370.931	67583
371.014	24970
371.097	2439
371.180	3630
371.263	2786
371.346	324
371.429	2310
371.511	2265
371.594	5214
371.677	9425
371.760	10835
371.843	8628
371.926	58618
372.009	149483
372.091	39719
372.174	25880
372.257	73439
372.340	25135
372.423	15892
372.505	17800
372.588	6766
372.671	19234
372.754	65692
372.836	30836
372.919	23339
373.002	48240
373.085	12665
373.167	9938
373.250	24027
373.332	66812
373.415	88487
373.498	201086
373.580	61691
373.663	86953
373.746	127064
373.828	23509
373.911	9406
373.993	10233
374.076	48089
374.159	45605
374.241	17787
374.324	52348
374.406	32604
374.489	54471
374.571	171531
374.654	61143
374.736	27644
374.819	104129
374.901	142492
374.983	148594
375.066	22516
375.148	9142
375.231	38722
375.313	76480
375.395	22840
375.478	4703
375.560	3425
375.643	6127
375.725	25748
375.807	131780
375.890	106719
375.972	47916
376.054	21897
376.136	45640
376.219	17456
376.301	33207
376.383	107990
376.465	35810
376.548	17558
376.630	24163
376.712	85990
376.794	35439
376.877	3894
376.959	1355
377.041	3199
377.123	7855
377.205	8809
377.287	1476
377.369	2202
377.452	1434
377.534	1582
377.616	1796
377.698	1625
377.780	1215
377.862	1668
377.944	2642
378.026	161
378.108	2099
378.190	1359
378.272	2069
378.354	978
378.436	1682
378.518	3963
378.600	17516
378.682	14156
378.764	34806
378.846	25781
378.928	6812
379.010	8033
379.091	5138
379.173	1986
379.255	1462
379.337	3493
379.419	16167
379.501	51920
379.583	19548
379.664	4473
379.746	9640
379.828	32705
379.910	45638
379.991	40084
380.073	6359
380.155	3696
380.237	3180
380.318	1473
380.400	2189
380.482	7109
380.564	10440
380.645	7440
380.727	6633
380.809	5454
380.890	2860
380.972	1525
381.053	2798
381.135	3560
381.217	10118
381.298	34557
381.380	15402
381.461	15225
381.543	83571
381.624	101584
381.706	16174
381.787	7631
381.869	8695
381.951	33965
382.032	157699
382.113	90641
382.195	13508
382.276	8818
382.358	21864
382.439	76842
382.521	86849
382.602	146259
382.684	55759
382.765	99025
382.846	100839
382.928	150165
383.009	77118
383.090	48202
383.172	213323
383.253	337638
383.334	105435
383.416	118551
383.497	57436
383.578	22065
383.659	41714
383.741	177294
383.822	510533
383.903	240015
383.984	74986
384.066	130376
384.147	73748
384.228	13827
384.309	9858
384.390	6636
384.471	5138
384.553	5307
384.634	8275
384.715	8081
384.796	4716
384.877	6212
384.958	30831
385.039	36091
385.120	10936
385.201	5965
385.282	6357
385.363	7263
385.444	6476
385.525	11639
385.606	58957
385.687	52738
385.768	9937
385.849	11654
385.930	66882
386.011	127492
386.092	28493
386.173	4249
386.254	4178
386.335	5196
386.416	4438
386.496	18622
386.577	33428
386.658	11474
386.739	5977
386.820	7286
386.901	4881
386.981	4091
387.062	2789
387.143	4990
387.224	32108
387.304	28603
387.385	9903
387.466	4613
387.547	7131
387.627	4018
387.708	10661
387.789	62674
387.869	81578
387.950	19374
388.031	1989
388.111	1538
388.192	11434
388.273	16919
388.353	8589
388.434	3843
388.514	12116
388.595	74011
388.676	90488
388.756	32825
388.837	29236
388.917	16944
388.998	1584
389.078	3779
389.159	3558
389.239	1430
389.320	5795
389.400	3550
389.480	12773
389.561	38190
389.641	17589
389.722	4882
389.802	8272
389.883	14673
389.963	48881
390.043	31143
390.124	8928
390.204	10632
390.284	35970
390.365	23299
390.445	37308
390.525	126166
390.605	104770
390.686	20401
390.766	6466
390.846	4240
390.927	1465
391.007	1535
391.087	3477
391.167	2105
391.247	1618
391.328	7798
391.408	9866
391.488	5748
391.568	1073
391.648	3585
391.728	5604
391.808	5462
391.888	4916
391.969	17688
392.049	29508
392.129	12170
392.209	14157
392.289	43171
392.369	22090
392.449	17704
392.529	9653
392.609	7063
392.689	9785
392.769	42094
392.849	33106
392.929	20777
393.009	59816
393.089	39208
393.169	21776
393.248	72841
393.328	398168
393.408	430538
393.488	80415
393.568	17630
393.648	9170
393.728	6035
393.807	3669
393.887	4997
393.967	4334
394.047	5138
394.127	7195
394.206	13624
394.286	55391
394.366	316682
394.446	332938
394.525	59282
394.605	12664
394.685	10059
394.764	24355
394.844	44715
394.924	29720
395.003	7274
395.083	5145
395.163	4527
395.242	3819
395.322	4329
395.402	2255
395.481	6109
395.561	17632
395.640	49938
395.720	33312
395.799	58572
395.879	44973
395.958	20921
396.038	81588
396.117	412282
396.197	443367
396.276	97852
396.356	26653
396.435	18796
396.515	11836
396.594	11022
396.673	21460
396.753	93754
396.832	377885
396.912	263526
396.991	50318
397.070	11295
397.150	4521
397.229	4509
397.308	4554
397.388	5726
397.467	4496
397.546	2859
397.625	776
397.705	4792
397.784	3983
397.863	770
397.942	889
398.022	2439
398.101	14768
398.180	49966
398.259	22769
398.338	5558
398.417	2325
398.497	1479
398.576	2532
398.655	441
398.734	1677
398.813	1683
398.892	14124
398.971	58678
399.050	26444
399.129	1546
399.208	1356
399.287	1698
399.366	955
399.445	1479
399.524	1699
399.603	-147
399.682	4422
399.761	14453
399.840	63411
399.919	46742
399.998	5273
400.077	609
400.156	266
400.235	3045
400.313	1439
400.392	2015
400.471	15155
400.550	25284
400.629	5854
400.708	2972
400.786	2694
400.865	9801
400.944	10027
401.023	4261
401.102	692
401.180	798
401.259	624
401.338	1769
401.416	2818
401.495	1303
401.574	2283
401.652	759
401.731	3157
401.810	1119
401.888	193
401.967	-509
402.046	1439
402.124	2898
402.203	3381
402.281	1220
402.360	1882
402.438	12682
402.517	8177
402.596	2538
402.674	1778
402.753	750
402.831	622
402.910	1500
402.988	3180
403.066	9222
403.145	5877
403.223	3586
403.302	6217
403.380	4856
403.459	3797
403.537	1609
403.615	1955
403.694	-1145
403.772	937
403.850	-14
403.929	-343
404.007	-300
404.085	2523
404.164	856
404.242	926
404.320	4539
404.398	16221
404.477	24274
404.555	108331
404.633	91633
404.711	17047
404.789	5751
404.868	1142
404.946	241
405.024	-96
405.102	480
405.180	60
405.258	-667
405.336	1300
405.415	255
405.493	3061
405.571	2366
405.649	-859
405.727	-898
405.805	2402
405.883	2000
405.961	2289
406.039	3247
406.117	278
406.195	3081
406.273	18623
406.351	84065
406.429	47812
406.507	5627
406.585	974
406.663	1537
406.740	2360
406.818	1567
406.896	572
406.974	2018
407.052	4401
407.130	45970
407.208	63675
407.285	11047
407.363	813
407.441	1206
407.519	257
407.596	806
407.674	3378
407.752	9840
407.830	13683
407.907	6341
407.985	1703
408.063	1148
408.141	368
408.218	3197
408.296	1196
408.373	172
408.451	1284
408.529	540
408.606	-6
408.684	-139
408.762	-365
408.839	-993
408.917	-284
408.994	-563
409.072	-510
409.149	-662
409.227	881
409.304	166
409.382	559
409.459	128
409.537	1182
409.614	260
409.692	168
409.769	-312
409.846	526
409.924	2367
410.001	79
410.079	543
410.156	586
410.233	1255
410.311	503
410.388	1072
410.465	760
410.543	8
410.620	902
410.697	191
410.775	304
410.852	-447
410.929	499
411.006	2003
411.083	30
411.161	2170
411.238	2861
411.315	2188
411.392	1115
411.469	1703
411.547	1659
411.624	-1158
411.701	380
411.778	278
411.855	4110
411.932	2141
412.009	473
412.086	209
412.163	1396
412.240	916
412.317	1925
412.394	992
412.471	377
412.548	54
412.625	315
412.702	1350
412.779	3184
412.856	1288
412.933	-249
413.010	1207
413.087	2826
413.164	12613
413.241	19988
413.318	2976
413.395	1924
413.471	2218
413.548	1583
413.625	928
413.702	954
413.779	450
413.855	184
413.932	-606
414.009	-1283
414.086	633
414.162	590
414.239	1376
414.316	13522
414.393	33682
414.469	9989
414.546	234
414.623	-162
414.699	268
414.776	529
414.853	645
414.929	510
415.006	355
415.082	574
415.159	-117
415.236	680
415.312	917
415.389	2127
415.465	3986
415.542	1319
415.618	-243
415.695	1626
415.771	1554
415.848	1027
415.924	1066
416.000	976
416.077	1017
416.153	-1358
416.230	-459
416.306	-309
416.383	570
416.459	394
416.535	102
416.612	-149
416.688	-369
416.764	224
416.841	198
416.917	462
416.993	-350
417.069	1669
417.146	2187
417.222	3039
417.298	1077
417.374	487
417.451	720
417.527	631
417.603	1019
417.679	487
417.755	-27
417.831	-1103
417.908	354
417.984	-177
418.060	-619
418.136	3216
418.212	3768
418.288	856
418.364	352
418.440	239
418.516	2406
418.592	2424
418.668	6143
418.744	8508
418.820	5510
418.896	864
418.972	-1035
419.048	85
419.124	3788
419.200	1167
419.276	-223
419.352	-488
419.428	195
419.504	-193
419.579	108
419.655	809
419.731	553
419.807	5303
419.883	10394
419.959	7930
420.034	983
420.110	3466
420.186	20427
420.262	14429
420.337	2063
420.413	835
420.489	-575
420.565	214
420.640	-400
420.716	1302
420.792	-1095
420.867	359
420.943	-611
421.019	815
421.094	921
421.170	189
421.245	-931
421.321	-711
421.397	-303
421.472	852
421.548	3384
421.623	2900
421.699	1145
421.774	1191
421.850	322
421.925	2493
422.001	1970
422.076	931
422.152	551
422.227	2628
422.302	2774
422.378	3144
422.453	6854
422.529	19744
422.604	99554
422.679	242561
422.755	117321
422.830	21459
422.905	5721
422.981	2827
423.056	1505
423.131	1722
423.207	562
423.282	382
423.357	5010
423.432	2032
423.508	1871
423.583	7613
423.658	5626
423.733	1440
423.808	1839
423.883	2155
423.959	1686
424.034	1070
424.109	521
424.184	-75
424.259	-171
424.334	-248
424.409	-380
424.484	-12
424.559	479
424.634	-295
424.709	1609
424.784	1608
424.859	-460
424.934	2248
425.009	11865
425.084	23079
425.159	6894
425.234	786
425.309	-1185
425.384	558
425.459	-777
425.534	554
425.609	-395
425.683	-994
425.758	-663
425.833	536
425.908	1222
425.983	7566
426.058	24840
426.132	8772
426.207	1494
426.282	2940
426.357	1972
426.431	826
426.506	314
426.581	114
426.655	730
426.730	-710
426.805	-1075
426.879	788
426.954	769
427.029	3907
427.103	24670
427.178	69220
427.253	28682
427.327	2584
427.402	868
427.476	4358
427.551	1239
427.625	1002
427.700	887
427.774	565
427.849	1783
427.923	-215
427.998	-873
428.072	-329
428.147	1749
428.221	11341
428.296	28999
428.370	12735
428.444	1428
428.519	3751
428.593	9362
428.667	7589
428.742	10129
428.816	7350
428.890	22116
428.965	27765
429.039	10337
429.113	12025
429.188	3222
429.262	107
429.336	2494
429.410	10373
429.485	6606
429.559	8167
429.633	6129
429.707	1509
429.781	4205
429.855	27473
429.930	40349
430.004	29649
430.078	52310
430.152	41613
430.226	48244
430.300	47010
430.374	6269
430.448	2887
430.522	15680
430.596	52571
430.670	29298
430.744	50360
430.818	81174
430.892	18287
430.966	1704
431.040	1200
431.114	-36
431.188	-34
431.262	403
431.336	-72
431.410	4049
431.484	13673
431.557	8121
431.631	161
431.705	220
431.779	3077
431.853	22584
431.927	15311
432.000	801
432.074	612
432.148	1389
432.222	449
432.295	-216
432.369	-449
432.443	2566
432.516	26332
432.590	75935
432.664	25601
432.737	2804
432.811	413
432.885	-178
432.958	-105
433.032	-1294
433.106	-775
433.179	-370
433.253	-1205
433.326	-1070
433.400	167
433.473	-120
433.547	-1888
433.620	-889
433.694	387
433.767	1547
433.841	53
433.914	-943
433.988	-1167
434.061	-502
434.134	-617
434.208	-1707
434.281	-1966
434.355	-365
434.428	145
434.501	-644
434.575	-1032
434.648	-134
434.721	-748
434.795	-1024
434.868	-560
434.941	-1034
435.014	-812
435.088	-74
435.161	487
435.234	955
435.307	1754
435.381	1088
435.454	-327
435.527	135
435.600	-219
435.673	-234
435.746	-681
435.819	-377
435.892	-425
435.966	-633
436.039	-519
436.112	-93
436.185	-1328
436.258	-1242
436.331	-1125
436.404	-1491
436.477	-1243
436.550	-387
436.623	-717
436.696	-1311
436.769	-322
436.842	-634
436.915	17
436.987	562
437.060	-105
437.133	-600
437.206	-1650
437.279	-702
437.352	-1329
437.425	-1213
437.498	-566
437.570	1791
437.643	1405
437.716	-797
437.789	-226
437.861	112
437.934	4139
438.007	1932
438.080	-468
438.152	695
438.225	4129
438.298	38793
438.370	116440
438.443	44414
438.516	6417
438.588	937
438.661	-898
438.734	-738
438.806	-27
438.879	944
438.951	726
439.024	1318
439.096	-67
439.169	-173
439.241	-1305
439.314	-416
439.386	648
439.459	3654
439.531	5861
439.604	1429
439.676	3
439.749	-1575
439.821	-996
439.893	-288
439.966	304
440.038	218
440.110	519
440.183	-310
440.255	-467
440.327	1940
440.400	14413
440.472	63881
440.544	44057
440.617	4658
440.689	1122
440.761	1656
440.833	4266
440.905	2810
440.978	-542
441.050	-696
441.122	364
441.194	-1422
441.266	-862
441.338	31
441.411	1676
441.483	15578
441.555	26480
441.627	5421
441.699	2438
441.771	2537
441.843	-60
441.915	-350
441.987	-442
442.059	-213
442.131	128
442.203	1400
442.275	2332
442.347	1430
442.419	1055
442.491	7551
442.563	20561
442.635	11529
442.706	13419
442.778	12271
442.850	801
442.922	-364
442.994	539
443.066	2339
443.137	1690
443.209	170
443.281	709
443.353	3424
443.425	12386
443.496	43235
443.568	39916
443.640	13410
443.711	2285
443.783	-35
443.855	-248
443.926	-647
443.998	196
444.070	1512
444.141	1366
444.213	2023
444.285	2311
444.356	3159
444.428	3601
444.499	94
444.571	-461
444.642	-745
444.714	-17
444.785	1738
444.857	3903
444.928	11785
445.000	7417
445.071	7129
445.143	8107
445.214	2369
445.285	4881
445.357	18832
445.428	38223
445.500	85281
445.571	55518
445.642	22201
445.714	13988
445.785	19582
445.856	5472
445.928	2562
445.999	2185
446.070	502
446.141	1761
446.213	1905
446.284	878
446.355	2208
446.426	721
446.497	677
446.569	3004
446.640	4135
446.711	3727
446.782	937
446.853	2239
446.924	3362
446.995	689
447.066	1545
447.138	3551
447.209	2513
447.280	-1138
447.351	-565
447.422	-828
447.493	959
447.564	1684
447.635	2037
447.706	744
447.777	-1223
447.847	-651
447.918	-908
447.989	1191
448.060	2374
448.131	8257
448.202	8309
448.273	4235
448.344	1726
448.414	559
448.485	32
448.556	-633
448.627	-1337
448.698	-546
448.768	-93
448.839	-604
448.910	3397
448.981	3358
449.051	1298
449.122	-1040
449.193	-220
449.263	-36
449.334	-552
449.405	851
449.475	4145
449.546	3321
449.616	3490
449.687	4098
449.758	441
449.828	-58
449.899	-392
449.969	-1319
450.040	-718
450.110	1640
450.181	2105
450.251	595
450.322	-409
450.392	-128
450.463	320
450.533	-848
450.604	615
450.674	-552
450.744	345
450.815	-455
450.885	-53
450.955	80
451.026	-898
451.096	58
451.166	952
451.237	4816
451.307	14587
451.377	6811
451.447	-151
451.518	-343
451.588	-121
451.658	813
451.728	1665
451.799	14856
451.869	20172
451.939	4676
452.009	308
452.079	-360
452.149	244
452.219	3773
452.289	18080
452.360	16303
452.430	2588
452.500	1368
452.570	1710
452.640	2666
452.710	9743
452.780	17433
452.850	11200
452.920	9676
452.990	3126
453.060	1355
453.129	1631
453.199	4589
453.269	21287
453.339	52700
453.409	84160
453.479	73780
453.549	111483
453.619	118219
453.688	54839
453.758	7794
453.828	2459
453.898	1244
453.968	1146
454.037	719
454.087	370
454.107	224
454.168	-159
454.177	-222
454.247	-603
454.249	-551
454.316	580
454.330	593
454.386	650
454.411	3802
454.456	9120
454.492	12200
454.525	15018
454.574	8106
454.595	5094
454.655	845
454.665	154
454.734	2031
454.736	2083
454.804	3919
454.817	6376
454.873	16792
454.898	19261
454.943	23770
454.979	16279
455.013	9485
455.060	5055
455.082	3097
455.141	2275
455.152	2164
455.221	12355
455.222	12542
455.291	30077
455.303	32816
455.360	43881
455.384	67090
455.430	108705
455.465	85974
455.499	65176
455.546	35975
455.569	22230
455.627	14302
455.638	12880
455.707	2583
455.708	2576
455.777	501
455.789	529
455.846	750
455.869	438
455.916	-151
455.950	132
455.985	356
456.031	489
456.054	559
456.112	800
456.124	854
456.193	-253
456.193	-261
456.262	393
456.274	634
456.332	1820
456.355	2296
456.401	3060
456.436	2325
456.470	1585
456.516	278
456.540	-321
456.597	33
456.609	114
456.678	33
456.678	26
456.747	-642
456.759	-702
456.817	-606
456.840	-455
456.886	-352
456.920	-407
456.955	-389
457.001	52
457.024	311
457.082	376
457.093	377
457.162	2047
457.163	2058
457.232	3521
457.243	3207
457.301	1879
457.324	1394
457.370	485
457.405	390
457.439	394
457.485	21
457.508	-231
457.566	142
457.577	252
457.646	562
457.647	559
457.715	-146
457.727	25
457.784	867
457.808	1242
457.853	1951
457.889	2921
457.922	3594
457.969	2510
457.991	2179
458.050	2025
458.060	2000
458.129	3282
458.130	3324
458.198	4374
458.211	3888
458.267	1711
458.292	1140
458.336	629
458.372	446
458.405	549
458.453	1181
458.474	1384
458.533	2690
458.543	2912
458.611	6923
458.614	6954
458.680	5362
458.694	4406
458.749	2112
458.775	1631
458.818	693
458.855	451
458.887	268
458.936	140
458.955	108
459.016	315
459.024	385
459.093	922
459.097	917
459.162	176
459.177	143
459.230	262
459.257	753
459.299	1571
459.338	1110
459.368	777
459.418	1039
459.437	1063
459.499	971
459.505	946
459.574	595
459.579	548
459.643	-202
459.659	-315
459.711	-46
459.740	373
459.780	375
459.820	270
459.849	562
459.900	877
459.917	920
459.981	1655
459.986	1678
460.054	910
460.061	852
460.123	322
460.141	268
460.191	996
460.222	1613
460.260	1586
460.302	1633
460.328	1872
460.382	1745
460.397	1630
460.462	416
460.465	386
460.534	1000
460.543	988
460.602	1716
460.623	2363
460.671	4021
460.703	5488
460.739	5855
460.783	5820
460.808	5318
460.864	1483
460.876	1050
460.944	557
460.945	551
461.013	949
461.024	882
461.081	664
461.104	826
461.150	732
461.184	629
461.218	953
461.264	888
461.286	673
461.345	564
461.355	584
461.423	779
461.425	776
461.491	145
461.505	154
461.559	2036
461.585	2950
461.628	4821
461.665	7360
461.696	8779
461.745	14624
461.764	15378
461.825	8179
461.832	7781
461.901	2427
461.905	2351
461.969	685
461.985	503
462.037	1307
462.065	1776
462.105	1530
462.145	1194
462.173	1841
462.225	3338
462.241	3624
462.305	6912
462.310	6925
462.378	6500
462.385	5877
462.446	2484
462.465	1925
462.514	1100
462.545	1153
462.582	920
462.625	720
462.650	612
462.705	244
462.718	254
462.785	657
462.786	679
462.854	1895
462.865	2188
462.922	3189
462.945	3821
462.990	3838
463.025	2537
463.058	1713
463.104	863
463.126	698
463.184	617
463.194	667
463.262	1190
463.264	1218
463.330	1016
463.344	1018
463.398	1875
463.424	1963
463.466	1271
463.504	839
463.533	996
463.583	1449
463.601	1502
463.663	1435
463.669	1444
463.737	1778
463.743	1830
463.805	4093
463.823	4732
463.873	6531
463.903	8202
463.940	9287
463.982	11426
464.008	11033
464.062	6667
464.076	6122
464.142	1577
464.144	1487
464.211	1208
464.221	1209
464.279	891
464.301	799
464.347	1367
464.381	1856
464.414	1616
464.461	1350
464.482	1655
464.540	2713
464.550	2599
464.617	1450
464.620	1387
464.685	1395
464.699	1557
464.753	2113
464.779	2379
464.820	2616
464.859	2738
464.888	2367
464.938	1972
464.956	2261
465.018	3208
465.023	3166
465.091	2324
465.098	2241
465.158	2460
465.177	2537
465.226	2163
465.257	1950
465.293	1915
465.336	1706
465.361	1924
465.416	2800
465.428	3100
465.495	4624
465.496	4648
465.563	7480
465.575	8126
465.631	10249
465.654	11424
465.698	8739
465.734	5022
465.765	4012
465.813	2450
465.833	1846
465.893	1141
465.900	1180
465.968	1611
465.972	1633
466.035	2012
466.052	2140
466.102	1754
466.131	1501
466.170	1372
466.210	1199
466.237	1582
466.290	2391
466.304	2361
466.369	2169
466.372	2179
466.439	2477
466.449	2515
466.506	2803
466.528	2910
466.573	3741
466.607	4349
466.641	6993
466.687	10744
466.708	11886
466.766	15528
466.775	14410
466.842	5642
466.845	5221
466.909	3623
466.925	3366
466.977	2921
467.004	2811
467.044	2526
467.083	2214
467.111	2357
467.163	2671
467.178	3099
467.242	4870
467.245	4794
467.312	3162
467.321	2948
467.379	2779
467.400	2713
467.446	3176
467.480	3512
467.559	4012
467.638	2137
467.717	3167
467.796	3201
467.875	3449
467.955	2964
468.034	5549
468.113	11974
468.192	18562
468.271	4827
468.350	2512
468.429	2020
468.508	2678
468.588	1930
468.667	3206
468.746	2640
468.825	3488
468.904	2453
468.983	3083
469.062	5514
469.141	6812
469.220	2264
469.299	3863
469.378	1235
469.456	4008
469.535	3217
469.614	3005
469.693	2691
469.772	3737
469.851	5399
469.930	4757
470.009	2886
470.088	3027
470.166	3162
470.245	6078
470.324	5706
470.403	4217
470.482	1976
470.560	2143
470.639	1931
470.718	3672
470.797	2864
470.875	3848
470.954	3861
471.033	5056
471.111	2065
471.190	2599
471.269	1684
471.347	2853
471.426	1785
471.505	3045
471.583	2236
471.662	2029
471.740	1067
471.819	2431
471.898	1811
471.976	2783
472.055	1869
472.133	2308
472.212	3722
472.290	3600
472.369	1272
472.447	2453
472.526	1403
472.604	2580
472.683	2177
472.761	2919
472.839	1661
472.918	2489
472.996	1670
473.075	2787
473.153	2360
473.231	1488
473.310	2945
473.388	2387
473.466	1324
473.545	2428
473.623	2062
473.701	2699
473.780	2168
473.858	1266
473.936	4037
474.014	1990
474.093	2586
474.171	3408
474.249	5975
474.327	3919
474.405	752
474.484	2175
474.562	1495
474.640	1885
474.718	1993
474.796	1967
474.874	1519
474.952	2259
475.030	1234
475.108	2038
475.187	834
475.265	2150
475.343	2371
475.421	2848
475.499	1898
475.577	2045
475.655	2832
475.733	5889
475.811	10944
475.889	10586
475.966	6935
476.044	1512
476.122	1400
476.200	2345
476.278	2192
476.356	1982
476.434	1592
476.512	1975
476.590	1384
476.667	2571
476.745	1491
476.823	1966
476.901	1593
476.979	2129
477.056	2365
477.134	1501
477.212	2584
477.290	2219
477.367	826
477.445	1728
477.523	1047
477.601	2115
477.678	1926
477.756	2327
477.834	2946
477.911	1991
477.989	1622
478.066	1353
478.144	2119
478.222	1288
478.299	1890
478.377	1138
478.454	1258
478.532	1227
478.609	1178
478.687	2877
478.764	1493
478.842	2101
478.919	1071
478.997	2663
479.074	481
479.152	2179
479.229	2584
479.307	2428
479.384	1304
479.461	1203
479.539	881
479.616	1612
479.694	1397
479.771	1994
479.848	1610
479.926	1987
480.003	3983
480.080	1274
480.157	1340
480.235	1384
480.312	1814
480.389	1800
480.467	3624
480.544	4852
480.621	2246
480.698	1341
480.775	1168
480.853	2399
480.930	821
481.007	2302
481.084	1473
481.161	1338
481.238	3073
481.315	1067
481.392	1216
481.470	1348
481.547	1940
481.624	1641
481.701	781
481.778	1629
481.855	1209
481.932	2236
482.009	5542
482.086	4299
482.163	1818
482.240	1993
482.317	1782
482.393	2406
482.470	1366
482.547	1694
482.624	1460
482.701	1661
482.778	954
482.855	1694
482.932	1093
483.009	1369
483.085	1068
483.162	1274
483.239	1821
483.316	-32
483.393	1483
483.469	1062
483.546	2104
483.623	2170
483.699	445
483.776	1481
483.853	2414
483.930	2936
484.006	8639
484.083	17743
484.160	8067
484.236	11189
484.313	7988
484.389	6358
484.466	5584
484.543	3981
484.619	4074
484.696	5496
484.772	5724
484.849	6536
484.925	4154
485.002	4593
485.078	5459
485.155	5314
485.231	4380
485.308	4790
485.384	4817
485.461	5660
485.537	10228
485.614	13348
485.690	4854
485.766	4258
485.843	4111
485.919	6029
485.995	6893
486.072	4626
486.148	3249
486.224	3806
486.301	3890
486.377	5265
486.453	4365
486.530	4821
486.606	6986
486.682	6834
486.758	8743
486.835	11141
486.911	6617
486.987	13302
487.063	13993
487.139	13685
487.215	10528
487.292	6416
487.368	4364
487.444	4207
487.520	6211
487.596	4204
487.672	5363
487.748	11578
487.824	16240
487.900	6838
487.976	3986
488.052	4261
488.128	5059
488.204	3974
488.280	4725
488.356	5018
488.432	12670
488.508	17554
488.584	6387
488.660	3582
488.736	4010
488.812	3835
488.888	5354
488.964	7048
489.039	12479
489.115	20782
489.191	13901
489.267	3607
489.343	3230
489.418	2996
489.494	3436
489.570	2172
489.646	3504
489.722	3666
489.797	4283
489.873	5489
489.949	13368
490.024	12278
490.100	3180
490.176	3126
490.251	3317
490.327	5345
490.403	3454
490.478	2849
490.554	2694
490.629	2523
490.705	2158
490.781	3223
490.856	1917
490.932	3495
491.007	2926
491.083	3434
491.158	3109
491.234	4983
491.309	9556
491.385	10993
491.460	2451
491.536	4136
491.611	2520
491.686	2902
491.762	4261
491.837	8819
491.913	14105
491.988	20724
492.063	25146
492.139	9349
492.214	5819
492.289	2976
492.365	2109
492.440	2940
492.515	2406
492.590	3168
492.666	1325
492.741	4140
492.816	6122
492.891	2616
492.967	3552
493.042	3575
493.117	4582
493.192	6427
493.267	13657
493.342	69010
493.418	109935
493.493	15878
493.568	2401
493.643	2944
493.718	3299
493.793	4775
493.868	4629
493.943	3159
494.018	2818
494.093	2332
494.168	2224
494.243	2078
494.318	2307
494.393	1815
494.468	1698
494.543	2470
494.618	2226
494.693	2048
494.768	2074
494.842	1518
494.917	566
494.992	2105
495.067	1672
495.142	1378
495.217	1625
495.292	2368
495.366	1623
495.441	2599
495.516	4909
495.591	4443
495.665	16549
495.740	44752
495.815	20773
495.890	2781
495.964	285
496.039	4056
496.114	2210
496.188	2630
496.263	1783
496.338	2617
496.412	2630
496.487	4029
496.561	3666
496.636	3394
496.710	2920
496.785	3653
496.860	3318
496.934	1975
497.009	2357
497.083	1743
497.158	2325
497.232	3569
497.307	4516
497.381	3616
497.455	3200
497.530	6967
497.604	4293
497.679	4108
497.753	7535
497.827	9606
497.902	8793
497.976	9930
498.050	23584
498.125	106969
498.199	122119
498.273	16987
498.348	9955
498.422	6880
498.496	5924
498.570	6262
498.645	4406
498.719	2904
498.793	5786
498.867	9685
498.941	12125
499.016	39970
499.090	118629
499.164	49042
499.238	4447
499.312	3595
499.386	4076
499.460	4418
499.534	3161
499.609	5130
499.683	7770
499.757	7857
499.831	15083
499.905	72722
499.979	75478
500.053	10644
500.127	9509
500.201	5176
500.275	4204
500.349	4115
500.422	3978
500.496	6850
500.570	12007
500.644	37195
500.718	76510
500.792	20704
500.866	3879
500.940	5059
501.013	5022
501.087	4052
501.161	5998
501.235	7461
501.309	21820
501.382	61735
501.456	61305
501.530	12457
501.603	18807
501.677	8062
501.751	2405
501.825	5061
501.898	6540
501.972	24261
502.046	17054
502.119	3427
502.193	9530
502.266	25532
502.340	13908
502.413	10290
502.487	22774
502.561	12818
502.634	3962
502.708	2552
502.781	1159
502.855	2772
502.928	-356
503.002	980
503.075	1274
503.149	2706
503.222	2164
503.295	2168
503.369	2988
503.442	4659
503.516	15590
503.589	45261
503.662	31251
503.736	8810
503.809	19947
503.882	16587
503.956	22415
504.029	22443
504.102	7362
504.175	10423
504.249	2428
504.322	2963
504.395	2439
504.468	2111
504.542	1140
504.615	660
504.688	2442
504.761	-677
504.834	3006
504.907	2127
504.980	3438
505.053	1638
505.127	462
505.200	4732
505.273	3340
505.346	1185
505.419	168
505.492	2109
505.565	191
505.638	1457
505.711	-435
505.784	751
505.857	1065
505.930	2746
506.003	-234
506.076	2998
506.149	1851
506.221	1658
506.294	3939
506.367	6914
506.440	32108
506.513	19960
506.586	3677
506.659	1421
506.731	1973
506.804	999
506.877	2146
506.950	2518
507.022	1514
507.095	670
507.168	2904
507.241	1914
507.313	1384
507.386	359
507.459	3174
507.531	888
507.604	325
507.677	1436
507.749	-375
507.822	3353
507.894	2141
507.967	5118
508.040	1484
508.112	2358
508.185	2067
508.257	-92
508.330	3449
508.402	1131
508.475	1033
508.547	2436
508.620	1753
508.692	3743
508.765	3286
508.837	1081
508.909	1458
508.982	956
509.054	1894
509.127	1427
509.199	686
509.271	1121
509.344	181
509.416	1903
509.488	701
509.560	1784
509.633	1465
509.705	1926
509.777	1235
509.849	3505
509.922	1771
509.994	715
510.066	1355
510.138	436
510.210	5544
510.283	3229
510.355	3008
510.427	2669
510.499	2187
510.571	2065
510.643	1335
510.715	5086
510.787	1720
510.859	3972
510.931	1748
511.003	3134
511.076	3616
511.148	1148
511.219	1400
511.291	3564
511.363	4449
511.435	2165
511.507	-157
511.579	2039
511.651	1662
511.723	1520
511.795	1931
511.867	1627
511.939	1804
512.010	4534
512.082	3760
512.154	832
512.226	1058
512.298	4028
512.369	3469
512.441	3696
512.513	3128
512.585	1413
512.656	2636
512.728	1789
512.800	1548
512.871	2579
512.943	1441
513.015	190
513.086	1813
513.158	1777
513.230	1461
513.301	3440
513.373	5088
513.444	1992
513.516	1608
513.588	1680
513.659	2385
513.731	3139
513.802	212
513.874	5385
513.945	7845
514.016	2693
514.088	1966
514.159	1127
514.231	3288
514.302	4524
514.374	3519
514.445	776
514.516	7962
514.588	3809
514.659	2014
514.730	5305
514.802	4781
514.873	800
514.944	4447
515.016	2566
515.087	1982
515.158	3597
515.229	6859
515.301	2202
515.372	3914
515.443	1879
515.514	1616
515.585	368
515.656	1981
515.728	2161
515.799	535
515.870	1883
515.941	1922
516.012	1103
516.083	2846
516.154	1907
516.225	5406
516.296	5474
516.367	3314
516.438	4317
516.509	5570
516.580	7792
516.651	25838
516.722	98743
516.793	51923
516.864	9599
516.935	8469
517.006	10951
517.077	13228
517.148	27251
517.219	116858
517.289	209600
517.360	56715
517.431	19515
517.502	3757
517.573	4911
517.643	3591
517.714	3632
517.785	4603
517.856	3827
517.926	7019
517.997	8612
518.068	9722
518.138	15263
518.209	19509
518.280	73360
518.350	317573
518.421	140934
518.492	13434
518.562	6373
518.633	4055
518.703	1983
518.774	6107
518.845	10659
518.915	10616
518.986	4886
519.056	5423
519.127	8229
519.197	12512
519.268	34414
519.338	27284
519.408	5329
519.479	4393
519.549	3718
519.620	4079
519.690	1403
519.760	1911
519.831	1789
519.901	1766
519.971	2152
520.042	1864
520.112	1707
520.182	3481
520.253	3480
520.323	1454
520.393	1615
520.463	3709
520.534	-360
520.604	4172
520.674	2892
520.744	1474
520.814	3514
520.885	4523
520.955	9588
521.025	42469
521.095	19699
521.165	4396
521.235	1979
521.305	1649
521.375	2025
521.445	1933
521.515	2052
521.585	2703
521.655	140
521.725	2231
521.795	3149
521.865	-501
521.935	4109
522.005	2633
522.075	1571
522.145	2291
522.215	1600
522.285	3316
522.355	4345
522.424	10511
522.494	9061
522.564	4239
522.634	6965
522.704	20596
522.774	9161
522.843	2644
522.913	1636
522.983	2422
523.053	1344
523.122	1998
523.192	2384
523.262	9055
523.331	10527
523.401	2227
523.471	1359
523.540	488
523.610	61
523.680	836
523.749	1788
523.819	1703
523.888	1043
523.958	1025
524.027	1796
524.097	1392
524.166	781
524.236	195
524.305	3023
524.375	737
524.444	685
524.514	2303
524.583	517
524.653	658
524.722	2533
524.791	1021
524.861	1570
524.930	-851
524.999	1443
525.069	2727
525.138	1061
525.207	1281
525.277	2077
525.346	422
525.415	1464
525.484	1105
525.554	886
525.623	2041
525.692	1799
525.761	573
525.830	1924
525.900	1384
525.969	2525
526.038	3038
526.107	3403
526.176	17435
526.245	13745
526.314	6322
526.383	10353
526.452	10230
526.522	22103
526.591	25491
526.660	11085
526.729	5052
526.797	5829
526.867	9763
526.935	58446
527.004	76880
527.073	37103
527.142	3201
527.211	1629
527.280	2133
527.349	3036
527.418	-169
527.487	2679
527.555	-540
527.624	230
527.693	-396
527.762	1994
527.831	-969
527.899	1121
527.968	21
528.037	-356
528.106	1158
528.174	3228
528.243	2841
528.312	3083
528.380	5686
528.449	165
528.518	1841
528.586	-877
528.655	1583
528.723	172
528.792	-54
528.861	288
528.929	-476
528.998	1105
529.066	-378
529.135	24
529.203	-225
529.272	-185
529.340	315
529.409	1560
529.477	5
529.545	708
529.614	2673
529.682	-110
529.751	1499
529.819	3842
529.887	1452
529.956	215
530.024	1536
530.092	-264
530.161	920
530.229	1910
530.297	-275
530.365	1782
530.434	1114
530.502	-80
530.570	430
530.638	-313
530.707	278
530.775	2438
530.843	-239
530.911	188
530.979	260
531.047	-80
531.115	177
531.183	140
531.252	699
531.320	276
531.388	-252
531.456	781
531.524	-922
531.592	1463
531.660	2095
531.728	-1043
531.796	-245
531.864	755
531.932	486
532.000	-162
532.067	498
532.135	1636
532.203	2464
532.271	557
532.339	2798
532.407	8475
532.475	5634
532.542	1602
532.610	2679
532.678	1903
532.746	13933
532.814	43646
532.881	12116
532.949	2301
533.017	1272
533.084	678
533.152	302
533.220	1104
533.287	56
533.355	431
533.423	1077
533.490	-376
533.558	99
533.625	479
533.693	-156
533.761	778
533.828	1452
533.896	-208
533.963	3835
534.031	3319
534.098	4130
534.166	2152
534.233	-491
534.300	2302
534.368	327
534.435	-67
534.503	502
534.570	681
534.637	1
534.705	951
534.772	482
534.840	970
534.907	7929
534.974	9871
535.041	1442
535.109	1683
535.176	440
535.243	1644
535.310	715
535.378	561
535.445	567
535.512	518
535.579	494
535.646	-766
535.714	182
535.781	1065
535.848	211
535.915	1255
535.982	724
536.049	-203
536.116	1684
536.183	462
536.250	955
536.317	358
536.384	998
536.451	2762
536.518	2076
536.585	329
536.652	2449
536.719	2925
536.786	1086
536.853	1144
536.920	3223
536.987	5796
537.053	3277
537.120	19004
537.187	20820
537.254	1046
537.321	625
537.388	2080
537.454	-261
537.521	393
537.588	-7
537.654	1063
537.721	492
537.788	1471
537.855	594
537.921	762
537.988	-284
538.055	2026
538.121	-195
538.188	932
538.254	1787
538.321	5130
538.388	3244
538.454	1025
538.521	1441
538.587	-10
538.654	-310
538.720	956
538.787	433
538.853	1361
538.920	797
538.986	1153
539.053	969
539.119	1691
539.185	801
539.252	3045
539.318	1707
539.385	3333
539.451	-221
539.517	1981
539.583	2375
539.650	3925
539.716	15433
539.782	3546
539.849	216
539.915	1439
539.981	527
540.047	1403
540.114	1499
540.180	2566
540.246	-197
540.312	1868
540.378	3901
540.444	6947
540.510	4168
540.576	17413
540.643	6234
540.709	-181
540.775	572
540.841	1089
540.907	1734
540.973	3417
541.039	2512
541.105	3371
541.171	742
541.237	522
541.303	1287
541.369	2591
541.435	1959
541.500	3822
541.566	2758
541.632	298
541.698	702
541.764	1910
541.830	-149
541.896	719
541.961	1222
542.027	955
542.093	959
542.159	1512
542.224	921
542.290	3148
542.356	3395
542.421	7844
542.487	3611
542.553	1426
542.618	1359
542.684	717
542.750	724
542.815	2458
542.881	2713
542.947	13928
543.012	12051
543.078	1512
543.143	428
543.209	1331
543.274	525
543.340	1386
543.405	3750
543.471	7705
543.536	2080
543.602	993
543.667	-486
543.732	1688
543.798	133
543.863	1714
543.928	313
543.994	-68
544.059	947
544.124	933
544.190	-432
544.255	1274
544.320	600
544.386	567
544.451	2617
544.516	2504
544.581	2142
544.646	7403
544.712	15057
544.777	2561
544.842	965
544.907	1579
544.972	1088
545.037	1166
545.102	1835
545.168	1415
545.233	2012
545.298	2351
545.363	969
545.428	3092
545.493	5277
545.558	11399
545.623	5140
545.688	1168
545.753	1035
545.818	702
545.883	2131
545.947	1379
546.012	1683
546.077	1657
546.142	1833
546.207	802
546.272	2276
546.337	2451
546.401	2599
546.466	1248
546.531	838
546.596	1880
546.661	1600
546.725	2817
546.790	658
546.855	1323
546.919	132
546.984	2063
547.049	898
547.113	2796
547.178	1260
547.243	2733
547.307	2277
547.372	3885
547.436	3297
547.501	3095
547.565	2200
547.630	4152
547.695	2823
547.759	4287
547.823	3163
547.888	3309
547.952	2225
548.017	2904
548.081	2090
548.146	3892
548.210	4814
548.274	2964
548.339	2783
548.403	3514
548.468	1727
548.532	1321
548.596	1777
548.660	2502
548.725	3283
548.789	2836
548.853	5214
548.917	2541
548.982	4101
549.046	5626
549.110	2044
549.174	2540
549.238	2147
549.303	1757
549.367	3440
549.431	3058
549.495	1837
549.559	2166
549.623	3074
549.687	3593
549.751	5323
549.815	3761
549.879	3771
549.943	3071
550.007	3411
550.071	3082
550.135	4020
550.199	3684
550.263	2628
550.327	4435
550.391	5029
550.455	2823
550.519	2469
550.582	4006
550.646	4397
550.710	5624
550.774	3988
550.838	3904
550.901	4186
550.965	6009
551.029	4208
551.093	6571
551.156	6951
551.220	12960
551.284	17234
551.347	8945
551.411	14954
551.475	18746
551.538	6017
551.602	4372
551.666	4466
551.729	3692
551.793	2999
551.856	3336
551.920	3728
551.983	4244
552.047	3174
552.110	3622
552.174	2966
552.237	3762
552.301	3532
552.364	3760
552.428	3464
552.491	3308
552.554	3134
552.618	3989
552.681	4113
552.745	3789
552.808	8602
552.871	12287
552.934	6416
552.998	4147
553.061	4180
553.124	4986
553.187	4997
553.251	6637
553.314	6222
553.377	6872
553.440	11774
553.503	35609
553.567	68908
553.630	13445
553.693	4788
553.756	3283
553.819	2952
553.882	3477
553.945	3144
554.008	2150
554.071	2145
554.134	3428
554.197	1741
554.260	2525
554.323	3991
554.386	3408
554.449	2539
554.512	3115
554.575	1734
554.638	2422
554.701	2648
554.764	3420
554.827	2451
554.889	3082
554.952	2114
555.015	1868
555.078	1543
555.141	3814
555.203	2265
555.266	3294
555.329	2475
555.391	2657
555.454	2476
555.517	2605
555.580	1387
555.642	1579
555.705	599
555.768	1798
555.830	1998
555.893	1621
555.955	1658
556.018	2364
556.080	1319
556.143	2347
556.206	2427
556.268	3187
556.330	2342
556.393	2878
556.455	2315
556.518	3835
556.580	4505
556.643	2232
556.705	1851
556.767	611
556.830	2150
556.892	2119
556.955	3560
557.017	3974
557.079	2258
557.142	2120
557.204	1835
557.266	6799
557.328	4924
557.391	2389
557.453	1606
557.515	1030
557.577	2083
557.639	3143
557.701	1553
557.764	1386
557.826	1578
557.888	3046
557.950	1895
558.012	2568
558.074	2876
558.136	6319
558.198	13756
558.260	5575
558.322	2221
558.384	3155
558.446	3313
558.508	4031
558.570	5817
558.632	8950
558.694	14750
558.756	12719
558.818	31537
558.880	90055
558.942	28588
559.003	16296
559.065	7863
559.127	4146
559.189	3615
559.251	4302
559.312	5525
559.374	14015
559.436	49522
559.498	27521
559.559	3868
559.621	3702
559.683	5178
559.744	8170
559.806	22632
559.868	36293
559.929	7204
559.991	4644
560.052	4685
560.114	14787
560.176	10191
560.237	8586
560.299	15157
560.360	4958
560.422	2100
560.483	3041
560.545	2341
560.606	2162
560.667	779
560.729	1919
560.790	1610
560.852	2843
560.913	1987
560.974	2393
561.036	1609
561.097	1751
561.158	1924
561.220	2450
561.281	1294
561.342	2281
561.403	3442
561.465	3596
561.526	9525
561.587	15508
561.648	3074
561.709	2210
561.771	2188
561.832	2509
561.893	1115
561.954	1823
562.015	984
562.076	1521
562.137	2072
562.198	1527
562.259	1322
562.320	1564
562.381	1114
562.442	3409
562.503	3093
562.564	2830
562.625	2107
562.686	1058
562.747	1644
562.808	2295
562.869	1596
562.930	2921
562.991	2434
563.051	2382
563.112	1860
563.173	2532
563.234	1447
563.294	1596
563.355	1573
563.416	2521
563.477	2209
563.537	1456
563.598	2785
563.659	3601
563.720	1863
563.780	2828
563.841	1939
563.901	2825
563.962	2142
564.023	3318
564.083	2938
564.144	3485
564.204	1860
564.265	2700
564.325	2435
564.386	9265
564.446	8305
564.507	2493
564.567	1557
564.628	2221
564.688	2439
564.749	2265
564.809	2739
564.869	4146
564.930	1914
564.990	2693
565.050	2073
565.111	1992
565.171	1520
565.231	2157
565.292	2910
565.352	2124
565.412	2429
565.472	1880
565.532	2522
565.593	1747
565.653	2274
565.713	2678
565.773	2901
565.833	3429
565.893	5030
565.953	2849
566.013	2102
566.074	3639
566.134	4398
566.194	8672
566.254	8283
566.314	5523
566.374	2303
566.434	2891
566.494	3077
566.554	3859
566.614	2426
566.673	2569
566.733	4090
566.793	3793
566.853	2994
566.913	4567
566.973	3396
567.033	4025
567.092	4454
567.152	4190
567.212	4348
567.272	4031
567.331	4953
567.391	5044
567.451	4841
567.511	6983
567.570	7318
567.630	4366
567.690	4035
567.749	4515
567.809	4414
567.868	4613
567.928	5437
567.988	7125
568.047	7721
568.107	8086
568.166	10721
568.226	17892
568.285	25473
568.345	20132
568.404	15735
568.464	14611
568.523	13543
568.582	13346
568.642	14721
568.701	17875
568.761	25428
568.820	43943
568.879	41910
568.939	29958
568.998	20838
569.057	16160
569.116	11808
569.176	10687
569.235	8890
569.294	7374
569.353	6236
569.413	6006
569.472	6224
569.531	4904
569.590	5047
569.649	3774
569.708	4467
569.767	4421
569.827	4413
569.886	4072
569.945	3354
570.004	3865
570.063	3758
570.122	3451
570.181	3925
570.240	4367
570.299	4229
570.358	4705
570.417	3336
570.475	3358
570.534	3172
570.593	3557
570.652	3689
570.711	3261
570.770	2760
570.829	4791
570.887	2871
570.946	3835
571.005	2865
571.064	3153
571.122	3793
571.181	4286
571.240	2781
571.299	3191
571.357	3840
571.416	4114
571.475	4624
571.533	4730
571.592	2702
571.650	3801
571.709	2293
571.768	2024
571.826	2303
571.885	2486
571.943	2733
572.002	2150
572.060	3023
572.119	2785
572.177	2090
572.236	2512
572.294	1766
572.352	2961
572.411	2182
572.469	2950
572.528	2430
572.586	2063
572.644	2898
572.703	4080
572.761	2567
572.819	2905
572.877	2046
572.936	2324
572.994	1305
573.052	1971
573.110	1070
573.169	2456
573.227	1303
573.285	2158
573.343	1661
573.401	2197
573.459	3084
573.517	2566
573.576	2581
573.634	3340
573.692	2044
573.750	2001
573.808	1927
573.866	2686
573.924	4352
573.982	4597
574.040	2198
574.098	3462
574.155	2172
574.213	2064
574.271	2244
574.329	2322
574.387	1854
574.445	1792
574.503	1702
574.560	1411
574.618	1313
574.676	1859
574.734	1390
574.792	2848
574.849	1758
574.907	1995
574.965	2714
575.022	1793
575.080	1423
575.138	1973
575.195	2507
575.253	2813
575.311	2400
575.368	1853
575.426	1823
575.483	2675
575.541	2372
575.598	1981
575.656	3070
575.713	2969
575.771	1106
575.828	1676
575.886	1691
575.943	2548
576.001	2831
576.058	2758
576.115	1975
576.173	3798
576.230	4564
576.287	3962
576.345	3786
576.402	2986
576.459	3196
576.517	2755
576.574	3913
576.631	3855
576.688	2578
576.746	2468
576.803	2721
576.860	2807
576.917	2585
576.974	2626
577.031	2199
577.089	3515
577.146	2146
577.203	3665
577.260	3959
577.317	3634
577.374	3711
577.431	3980
577.488	3436
577.545	2556
577.602	3914
577.659	3693
577.716	4690
577.773	6714
577.830	4437
577.886	3740
577.943	2383
578.000	3296
578.057	4096
578.114	4140
578.171	4895
578.227	5478
578.284	4938
578.341	4891
578.398	3860
578.454	5139
578.511	4966
578.568	5325
578.625	4098
578.681	3798
578.738	2824
578.794	3654
578.851	3600
578.908	2832
578.964	2454
579.021	3299
579.077	2470
579.134	2739
579.190	2285
579.247	2486
579.303	1998
579.360	2266
579.416	2107
579.473	2477
579.529	2006
579.586	3327
579.642	2578
579.698	3172
579.755	3475
579.811	3608
579.867	3197
579.924	3801
579.980	3103
580.036	4771
580.093	5584
580.149	7671
580.205	9704
580.261	7638
580.317	6704
580.374	6366
580.430	6090
580.486	6569
580.542	4121
580.598	4120
580.619	4135
580.654	4165
580.692	3995
580.710	3916
580.765	3669
580.767	3665
580.823	3715
580.838	3673
580.879	3569
580.911	3696
580.935	3800
580.984	2579
580.991	2415
581.047	3685
581.057	3746
581.103	4026
581.130	4307
581.159	4608
581.203	4775
581.215	4818
581.270	5528
581.276	5444
581.326	4712
581.349	4498
581.382	4142
581.422	3708
581.438	3557
581.494	3678
581.494	3675
581.550	3309
581.567	3619
581.606	4267
581.640	3419
581.661	2927
581.713	4278
581.717	4387
581.773	3183
581.786	3404
581.829	4109
581.859	3817
581.885	3629
581.932	3510
581.940	3467
581.996	3929
582.004	3879
582.052	3630
582.077	3622
582.107	3605
582.150	3899
582.163	4003
582.219	3887
582.223	3902
582.274	4043
582.296	3896
582.330	3674
582.368	4173
582.386	4419
582.441	4000
582.441	4000
582.497	4591
582.514	4646
582.552	4883
582.587	6251
582.608	6976
582.659	5067
582.663	4923
582.719	4317
582.732	4363
582.774	4593
582.805	4387
582.830	4233
582.877	4637
582.885	4657
582.941	3830
582.950	3861
582.996	4376
583.023	4795
583.052	5276
583.095	5444
583.107	5465
583.162	6419
583.168	6482
583.218	6927
583.240	6556
583.273	5976
583.313	5658
583.328	5585
583.384	5719
583.385	5686
583.439	4640
583.458	4819
583.494	5066
583.531	4140
583.549	3746
583.603	4725
583.605	4755
583.660	4126
583.676	4299
583.715	4763
583.748	4443
583.770	4239
583.820	4645
583.825	4660
583.881	4385
583.893	4408
583.936	4691
583.965	4650
583.991	4653
584.038	4546
584.046	4483
584.101	4988
584.110	4897
584.156	4708
584.183	4545
584.211	4158
584.255	4485
584.266	4675
584.321	4006
584.328	4122
584.376	4779
584.400	4511
584.431	4173
584.472	4898
584.486	5088
584.541	4610
584.545	4626
584.596	5277
584.617	5308
584.651	5539
584.689	6076
584.706	6109
584.761	5609
584.762	5607
584.816	5704
584.834	5720
584.871	5776
584.906	5948
584.926	5916
584.978	5683
584.980	5695
585.035	6543
585.051	6621
585.090	6862
585.123	7125
585.145	7182
585.195	7824
585.200	8001
585.254	10277
585.267	11007
585.309	13762
585.340	16625
585.364	17259
585.412	12912
585.419	12336
585.473	10010
585.484	9666
585.528	9919
585.556	11087
585.583	13361
585.628	17760
585.637	19575
585.692	35023
585.700	37939
585.747	47091
585.772	41833
585.801	29168
585.845	13165
585.856	11289
585.910	8558
585.917	8336
585.965	7939
585.989	7720
586.019	7793
586.061	8162
586.074	8215
586.128	8804
586.133	8777
586.183	8700
586.205	8989
586.237	9271
586.277	9252
586.292	9270
586.346	9594
586.349	9593
586.401	9324
586.421	9298
586.455	9745
586.493	11211
586.509	12574
586.564	16597
586.565	16780
586.618	26123
586.637	26795
586.672	21676
586.709	13877
586.727	11476
586.781	10184
586.781	10188
586.835	10038
586.853	10208
586.889	10427
586.925	10235
586.944	10144
586.996	10650
586.998	10671
587.052	10895
587.068	11014
587.106	11426
587.140	11429
587.161	11371
587.212	12040
587.215	12088
587.269	12079
587.284	12302
587.323	12701
587.356	12711
587.377	13095
587.427	14781
587.431	14853
587.485	14797
587.499	14830
587.539	15512
587.571	16293
587.593	16683
587.643	17563
587.648	17690
587.702	18793
587.715	19161
587.755	20478
587.786	21307
587.810	21824
587.858	22692
587.864	22879
587.917	25445
587.930	26094
587.971	29419
588.001	31329
588.025	32480
588.073	35847
588.079	36464
588.133	41568
588.145	42852
588.187	47985
588.217	51773
588.241	55763
588.288	64416
588.295	65802
588.348	78186
588.360	81090
588.402	93518
588.431	102124
588.456	110556
588.503	128645
588.510	131684
588.564	158418
588.575	164480
588.617	194174
588.646	216328
588.671	245742
588.718	308247
588.725	326472
588.778	480052
588.789	515910
588.832	821698
588.861	1041847
588.886	1325124
588.932	1861341
588.939	1881019
588.993	1892022
589.004	1890284
589.047	1444887
589.075	1092989
589.100	869736
589.147	475374
589.154	454909
589.207	330555
589.218	308345
589.261	285880
589.290	275861
589.314	289674
589.361	324607
589.368	343852
589.421	517968
589.433	558690
589.475	940776
589.504	1223448
589.528	1434761
589.576	1790917
589.582	1740701
589.635	1195256
589.647	1062242
589.689	631203
589.718	344384
589.742	276260
589.790	163811
589.795	158488
589.849	117663
589.861	109315
589.902	95006
589.932	84162
589.955	76074
590.004	59959
590.009	59058
590.062	50676
590.075	48655
590.115	43799
590.146	40225
590.168	38624
590.218	35223
590.222	35079
590.275	33296
590.289	32764
590.328	30713
590.360	28834
590.381	27871
590.431	25906
590.435	25842
590.488	24536
590.503	24185
590.541	23523
590.574	22813
590.594	22209
590.645	20686
590.647	20663
590.700	19572
590.716	19306
590.753	19391
590.787	19277
590.806	18675
590.859	17048
590.859	17060
590.912	16778
590.930	16707
590.965	16025
591.001	15393
591.018	15339
591.071	15088
591.072	15072
591.124	15190
591.143	15247
591.177	15199
591.214	15099
591.230	15274
591.283	15949
591.285	15944
591.336	15515
591.356	15371
591.389	15479
591.427	15464
591.442	15114
591.495	13784
591.498	13667
591.547	13440
591.569	13322
591.600	13097
591.640	12720
591.653	12937
591.706	13881
591.711	13962
591.759	13962
591.782	13944
591.811	14383
591.853	14968
591.864	14504
591.917	11971
591.924	11603
591.969	12795
591.995	13462
592.022	13150
592.066	12642
592.075	12868
592.127	14157
592.137	14394
592.180	16277
592.208	17420
592.233	15684
592.279	12253
592.285	12202
592.338	11778
592.350	11660
592.390	11221
592.421	10908
592.443	10945
592.491	10977
592.495	11006
592.548	11296
592.562	11367
592.600	11798
592.633	12155
592.653	11767
592.704	10663
592.705	10740
592.775	11542
592.846	11000
592.916	10585
592.987	12804
593.058	11759
593.128	10746
593.199	9772
593.270	10014
593.341	10507
593.411	9400
593.482	10876
593.553	10410
593.623	9383
593.694	10219
593.764	12515
593.835	9949
593.906	9261
593.976	10301
594.047	11175
594.117	14679
594.188	13735
594.258	9996
594.329	8929
594.399	10128
594.470	9577
594.540	9937
594.611	9531
594.681	8600
594.751	10060
594.822	11744
594.892	11611
594.963	11879
595.033	10802
595.103	11132
595.174	12929
595.244	19112
595.314	22635
595.384	11423
595.455	10262
595.525	10233
595.595	10308
595.665	11535
595.736	10590
595.806	10806
595.876	10636
595.946	10266
596.016	10719
596.087	11149
596.157	10605
596.227	10762
596.297	11749
596.367	11328
596.437	13249
596.507	18848
596.577	22958
596.647	13378
596.717	11686
596.787	11887
596.857	11731
596.927	12241
596.997	11116
597.067	13663
597.137	15293
597.207	12856
597.277	12397
597.347	12331
597.417	10781
597.487	13261
597.557	11065
597.626	12348
597.696	13353
597.766	17062
597.836	22104
597.906	13554
597.975	11467
598.045	11548
598.115	11364
598.185	11874
598.254	13198
598.324	13786
598.394	14811
598.464	14946
598.533	12249
598.603	12233
598.672	13406
598.742	13225
598.812	12998
598.881	12713
598.951	12119
599.020	13041
599.090	12820
599.159	13236
599.229	12158
599.299	11914
599.368	12018
599.437	12172
599.507	13145
599.576	12709
599.646	15002
599.715	14868
599.785	13050
599.854	13175
599.924	14831
599.993	13033
600.062	11267
600.132	12099
600.201	13114
600.270	15387
600.340	13429
600.409	13122
600.478	13890
600.547	13484
600.617	14003
600.686	12438
600.755	12679
600.824	12335
600.894	11612
600.963	12003
601.032	11811
601.101	12070
601.170	11688
601.239	11254
601.308	11793
601.378	10898
601.447	11957
601.516	11014
601.585	12676
601.654	12387
601.723	12653
601.792	13133
601.861	14990
601.930	19147
601.999	16101
602.068	13106
602.137	13871
602.206	13409
602.275	14231
602.343	15785
602.412	15676
602.481	13781
602.550	13210
602.619	13999
602.688	14749
602.756	13248
602.825	13717
602.894	13627
602.963	13897
603.032	14862
603.100	13168
603.169	13581
603.238	13755
603.307	13496
603.375	14007
603.444	14637
603.513	12988
603.581	13263
603.650	15008
603.719	12765
603.787	12395
603.856	13553
603.924	13379
603.993	13579
604.061	14019
604.130	14534
604.198	15532
604.267	14797
604.335	13846
604.404	14487
604.472	14247
604.541	14300
604.609	14595
604.678	15087
604.746	15653
604.815	15627
604.883	15102
604.951	16773
605.020	15356
605.088	15251
605.156	14587
605.225	15178
605.293	14756
605.361	15536
605.429	15052
605.498	15327
605.566	15870
605.634	16184
605.702	16311
605.771	16901
605.839	16194
605.907	16138
605.975	15772
606.043	15329
606.111	14932
606.180	17641
606.248	20123
606.316	22187
606.384	16631
606.452	18493
606.520	17573
606.588	14662
606.656	13072
606.724	12417
606.792	12657
606.860	11170
606.928	10236
606.996	10514
607.064	9508
607.132	10843
607.200	11898
607.267	11888
607.335	10380
607.403	11732
607.471	10389
607.539	10918
607.607	11226
607.674	9722
607.742	11616
607.810	11214
607.878	10882
607.946	10161
608.013	10150
608.081	10900
608.149	10841
608.216	10579
608.284	12885
608.352	11221
608.419	11087
608.487	17336
608.555	11746
608.622	11662
608.690	10916
608.757	11793
608.825	12079
608.893	12467
608.960	12787
609.028	15033
609.095	17906
609.163	12700
609.230	11304
609.298	11627
609.365	10188
609.432	10528
609.500	11246
609.567	13287
609.635	13370
609.702	14112
609.769	14927
609.837	13875
609.904	11290
609.971	10554
610.039	14119
610.106	19358
610.173	36096
610.241	88540
610.308	50359
610.375	21308
610.442	11542
610.509	10387
610.577	11531
610.644	10358
610.711	10667
610.778	12080
610.845	12250
610.912	13503
610.980	16807
611.047	25036
611.114	16420
611.181	11767
611.248	10442
611.315	13720
611.382	12152
611.449	12480
611.516	13932
611.583	13005
611.650	12654
611.717	13778
611.784	13641
611.851	14351
611.918	17564
611.984	19969
612.051	34503
612.118	81271
612.185	206898
612.252	104986
612.319	21646
612.386	17501
612.452	16087
612.519	16439
612.586	21301
612.653	17631
612.719	15196
612.786	14647
612.853	12815
612.919	12031
612.986	14212
613.053	12438
613.120	11450
613.186	10671
613.253	12572
613.319	11508
613.386	11860
613.453	12389
613.519	13474
613.586	16220
613.652	21535
613.719	18980
613.785	16443
613.852	14428
613.918	15619
613.985	22566
614.051	46222
614.118	115293
614.184	94869
614.250	19083
614.317	14658
614.383	13390
614.449	12761
614.516	12412
614.582	13595
614.648	11296
614.715	11596
614.781	12043
614.847	12201
614.914	12614
614.980	11976
615.046	11847
615.112	12300
615.179	12239
615.245	13233
615.311	16606
615.377	23911
615.443	24178
615.509	15676
615.575	14689
615.642	13369
615.708	14418
615.774	16011
615.840	18358
615.906	23236
615.972	36185
616.038	70029
616.104	130472
616.170	289430
616.236	205401
616.302	39417
616.368	24441
616.434	17187
616.500	18305
616.565	19102
616.631	22912
616.697	17306
616.763	19575
616.829	29514
616.895	54650
616.961	47166
617.026	20609
617.092	13575
617.158	13711
617.224	12776
617.289	11998
617.355	11886
617.421	11193
617.487	12003
617.552	11555
617.618	9875
617.684	10391
617.749	12301
617.815	10884
617.880	10842
617.946	10299
618.012	10621
618.077	10582
618.143	10029
618.208	11660
618.274	10958
618.339	11855
618.405	9931
618.470	11350
618.536	9817
618.601	12482
618.667	10357
618.732	10794
618.798	10193
618.863	10474
618.928	9793
618.994	11234
619.059	12524
619.124	16167
619.190	11716
619.255	10244
619.320	9701
619.386	9469
619.451	8623
619.516	9731
619.581	9958
619.647	10206
619.712	10100
619.777	9869
619.842	9287
619.907	9743
619.972	9912
620.038	9340
620.103	9719
620.168	9242
620.233	9539
620.298	9188
620.363	9127
620.428	10536
620.493	9782
620.558	9159
620.623	9692
620.688	9241
620.753	9690
620.818	8926
620.883	9359
620.948	10161
621.013	9789
621.078	9414
621.143	9423
621.207	12364
621.272	10687
621.337	10962
621.402	12445
621.467	15804
621.532	15876
621.596	12239
621.661	11223
621.726	10840
621.791	10921
621.855	12330
621.920	12194
621.985	13415
622.049	15254
622.114	14218
622.179	12165
622.243	12461
622.308	11458
622.373	13750
622.437	12579
622.502	11620
622.566	10866
622.631	10264
622.695	11775
622.760	11776
622.824	11641
622.889	11884
622.953	12516
623.018	19259
623.082	16717
623.147	12115
623.211	12410
623.276	11640
623.340	9702
623.404	10793
623.469	10502
623.533	10815
623.597	10226
623.662	10286
623.726	9130
623.790	9964
623.854	9408
623.919	10805
623.983	9312
624.047	9862
624.111	10191
624.176	10725
624.240	9915
624.304	12970
624.368	9542
624.432	10787
624.496	11375
624.560	12440
624.625	11679
624.689	11336
624.753	10099
624.817	10332
624.881	9280
624.945	9008
625.009	9105
625.073	9749
625.137	9699
625.201	13855
625.265	13004
625.329	11056
625.393	10578
625.456	10319
625.520	10680
625.584	11922
625.648	15059
625.712	27098
625.776	62003
625.839	65847
625.903	21623
625.967	11999
626.031	25412
626.095	35656
626.158	12493
626.222	7396
626.286	7978
626.349	6940
626.413	7015
626.477	10048
626.540	7109
626.604	7139
626.668	8435
626.731	7320
626.795	7381
626.858	7836
626.922	6432
626.986	7973
627.049	5638
627.113	7869
627.176	7515
627.240	7277
627.303	7053
627.366	6755
627.430	6649
627.493	6406
627.557	6076
627.620	7911
627.684	6172
627.747	7250
627.810	5799
627.874	6707
627.937	5623
628.000	8307
628.064	6735
628.127	3352
628.190	6778
628.253	6472
628.317	5572
628.380	5473
628.443	5828
628.506	5832
628.569	5916
628.632	4994
628.696	5356
628.759	4411
628.822	5062
628.885	5038
628.948	4641
629.011	4955
629.074	5742
629.137	4491
629.200	4318
629.263	7006
629.326	3321
629.389	4817
629.452	4098
629.515	5414
629.578	4661
629.641	5898
629.704	4868
629.767	5458
629.830	6068
629.892	5023
629.955	3843
630.018	6667
630.081	5096
630.144	7996
630.207	4860
630.269	6979
630.332	5460
630.395	4636
630.458	5176
630.520	3349
630.583	4325
630.646	5131
630.708	3674
630.771	3734
630.834	4852
630.896	4388
630.959	4400
631.021	3531
631.084	3912
631.146	5446
631.209	5738
631.272	4254
631.334	4311
631.397	4250
631.459	4043
631.522	4688
631.584	4615
631.646	4682
631.709	5982
631.771	6801
631.834	5031
631.896	5106
631.958	3941
632.021	5120
632.083	3481
632.145	4558
632.208	4017
632.270	4813
632.332	2756
632.395	3462
632.457	5110
632.519	3149
632.581	4627
632.643	2571
632.706	3801
632.768	3135
632.830	4181
632.892	3296
632.954	3045
633.016	5098
633.078	2858
633.141	3725
633.203	3301
633.265	4075
633.327	4038
633.389	3032
633.451	5541
633.513	5400
633.575	5971
633.637	5539
633.698	4046
633.760	5182
633.822	4571
633.884	4290
633.946	4021
634.008	4166
634.070	5110
634.132	7557
634.193	5736
634.255	4012
634.317	3820
634.379	4868
634.441	3256
634.502	3319
634.564	3909
634.626	3412
634.687	2727
634.749	3570
634.811	3698
634.873	2779
634.934	3995
634.996	4323
635.057	2984
635.119	2956
635.181	4070
635.242	4845
635.304	2207
635.365	5414
635.427	2506
635.488	3897
635.550	2422
635.611	3479
635.673	1865
635.734	4267
635.796	3904
635.857	4848
635.918	2749
635.980	5707
636.041	3752
636.102	4936
636.164	4296
636.225	5389
636.286	2727
636.348	3842
636.409	3583
636.470	2370
636.531	3283
636.593	3992
636.654	3251
636.715	3387
636.776	2811
636.838	2021
636.899	4004
636.960	2058
637.021	1944
637.082	2444
637.143	2445
637.204	1990
637.265	2706
637.326	3210
637.387	2506
637.448	1258
637.509	2715
637.570	3008
637.631	3803
637.692	1811
637.753	1296
637.814	2750
637.875	2615
637.936	3390
637.997	1635
638.058	2821
638.119	4103
638.179	2623
638.240	1853
638.301	2328
638.362	1361
638.423	2327
638.483	3179
638.544	593
638.605	2378
638.666	1436
638.726	2670
638.787	2671
638.848	2499
638.908	2113
638.969	2085
639.030	1721
639.090	2058
639.151	1602
639.211	2932
639.272	4507
639.332	7127
639.393	3171
639.453	1861
639.514	2365
639.574	2784
639.635	2504
639.695	2598
639.756	697
639.816	3065
639.877	3847
639.937	8051
639.997	8824
640.058	2307
640.118	1452
640.178	2671
640.239	2016
640.299	2082
640.359	1231
640.420	1845
640.480	2494
640.540	2087
640.600	1680
640.661	2377
640.721	2602
640.781	4668
640.841	1787
640.901	3283
640.961	2950
641.021	2701
641.082	2654
641.142	5735
641.202	3498
641.262	438
641.322	3026
641.382	614
641.442	2646
641.502	2423
641.562	3740
641.622	1328
641.682	1369
641.742	2263
641.802	1803
641.861	3446
641.921	2250
641.981	3747
642.041	2594
642.101	3324
642.161	491
642.221	837
642.280	1435
642.340	1332
642.400	1220
642.460	2397
642.519	1372
642.579	1558
642.639	2852
642.698	-304
642.758	4005
642.818	1643
642.877	1197
642.937	2344
642.997	2729
643.056	4279
643.116	716
643.175	2657
643.235	1568
643.294	1474
643.354	2573
643.414	2350
643.473	3155
643.532	3427
643.592	4882
643.651	8715
643.711	19606
643.770	38386
643.830	99447
643.889	193358
643.948	33110
644.008	5334
644.067	3438
644.126	1719
644.186	2166
644.245	2783
644.304	539
644.363	3586
644.423	715
644.482	1682
644.541	1882
644.600	-464
644.659	3231
644.719	2050
644.778	4282
644.837	6878
644.896	15175
644.955	32516
645.014	10014
645.073	4210
645.132	2337
645.191	2370
645.250	771
645.309	2595
645.368	1423
645.427	2439
645.486	3023
645.545	6563
645.604	1889
645.663	1690
645.722	1419
645.781	2403
645.840	2251
645.898	2173
645.957	5636
646.016	6024
646.075	15559
646.134	30425
646.192	91548
646.251	117404
646.310	11629
646.369	3825
646.427	2620
646.486	528
646.545	1856
646.603	1612
646.662	1766
646.721	1772
646.779	663
646.838	718
646.896	2707
646.955	2527
647.014	5123
647.072	6498
647.131	19422
647.189	7092
647.248	74
647.306	2021
647.365	1995
647.423	-745
647.481	2365
647.540	147
647.598	1373
647.657	751
647.715	1271
647.773	459
647.832	1558
647.890	296
647.948	945
648.007	1418
648.065	-48
648.123	860
648.181	3652
648.240	4092
648.298	2948
648.356	827
648.414	626
648.472	831
648.531	1087
648.589	775
648.647	544
648.705	701
648.763	1193
648.821	1274
648.879	351
648.937	1238
648.995	1783
649.053	1896
649.111	3646
649.169	5131
649.227	11437
649.285	24168
649.343	67113
649.401	27705
649.459	15107
649.516	13410
649.574	15743
649.632	47235
649.690	48559
649.748	10455
649.806	10659
649.863	16761
649.921	16092
649.979	7086
650.037	2647
650.094	-102
650.152	1965
650.210	541
650.268	1308
650.325	1353
650.383	1037
650.440	144
650.498	496
650.556	1128
650.613	549
650.671	380
650.728	1710
650.786	1155
650.843	465
650.901	-436
650.958	1110
651.016	504
651.073	617
651.131	-262
651.188	-254
651.246	1303
651.303	261
651.360	1206
651.418	-356
651.475	896
651.532	-425
651.590	444
651.647	-493
651.704	-98
651.762	346
651.819	-9
651.876	732
651.933	302
651.990	861
652.048	-1064
652.105	924
652.162	1144
652.219	234
652.276	1073
652.333	1106
652.390	-578
652.448	1497
652.505	1630
652.562	1796
652.619	1360
652.676	5392
652.733	5667
652.790	428
652.847	-686
652.904	524
652.961	-1077
653.017	525
653.074	-192
653.131	621
653.188	-902
653.245	73
653.302	1026
653.359	89
653.415	957
653.472	-223
653.529	511
653.586	103
653.642	-284
653.699	1255
653.756	-460
653.813	523
653.869	571
653.926	-155
653.983	-435
654.039	703
654.096	142
654.152	1814
654.209	-663
654.266	322
654.322	-422
654.379	549
654.435	1509
654.492	1684
654.548	2089
654.605	3454
654.661	1122
654.717	116
654.774	788
654.830	526
654.887	267
654.943	585
655.000	-189
655.056	926
655.112	1140
655.168	-684
655.225	-238
655.281	1433
655.337	1201
655.394	3442
655.450	2376
655.506	2057
655.562	4152
655.618	3001
655.675	-489
655.731	179
655.787	162
655.843	620
655.899	-246
655.955	554
656.011	118
656.067	-456
656.123	-133
656.179	-376
656.235	330
656.291	-1450
656.347	1219
656.403	-106
656.459	452
656.515	656
656.571	995
656.627	701
656.683	-167
656.739	1325
656.795	650
656.850	400
656.906	970
656.962	1472
657.018	-309
657.074	-860
657.129	-23
657.185	1273
657.241	518
657.297	-103
657.352	483
657.408	11
657.464	624
657.519	-264
657.575	-577
657.630	-225
657.686	-274
657.742	24
657.797	-343
657.853	356
657.908	591
657.964	-433
658.019	-169
658.075	-222
658.130	-157
658.186	-1113
658.241	145
658.297	-1109
658.352	-267
658.407	-315
658.463	-1202
658.518	801
658.573	-274
658.629	-454
658.684	-211
658.739	522
658.795	-932
658.850	484
658.905	-526
658.960	-272
659.016	-244
659.071	519
659.126	517
659.181	-157
659.236	2309
659.291	2514
659.346	334
659.401	1171
659.457	2485
659.512	3331
659.567	1088
659.622	-473
659.677	-1403
659.732	-761
659.787	191
659.842	301
659.897	438
659.952	359
660.007	-332
660.061	-302
660.116	-1054
660.171	-677
660.226	-138
660.281	180
660.336	131
660.391	790
660.445	-930
660.500	486
660.555	-767
660.610	-121
660.664	-163
660.719	-580
660.774	155
660.828	433
660.883	-598
660.938	256
660.992	-1614
661.047	-325
661.101	-233
661.156	-1407
661.211	-565
661.265	-787
661.320	-579
661.374	-544
661.429	-128
661.483	679
661.538	-482
661.592	-739
661.647	-118
661.701	354
661.755	309
661.810	182
661.864	103
661.919	-1394
661.973	444
662.027	17
662.081	114
662.136	-378
662.190	709
662.244	232
662.299	-1179
662.353	56
662.407	-608
662.461	-349
662.515	94
662.569	-700
662.624	-369
662.678	-759
662.732	-1168
662.786	-464
662.840	-671
662.894	453
662.948	42
663.002	281
663.056	-483
663.110	-1496
663.164	-768
663.218	-585
663.272	568
663.326	-109
663.380	-406
663.434	481
663.488	-771
663.542	202
663.595	-566
663.649	67
663.703	-6
663.757	-7
663.811	-1354
663.864	-722
663.918	-220
663.972	-168
664.026	88
664.079	-888
664.133	256
664.187	3
664.240	-938
664.294	-699
664.348	315
664.401	261
664.455	-238
664.508	-852
664.562	-501
664.615	20
664.669	-978
664.722	35
664.776	443
664.829	-49
664.883	-580
664.936	-1036
664.990	-41
665.043	-259
665.097	-659
665.150	493
665.203	-638
665.257	-621
665.310	-52
665.363	94
665.417	-740
665.470	-18
665.523	-344
665.576	-260
665.630	-575
665.683	-72
665.736	-1036
665.789	-809
665.842	-818
665.895	-783
665.949	345
666.002	-448
666.055	-455
666.108	296
666.161	-246
666.214	418
666.267	179
666.320	491
666.373	-777
666.426	459
666.479	-159
666.532	-113
666.585	289
666.638	1061
666.691	-112
666.744	1167
666.796	811
666.849	925
666.902	-164
666.955	-797
667.008	-902
667.060	-42
667.113	-730
667.166	73
667.219	-788
667.271	-630
667.324	-400
667.377	-610
667.430	-61
667.482	838
667.535	763
667.587	-287
667.640	118
667.693	883
667.745	1016
667.798	1529
667.850	-613
667.903	-289
667.955	-934
668.008	-276
668.060	145
668.113	-369
668.165	-189
668.218	307
668.270	-253
668.322	-102
668.375	-260
668.427	-199
668.479	-861
668.532	-343
668.584	-17
668.636	-375
668.689	-577
668.741	-289
668.793	174
668.845	-47
668.898	635
668.950	254
669.002	-316
669.054	-644
669.106	-911
669.158	446
669.211	54
669.263	-268
669.315	1369
669.367	1425
669.419	-492
669.471	1376
669.523	33
669.575	1765
669.627	625
669.679	630
669.731	-366
669.783	801
669.835	682
669.886	-87
669.938	171
669.990	217
670.042	140
670.094	-221
670.146	443
670.197	-272
670.249	177
670.301	1085
670.353	1432
670.404	2286
670.456	3683
670.508	7228
670.560	13952
670.611	26832
670.663	47958
670.715	128758
670.766	169805
670.818	30130
670.869	5007
670.921	3043
670.972	1820
671.024	1150
671.075	396
671.127	-22
671.178	273
671.230	103
671.281	188
671.333	701
671.384	734
671.436	-19
671.487	950
671.538	1050
671.590	1014
671.641	2039
671.692	4120
671.744	8318
671.795	4166
671.846	441
671.897	-213
671.949	47
672.000	-319
672.051	81
672.102	-84
672.153	-1020
672.204	-783
672.256	-13
672.307	-25
672.358	-148
672.409	-390
672.460	97
672.511	-749
672.562	-492
672.613	-97
672.664	567
672.715	-243
672.766	76
672.817	-734
672.868	-359
672.919	-261
672.970	-786
673.021	-415
673.071	-596
673.122	86
673.173	27
673.224	-307
673.275	-562
673.326	-950
673.376	-808
673.427	-1567
673.478	90
673.528	-913
673.579	-43
673.630	-1023
673.680	445
673.731	-904
673.782	-753
673.832	121
673.883	-422
673.934	-419
673.984	-283
674.035	539
674.085	-243
674.136	-420
674.186	-406
674.237	-380
674.287	1687
674.338	-375
674.388	-675
674.438	-379
674.489	-26
674.539	435
674.589	-159
674.640	-97
674.690	-367
674.740	-557
674.791	-79
674.841	-83
674.891	-733
674.942	-320
674.992	-401
675.042	-970
675.092	-445
675.142	-1351
675.193	-1405
675.243	-1123
675.293	-426
675.343	-837
675.393	-542
675.443	-763
675.493	-232
675.543	-1784
675.593	-544
675.643	-408
675.693	-547
675.743	-839
675.793	-939
675.843	-662
675.893	-551
675.943	124
675.993	-833
676.043	-991
676.093	-231
676.142	-205
676.192	-540
676.242	-584
676.292	-690
676.341	-974
676.391	-718
676.441	-540
676.491	-484
676.540	-805
676.590	40
676.640	-1284
676.689	-226
676.739	-1116
676.789	-804
676.838	-1179
676.888	-170
676.937	-733
676.987	-313
677.037	-1499
677.086	-1066
677.136	-258
677.185	-1308
677.235	-1074
677.284	-18
677.333	-1049
677.383	-1390
677.432	-1276
677.482	-1097
677.531	64
677.580	-521
677.630	-1173
677.679	-813
677.728	-1372
677.778	-1200
677.827	-828
677.876	-497
677.925	-1575
677.975	99
678.024	-591
678.073	-1053
678.122	-47
678.171	-1446
678.220	-415
678.269	370
678.319	-190
678.368	-1269
678.417	-689
678.466	-773
678.515	-526
678.564	-379
678.613	-874
678.662	-808
678.711	-1380
678.760	-784
678.809	-749
678.857	-852
678.906	-921
678.955	-452
679.004	-207
679.053	-1080
679.102	-1896
679.151	-1017
679.199	-1466
679.248	-1098
679.297	-1318
679.346	-694
679.394	-1248
679.443	-685
679.492	-1745
679.540	-892
679.589	-1193
679.638	-745
679.686	-985
679.735	-867
679.784	-515
679.832	-845
679.881	-1373
679.929	-821
679.978	-1099
680.026	-1154
680.075	-1171
680.123	-716
680.172	-866
680.220	-1135
680.268	-652
680.317	-1263
680.365	-511
680.414	-1671
680.462	-1458
680.510	-76
680.559	-949
680.607	-1053
680.655	-2054
680.703	-847
680.752	-695
680.800	-935
680.848	-1044
680.896	-1691
680.945	-1218
680.993	-1763
681.041	-954
681.089	-1194
681.137	28
681.185	-882
681.233	-908
681.258	-840
681.281	-809
681.329	-800
681.377	-887
681.380	-867
681.425	-1121
681.473	458
681.502	-388
681.521	-1040
681.569	439
681.617	-388
681.624	-357
681.665	-377
681.713	-173
681.745	-258
681.761	-348
681.809	-618
681.857	-713
681.867	-657
681.904	-597
681.952	260
681.989	-270
682.000	-470
682.048	525
682.096	-672
682.111	-450
682.143	-76
682.191	54
682.233	520
682.239	554
682.286	1036
682.334	430
682.354	424
682.382	372
682.430	875
682.476	679
682.477	645
682.525	534
682.572	533
682.598	252
682.620	19
682.667	866
682.715	1105
682.720	1113
682.763	828
682.810	1144
682.841	1403
682.857	1498
682.905	1169
682.952	1471
682.963	1369
683.000	901
683.047	960
683.085	2268
683.095	2599
683.142	1487
683.190	1529
683.206	1382
683.237	1028
683.284	1807
683.328	1661
683.332	1626
683.379	1689
683.426	1997
683.449	1777
683.473	1483
683.521	1459
683.568	2222
683.571	2192
683.615	1536
683.662	1543
683.693	1451
683.709	1376
683.757	1891
683.804	2325
683.814	2351
683.851	2399
683.898	2704
683.936	2717
683.945	2675
683.992	3168
684.039	3000
684.057	2803
684.086	2486
684.133	2997
684.179	2956
684.180	2928
684.227	3178
684.274	4171
684.300	3874
684.321	3644
684.368	2612
684.415	3325
684.422	3390
684.462	3572
684.509	3076
684.543	3064
684.556	3073
684.603	3693
684.649	3455
684.665	3463
684.696	3533
684.743	3214
684.786	4287
684.790	4364
684.837	4282
684.883	4521
684.908	4539
684.930	4340
684.977	4434
685.023	4162
685.029	4225
685.070	4556
685.117	3984
685.150	4419
685.164	4699
685.210	4915
685.257	5267
685.272	5136
685.303	4548
685.350	5289
685.393	5063
685.396	5052
685.443	5493
685.490	5999
685.514	5827
685.536	5501
685.583	5735
685.629	5627
685.636	5515
685.675	4971
685.722	5830
685.757	5636
685.768	5524
685.815	5511
685.861	6005
685.878	5820
685.908	5796
685.954	6407
686.000	6853
686.000	6856
686.047	7865
686.093	8595
686.121	9268
686.139	9025
686.185	8469
686.232	6750
686.242	6543
686.278	6247
686.324	6280
686.363	6367
686.370	6435
686.416	6182
686.463	6762
686.484	6283
686.509	5775
686.555	6088
686.601	6593
686.606	6644
686.647	6819
686.693	6749
686.727	6422
686.739	6350
686.785	6437
686.831	6504
686.848	6572
686.877	6513
686.923	5930
686.969	5946
686.969	5947
687.015	5787
687.061	6135
687.090	6286
687.107	6265
687.153	6804
687.199	6622
687.211	6606
687.245	6994
687.291	7460
687.332	7509
687.336	7451
687.382	7602
687.428	7074
687.453	7035
687.474	7029
687.520	7281
687.565	7196
687.574	7038
687.611	6489
687.657	6761
687.695	6174
687.702	6128
687.748	6996
687.794	7590
687.816	7677
687.839	7499
687.885	7258
687.931	6913
687.937	6892
687.976	7118
688.022	6887
688.058	7471
688.067	7568
688.113	7412
688.158	7023
688.179	7211
688.204	7660
688.249	7628
688.295	7910
688.300	7923
688.340	7850
688.386	8226
688.421	8029
688.431	7945
688.477	8043
688.522	7763
688.542	7968
688.567	8317
688.613	8054
688.658	7753
688.663	7769
688.703	8123
688.749	8071
688.784	8584
688.794	8657
688.839	7984
688.884	7826
688.905	7948
688.930	8285
688.975	8123
689.020	8357
689.026	8343
689.065	8127
689.110	8229
689.146	7716
689.155	7612
689.201	7811
689.246	8087
689.267	7869
689.291	7742
689.336	8054
689.381	8660
689.388	8642
689.426	8621
689.471	8672
689.509	8880
689.516	8902
689.561	8577
689.606	8489
689.630	8499
689.651	8537
689.696	8264
689.741	8480
689.750	8420
689.785	8394
689.830	8444
689.871	8645
689.875	8672
689.920	8461
689.965	8576
689.992	8685
690.010	8750
690.054	8482
690.099	8729
690.112	8777
690.144	9180
690.189	8993
690.233	9265
690.233	9282
690.278	9908
690.323	9741
690.354	9910
690.367	10004
690.412	10240
690.457	10461
690.474	10522
690.501	10661
690.546	11186
690.590	10551
690.595	10599
690.635	11715
690.680	12127
690.716	12708
690.724	12986
690.769	14724
690.813	16161
690.836	16786
690.857	18688
690.902	22874
690.946	27150
690.957	28162
690.991	37733
691.035	50440
691.077	61965
691.080	62017
691.124	60625
691.168	59025
691.198	58196
691.213	54996
691.257	44991
691.301	35051
691.318	31072
691.346	28086
691.390	23457
691.434	18196
691.439	17620
691.478	16318
691.522	14997
691.559	13616
691.567	13626
691.611	14171
691.655	13706
691.680	13501
691.699	13043
691.743	12499
691.787	11832
691.800	11578
691.831	11897
691.875	12079
691.919	12584
691.921	12560
691.964	12339
692.008	12612
692.041	12227
692.052	12215
692.096	12994
692.139	13459
692.162	13521
692.183	13284
692.227	13121
692.271	12624
692.282	12544
692.315	12710
692.359	12222
692.402	12665
692.403	12696
692.447	12436
692.490	12182
692.523	12118
692.534	12270
692.578	13063
692.622	12897
692.643	13198
692.666	13146
692.709	12733
692.753	12339
692.763	12162
692.797	12024
692.840	12191
692.884	12054
692.884	12083
692.928	12362
692.971	12565
693.004	12711
693.015	12899
693.059	13139
693.102	13948
693.124	14094
693.146	14275
693.189	14995
693.233	15470
693.245	15611
693.276	16486
693.320	17525
693.363	18474
693.365	18470
693.407	19865
693.450	21325
693.485	22342
693.493	23152
693.537	27306
693.580	31304
693.605	33559
693.624	37679
693.667	47188
693.710	57159
693.725	60442
693.753	78665
693.797	107138
693.840	135599
693.845	138707
693.883	134162
693.926	129375
693.966	124641
693.970	122609
694.013	98486
694.056	74592
694.086	58187
694.099	55498
694.142	46048
694.185	36724
694.206	32095
694.229	30606
694.272	27889
694.315	25248
694.326	24418
694.358	23080
694.401	21340
694.444	19859
694.446	19728
694.487	19115
694.530	18068
694.566	17624
694.573	17512
694.616	16278
694.659	14855
694.686	13987
694.702	13935
694.745	13871
694.787	13531
694.806	13443
694.830	13512
694.873	13440
694.916	13545
694.926	13418
694.959	13150
695.002	13472
695.044	13332
695.046	13294
695.087	13387
695.130	13357
695.166	13496
695.172	13596
695.215	13766
695.258	13962
695.286	14136
695.301	14053
695.343	13698
695.386	13440
695.406	13224
695.428	13103
695.471	12796
695.514	12457
695.526	12287
695.556	12314
695.599	12706
695.641	12657
695.646	12637
695.684	12577
695.726	12431
695.766	12436
695.769	12488
695.811	12571
695.854	12809
695.886	12732
695.896	12688
695.938	12463
695.981	12151
696.005	12089
696.023	12345
696.065	12666
696.108	13122
696.125	13248
696.150	13434
696.192	13795
696.235	13883
696.245	13913
696.277	13662
696.319	13193
696.361	12849
696.365	12775
696.404	13231
696.446	13677
696.485	14106
696.488	14134
696.530	14007
696.572	13612
696.604	13415
696.614	13381
696.656	13176
696.698	12881
696.724	12662
696.740	12667
696.783	12545
696.825	12438
696.844	12362
696.867	12431
696.909	12513
696.951	12500
696.964	12489
696.992	12632
697.034	12830
697.076	12774
697.083	12760
697.118	12957
697.160	13185
697.202	13170
697.203	13136
697.244	13101
697.286	12944
697.323	12667
697.327	12683
697.369	12601
697.411	12465
697.442	12340
697.453	12468
697.494	12821
697.536	13201
697.562	13371
697.578	13436
697.620	13555
697.661	13593
697.682	13620
697.703	13718
697.744	13680
697.786	13838
697.801	13785
697.828	13917
697.869	14181
697.911	14411
697.921	14423
697.952	14041
697.994	13480
698.035	12940
698.040	12827
698.077	12582
698.118	12331
698.160	12080
698.160	12042
698.201	12360
698.243	12660
698.279	12910
698.284	12953
698.325	12995
698.367	12989
698.399	12977
698.408	12981
698.449	12773
698.491	12617
698.518	12466
698.532	12530
698.573	12590
698.614	12663
698.638	12662
698.656	12729
698.697	12801
698.738	12869
698.757	12860
698.779	13165
698.820	13673
698.862	14189
698.877	14339
698.903	14585
698.944	14899
698.985	15224
698.996	15271
699.026	15253
699.067	15168
699.116	15025
699.235	12953
699.354	13467
699.474	12958
699.593	17939
699.713	14495
699.832	13747
699.951	14242
700.070	13826
700.190	12983
700.309	14453
700.428	15339
700.547	13282
700.667	13784
700.786	16377
700.905	13070
701.024	14593
701.143	13006
701.262	11462
701.381	11437
701.500	13457
701.619	13827
701.738	12372
701.857	11264
701.976	12136
702.095	10510
702.214	12485
702.333	12711
702.452	11662
702.571	11326
702.690	12566
702.809	10867
702.928	11936
703.047	11276
703.165	11738
703.284	10364
703.403	12335
703.522	13973
703.640	13782
703.759	17794
703.878	24745
703.997	13033
704.115	10672
704.234	11130
704.353	10256
704.471	9612
704.590	10852
704.708	9661
704.827	10788
704.946	12124
705.064	13239
705.183	10650
705.301	15072
705.420	18972
705.538	17567
705.656	17427
705.775	26592
705.893	76097
706.012	85998
706.130	18014
706.249	15843
706.367	15878
706.485	17313
706.604	14108
706.722	14949
706.840	18792
706.958	18314
707.077	13339
707.195	13609
707.313	13212
707.431	13435
707.549	12415
707.668	13551
707.786	13239
707.904	13287
708.022	11278
708.140	12446
708.258	12404
708.376	13223
708.494	12759
708.612	14922
708.730	20517
708.848	18801
708.966	17977
709.084	15882
709.202	16194
709.320	16664
709.438	16366
709.556	16843
709.674	16213
709.791	17282
709.909	13721
710.027	15789
710.145	15599
710.263	18432
710.380	16677
710.498	14261
710.616	14558
710.733	14848
710.851	16668
710.969	17064
711.086	16206
711.204	15769
711.322	15913
711.439	16301
711.557	17596
711.674	15356
711.792	16628
711.909	21704
712.027	25583
712.144	14826
712.262	14426
712.379	16739
712.497	23363
712.614	22973
712.732	18158
712.849	18442
712.966	19875
713.084	23289
713.201	18907
713.318	18718
713.436	16254
713.553	18151
713.670	18895
713.787	21622
713.905	21684
714.022	17282
714.139	16652
714.256	19070
714.373	19650
714.490	25653
714.608	47802
714.725	172371
714.842	142413
714.959	21763
715.076	16314
715.193	16448
715.310	15318
715.427	14758
715.544	14297
715.661	14810
715.778	14590
715.895	16712
716.011	16606
716.128	14811
716.245	15428
716.362	16425
716.479	17424
716.596	14250
716.713	14221
716.829	16479
716.946	14369
717.063	13528
717.180	11819
717.296	13508
717.413	13517
717.530	13132
717.646	13226
717.763	14002
717.880	12010
717.996	12363
718.113	11940
718.229	13027
718.346	12049
718.462	13138
718.579	16259
718.695	25486
718.812	21547
718.928	23140
719.045	14552
719.161	11407
719.277	11159
719.394	13576
719.510	14666
719.626	11940
719.743	14079
719.859	14246
719.975	18348
720.092	47382
720.208	84159
720.324	17598
720.440	13511
720.557	15874
720.673	22991
720.789	38206
720.905	89691
721.021	22479
721.137	11767
721.253	12944
721.369	12602
721.486	16860
721.602	24017
721.718	12209
721.834	9408
721.950	11177
722.066	9674
722.181	9824
722.297	11012
722.413	9913
722.529	10635
722.645	10818
722.761	9756
722.877	10445
722.993	9818
723.108	11072
723.224	9434
723.340	10848
723.456	9030
723.571	11639
723.687	9330
723.803	9962
723.918	8998
724.034	9504
724.150	10062
724.265	12990
724.381	32027
724.497	37363
724.612	9130
724.728	9373
724.843	9376
724.959	14270
725.074	31084
725.190	32129
725.305	12042
725.421	9595
725.536	7665
725.651	8461
725.767	7688
725.882	8003
725.997	8295
726.113	9480
726.228	7905
726.343	8029
726.459	7322
726.574	8901
726.689	7405
726.804	8295
726.920	7566
727.035	8832
727.150	8683
727.265	8891
727.380	8570
727.495	8779
727.610	8154
727.725	9902
727.841	15671
727.956	48020
728.071	27103
728.186	8588
728.301	6834
728.416	7837
728.531	7519
728.645	7411
728.760	7311
728.875	9445
728.990	8625
729.105	8151
729.220	7483
729.335	8244
729.449	6494
729.564	6946
729.679	5885
729.794	7390
729.908	8195
730.023	7759
730.138	5778
730.253	6883
730.367	5309
730.482	6333
730.596	6078
730.711	7362
730.826	6069
730.940	5693
731.055	5966
731.169	6332
731.284	6295
731.398	6643
731.513	9057
731.627	7971
731.742	10583
731.856	9686
731.970	5682
732.085	7262
732.199	7158
732.313	9093
732.428	17008
732.542	42169
732.656	21811
732.771	7829
732.885	6631
732.999	6550
733.113	6566
733.227	7588
733.342	4957
733.456	5746
733.570	4583
733.684	5470
733.798	5457
733.912	5708
734.026	4608
734.140	5941
734.254	6441
734.368	16146
734.482	17870
734.596	4692
734.710	4899
734.824	5696
734.938	5545
735.052	6254
735.166	7091
735.280	5874
735.393	4767
735.507	6374
735.621	9918
735.735	20696
735.849	6690
735.962	5315
736.076	6360
736.190	7610
736.303	10972
736.417	14108
736.531	4687
736.644	6049
736.758	4318
736.872	4409
736.985	4372
737.099	5556
737.212	3832
737.326	5295
737.439	4168
737.553	4578
737.666	4498
737.780	4020
737.893	4368
738.007	4466
738.120	4499
738.233	5064
738.347	3307
738.460	4212
738.573	4343
738.687	5093
738.800	5254
738.913	7095
739.026	5612
739.140	6880
739.253	7419
739.366	5407
739.479	4132
739.592	4439
739.705	4438
739.818	4380
739.932	3889
740.045	4807
740.158	4386
740.271	4599
740.384	4163
740.497	4601
740.610	5604
740.723	5151
740.836	5266
740.949	6164
741.062	7430
741.174	6673
741.287	4381
741.400	4493
741.513	5384
741.626	5459
741.739	5479
741.851	4654
741.964	4125
742.077	4957
742.189	5192
742.302	5511
742.415	5321
742.527	4326
742.640	4471
742.753	4541
742.865	3865
742.978	4196
743.090	3474
743.203	4325
743.316	3838
743.428	3791
743.541	3670
743.653	3936
743.766	4168
743.878	5464
743.990	6946
744.103	5895
744.215	3367
744.327	3597
744.440	5165
744.552	8851
744.664	4535
744.777	3935
744.889	3001
745.001	3765
745.113	3201
745.226	4167
745.338	3970
745.450	4352
745.562	2246
745.674	3323
745.786	2455
745.898	4064
746.010	3740
746.122	4111
746.234	3592
746.347	3597
746.459	3815
746.570	3040
746.682	3422
746.794	4136
746.906	3505
747.018	3335
747.130	2815
747.242	4045
747.354	3691
747.466	4765
747.577	3887
747.689	3927
747.801	2688
747.913	3330
748.024	2824
748.136	2984
748.248	2540
748.359	4043
748.471	3258
748.583	3393
748.694	5963
748.806	8992
748.918	7107
749.029	5335
749.141	3120
749.252	5108
749.364	4496
749.475	10254
749.587	6408
749.698	3867
749.809	3411
749.921	3031
750.032	3101
750.144	2845
750.255	2512
750.366	2556
750.478	2710
750.589	3829
750.700	3067
750.811	4370
750.923	4609
751.034	12022
751.145	8449
751.256	3253
751.367	2627
751.479	2797
751.590	2449
751.701	3482
751.812	2216
751.923	2985
752.034	2015
752.145	2528
752.256	2880
752.367	2468
752.478	2863
752.589	3503
752.700	2438
752.811	2606
752.922	2434
753.032	2840
753.143	3436
753.254	3017
753.365	3953
753.476	3108
753.586	1990
753.697	2535
753.808	2756
753.919	2535
754.029	3183
754.140	2872
754.251	2378
754.361	3441
754.472	3020
754.582	3741
754.693	3162
754.804	3212
754.914	2380
755.025	2702
755.135	1997
755.246	3278
755.356	2504
755.466	3983
755.577	2879
755.687	3340
755.798	3280
755.908	3453
756.018	3190
756.129	2761
756.239	2469
756.349	2820
756.460	2973
756.570	3135
756.680	3022
756.790	2115
756.900	4271
757.011	3384
757.121	2908
757.231	2957
757.341	3438
757.451	3603
757.561	3016
757.671	3481
757.781	2715
757.891	4255
758.001	3956
758.111	5031
758.221	3680
758.331	4991
758.441	4525
758.551	5442
758.661	4745
758.771	5129
758.880	3535
758.990	5043
759.100	3539
759.210	4999
759.320	3555
759.429	4755
759.539	4116
759.649	3859
759.758	4429
759.868	5806
759.978	4154
760.087	5466
760.197	4887
760.307	5280
760.416	3874
760.526	5043
760.635	5284
760.745	5224
760.854	4967
760.964	5741
761.073	5349
761.182	5763
761.292	6238
761.401	6887
761.511	5219
761.620	5977
761.729	6171
761.839	6567
761.948	6718
762.057	7145
762.166	6541
762.276	6501
762.385	7788
762.494	7320
762.603	7906
762.712	8163
762.822	6809
762.931	8215
763.040	7125
763.149	8195
763.258	8289
763.367	9828
763.476	9876
763.585	11381
763.694	11644
763.803	12353
763.912	13081
764.021	14440
764.130	13293
764.238	16003
764.347	16128
764.456	17365
764.565	18267
764.674	20276
764.783	23220
764.891	24246
765.000	27424
765.109	32350
765.217	35476
765.326	43592
765.435	52283
765.543	62089
765.652	76939
765.761	101238
765.869	138250
765.978	201085
766.086	308527
766.195	521280
766.303	886983
766.412	1006773
766.520	914007
766.629	765569
766.737	427645
766.846	259625
766.954	174451
767.062	128239
767.171	103442
767.279	73942
767.387	57357
767.496	47027
767.604	41559
767.712	36407
767.820	31740
767.928	29862
768.037	26434
768.145	26264
768.253	25020
768.361	23539
768.469	23722
768.577	24749
768.685	26157
768.793	28243
768.901	30858
769.009	36215
769.117	44069
769.225	56369
769.333	80731
769.441	124015
769.549	207592
769.657	409420
769.765	805195
769.873	839608
769.981	692416
770.088	331247
770.196	174772
770.304	110944
770.412	78106
770.519	59619
770.627	45767
770.735	38976
770.842	32127
770.950	27288
771.058	23027
771.165	21302
771.273	18850
771.380	17563
771.488	15475
771.595	14596
771.703	13303
771.810	13233
771.918	11244
772.025	11054
772.133	10345
772.240	10407
772.348	10365
772.455	9851
772.562	8317
772.670	7933
772.777	8796
772.884	7508
772.991	7468
773.099	7469
773.206	5745
773.313	6852
773.420	6022
773.528	5958
773.635	5769
773.742	6699
773.849	6016
773.956	5679
774.063	5391
774.170	5271
774.277	5119
774.384	5404
774.491	4829
774.598	5842
774.705	4480
774.812	6291
774.919	5563
775.026	5065
775.133	4966
775.239	4962
775.346	3992
775.453	4178
775.560	4420
775.667	4715
775.773	3690
775.880	5560
775.987	3442
776.093	5078
776.200	4009
776.307	3271
776.413	3589
776.520	2986
776.627	3809
776.733	3704
776.840	1917
776.946	5130
777.053	4151
777.159	5345
777.266	1788
777.372	5126
777.478	3712
777.585	4684
777.691	2822
777.798	3925
777.904	5453
778.010	10152
778.117	4817
778.223	3355
778.329	2370
778.435	3703
778.542	4014
778.648	3418
778.754	3096
778.860	3602
778.966	3019
779.072	3362
779.178	3174
779.284	3672
779.391	2444
779.497	2961
779.603	5529
779.708	5118
779.815	13168
779.920	48815
780.026	91581
780.132	11858
780.238	4102
780.344	3307
780.450	3685
780.556	2485
780.661	1713
780.767	3469
780.873	2538
780.979	3033
781.085	1808
781.190	3049
781.296	1804
781.402	2391
781.507	1725
781.613	2028
781.719	1601
781.824	2748
781.930	2452
782.035	2857
782.141	2092
782.246	2529
782.352	2602
782.457	2337
782.563	1686
782.668	2029
782.773	1964
782.879	2248
782.984	2979
783.090	3833
783.195	4826
783.300	3591
783.405	3236
783.511	2728
783.616	2052
783.721	2554
783.826	2025
783.932	3069
784.037	2317
784.142	2340
784.247	2141
784.352	2155
784.457	2287
784.562	1904
784.667	1754
784.772	1482
784.877	1096
784.982	2252
785.087	2496
785.192	2733
785.297	1633
785.402	2768
785.507	1333
785.611	2627
785.716	2184
785.821	1947
785.926	1362
786.031	1771
786.135	2430
786.240	2700
786.345	746
786.450	1990
786.554	847
786.659	1801
786.763	560
786.868	2236
786.973	2388
787.077	1596
787.182	2321
787.286	1905
787.391	1621
787.495	2112
787.600	614
787.704	1849
787.809	1669
787.913	1219
788.017	881
788.122	2211
788.226	864
788.330	1320
788.435	1516
788.539	1929
788.643	1392
788.747	1683
788.852	774
788.956	808
789.060	891
789.164	2410
789.268	-330
789.372	1863
789.476	944
789.580	1302
789.684	894
789.788	2370
789.892	976
789.996	2389
790.100	688
790.204	1592
790.308	1391
790.412	2129
790.516	3644
790.620	3214
790.724	1516
790.828	1600
790.931	319
791.035	3386
791.139	1662
791.242	1371
791.346	1647
791.450	1317
791.554	943
791.657	571
791.761	2151
791.864	2313
791.968	426
792.072	1451
792.175	1349
792.279	1682
792.382	1895
792.486	2505
792.589	1227
792.693	1698
792.796	99
792.899	1600
793.003	1452
793.106	409
793.209	430
793.313	3335
793.416	519
793.519	2803
793.623	3014
793.726	5202
793.829	1429
793.932	2229
794.035	183
794.138	1937
794.242	1652
794.345	3267
794.448	4221
794.551	8361
794.654	25311
794.757	46865
794.860	9028
794.963	3650
795.066	167
795.169	2076
795.272	255
795.375	2219
795.477	241
795.580	1298
795.683	185
795.786	1182
795.889	-102
795.991	2116
796.094	2489
796.197	1084
796.300	1782
796.402	735
796.505	44
796.608	673
796.710	1085
796.813	736
796.915	355
797.018	1055
797.120	920
797.223	220
797.326	1513
797.428	1421
797.530	146
797.633	1231
797.735	2100
797.838	5434
797.940	4005
798.042	700
798.145	547
798.247	1870
798.349	-442
798.452	1699
798.554	215
798.656	585
798.758	1995
798.860	666
798.962	465
799.065	415
799.167	151
799.269	2061
799.371	2251
799.473	1702
799.575	773
799.677	3274
799.779	3029
799.881	1583
799.983	1370
800.085	1737
800.187	261
800.289	563
800.390	128
800.492	1342
800.594	949
800.696	55
800.798	902
800.899	530
801.001	-369
801.103	446
801.205	239
801.306	925
801.408	-1292
801.509	-81
801.611	189
801.713	1250
801.814	-489
801.916	862
802.017	682
802.119	187
802.220	147
802.322	-839
802.423	3649
802.525	546
802.626	170
802.727	1476
802.829	1019
802.930	-1634
803.031	2011
803.133	514
803.234	-475
803.335	1081
803.436	-728
803.538	1003
803.639	-553
803.740	549
803.841	-33
803.942	727
804.043	1509
804.144	-198
804.245	407
804.346	379
804.447	-188
804.548	1360
804.649	2347
804.750	370
804.851	198
804.952	240
805.053	344
805.154	-169
805.255	656
805.355	466
805.456	108
805.557	-485
805.658	-501
805.758	1635
805.859	253
805.960	1302
806.061	339
806.161	1117
806.262	239
806.362	-64
806.463	-187
806.564	1189
806.664	355
806.765	1030
806.865	2003
806.966	929
807.066	-77
807.166	928
807.267	89
807.367	210
807.468	369
807.568	-961
807.668	282
807.769	1512
807.869	-508
807.969	894
808.069	539
808.170	636
808.270	-985
808.370	1015
808.470	1426
808.570	982
808.670	-269
808.770	441
808.870	-554
808.970	782
809.070	-233
809.170	459
809.271	1014
809.370	1214
809.470	639
809.570	-134
809.670	-514
809.770	-207
809.870	343
809.970	526
810.070	140
810.169	1029
810.269	-1346
810.369	1061
810.469	-728
810.568	-629
810.668	-141
810.768	188
810.867	801
810.967	-332
811.066	-167
811.166	606
811.265	561
811.365	128
811.464	-69
811.564	558
811.663	-51
811.763	-811
811.862	19
811.962	1117
812.061	-260
812.160	-745
812.260	-32
812.359	597
812.458	621
812.557	1426
812.657	1568
812.756	756
812.855	335
812.954	-49
813.053	883
813.153	564
813.252	-642
813.351	656
813.450	-240
813.549	-176
813.648	1474
813.747	576
813.846	400
813.945	-673
814.044	180
814.143	445
814.242	474
814.341	231
814.439	396
814.538	828
814.637	357
814.736	497
814.835	-102
814.933	-36
815.032	930
815.131	312
815.229	722
815.328	1476
815.427	-108
815.525	1176
815.624	427
815.722	617
815.821	471
815.919	1009
816.018	-339
816.116	1840
816.215	1075
816.313	910
816.412	676
816.510	964
816.609	2868
816.707	1487
816.805	1699
816.904	1406
817.002	1591
817.100	3072
817.198	2574
817.296	3299
817.395	3109
817.493	4701
817.591	4365
817.689	7815
817.787	9630
817.885	17040
817.983	31062
818.081	66781
818.179	158575
818.277	390564
818.375	338479
818.473	104140
818.571	41979
818.669	26544
818.767	22217
818.865	21338
818.963	25800
819.061	37377
819.158	63593
819.256	136082
819.354	311543
819.452	632383
819.549	431490
819.647	142782
819.745	60229
819.842	34133
819.940	22964
820.038	16268
820.135	12096
820.233	10820
820.330	6564
820.428	5133
820.525	5495
820.623	4674
820.720	3544
820.818	4064
820.915	4584
821.012	3878
821.110	1887
821.207	2817
821.304	1160
821.402	2487
821.499	2185
821.596	3299
821.693	2053
821.791	2268
821.888	2263
821.985	5168
822.082	2843
822.179	3504
822.276	354
822.373	1029
822.470	901
822.567	1122
822.664	-44
822.761	1211
822.858	-170
822.955	990
823.052	1041
823.149	821
823.246	-288
823.343	58
823.440	91
823.536	-933
823.633	-595
823.730	516
823.827	461
823.923	520
824.020	1369
824.117	896
824.213	-316
824.310	1070
824.407	17
824.503	389
824.600	574
824.696	851
824.793	1226
824.889	279
824.986	-129
825.082	217
825.179	55
825.275	942
825.371	-599
825.468	818
825.564	-439
825.660	538
825.757	-788
825.853	1310
825.949	-525
826.045	-30
826.142	-1080
826.238	262
826.334	-213
826.430	-1412
826.526	434
826.622	-962
826.718	-593
826.814	-297
826.910	480
827.006	-58
827.102	-1115
827.198	728
827.294	-777
827.390	192
827.486	575
827.582	-672
827.678	-1220
827.774	1126
827.869	-1607
827.965	1098
828.061	-1760
828.157	-305
828.252	757
828.348	-232
828.444	160
828.539	-1213
828.635	-597
828.731	-220
828.826	-948
828.922	422
829.017	-493
829.113	1058
829.208	-1113
829.304	-441
829.399	422
829.495	282
829.590	-12
829.685	-1016
829.781	-293
829.876	384
829.971	-108
830.066	-197
830.162	-887
830.257	-469
830.352	-1144
830.447	437
830.543	560
830.638	-709
830.733	1036
830.828	-19
830.923	-16
831.018	62
831.113	-554
831.208	-391
831.303	-496
831.398	-195
831.493	-733
831.588	122
831.683	-1328
831.778	419
831.873	-74
831.967	629
832.062	-445
832.157	-487
832.252	-222
832.346	-654
832.441	408
832.536	825
832.631	3360
832.725	2522
832.820	-264
832.914	-106
833.009	-866
833.104	769
833.198	120
833.293	-398
833.387	459
833.482	-176
833.576	-1329
833.670	547
833.765	-1436
833.859	-589
833.954	637
834.048	-534
834.142	-269
834.237	-1432
834.331	-1300
834.425	-972
834.519	-748
834.613	118
834.708	-1577
834.802	127
834.896	-732
834.990	-563
835.084	-1181
835.178	270
835.272	-1313
835.366	-549
835.460	-263
835.554	241
835.648	-352
835.742	-673
835.836	-333
835.930	-1135
836.024	9
836.117	1043
836.211	1
836.305	670
836.399	2223
836.493	-590
836.586	139
836.680	-1183
836.774	-876
836.867	1080
836.961	-1403
837.055	-845
837.148	-3
837.242	-43
837.335	-1471
837.429	197
837.522	-482
837.616	305
837.709	3244
837.803	1189
837.896	67
837.989	-194
838.083	1795
838.176	5339
838.269	2995
838.363	344
838.456	-423
838.549	1498
838.642	780
838.735	4691
838.829	1277
838.922	-232
839.015	-139
839.108	-1320
839.201	-162
839.294	15
839.387	-103
839.480	-317
839.573	1150
839.666	1565
839.759	-638
839.852	-210
839.945	-177
840.038	-597
840.131	459
840.223	-393
840.316	-222
840.409	-80
840.502	-1301
840.594	454
840.687	-1309
840.780	467
840.873	-1036
840.965	909
841.058	905
841.150	5366
841.243	2093
841.336	-55
841.428	-332
841.521	-102
841.613	-1650
841.706	521
841.798	-1130
841.890	-341
841.983	-1255
842.075	994
842.167	-246
842.260	147
842.352	1118
842.444	2004
842.537	5209
842.629	7917
842.721	46
842.813	159
842.905	-1717
842.997	313
843.090	863
843.182	1973
843.274	4323
843.366	14207
843.458	26853
843.550	15624
843.642	1348
843.734	954
843.826	1175
843.918	1224
844.009	-1209
844.101	-1273
844.193	-908
844.285	95
844.377	-655
844.469	359
844.560	-663
844.652	-280
844.744	-1271
844.835	-315
844.927	-471
845.019	386
845.110	419
845.202	353
845.293	-863
845.385	-1051
845.476	-851
845.568	-876
845.659	-546
845.751	94
845.842	-1292
845.934	-605
846.025	-1500
846.116	363
846.208	-803
846.299	-539
846.390	-403
846.482	-480
846.573	941
846.664	752
846.755	1197
846.846	2253
846.937	-1138
847.029	-118
847.120	-1237
847.211	-809
847.302	394
847.393	-1369
847.484	-477
847.575	-368
847.666	-920
847.757	-512
847.847	-667
847.938	156
848.029	-897
848.120	-228
848.211	-917
848.302	-878
848.392	-1137
848.483	120
848.574	-1513
848.664	-692
848.755	-532
848.846	-123
848.936	-937
849.027	-1078
849.118	-605
849.208	-1154
849.299	-781
849.389	241
849.480	1261
849.570	2805
849.661	5200
849.751	9086
849.841	2502
849.932	-115
850.022	-1806
850.112	-566
850.203	-856
850.293	-994
850.383	-1072
850.474	-744
850.564	-384
850.654	58
850.744	-517
850.834	-99
850.924	-850
851.014	89
851.104	-707
851.194	-396
851.284	-194
851.374	-455
851.464	-330
851.554	-189
851.644	-58
851.734	2356
851.824	30
851.914	-878
852.004	-1025
852.094	-1307
852.183	-594
852.273	107
852.363	-827
852.452	-567
852.542	-409
852.632	-1081
852.721	-1054
852.811	-390
852.901	-187
852.990	-383
853.080	-429
853.169	321
853.259	-754
853.348	-845
853.438	-1363
853.527	-130
853.617	296
853.706	2149
853.795	3554
853.885	11351
853.974	21546
854.063	43828
854.152	66189
854.242	21301
854.331	1753
854.420	998
854.509	537
854.598	631
854.687	464
854.777	1594
854.866	-801
854.955	102
855.044	-1040
855.133	-655
855.222	-1346
855.311	-1433
855.400	-485
855.488	655
855.577	-694
855.666	33
855.755	909
855.844	2726
855.933	2910
856.021	633
856.110	-193
856.199	-1672
856.288	-1700
856.376	-1166
856.465	-885
856.554	-631
856.642	-2111
856.731	-344
856.819	49
856.908	-183
856.996	-1063
857.085	-907
857.173	-1245
857.262	-788
857.350	-1551
857.438	-570
857.527	-1112
857.615	-341
857.703	-487
857.792	-1033
857.880	-1124
857.968	-867
858.056	-1434
858.145	-639
858.233	-2020
858.321	-1014
858.409	-818
858.497	-968
858.585	-2354
858.673	-392
858.761	-961
858.849	-879
858.937	-622
859.025	-581
859.113	-673
859.201	-804
859.289	-477
859.377	-1044
859.465	-1101
859.552	-1109
859.640	-736
859.728	-332
859.816	-1232
859.903	433
859.991	-1912
860.079	-1078
860.166	-642
860.254	-741
860.342	-1404
860.429	-1169
860.517	-1887
860.604	-227
860.692	-1132
860.779	-430
860.867	-1407
860.954	-1201
861.042	-169
861.129	-411
861.216	-1415
861.304	-874
861.391	-1156
861.478	-1209
861.565	-1125
861.653	98
861.740	-1600
861.827	48
861.914	-575
862.001	-901
862.089	-1256
862.176	-582
862.263	-2221
862.350	-280
862.437	-1187
862.524	-806
862.611	-1592
862.698	-992
862.785	-863
862.871	-34
862.958	-1758
863.045	-347
863.132	-1245
863.219	-1534
863.306	-1350
863.392	333
863.479	-1448
863.566	-1571
863.652	-444
863.739	-1706
863.826	-786
863.912	-694
863.999	-1177
864.086	-334
864.172	-1497
864.259	-127
864.345	-1170
864.432	-314
864.518	-589
864.604	-98
864.691	-1654
864.777	-131
864.863	-213
864.950	-1045
865.036	-1546
865.122	-613
865.209	-422
865.295	-969
865.381	-481
865.467	-404
865.553	32
865.639	95
865.726	1100
865.812	4227
865.898	9276
865.984	15429
866.070	29578
866.156	30551
866.242	5083
866.328	440
866.414	-443
866.499	-305
866.585	-1275
866.671	-885
866.757	-192
866.843	-302
866.928	-1086
867.014	-583
867.100	-940
867.186	718
867.271	-659
867.357	1407
867.442	346
867.528	-907
867.614	-1519
867.699	-146
867.785	-1234
867.870	-954
867.956	-1396
868.041	20
868.127	-785
868.212	741
868.297	-767
868.383	245
868.468	-386
868.553	1331
868.639	1508
868.724	5326
868.809	3624
868.894	-388
868.979	-421
869.065	-785
869.150	-767
869.235	-386
869.320	-1795
869.405	-377
869.490	-1379
869.575	-715
869.660	-2172
869.745	-606
869.830	-2037
869.915	-881
870.000	-1346
870.085	-1280
870.169	-1538
870.254	-965
870.339	-2060
870.424	-1533
870.509	-858
870.593	-1031
870.678	-804
870.763	-1083
870.847	-1568
870.932	-1586
871.016	-1472
871.101	-1136
871.186	-2137
871.270	-329
871.355	-1060
871.439	169
871.523	-1126
871.608	-1718
871.692	-917
871.777	-492
871.861	-1155
871.945	-614
872.030	-1038
872.114	-722
872.198	-1129
872.282	-768
872.367	-1554
872.451	-404
872.535	-1862
872.619	-730
872.703	-1298
872.787	-999
872.871	-1160
872.955	-961
873.039	-780
873.123	-888
873.207	-523
873.291	-95
873.375	-284
873.459	-519
873.543	-773
873.627	-199
873.711	-1714
873.794	-852
873.878	-1355
873.962	-888
874.045	-1470
874.129	-447
874.137	-539
874.213	-1452
874.245	-968
874.296	-191
874.352	-992
874.380	-1385
874.460	-1009
874.464	-994
874.547	-1482
874.568	-1115
874.631	-27
874.676	-606
874.714	-1091
874.784	-673
874.798	-593
874.881	-567
874.892	-616
874.965	-930
874.999	-794
875.048	-640
875.107	-807
875.131	-845
875.215	-729
875.215	-729
875.298	-1312
875.323	-1208
875.381	-896
875.430	-1108
875.465	-1229
875.538	-947
875.548	-913
875.631	-1011
875.646	-1130
875.714	-1804
875.753	-1249
875.798	-553
875.861	-828
875.881	-915
875.964	-496
875.968	-542
876.047	-1438
876.076	-1118
876.130	-499
876.183	-1085
876.213	-1368
876.291	-416
876.296	-360
876.379	-707
876.398	-902
876.462	-1475
876.506	-1128
876.545	-880
876.613	-1167
876.628	-1210
876.711	-1450
876.721	-1363
876.794	-705
876.828	-1046
876.877	-1553
876.935	-1215
876.960	-1058
877.043	-240
877.043	-242
877.125	-664
877.150	-633
877.208	-558
877.258	-216
877.291	-43
877.365	-769
877.374	-824
877.456	88
877.472	57
877.539	-215
877.579	-500
877.622	-823
877.687	-789
877.704	-783
877.787	-607
877.794	-631
877.869	-697
877.901	-524
877.952	-369
878.008	-736
878.034	-898
878.115	-916
878.117	-914
878.199	-434
878.222	-394
878.282	-354
878.329	-581
878.364	-692
878.437	-281
878.447	-259
878.529	-878
878.544	-867
878.611	-547
878.651	-780
878.694	-1117
878.758	-602
878.776	-432
878.858	-599
878.865	-557
878.941	-243
878.972	-510
879.023	-825
879.078	-618
879.105	-503
879.185	-782
879.187	-785
879.269	120
879.292	9
879.351	-620
879.399	-640
879.433	-463
879.506	-686
879.516	-717
879.598	-123
879.613	-211
879.680	-841
879.720	-640
879.762	-222
879.827	-704
879.844	-885
879.926	-343
879.933	-381
880.007	-778
880.040	-582
880.089	-58
880.147	113
880.171	28
880.253	1430
880.254	1437
880.335	2595
880.360	3108
880.417	4191
880.467	6700
880.499	8365
880.574	9071
880.580	9061
880.662	2501
880.680	1956
880.744	296
880.787	-207
880.825	-849
880.893	-787
880.907	-678
880.989	-726
881.000	-620
881.070	60
881.106	-96
881.152	-521
881.213	-547
881.233	-509
881.315	-830
881.319	-818
881.396	-422
881.426	-455
881.478	-692
881.532	-773
881.559	-674
881.639	-715
881.641	-727
881.722	-212
881.745	-458
881.803	-596
881.852	-378
881.885	-476
881.958	-615
881.966	-574
882.047	186
882.064	175
882.129	-152
882.171	-4
882.210	150
882.277	352
882.291	363
882.372	-636
882.383	-727
882.454	-864
882.489	-548
882.535	-396
882.596	-547
882.616	-588
882.697	-857
882.702	-886
882.778	-903
882.808	-672
882.859	-582
882.914	-776
882.940	-697
883.020	-378
883.021	-374
883.102	-170
883.127	-241
883.183	-649
883.233	-719
883.264	-535
883.339	-424
883.345	-430
883.426	-803
883.445	-718
883.507	-349
883.551	-470
883.587	-588
883.657	-381
883.668	-281
883.749	-149
883.763	14
883.830	-407
883.869	-1066
883.910	-933
883.975	-45
883.991	-4
884.072	-779
884.081	-825
884.152	-481
884.187	-324
884.233	-598
884.292	-626
884.314	-423
884.394	-139
884.398	-124
884.475	-523
884.504	-661
884.555	-480
884.610	-287
884.636	-431
884.716	-1101
884.716	-1098
884.797	-450
884.821	-442
884.877	-470
884.927	-230
884.958	12
885.033	32
885.038	-25
885.118	-312
885.139	-541
885.199	-619
885.244	-345
885.279	8
885.350	-43
885.359	-90
885.439	166
885.456	152
885.520	-545
885.561	-903
885.600	-672
885.667	-487
885.680	-483
885.760	-466
885.773	-416
885.840	-89
885.878	-39
885.920	-137
885.984	-378
886.000	-371
886.080	-111
886.089	-101
886.160	-174
886.195	-173
886.240	42
886.300	179
886.320	44
886.400	6
886.406	-27
886.480	-149
886.511	-254
886.560	-472
886.616	-612
886.640	-421
886.720	280
886.722	290
886.800	66
886.827	66
886.879	140
886.932	63
886.959	72
887.038	138
887.039	141
887.119	-193
887.143	-186
887.198	-170
887.248	-314
887.278	-245
887.354	-228
887.358	-271
887.437	-952
887.459	-1141
887.517	-320
887.564	150
887.596	-49
887.669	-218
887.676	-214
887.755	-390
887.774	-425
887.835	-752
887.880	-900
887.914	-774
887.985	-689
887.994	-676
888.073	-513
888.090	-467
888.153	44
888.195	293
888.232	161
888.300	39
888.311	39
888.391	-113
888.405	-118
888.470	-462
888.510	-745
888.549	-684
888.615	-478
888.628	-475
888.708	-554
888.720	-565
888.787	-443
888.825	-389
888.866	-289
888.930	-80
888.945	-108
889.024	-291
889.035	-314
889.103	-398
889.140	-486
889.182	-61
889.245	624
889.261	547
889.340	152
889.349	105
889.419	-107
889.454	-227
889.498	-355
889.559	-517
889.577	-485
889.656	-340
889.664	-325
889.735	-98
889.768	10
889.814	27
889.873	48
889.978	415
890.083	400
890.187	-517
890.292	-924
890.397	74
890.501	828
890.606	-9
890.710	427
890.815	-357
890.919	-212
891.024	-719
891.128	-236
891.233	76
891.337	72
891.442	383
891.546	387
891.650	-1146
891.755	524
891.859	1639
891.963	-517
892.068	-452
892.172	-95
892.276	-404
892.380	-32
892.484	111
892.589	-48
892.693	70
892.797	256
892.901	153
893.005	-452
893.109	-237
893.213	-50
893.317	-454
893.421	18
893.525	-176
893.629	-406
893.733	-261
893.837	-268
893.941	-632
894.045	1038
894.148	32
894.252	602
894.356	-636
894.460	391
894.564	-587
894.667	83
894.771	42
894.875	-427
894.978	-570
895.082	-48
895.186	-63
895.289	-35
895.393	-447
895.496	632
895.600	-890
895.703	-234
895.807	-136
895.910	331
896.014	-493
896.117	-445
896.221	304
896.324	426
896.427	-118
896.531	427
896.634	-114
896.737	-936
896.840	-45
896.944	-556
897.047	-77
897.150	-533
897.253	391
897.356	887
897.460	-460
897.563	-214
897.666	-83
897.769	-212
897.872	-1043
897.975	-250
898.078	186
898.181	482
898.284	11
898.387	316
898.490	599
898.593	522
898.695	-155
898.798	442
898.901	310
899.004	-79
899.107	-458
899.209	-523
899.312	-385
899.415	775
899.518	419
899.620	-779
899.723	37
899.826	424
899.928	996
900.031	289
900.133	-675
900.236	492
900.338	670
900.441	126
900.543	-823
900.646	65
900.748	-495
900.851	-306
900.953	155
901.055	-920
901.158	320
901.260	-5
901.362	-148
901.465	-46
901.567	-30
901.669	838
901.771	-826
901.873	609
901.976	-512
902.078	-166
902.180	-703
902.282	61
902.384	-137
902.486	-281
902.588	447
902.690	122
902.792	83
902.894	-8
902.996	-857
903.098	-168
903.200	-740
903.302	-190
903.404	424
903.505	-209
903.607	-764
903.709	-335
903.811	-461
903.913	755
904.014	-602
904.116	-586
904.218	-56
904.319	375
904.421	474
904.523	-486
904.624	-527
904.726	281
904.827	-208
904.929	252
905.030	-850
905.132	-1100
905.233	-219
905.335	-290
905.436	-922
905.537	-304
905.639	-174
905.740	-566
905.841	-910
905.943	-118
906.044	-502
906.145	-154
906.247	-1013
906.348	140
906.449	-283
906.550	-564
906.651	282
906.752	561
906.854	-462
906.955	-830
907.056	-712
907.157	-262
907.258	123
907.359	9
907.460	-547
907.561	-117
907.662	282
907.762	90
907.863	-876
907.964	-733
908.065	-132
908.166	-681
908.267	220
908.367	865
908.468	175
908.569	-825
908.670	-405
908.770	172
908.871	136
908.971	-487
909.072	556
909.173	-185
909.273	-1503
909.374	-27
909.474	-57
909.575	-496
909.675	141
909.776	-711
909.876	-603
909.977	-362
910.077	-573
910.177	-1176
910.278	-124
910.378	-24
910.478	-837
910.579	74
910.679	-54
910.779	-26
910.879	856
910.980	-176
911.080	-403
911.180	-443
911.280	-424
911.380	-520
911.480	-960
911.580	-280
911.680	-54
911.780	-780
911.880	-692
911.980	-729
912.080	-961
912.180	-12
912.280	-16
912.380	-18
912.480	-748
912.580	-636
912.679	-795
912.779	-145
912.879	-286
912.979	428
913.078	-952
913.178	153
913.278	-325
913.377	-2
913.477	-378
913.577	-128
913.676	-993
913.776	-81
913.875	-622
913.975	71
914.074	176
914.174	-232
914.273	-863
914.373	-581
914.472	-935
914.572	212
914.671	-376
914.770	-529
914.870	-203
914.969	-394
915.068	-388
915.167	-56
915.267	-915
915.366	-650
915.465	-853
915.564	107
915.663	-935
915.763	-204
915.862	-249
915.961	-716
916.060	-740
916.159	-661
916.258	-1009
916.357	-1061
916.456	-438
916.555	-314
916.654	-601
916.752	-462
916.851	-517
916.950	-373
917.049	-359
917.148	-867
917.247	-123
917.345	-1050
917.444	-629
917.543	-301
917.642	-665
917.740	-541
917.839	-753
917.937	-386
918.036	-356
918.135	-676
918.233	-458
918.332	-633
918.430	-785
918.529	102
918.627	-431
918.726	-542
918.824	-58
918.923	-755
919.021	-531
919.119	-841
919.218	-953
919.316	-875
919.414	-718
919.512	-288
919.611	-968
919.709	-363
919.807	-933
919.905	-169
920.003	-718
920.102	-890
920.200	-659
920.298	-1146
920.396	-850
920.494	-86
920.592	-979
920.690	-411
920.788	-846
920.886	-1056
920.984	-992
921.082	-303
921.180	75
921.277	-184
921.375	-278
921.473	-963
921.571	-1461
921.669	-500
921.766	-1171
921.864	64
921.962	-97
922.060	-18
922.157	-1243
922.255	-86
922.352	-798
922.450	-141
922.548	-956
922.645	-266
922.743	-957
922.840	-958
922.938	-376
923.035	-1120
923.133	-607
923.230	-898
923.327	-959
923.425	-727
923.522	21
923.619	-777
923.717	-1267
923.814	-259
923.911	-662
924.008	-658
924.106	-223
924.203	-468
924.300	-743
924.397	-902
924.494	-134
924.591	147
924.688	-536
924.786	-833
924.883	-228
924.979	-351
925.077	-1154
925.173	-406
925.270	-891
925.367	-57
925.464	-89
925.561	183
925.658	-861
925.755	-663
925.852	-478
925.948	-591
926.045	-537
926.142	-550
926.239	-680
926.335	-439
926.432	-829
926.529	-752
926.625	-510
926.722	-927
926.818	-600
926.915	-160
927.011	-351
927.108	40
927.204	-1155
927.301	-611
927.397	-1450
927.494	-588
927.590	-1069
927.687	-451
927.783	-696
927.879	-645
927.976	-675
928.072	501
928.168	-716
928.264	-607
928.361	-661
928.457	-39
928.553	-835
928.649	123
928.745	-355
928.841	-537
928.937	-298
929.033	-349
929.129	-94
929.225	-977
929.321	-383
929.417	235
929.513	-1060
929.609	-636
929.705	-1442
929.801	-256
929.897	-990
929.993	-473
930.089	-366
930.184	-222
930.280	-531
930.376	-63
930.471	-860
930.567	-312
930.663	-576
930.758	-1361
930.854	-616
930.950	-747
931.045	-821
931.141	-1401
931.236	-33
931.332	-354
931.427	-522
931.523	-110
931.618	-211
931.714	-600
931.809	391
931.905	-519
932.000	-234
932.095	-1172
932.191	-276
932.286	-419
932.381	-428
932.476	-1426
932.572	-1086
932.667	-928
932.762	-1215
932.857	-64
932.952	-1306
933.047	-276
933.142	-1776
933.237	-730
933.332	-664
933.427	250
933.522	-1221
933.617	-786
933.712	-349
933.807	211
933.902	-865
933.997	-913
934.092	-88
934.187	-248
934.282	-1215
934.376	-626
934.471	-1146
934.566	-821
934.661	51
934.755	-385
934.850	-979
934.945	45
935.039	-242
935.134	-832
935.228	-800
935.323	-587
935.417	-330
935.512	-307
935.606	-959
935.701	-191
935.795	-1645
935.890	-457
935.984	-777
936.079	-575
936.173	-903
936.267	-462
936.362	-1024
936.456	-349
936.550	-776
936.644	-1923
936.738	-955
936.833	-588
936.927	-646
937.021	-1213
937.115	-455
937.209	-1546
937.303	-365
937.397	-450
937.491	-1284
937.585	-726
937.679	-168
937.773	-334
937.867	-812
937.961	-831
938.055	-1044
938.149	-1063
938.243	-722
938.337	-432
938.430	-1481
938.524	-165
938.618	-1170
938.712	94
938.805	-800
938.899	-1261
938.993	-685
939.086	-917
939.180	-1103
939.274	-65
939.367	-1384
939.461	-616
939.554	-1308
939.648	-350
939.741	-1068
939.835	-569
939.928	-1160
940.022	276
940.115	-914
940.208	-96
940.302	-615
940.395	-973
940.488	-1532
940.582	-534
940.675	-1334
940.768	-450
940.861	-913
940.954	-1128
941.048	-1319
941.141	-860
941.234	-1770
941.327	-893
941.420	-907
941.513	-1280
941.606	-1549
941.699	-955
941.792	-1014
941.885	-810
941.978	-488
942.071	-1037
942.164	-1249
942.257	-89
942.349	-1249
942.442	-90
942.535	-1312
942.628	-882
942.721	-711
942.813	-1321
942.906	-571
942.999	-1013
943.091	-1565
943.184	-1590
943.277	-1366
943.369	-191
943.462	-921
943.554	-963
943.647	-1510
943.739	-67
943.832	-1152
943.924	-1408
944.017	-917
944.109	-964
944.201	-1095
944.294	-686
944.386	-238
944.478	-1596
944.571	-2061
944.663	-846
944.755	-1865
944.847	-796
944.940	-645
945.032	-1481
945.124	-686
945.216	-348
945.308	-1165
945.400	-405
945.492	-509
945.584	-742
945.676	-1479
945.768	-1591
945.860	-239
945.952	-1739
946.044	-648
946.136	-845
946.228	-1095
946.320	-1086
946.412	-1200
946.503	-936
946.595	-329
946.687	-1275
946.779	-527
946.870	-970
946.962	-973
947.054	-1031
947.145	-680
947.237	-1176
947.329	-340
947.420	-1422
947.512	-1783
947.603	-826
947.695	-694
947.786	-1301
947.878	-1449
947.969	-783
948.061	-1883
948.152	97
948.243	-1148
948.335	-641
948.426	181
948.517	-1028
948.609	-1361
948.700	-844
948.791	-1253
948.882	-1200
948.973	-1288
949.065	-1157
949.156	-852
949.247	-1414
949.338	-915
949.429	-1107
949.520	-917
949.611	-1163
949.702	-1308
949.793	-1033
949.884	-477
949.975	-1626
950.066	-1592
950.157	-1073
950.247	-1797
950.338	-1125
950.429	-1656
950.520	-65
950.611	-1314
950.701	-760
950.792	-1819
950.883	-602
950.973	-986
951.064	-1613
951.155	-1098
951.245	-657
951.336	-832
951.427	-1490
951.517	-321
951.608	-1395
951.698	-1577
951.788	-1323
951.879	-918
951.969	-1415
952.060	-879
952.150	-1633
952.240	-589
952.331	-2360
952.421	-15
952.511	-1641
952.602	-961
952.692	-1421
952.782	-788
952.872	-805
952.962	-1314
953.052	-819
953.143	-2084
953.233	-174
953.323	-1663
953.413	-937
953.503	-764
953.593	-990
953.683	-1231
953.773	-1767
953.863	-1049
953.953	-1293
954.042	-1378
954.132	-688
954.222	-1340
954.312	-1096
954.402	-1358
954.492	-1353
954.581	-925
954.671	-1011
954.761	-2447
954.850	-83
954.940	-733
955.030	-1112
955.119	-1105
955.209	-385
955.298	-1328
955.388	-1222
955.477	-128
955.567	-1360
955.656	-98
955.746	-596
955.835	-833
955.925	-1899
956.014	-1123
956.103	-1350
956.193	-1163
956.282	-795
956.371	-712
956.461	-1332
956.550	-1517
956.639	-988
956.728	-948
956.817	-1325
956.906	-996
956.995	-1294
957.085	-1520
957.174	-961
957.263	-1488
957.352	-270
957.441	-1439
957.530	-1015
957.619	-270
957.708	-1093
957.796	-925
957.885	-926
957.974	-947
958.063	-586
958.152	-2048
958.241	-833
958.329	-918
958.418	-630
958.507	-1686
958.596	-535
958.684	-1778
958.773	-847
958.861	-1396
958.950	-655
959.039	-837
959.127	-296
959.216	-1140
959.304	-1237
959.393	-2644
959.481	-1344
959.570	-1588
959.658	-1109
959.746	-860
959.835	-521
959.923	-1810
960.011	-1456
960.100	-1452
960.188	-1267
960.276	-1772
960.365	-1053
960.453	-687
960.541	-1962
960.629	-1398
960.717	-1314
960.805	-1157
960.893	-1184
960.981	-1622
961.069	453
961.158	-2075
961.245	-1103
961.333	-1424
961.421	-1909
961.509	-1235
961.597	-1286
961.685	-1432
961.773	-690
961.861	-1979
961.949	-1009
962.036	-1981
962.124	-172
962.212	-1994
962.299	-786
962.387	-1624
962.475	-1233
962.562	-1741
962.650	-1408
962.738	-1301
962.825	-877
962.913	-516
963.000	-1189
963.088	-1701
963.175	-894
963.263	-1155
963.350	-1281
963.438	-1008
963.525	-1359
963.612	-651
963.700	-274
963.787	-539
963.874	-402
963.962	-1085
964.049	-1036
964.136	-801
964.223	-1542
964.310	-994
964.398	-1126
964.485	-2047
964.572	-1237
964.659	-1444
964.746	-641
964.833	-940
964.920	-927
965.007	-840
965.094	-799
965.181	-1956
965.268	-1079
965.355	-980
965.441	-1533
965.528	-1448
965.615	-205
965.702	-938
965.789	-1470
965.875	-1251
965.962	-884
966.049	-1909
966.136	-66
966.222	-1536
966.309	-748
966.395	-817
966.482	-1074
966.569	-1212
966.655	-861
966.742	-779
966.828	-800
966.915	-1187
967.001	-684
967.087	-1493
967.174	-756
967.260	-1085
967.347	-1058
967.433	-893
967.519	372
967.605	-1019
967.692	-1437
967.778	-1540
967.864	-993
967.950	-1793
968.036	-1008
968.123	-1030
968.209	-768
968.295	-1125
968.381	291
968.467	-442
968.553	-1961
968.639	-545
968.725	-1803
968.811	-470
968.897	-314
968.983	-1153
969.069	-1982
969.154	-837
969.240	-330
969.326	-1149
969.412	-1652
969.497	-1143
969.583	-1039
969.669	-552
969.755	-1143
969.840	-912
969.926	-1115
970.012	-909
970.097	-812
970.183	-1435
970.268	-810
970.354	-672
970.439	-1653
970.525	238
970.610	-1178
970.696	-77
970.781	-438
970.866	-1764
970.952	-429
971.037	-1951
971.122	-1850
971.208	-1563
971.293	-44
971.378	-2155
971.463	-483
971.549	-1120
971.634	-857
971.719	-1413
971.804	-558
971.889	-310
971.974	-1337
972.059	-1526
972.144	-486
972.229	-1232
972.314	-1269
972.399	-318
972.484	-1419
972.569	-1138
972.654	-1791
972.739	-234
972.824	-1703
972.908	-837
972.993	-913
973.078	-2342
973.163	-404
973.247	-1157
973.332	-2053
973.417	-164
973.501	-1739
973.586	-534
973.671	-1499
973.755	-1021
973.840	-639
973.924	-1548
974.009	-1135
974.093	-1359
974.178	94
974.262	-1030
974.346	-1686
974.431	-1063
974.515	-1656
974.600	-1511
974.684	-1196
974.768	-1468
974.852	-1072
974.937	-1703
975.021	-92
975.105	-854
975.189	-202
975.273	-1552
975.358	-1447
975.442	-1567
975.526	-572
975.610	-1810
975.694	-1576
975.778	-439
975.862	-861
975.946	-2724
976.030	-593
976.114	-1539
976.198	-652
976.281	-1303
976.365	-585
976.449	-1119
976.533	172
976.617	-1642
976.700	-950
976.784	-1005
976.868	-1153
976.951	-1160
977.035	-1282
977.119	-1320
977.202	-1424
977.286	-1363
977.369	-2227
977.453	-553
977.536	-1236
977.620	-2565
977.703	-194
977.787	-1952
977.870	-853
977.953	-550
978.037	-2247
978.120	-754
978.203	-1751
978.287	-1605
978.370	-1000
978.453	-1893
978.536	-1224
978.620	-811
978.703	-1142
978.786	-1744
978.869	-1936
978.952	-2985
979.035	-11
979.118	-949
979.201	-1806
979.284	-1125
979.367	-1746
979.450	-728
979.533	-1110
979.616	-1492
979.699	-1517
979.782	-1170
979.865	-890
979.948	-1533
980.030	-992
980.113	-1906
980.196	-1559
980.279	-1686
980.361	-1734
980.444	-1081
980.526	-502
980.609	-664
980.692	-1528
980.774	-1479
980.857	-2794
980.939	-1127
981.022	-1588
981.104	-1692
981.187	-1066
981.269	-262
981.352	-1368
981.434	-2368
981.516	-2444
981.599	-212
981.681	-863
981.763	-1450
981.846	-653
981.928	-790
982.010	-1169
982.092	-2788
982.174	-47
982.256	-1790
982.339	-989
982.421	-1614
982.503	-1106
982.585	-1833
982.667	-1461
982.749	-941
982.831	-1086
982.913	-2172
982.995	-692
983.077	-1878
983.158	-639
983.240	-2666
983.322	-403
983.404	-1446
983.486	-1834
983.568	-1172
983.649	-1380
983.731	-1479
983.813	-1480
983.894	-1731
983.976	-1826
984.058	-2153
984.139	-856
984.221	-3033
984.302	-499
984.384	-1930
984.465	-2174
984.547	-1611
984.628	-1494
984.710	-1393
984.791	-1874
984.872	-1888
984.954	-2436
985.035	-1014
985.116	-1934
985.198	-2129
985.279	-1081
985.360	-1939
985.441	-1661
985.522	-761
985.604	-1741
985.685	-3011
985.766	-580
985.847	-1539
985.928	-2792
986.009	-2597
986.090	-1865
986.171	-1920
986.252	-2072
986.333	-2148
986.414	-2361
986.495	-1329
986.576	-1426
986.656	-2396
986.737	-1466
986.818	-1714
986.899	-2043
986.980	-2253
987.060	-1072
987.141	-2617
987.222	-1059
987.302	-1930
987.383	-1631
987.464	-1942
987.544	-928
987.625	-2030
987.705	-832
987.786	-2155
987.866	-1757
987.947	-2510
988.027	-1830
988.108	-2397
988.188	-1846
988.268	-1793
988.349	-1557
988.429	-2175
988.509	-1328
988.589	-2202
988.670	-2866
988.750	-849
988.830	-1483
988.910	-1922
988.990	-1559
989.070	-2162
989.151	-1479
989.231	-2709
989.311	-1833
989.391	-1993
989.471	-1589
989.551	-1937
989.631	-1788
989.711	-1304
989.791	-2698
989.870	-2400
989.950	-1395
990.030	-2011
990.110	-1837
990.190	-2003
990.269	-2024
990.349	-1697
990.429	-1174
990.509	-1631
990.588	-1692
990.668	-1796
990.747	-1913
990.827	-1759
990.907	-1170
990.986	-1900
991.066	-1810
991.145	-2410
991.225	-1153
991.304	-1690
991.383	-2258
991.463	-2995
991.542	-1524
991.622	-2432
991.701	-2238
991.780	-1937
991.859	-1170
991.939	-1498
992.018	-2228
992.097	-1548
992.176	-1242
992.256	-1427
992.335	-2338
992.414	-1256
992.493	-1683
992.572	-2291
992.651	-1555
992.730	-1405
992.809	-1866
992.888	-2484
992.967	-2214
993.046	-1334
993.125	-2611
993.203	-1504
993.282	-1673
993.361	-1896
993.440	-1140
993.519	-2397
993.597	-1903
993.676	-2550
993.755	-410
993.834	-1286
993.912	-1437
993.991	-1115
994.069	-2267
994.148	-1786
994.226	-1449
994.305	-1991
994.384	-2742
994.462	-1038
994.540	-2716
994.619	-2479
994.697	-1938
994.776	-1606
994.854	-1136
994.932	-2744
995.011	-1916
995.089	-2799
995.167	-1807
995.245	-1304
995.324	-2932
995.402	-1280
995.480	-1836
995.558	-2041
995.636	-2774
995.714	-1897
995.792	-706
995.870	-2555
995.948	-1613
996.026	-2238
996.104	-2593
996.182	-1215
996.260	-2276
996.338	-2083
996.416	-2513
996.494	-2048
996.572	-138
996.649	-2144
996.727	-2351
996.805	-1647
996.883	-1882
996.960	-2134
997.038	-1328
997.116	-1585
997.193	-2685
997.271	-1711
997.348	-2603
997.426	-2405
997.504	-2030
997.581	-1447
997.658	-1417
997.736	-2156
997.813	-2325
997.891	-1022
997.968	-2295
998.046	-1732
998.123	-1597
998.200	-2028
998.277	-2914
998.355	-1453
998.432	-3096
998.509	-1421
998.586	-1383
998.663	-1707
998.741	-1450
998.818	-2459
998.895	-2572
998.972	-2093
999.049	-1635
999.126	-2418
999.203	-1330
999.280	-2340
999.357	-1751
999.434	-2544
999.511	-2171
999.587	-1551
999.664	-1896
999.741	-975
999.818	-986
999.895	-1941
999.971	-2111
1000.048	-1568
1000.125	-1029
1000.202	-2019
1000.278	-2531
1000.355	-1807
1000.431	-2124
1000.508	-2722
1000.584	-1400
1000.661	-1389
1000.738	-2251
1000.814	-2346
1000.890	-998
1000.967	-2085
1001.043	-1874
1001.120	-3080
1001.196	-1984
1001.272	-2040
1001.349	-1633
1001.425	-982
1001.501	-1332
1001.577	-2637
1001.654	-1747
1001.730	-1558
1001.806	-1925
1001.882	-2772
1001.958	-1678
1002.034	-1878
1002.110	-1858
1002.186	-2393
1002.262	-1838
1002.338	-2729
1002.414	-1762
1002.490	-1398
1002.566	-2110
1002.642	-1742
1002.718	-1223
1002.794	-1890
1002.870	-2106
1002.945	-1860
1003.021	-1532
1003.097	-2516
1003.173	-1561
1003.248	-2594
1003.324	-1616
1003.400	-1292
1003.475	-1875
1003.551	-2465
1003.626	-1271
1003.702	-2239
1003.777	-1935
1003.853	-2487
1003.928	-2021
1004.004	-1855
1004.079	-2224
1004.155	-2180
1004.230	-2566
1004.305	-1320
1004.381	-1758
1004.456	-1144
1004.531	-1975
1004.607	-1623
1004.682	-2331
1004.757	-2238
1004.832	-2284
1004.907	-2522
1004.982	-1651
1005.057	-1885
1005.133	-2056
1005.208	-2023
1005.283	-1716
1005.358	-1214
1005.433	-2929
1005.508	-1998
1005.583	-2413
1005.657	-2294
1005.732	-1780
1005.807	-3169
1005.882	-2034
1005.957	-1288
1006.032	-861
1006.106	-2002
1006.181	-1738
1006.256	-2295
1006.331	-1850
1006.405	-2409
1006.480	-1330
1006.554	-1727
1006.629	-1710
1006.704	-1865
1006.778	-1851
1006.853	-1080
1006.927	-2590
1007.002	-2742
1007.076	-2745
1007.150	-2004
1007.225	-2386
1007.299	-2337
1007.373	-2131
1007.448	-1994
1007.522	-1461
1007.596	-2300
1007.671	-2107
1007.745	-2296
1007.819	-2583
1007.893	-2590
1007.967	-1963
1008.041	-2485
1008.115	-1814
1008.190	-2123
1008.264	-1772
1008.338	-2961
1008.412	-2317
1008.486	-2664
1008.560	-1764
1008.633	-3143
1008.707	-2792
1008.781	-1072
1008.855	-3075
1008.929	-2650
1009.003	-2238
1009.076	-2162
1009.150	-1129
1009.224	-2227
1009.298	-2108
1009.371	-2487
1009.445	-1486
1009.519	-2409
1009.592	-3144
1009.666	-1606
1009.739	-2219
1009.813	-3348
1009.886	-1824
1009.960	-2461
1010.033	-2173
1010.107	-1280
1010.180	-2234
1010.253	-1290
1010.327	-2345
1010.400	-2246
1010.473	-1269
1010.547	-896
1010.620	-2379
1010.693	-1523
1010.766	-2814
1010.840	-2461
1010.913	-2059
1010.986	-2412
1011.059	-1822
1011.132	-1613
1011.205	-1148
1011.278	-2276
1011.351	-2459
1011.424	-2550
1011.497	-2269
1011.570	-2764
1011.643	-2670
1011.716	-2646
1011.789	-2198
1011.862	-1647
1011.934	-1580
1012.007	-3328
1012.080	-1390
1012.153	-1993
1012.225	-1500
1012.298	-2820
1012.371	-2065
1012.443	-2110
1012.516	-2699
1012.588	-2742
1012.661	-1510
1012.733	-2808
1012.806	-1749
1012.879	-2402
1012.951	-2251
1013.023	-2580
1013.096	-2218
1013.168	-2553
1013.241	-1649
1013.313	-2661
1013.385	-1815
1013.458	-2691
1013.530	-2081
1013.602	-2734
1013.674	-1748
1013.746	-3057
1013.819	-2411
1013.891	-1300
1013.963	-2811
1014.035	-2984
1014.107	-1788
1014.179	-1989
1014.251	-3159
1014.323	-2283
1014.395	-2174
1014.467	-2550
1014.539	-1496
1014.611	-3183
1014.683	-2569
1014.754	-1442
1014.826	-2856
1014.898	-2667
1014.970	-3911
1015.042	-1066
1015.113	-1737
1015.185	-2591
1015.257	-3414
1015.328	-2420
1015.400	-2704
1015.471	-2468
1015.543	-3417
1015.615	-2247
1015.686	-1943
1015.757	-2144
1015.829	-3144
1015.901	-2435
1015.972	-2352
1016.043	-2423
1016.115	-1984
1016.186	-2359
1016.257	-1974
1016.328	-2154
1016.400	-1950
1016.471	-2626
1016.542	-1838
1016.613	-3146
1016.685	-1937
1016.756	-2206
1016.827	-3025
1016.898	-2691
1016.969	-2206
1017.040	-2530
1017.111	-1946
1017.182	-2645
1017.253	-1780
1017.324	-2463
1017.395	-2714
1017.466	-3058
1017.537	-2885
1017.608	-2751
1017.678	-2834
1017.749	-2793
1017.820	-2294
1017.891	-2510
1017.961	-2802
1018.032	-2620
1018.103	-1597
1018.173	-2198
1018.244	-2558
1018.315	-2980
1018.385	-2160
1018.456	-2392
1018.526	-2085
1018.597	-1963
1018.667	-2572
1018.738	-2691
1018.808	-2141
1018.878	-2621
1018.949	-1966
1019.019	-2474
1019.089	-2767
1019.160	-1675
1019.230	-2527
1019.300	-1906
1019.371	-3132
1019.441	-1606
1019.511	-2062
1019.581	-2626
1019.651	-1636
1019.721	-2638
1019.791	-1891
1019.861	-2659
1019.931	-2457
1020.001	-2768
1020.071	-1998
1020.141	-3245
1020.211	-1635
1020.281	-2656
1020.351	-2145
1020.421	-3009
1020.491	-1254
1020.560	-2977
1020.630	-2275
1020.700	-2513
1020.770	-2092
1020.839	-2711
1020.909	-2408
1020.979	-2447
1021.048	-2889
1021.118	-2158
1021.187	-2435
1021.257	-3552
1021.326	-2014
1021.396	-2937
1021.465	-2164
1021.535	-2055
1021.604	-3092
1021.674	-2472
1021.743	-2278
1021.812	-2770
1021.882	-2545
1021.951	-2432
1022.020	-1973
1022.089	-2276
1022.159	-2555
1022.228	-2031
1022.297	-2804
1022.366	-2932
1022.435	-2244
1022.504	-2411
1022.573	-2509
1022.642	-2426
1022.711	-2843
1022.781	-2627
1022.849	-2127
1022.918	-2502
1022.987	-2061
1023.056	-2131
1023.125	-2428
1023.194	-2232
1023.263	-2000
1023.331	-2168
1023.400	-2500
1023.469	-3174
1023.538	-2068
1023.606	-2649
1023.675	-2644
1023.744	-2704
1023.812	-2535
1023.881	-2141
1023.949	-1664
1024.018	-2229
1024.086	-2708
1024.155	-2620
1024.223	-2173
1024.292	-2134
1024.360	-2674
1024.429	-1879
1024.497	-2667
1024.565	-2430
1024.634	-2321
1024.702	-2313
1024.770	-2012
1024.838	-3210
1024.907	-2129
1024.975	-3278
1025.043	-2197
1025.111	-2897
1025.179	-2079
1025.247	-2718
1025.315	-1895
1025.383	-1763
1025.451	-2857
1025.519	-2342
1025.587	-2242
1025.655	-2016
1025.723	-2273
1025.791	-1708
1025.859	-2645
1025.927	-1974
1025.995	-2636
1026.062	-2776
1026.130	-2491
1026.198	-2498
1026.266	-3153
1026.333	-2365
1026.401	-1999
1026.469	-1806
1026.536	-2382
1026.604	-2516
1026.671	-1958
1026.739	-1989
1026.806	-3151
1026.874	-2170
1026.941	-1738
1027.009	-1975
1027.076	-2628
1027.144	-1385
1027.211	-2452
1027.278	-3668
1027.345	-1980
1027.413	-2145
1027.480	-2395
1027.547	-2173
1027.614	-1986
1027.682	-2062
1027.749	-1836
1027.816	-2206
1027.883	-2576
1027.950	-1919
1028.017	-2896
1028.084	-2511
1028.151	-2865
1028.218	-2837
1028.285	-2068
1028.352	-2538
1028.419	-2516
1028.486	-2270
1028.553	-1997
1028.619	-2607
1028.686	-2284
1028.753	-2506
1028.820	-2824
1028.886	-1961
1028.953	-1512
1029.020	-2647
1029.086	-1956
1029.153	-2073
1029.220	-2456
1029.286	-1752
1029.353	-1963
1029.419	-2413
1029.486	-1613
1029.552	-2629
1029.619	-2305
1029.685	-2497
1029.751	-2282
1029.818	-1881
1029.884	-2252
1029.951	-1212
1030.017	-2600
1030.083	-2131
1030.149	-2195
1030.216	-2153
1030.282	-2446
1030.348	-2471
1030.414	-1989
1030.480	-2259
1030.546	-1860
1030.612	-2027
1030.678	-2398
1030.744	-2836
1030.810	-3191
1030.876	-1941
1030.942	-2526
1031.008	-2758
1031.074	-2005
1031.140	-2320
1031.206	-1764
1031.272	-3012
1031.337	-1726
1031.403	-2164
1031.469	-2916
1031.534	-2555
1031.600	-2162
1031.666	-2453
1031.731	-2414
1031.797	-2960
1031.863	-2335
1031.928	-2061
1031.994	-1840
1032.059	-2348
1032.125	-2128
1032.190	-2006
1032.256	-2639
1032.321	-2033
1032.386	-1511
1032.452	-1681
1032.517	-2787
1032.582	-2572
1032.647	-2479
1032.713	-2737
1032.778	-2423
1032.843	-2534
1032.908	-2087
1032.974	-2083
1033.039	-2433
1033.104	-2215
1033.169	-2972
1033.234	-2846
1033.299	-1981
1033.364	-2677
1033.429	-2135
1033.494	-2245
1033.559	-2224
1033.624	-2116
1033.688	-1524
1033.753	-2375
1033.818	-1830
1033.883	-2646
1033.948	-1899
1034.013	-1501
1034.077	-2445
1034.142	-2086
1034.207	-2474
1034.271	-2389
1034.336	-2257
1034.400	-2124
1034.465	-2380
1034.530	-2212
1034.594	-2346
1034.658	-2079
1034.723	-2633
1034.787	-2205
1034.852	-2340
1034.916	-1680
1034.981	-2254
1035.045	-1717
1035.109	-2014
1035.173	-1681
1035.238	-2367
1035.302	-2284
1035.366	-2709
1035.430	-2371
1035.495	-2096
1035.559	-1523
1035.623	-2494
1035.687	-1968
1035.751	-1460
1035.815	-2164
1035.879	-2412
1035.943	-2723
1036.007	-1917
1036.071	-1991
1036.135	-2086
1036.198	-2517
1036.262	-2558
1036.326	-2433
1036.390	-2148
1036.454	-1659
1036.517	-2043
1036.581	-2197
1036.645	-2469
1036.709	-2294
1036.772	-2135
1036.836	-1572
1036.900	-2431
1036.963	-2844
1037.026	-2394
1037.090	-3052
1037.154	-2328
1037.217	-2240
1037.280	-2403
1037.344	-2107
1037.407	-2768
1037.471	-2575
1037.534	-2980
1037.597	-1724
1037.661	-2748
1037.724	-2181
1037.787	-2408
1037.850	-2159
1037.913	-2379
1037.977	-2599
1038.040	-2319
1038.103	-3341
1038.166	-2221
1038.229	-2151
1038.292	-2602
1038.355	-2461
1038.418	-2535
1038.481	-2439
1038.544	-2289
1038.607	-2682
1038.670	-1618
1038.732	-1655
1038.795	-2597
1038.858	-1186
1038.921	-1276
1038.984	-2762
1039.046	-2222
1039.109	-2153
1039.172	-1811
1039.234	-2269
1039.297	-2173
1039.360	-2171
1039.422	-2423
1039.485	-2066
1039.547	-2009
1039.610	-2764
1039.672	-2122
1039.734	-1740
1039.797	-2145
1039.859	-2839
1039.922	-2669
1039.984	-2769
1040.046	-2966
1040.109	-2556
1040.171	-1822
1040.233	-1748
1040.295	-2882
1040.358	-2687
1040.420	-3123
1040.482	-2601
1040.544	-2546
1040.606	-2909
1040.668	-2485
1040.730	-2992
1040.792	-2447
1040.854	-2151
1040.916	-1765
1040.978	-2553
1041.040	-1195
1041.102	-2051
1041.164	-2344
1041.225	-2601
1041.287	-3260
1041.349	-2688
1041.411	-3000
1041.472	-2341
1041.534	-2372
1041.596	-2470
1041.657	-2401
1041.719	-2767
1041.781	-2238
1041.842	-2501
1041.904	-2612
1041.965	-2092
1042.027	-2093
1042.088	-2688
1042.150	-2189
1042.211	-2586
1042.272	-2126
1042.334	-2486
1042.395	-1915
1042.456	-2502
1042.518	-2568
1042.579	-1952
1042.640	-2120
1042.701	-2236
1042.763	-2134
1042.824	-2337
1042.885	-2429
1042.946	-2952
1043.007	-2489
1043.068	-1911
1043.129	-2619
1043.190	-2142
1043.251	-2160
1043.312	-3082
1043.373	-1853
1043.434	-2614
1043.495	-1964
1043.556	-1831
1043.616	-2689
1043.677	-3577
1043.738	-2052
1043.799	-2456
1043.859	-2539
1043.920	-2827
1043.981	-2513
1044.041	-2772
1044.102	-2491
1044.162	-2503
1044.223	-3098
1044.284	-2222
1044.344	-2735
1044.405	-2772
1044.465	-2758
1044.525	-3273
1044.586	-3152
1044.646	-2429
1044.707	-2578
1044.767	-2724
1044.827	-1973
1044.887	-2460
1044.948	-2318
1045.008	-2247
1045.068	-2204
1045.128	-2349
1045.188	-1977
1045.249	-1703
1045.309	-2334
1045.369	-1595
1045.429	-2471
1045.489	-2046
1045.549	-1799
1045.609	-2509
1045.669	-2391
1045.729	-2636
1045.789	-1363
1045.848	-2700
1045.908	-2207
1045.968	-2289
1046.028	-2458
1046.088	-2632
1046.147	-1833
1046.207	-1532
1046.267	-1963
1046.326	-2318
1046.386	-2195
1046.446	-1663
1046.505	-1299
1046.565	-1493
1046.624	-1360
1046.684	-2060
1046.743	-1651
1046.803	-1310
1046.862	-1285
1046.922	0
