'Start Wavelength	183.907
'End Wavelength	1046.922
'Gate Delay	5.000
'Gate Width (ms)	1.050
'Laser Output Level	0.000
'X Position	0.000
'Y Position	0.000
'Z Position	0.000
'Grid Point Number	1.000
'Shot Number	100.000
183.907	329.000
183.977	22.000
184.047	137
184.116	735
184.186	-270
184.256	774
184.325	13
184.395	-1173
184.465	402
184.534	-300
184.604	-567
184.674	90
184.743	-14
184.813	242
184.883	-415
184.952	-329
185.022	380
185.092	-269
185.161	305
185.231	422
185.301	171
185.370	631
185.440	-335
185.509	-166
185.579	273
185.649	683
185.718	-82
185.788	664
185.857	-380
185.927	196
185.996	414
186.066	322
186.136	-708
186.205	-287
186.275	-656
186.344	516
186.414	365
186.483	-870
186.553	1330
186.622	791
186.692	462
186.761	-455
186.831	-482
186.900	-243
186.970	-455
187.039	474
187.109	450
187.178	879
187.248	2
187.317	304
187.387	-177
187.456	595
187.526	170
187.595	297
187.664	-158
187.734	262
187.803	1124
187.873	143
187.942	404
188.012	153
188.081	56
188.150	291
188.220	300
188.289	1400
188.358	1263
188.428	708
188.497	206
188.567	1017
188.636	-243
188.705	-87
188.775	390
188.844	-783
188.913	792
188.983	454
189.052	522
189.121	-551
189.191	61
189.260	307
189.329	671
189.399	-20
189.468	512
189.537	-608
189.606	217
189.676	764
189.745	293
189.814	107
189.883	904
189.953	59
190.022	1706
190.091	1337
190.161	2553
190.230	1322
190.299	713
190.368	229
190.437	-757
190.507	837
190.576	659
190.645	-650
190.714	489
190.783	-340
190.853	894
190.922	1206
190.991	237
191.060	306
191.129	51
191.198	857
191.268	1179
191.337	577
191.406	1504
191.475	449
191.544	665
191.613	826
191.682	264
191.752	59
191.821	388
191.890	887
191.959	655
192.028	203
192.097	1028
192.166	1010
192.235	396
192.304	344
192.373	64
192.442	86
192.511	617
192.580	577
192.650	337
192.719	603
192.788	23
192.857	741
192.926	-249
192.995	563
193.064	254
193.133	1537
193.202	901
193.271	1541
193.340	754
193.409	700
193.478	1960
193.547	1768
193.615	3515
193.684	2030
193.753	2065
193.822	1415
193.891	446
193.960	999
194.029	375
194.098	982
194.167	213
194.236	1149
194.305	-548
194.374	437
194.443	846
194.512	1209
194.580	1181
194.649	497
194.718	2134
194.787	1128
194.856	231
194.925	908
194.994	767
195.062	373
195.131	471
195.200	1365
195.269	2251
195.338	345
195.407	1244
195.475	653
195.544	1394
195.613	1553
195.682	1304
195.751	1561
195.819	1080
195.888	933
195.957	1321
196.026	1312
196.094	2138
196.163	1396
196.232	1949
196.301	1596
196.369	1046
196.438	759
196.507	1123
196.576	339
196.644	1015
196.713	543
196.782	558
196.850	669
196.919	-87
196.988	641
197.056	567
197.125	902
197.194	1627
197.262	226
197.331	-115
197.400	1386
197.468	72
197.537	157
197.606	1071
197.674	1838
197.743	2685
197.812	1013
197.880	2122
197.949	1657
198.017	1739
198.086	1682
198.155	672
198.223	1173
198.292	2127
198.360	1335
198.429	1406
198.497	986
198.566	1428
198.635	2392
198.703	1978
198.772	1260
198.840	2129
198.909	3026
198.977	608
199.046	1149
199.114	1255
199.183	451
199.251	666
199.320	835
199.388	734
199.457	1545
199.525	528
199.594	601
199.662	547
199.731	867
199.799	1687
199.867	628
199.936	585
200.004	1034
200.073	1185
200.141	653
200.210	600
200.278	469
200.346	795
200.415	653
200.483	1712
200.552	1267
200.620	139
200.688	656
200.757	433
200.825	1083
200.893	887
200.962	454
201.030	1045
201.098	672
201.167	664
201.235	860
201.303	1026
201.372	1912
201.440	142
201.508	816
201.577	1369
201.645	1405
201.713	900
201.781	169
201.850	1460
201.918	1322
201.986	709
202.055	1893
202.123	492
202.191	777
202.259	1480
202.327	935
202.396	773
202.464	946
202.532	1234
202.600	4114
202.669	3008
202.737	1544
202.805	1040
202.873	343
202.941	994
203.009	1109
203.078	739
203.146	170
203.214	588
203.282	91
203.350	1371
203.418	497
203.487	676
203.555	478
203.623	530
203.691	1151
203.759	403
203.827	104
203.895	744
203.963	1529
204.031	423
204.099	174
204.168	726
204.236	1075
204.304	2290
204.372	584
204.440	784
204.508	1244
204.576	356
204.644	1221
204.712	589
204.780	539
204.848	1539
204.916	1204
204.984	981
205.052	1416
205.120	1059
205.188	1260
205.256	1231
205.324	387
205.392	701
205.460	671
205.528	1335
205.596	1223
205.664	745
205.732	1199
205.799	3118
205.867	5309
205.935	967
206.003	1919
206.071	1346
206.139	810
206.207	897
206.275	1356
206.343	-424
206.411	900
206.478	1574
206.546	1512
206.614	1243
206.682	1844
206.750	523
206.818	1379
206.885	1963
206.953	67
207.021	1670
207.089	1721
207.157	102
207.225	1457
207.292	1359
207.360	1443
207.428	1062
207.496	1344
207.563	1645
207.631	1532
207.699	476
207.767	875
207.834	1178
207.902	1660
207.970	918
208.038	909
208.105	1403
208.173	1435
208.241	1347
208.309	1633
208.376	2121
208.444	3687
208.512	2205
208.579	545
208.647	1335
208.715	2064
208.782	1814
208.850	1344
208.918	659
208.985	308
209.053	1224
209.120	1471
209.188	1386
209.256	2033
209.323	1004
209.391	1531
209.459	3067
209.526	1778
209.594	1317
209.661	1670
209.729	1764
209.796	2573
209.864	2064
209.932	255
209.999	2778
210.067	2085
210.134	2238
210.202	1676
210.269	3175
210.337	2880
210.404	1767
210.472	997
210.539	2012
210.607	1009
210.674	1702
210.742	1896
210.809	1995
210.877	1238
210.944	2004
211.012	1317
211.079	3698
211.146	1534
211.214	2244
211.281	2617
211.349	2738
211.416	2536
211.484	2213
211.551	1888
211.618	1753
211.686	1429
211.753	862
211.821	1201
211.888	1851
211.955	1709
212.023	1326
212.090	831
212.157	1515
212.225	1981
212.292	3588
212.359	5205
212.427	13420
212.494	6575
212.561	3560
212.629	2285
212.696	1333
212.763	1730
212.831	926
212.898	2179
212.965	1476
213.032	1521
213.100	2527
213.167	1425
213.234	2162
213.301	1543
213.369	1698
213.436	1568
213.503	1441
213.570	2549
213.638	2680
213.705	1434
213.772	1253
213.839	2107
213.906	3625
213.973	2744
214.041	1759
214.108	2314
214.175	2174
214.242	1105
214.309	1701
214.376	2221
214.444	1852
214.511	2652
214.578	1578
214.645	2700
214.712	3183
214.779	2021
214.846	1439
214.913	2541
214.980	2872
215.048	3516
215.115	2996
215.182	3844
215.249	2306
215.316	2406
215.383	2373
215.450	1896
215.517	2214
215.584	2346
215.651	1788
215.718	2121
215.785	2267
215.852	1664
215.919	4391
215.986	2346
216.053	1691
216.120	1045
216.187	2197
216.254	2742
216.321	2209
216.388	2009
216.455	2389
216.522	3380
216.589	2983
216.656	5121
216.722	5082
216.789	3707
216.856	4209
216.923	2741
216.990	3336
217.057	2786
217.124	3142
217.191	3468
217.258	3855
217.324	4825
217.391	5598
217.458	3860
217.525	3299
217.592	3105
217.659	1621
217.725	3198
217.792	3720
217.859	3937
217.926	1483
217.993	2000
218.059	2064
218.126	1827
218.193	1746
218.260	1641
218.327	1792
218.393	1488
218.460	1667
218.527	1076
218.594	2153
218.660	4935
218.727	4779
218.794	1854
218.860	2164
218.927	1418
218.994	1180
219.061	2012
219.127	2613
219.194	3332
219.261	1651
219.327	1391
219.394	2469
219.461	775
219.527	1661
219.594	2231
219.661	2370
219.727	720
219.794	1993
219.860	1459
219.927	2464
219.994	2631
220.060	5507
220.127	3517
220.193	2243
220.260	2944
220.326	4127
220.393	5030
220.460	8082
220.526	4885
220.593	2297
220.659	4435
220.726	3365
220.792	7269
220.859	6925
220.925	9605
220.992	12522
221.058	11803
221.125	11237
221.191	7804
221.258	3678
221.324	3206
221.391	2732
221.457	2705
221.524	1938
221.590	3314
221.657	8444
221.723	6166
221.789	5040
221.856	5970
221.922	2786
221.989	2961
222.055	2567
222.121	1028
222.188	4268
222.254	2533
222.321	1930
222.387	733
222.453	1505
222.520	1755
222.586	1454
222.652	2271
222.719	1421
222.785	2372
222.851	1392
222.918	1618
222.984	2600
223.050	2785
223.116	1477
223.183	2149
223.249	1816
223.315	709
223.382	1854
223.448	986
223.514	1013
223.580	1153
223.647	1151
223.713	711
223.779	1450
223.845	1760
223.911	2216
223.978	902
224.044	2527
224.110	1173
224.176	1524
224.242	1121
224.309	1259
224.375	2068
224.441	1506
224.507	1512
224.573	883
224.639	1496
224.705	1009
224.772	1541
224.838	799
224.904	2473
224.970	596
225.036	1460
225.102	1041
225.168	1979
225.234	2327
225.300	1626
225.366	1093
225.432	1851
225.499	1559
225.565	1742
225.631	1808
225.697	1559
225.763	1808
225.829	2979
225.895	2763
225.961	4992
226.027	4347
226.093	2929
226.159	4095
226.225	5355
226.291	10639
226.357	19459
226.423	11379
226.489	7620
226.554	3974
226.620	3018
226.686	5549
226.752	8956
226.818	10764
226.884	22867
226.950	21993
227.016	9324
227.082	6111
227.148	5001
227.214	5940
227.279	4400
227.345	3484
227.411	3391
227.477	2924
227.543	6429
227.609	6911
227.674	5549
227.740	3114
227.806	3443
227.872	2046
227.938	2680
228.003	5799
228.069	2554
228.135	1077
228.201	2453
228.267	1646
228.332	2047
228.398	3237
228.464	2827
228.530	1476
228.595	2749
228.661	720
228.727	3002
228.792	3429
228.858	2028
228.924	1454
228.990	3336
229.055	2496
229.121	3514
229.187	2281
229.252	1923
229.318	1441
229.384	2849
229.449	3386
229.515	489
229.581	329
229.646	3113
229.712	2656
229.777	5055
229.843	6724
229.909	4738
229.974	5351
230.040	4467
230.105	3045
230.171	3635
230.236	4756
230.302	6971
230.368	5644
230.433	2310
230.499	2858
230.564	3911
230.630	2301
230.695	2132
230.761	2543
230.826	1111
230.892	4475
230.957	2415
231.023	1388
231.088	2102
231.154	2007
231.219	2793
231.284	3023
231.350	4199
231.415	1742
231.481	2032
231.546	1957
231.612	2937
231.677	603
231.742	1273
231.808	3261
231.873	1481
231.939	199
232.004	4920
232.069	5355
232.135	2369
232.200	1700
232.265	1555
232.331	599
232.396	1143
232.461	1243
232.527	888
232.592	952
232.657	2208
232.723	3435
232.788	3443
232.853	1553
232.918	2598
232.984	1004
233.049	1232
233.114	3349
233.179	3663
233.245	5016
233.310	6817
233.375	1848
233.440	2158
233.506	1384
233.571	1773
233.636	1126
233.701	2241
233.766	3996
233.832	5820
233.897	3500
233.962	2846
234.027	4903
234.092	2862
234.157	2965
234.222	2572
234.288	4375
234.353	12672
234.418	12471
234.483	8562
234.548	5477
234.613	3672
234.678	3878
234.743	3783
234.808	14165
234.873	8917
234.938	5041
235.004	2968
235.069	3040
235.134	2452
235.199	3951
235.264	2905
235.329	1235
235.394	3321
235.459	5067
235.524	2619
235.589	2419
235.654	2528
235.719	1325
235.784	2570
235.849	3219
235.913	8264
235.978	8339
236.043	8926
236.108	3520
236.173	2767
236.238	4285
236.303	1332
236.368	2852
236.433	5198
236.498	8887
236.563	5628
236.627	8607
236.692	29124
236.757	24875
236.822	10441
236.887	9196
236.952	7489
237.017	4552
237.081	5926
237.146	7534
237.211	13924
237.276	27123
237.341	47108
237.405	26823
237.470	12160
237.535	9008
237.600	6081
237.664	4391
237.729	3373
237.794	5029
237.859	10474
237.923	8099
237.988	4353
238.053	7867
238.118	6934
238.182	15889
238.247	16405
238.312	8956
238.376	7223
238.441	4009
238.506	5355
238.570	2099
238.635	3333
238.700	2451
238.764	2283
238.829	7313
238.893	9476
238.958	4610
239.023	4729
239.087	3445
239.152	3708
239.216	1484
239.281	3032
239.346	2864
239.410	2585
239.475	3781
239.539	15446
239.604	12976
239.668	4305
239.733	2982
239.797	4801
239.862	11464
239.926	14728
239.991	6824
240.055	3833
240.120	2588
240.184	3903
240.249	2206
240.313	3086
240.378	3491
240.442	9345
240.507	16235
240.571	5875
240.635	6355
240.700	11492
240.764	4306
240.829	3602
240.893	2363
240.957	3603
241.022	8501
241.086	16981
241.151	8418
241.215	3772
241.279	4985
241.344	8395
241.408	4401
241.472	3644
241.537	4718
241.601	3728
241.665	2323
241.730	2335
241.794	4550
241.858	3196
241.922	3703
241.987	3297
242.051	2364
242.115	2672
242.179	3067
242.244	2702
242.308	4317
242.372	3396
242.436	4409
242.501	3467
242.565	2305
242.629	2392
242.693	3206
242.757	1858
242.822	3149
242.886	3354
242.950	3457
243.014	2480
243.078	5105
243.142	4960
243.206	3526
243.271	4344
243.335	3350
243.399	5228
243.463	14706
243.527	45820
243.591	15884
243.655	8279
243.719	4459
243.783	5144
243.847	8221
243.911	9705
243.975	14151
244.040	10796
244.104	7359
244.168	3996
244.232	6791
244.296	10351
244.360	9691
244.424	5232
244.488	4647
244.552	4656
244.615	2606
244.679	3118
244.743	4302
244.807	5215
244.871	3216
244.935	3297
244.999	2008
245.063	4078
245.127	4893
245.191	6761
245.255	6992
245.319	6441
245.383	5539
245.446	4612
245.510	2216
245.574	3892
245.638	4241
245.702	2907
245.766	10633
245.829	6830
245.893	4190
245.957	3704
246.021	5476
246.085	5354
246.149	5716
246.212	14142
246.276	21480
246.340	11228
246.404	7677
246.467	7255
246.531	10688
246.595	7498
246.659	6654
246.722	5923
246.786	8654
246.850	8123
246.913	11217
246.977	4030
247.041	5043
247.104	6200
247.168	6039
247.232	13558
247.295	27769
247.359	15644
247.423	6140
247.486	11917
247.550	9330
247.614	6421
247.677	9150
247.741	5783
247.804	5249
247.868	5632
247.932	12060
247.995	27940
248.059	11793
248.122	5140
248.186	7376
248.249	13050
248.313	40124
248.376	46253
248.440	30400
248.503	12266
248.567	10961
248.630	12936
248.694	19839
248.757	24024
248.821	44848
248.884	31195
248.948	25264
249.011	36994
249.075	52141
249.138	49088
249.202	21776
249.265	13095
249.328	14777
249.392	11538
249.455	10011
249.519	6843
249.582	9690
249.645	14532
249.709	11984
249.772	6738
249.835	6648
249.899	7655
249.962	7146
250.025	5773
250.089	16523
250.152	26494
250.215	13014
250.279	9139
250.342	9468
250.405	8369
250.468	7372
250.532	9301
250.595	15280
250.658	39609
250.721	70877
250.785	28621
250.848	16304
250.911	9925
250.974	8862
251.038	11918
251.101	26627
251.164	15157
251.227	15844
251.290	13146
251.354	16698
251.417	56234
251.480	63284
251.543	39977
251.606	101091
251.669	84293
251.732	35604
251.795	36878
251.859	36063
251.922	66900
251.985	45627
252.048	18098
252.111	15108
252.174	13434
252.237	24733
252.300	54221
252.363	52471
252.426	92617
252.489	46076
252.552	26182
252.615	19022
252.678	16906
252.741	38751
252.804	46155
252.867	90082
252.930	64872
252.993	37613
253.056	23948
253.119	18799
253.182	13506
253.245	20234
253.308	17091
253.371	17643
253.434	17722
253.497	15606
253.559	26992
253.622	22023
253.685	26208
253.748	31359
253.811	14315
253.874	16787
253.937	17326
254.000	12283
254.062	18365
254.125	29823
254.188	27258
254.251	25992
254.314	11902
254.376	21048
254.439	26155
254.502	24013
254.565	19906
254.628	36696
254.690	25777
254.753	14973
254.816	10893
254.878	12449
254.941	19192
255.004	22593
255.067	10217
255.129	12577
255.192	5299
255.255	5619
255.317	7856
255.380	5752
255.443	4147
255.505	3883
255.568	3784
255.631	5665
255.693	6392
255.756	4110
255.819	5818
255.881	2969
255.944	3719
256.006	3235
256.069	3601
256.132	2995
256.194	5502
256.257	16208
256.319	11256
256.382	11788
256.444	7031
256.507	4999
256.569	3971
256.632	5084
256.694	8392
256.757	15487
256.819	46127
256.882	21395
256.944	10403
257.007	8788
257.069	10050
257.132	7228
257.194	5034
257.257	4439
257.319	5432
257.381	5109
257.444	12837
257.506	49856
257.569	66652
257.631	39213
257.693	22400
257.756	10254
257.818	9534
257.880	6085
257.943	6338
258.005	5215
258.067	4794
258.130	5172
258.192	6502
258.254	15499
258.317	9253
258.379	5789
258.441	13756
258.503	15597
258.566	16571
258.628	25465
258.690	6465
258.753	7355
258.815	16025
258.877	9060
258.939	4888
259.001	5104
259.064	3649
259.126	5826
259.188	8860
259.250	5349
259.312	7843
259.375	20313
259.437	14502
259.499	6224
259.561	4070
259.623	5271
259.685	5462
259.747	5461
259.809	15278
259.872	33782
259.934	44047
259.996	48483
260.058	15265
260.120	6938
260.182	5713
260.244	3969
260.306	3826
260.368	4551
260.430	4816
260.492	12160
260.554	23165
260.616	16400
260.678	23560
260.740	37639
260.802	9652
260.864	8221
260.926	6676
260.988	6767
261.050	6345
261.112	16263
261.174	38270
261.236	29488
261.298	10217
261.359	14913
261.421	24504
261.483	8255
261.545	6963
261.607	3674
261.669	4159
261.731	9292
261.793	26706
261.854	12894
261.916	8441
261.978	7394
262.040	9213
262.102	5462
262.164	9793
262.225	9595
262.287	5234
262.349	14297
262.411	12361
262.472	6345
262.534	8814
262.596	23485
262.658	8505
262.719	4379
262.781	7433
262.843	21380
262.904	11285
262.966	7254
263.028	8913
263.090	30693
263.151	87175
263.213	34989
263.275	20946
263.336	8720
263.398	7236
263.459	3939
263.521	5414
263.583	13832
263.644	10771
263.706	4684
263.767	3161
263.829	2693
263.891	2268
263.952	2274
264.014	2985
264.075	6417
264.137	21111
264.198	10907
264.260	4059
264.321	3981
264.383	10482
264.444	31208
264.506	10576
264.567	6010
264.629	11010
264.690	24365
264.752	9666
264.813	6105
264.875	4387
264.936	4904
264.998	3873
265.059	3154
265.120	3720
265.182	5224
265.243	22509
265.305	27155
265.366	6427
265.427	4343
265.489	3348
265.550	2294
265.611	4867
265.673	5108
265.734	4676
265.795	3333
265.857	2866
265.918	2900
265.979	7387
266.040	36423
266.102	35789
266.163	11807
266.224	11855
266.286	6596
266.347	3267
266.408	4325
266.469	5197
266.530	3593
266.592	3676
266.653	8399
266.714	17190
266.775	6058
266.836	3986
266.898	3151
266.959	8159
267.020	5994
267.081	4069
267.142	2996
267.203	2865
267.264	2882
267.326	4603
267.387	3863
267.448	2502
267.509	2504
267.570	3167
267.631	2877
267.692	1535
267.753	3656
267.814	2496
267.875	7080
267.936	18772
267.997	11114
268.058	9378
268.119	4282
268.180	5106
268.241	4261
268.302	3630
268.363	3058
268.424	4013
268.485	4171
268.546	3446
268.607	1897
268.668	1486
268.729	1700
268.790	3769
268.851	4193
268.912	11905
268.972	15559
269.033	8374
269.094	3167
269.155	3386
269.216	2517
269.277	4519
269.338	3596
269.398	2883
269.459	3954
269.520	7311
269.581	10113
269.642	13543
269.702	7906
269.763	5127
269.824	3843
269.885	5537
269.945	10422
270.006	4646
270.067	2214
270.128	2721
270.188	2293
270.249	2476
270.310	2314
270.370	2706
270.431	2368
270.492	2878
270.553	3391
270.613	9425
270.674	19552
270.734	8355
270.795	5563
270.856	7322
270.916	6478
270.977	4242
271.038	4971
271.098	5873
271.159	8822
271.219	9716
271.280	3751
271.340	2828
271.401	3785
271.462	13672
271.522	8503
271.583	4713
271.643	4713
271.704	4834
271.764	6218
271.825	14293
271.885	41967
271.946	60172
272.006	22124
272.066	24901
272.127	45154
272.187	16061
272.248	8949
272.308	8638
272.369	27611
272.429	19122
272.489	14266
272.550	17924
272.610	14916
272.671	13153
272.731	10655
272.791	19020
272.852	11169
272.912	9197
272.972	5601
273.033	5584
273.093	8529
273.153	10055
273.214	6591
273.274	7293
273.334	22767
273.394	47353
273.455	22606
273.515	19190
273.575	43324
273.635	20493
273.696	21570
273.756	43472
273.816	20284
273.876	11816
273.936	19662
273.997	40220
274.057	11951
274.117	8815
274.177	13438
274.237	51641
274.297	50415
274.358	35220
274.418	34704
274.478	31461
274.538	13185
274.598	9021
274.658	30210
274.718	41403
274.778	17995
274.838	9568
274.898	16273
274.958	56542
275.018	44672
275.078	31313
275.138	13811
275.198	8061
275.258	5900
275.318	7549
275.378	15477
275.438	17810
275.498	11906
275.558	22309
275.618	49842
275.678	33945
275.738	21579
275.798	18861
275.858	10853
275.918	5022
275.978	6931
276.038	7487
276.098	5936
276.157	10837
276.217	34634
276.277	17968
276.337	12926
276.397	6359
276.457	9367
276.517	5752
276.576	3895
276.636	3393
276.696	9020
276.756	19649
276.815	16879
276.875	7121
276.935	8428
276.995	7482
277.055	4364
277.114	5624
277.174	6976
277.234	25910
277.293	13328
277.353	7235
277.413	5166
277.472	5825
277.532	6055
277.592	6745
277.651	20445
277.711	43888
277.771	15749
277.830	46477
277.890	44284
277.950	24485
278.009	69820
278.069	30147
278.128	27130
278.188	45842
278.248	19967
278.307	42916
278.367	31413
278.426	10395
278.486	6954
278.545	5131
278.605	4474
278.664	4854
278.724	6142
278.783	14380
278.843	40640
278.902	13938
278.962	8122
279.021	10142
279.081	10762
279.140	11531
279.199	9922
279.259	9485
279.318	9563
279.378	12700
279.437	21987
279.496	68371
279.556	179576
279.615	164223
279.675	48337
279.734	28721
279.793	37966
279.853	53813
279.912	23957
279.971	13765
280.031	11779
280.090	19709
280.149	37948
280.208	32069
280.268	121254
280.327	143151
280.386	39314
280.445	28468
280.505	28174
280.564	13294
280.623	12012
280.682	14519
280.742	23820
280.801	8535
280.860	6056
280.919	5955
280.978	5104
281.037	5152
281.097	4777
281.156	4731
281.215	3946
281.274	5718
281.333	24674
281.392	22135
281.451	6389
281.510	5077
281.569	4551
281.628	3476
281.688	3575
281.747	5421
281.806	5377
281.865	3745
281.924	3402
281.983	3886
282.042	3350
282.101	3688
282.160	3091
282.219	3520
282.278	3667
282.337	15695
282.396	12484
282.454	5060
282.513	6442
282.572	24926
282.631	17229
282.690	5694
282.749	4445
282.808	6430
282.867	6920
282.926	6932
282.985	4086
283.043	3531
283.102	3661
283.161	4649
283.220	11667
283.279	28606
283.338	9173
283.396	5035
283.455	5993
283.514	6125
283.573	10219
283.631	8669
283.690	5240
283.749	5240
283.808	10861
283.866	15171
283.925	5415
283.984	5629
284.043	8171
284.101	9164
284.160	6058
284.219	9904
284.277	8348
284.336	11186
284.395	33333
284.453	31480
284.512	12668
284.570	16166
284.629	15356
284.688	13409
284.746	14369
284.805	15721
284.863	20916
284.922	27219
284.981	30293
285.039	43126
285.098	71980
285.156	144050
285.215	203997
285.273	200343
285.332	165400
285.390	95234
285.449	59633
285.507	41422
285.566	30518
285.624	23125
285.683	18229
285.741	13907
285.799	11560
285.858	11590
285.916	10744
285.975	8148
286.033	6389
286.091	5722
286.150	5833
286.208	6559
286.267	7648
286.325	8069
286.383	11965
286.442	11012
286.500	5475
286.558	4546
286.616	3956
286.675	7018
286.733	6646
286.791	6139
286.850	6654
286.908	8851
286.966	15585
287.024	6646
287.083	4567
287.141	4384
287.199	4167
287.257	7997
287.315	5985
287.374	5823
287.432	15221
287.490	11147
287.548	6268
287.606	5275
287.664	4986
287.723	8169
287.781	11476
287.839	6346
287.897	5912
287.955	7434
288.013	9958
288.071	22932
288.129	76206
288.187	214626
288.245	110458
288.303	34247
288.361	20856
288.419	16848
288.477	12343
288.535	8183
288.593	5323
288.651	5779
288.709	4024
288.767	4193
288.825	4055
288.883	4681
288.941	4081
288.999	3850
289.057	2387
289.115	3907
289.173	3347
289.231	3673
289.289	3520
289.346	3621
289.404	4554
289.462	9479
289.520	10384
289.578	4380
289.636	2544
289.694	1941
289.751	2108
289.809	1944
289.867	3271
289.925	4553
289.983	6725
290.040	2103
290.098	3240
290.156	3732
290.214	5810
290.271	3804
290.329	3074
290.387	1789
290.444	2527
290.502	1321
290.560	2491
290.617	3299
290.675	3159
290.733	2958
290.790	3983
290.848	3501
290.906	3639
290.963	4004
291.021	3470
291.078	3227
291.136	4314
291.194	12904
291.251	33289
291.309	10857
291.366	4345
291.424	4188
291.481	4701
291.539	3807
291.596	4456
291.654	2266
291.711	2189
291.769	3336
291.826	10158
291.884	6641
291.941	3338
291.999	3150
292.056	4828
292.114	5309
292.171	3833
292.228	2764
292.286	5455
292.343	10763
292.401	13692
292.458	8721
292.515	5680
292.573	6874
292.630	6313
292.687	5770
292.745	4764
292.802	7241
292.859	20426
292.917	31432
292.974	20764
293.031	6337
293.089	5116
293.146	4293
293.203	3618
293.260	4093
293.318	5149
293.375	9028
293.432	4259
293.489	3109
293.546	3020
293.604	6271
293.661	16066
293.718	44983
293.775	26599
293.832	13391
293.889	9698
293.947	10123
294.004	7468
294.061	7627
294.118	14406
294.175	30253
294.232	40561
294.289	17048
294.346	8888
294.403	6808
294.460	6561
294.517	5968
294.574	4846
294.631	4725
294.688	5972
294.745	13653
294.802	48268
294.859	61027
294.916	24935
294.973	14444
295.030	12310
295.087	10158
295.144	7097
295.201	5375
295.258	5129
295.315	6252
295.372	17773
295.429	36878
295.486	18156
295.542	10911
295.599	22245
295.656	44844
295.713	29077
295.770	36653
295.827	15254
295.883	8179
295.940	7728
295.997	13866
296.054	14709
296.111	7568
296.167	4758
296.224	3645
296.281	3455
296.338	4094
296.394	4511
296.451	6402
296.508	15075
296.564	33222
296.621	24298
296.678	37202
296.734	61610
296.791	25129
296.848	13239
296.904	13081
296.961	29408
297.018	40071
297.074	32174
297.131	12465
297.187	9237
297.244	13707
297.301	32192
297.357	66277
297.414	25470
297.470	10641
297.527	7647
297.583	7081
297.640	7120
297.696	5052
297.753	3727
297.809	3662
297.866	3704
297.922	3280
297.979	2902
298.035	4364
298.092	8371
298.148	21266
298.204	24977
298.261	12607
298.317	18647
298.374	47812
298.430	31292
298.486	14562
298.543	11079
298.599	9497
298.656	9821
298.712	15846
298.768	37918
298.824	27688
298.881	10229
298.937	6546
298.993	5894
299.050	8897
299.106	7666
299.162	5908
299.218	5838
299.275	4653
299.331	5979
299.387	11227
299.443	38031
299.500	47025
299.556	18823
299.612	9230
299.668	9485
299.724	9858
299.780	11829
299.837	7692
299.893	11017
299.949	34432
300.005	47035
300.061	36062
300.117	60215
300.173	31633
300.229	14992
300.285	16625
300.341	23248
300.397	12037
300.453	6779
300.510	5816
300.566	7075
300.622	7650
300.678	20514
300.734	41331
300.790	36992
300.845	43714
300.901	28208
300.957	38304
301.013	33149
301.069	12532
301.125	10849
301.181	10866
301.237	8405
301.293	5966
301.349	4943
301.405	4685
301.461	4340
301.516	5327
301.572	6359
301.628	13692
301.684	13212
301.740	15429
301.796	27828
301.851	17926
301.907	30378
301.963	32785
302.019	42404
302.074	106687
302.130	112903
302.186	53559
302.242	22325
302.297	15717
302.353	14677
302.409	25272
302.464	25147
302.520	19788
302.576	42325
302.631	53703
302.687	33096
302.743	14011
302.798	8604
302.854	6287
302.910	7269
302.965	9293
303.021	17548
303.076	16579
303.132	19561
303.187	26590
303.243	13822
303.299	6792
303.354	5654
303.410	4276
303.465	4508
303.521	4755
303.576	5842
303.632	7558
303.687	11210
303.743	34054
303.798	34153
303.853	14069
303.909	8208
303.964	7433
304.020	10811
304.075	19132
304.130	15880
304.186	30640
304.241	32805
304.297	25027
304.352	13474
304.358	12857
304.407	7851
304.449	7939
304.463	7978
304.518	8363
304.539	8076
304.573	7591
304.629	8018
304.630	8087
304.684	11723
304.720	20978
304.739	25535
304.794	42278
304.811	36633
304.850	22982
304.902	11386
304.905	10655
304.960	6972
304.992	6816
305.015	6715
305.071	7132
305.083	7003
305.126	6489
305.173	4918
305.181	4683
305.236	3680
305.264	4390
305.292	5082
305.347	6562
305.354	6682
305.402	7434
305.445	7179
305.457	7119
305.512	8934
305.535	9921
305.567	11290
305.622	10472
305.626	10721
305.678	17159
305.716	31723
305.733	36769
305.788	47498
305.807	41465
305.843	31424
305.897	36037
305.898	36050
305.953	39333
305.988	26968
306.008	20304
306.063	13736
306.078	12261
306.118	8926
306.168	6582
306.173	6375
306.228	5673
306.259	5102
306.283	4761
306.338	4379
306.349	4506
306.393	5086
306.440	5693
306.448	5829
306.503	6538
306.530	7817
306.558	11011
306.613	24197
306.620	26272
306.668	38339
306.711	44240
306.723	44121
306.778	35064
306.801	27108
306.833	18349
306.888	10122
306.892	9802
306.943	7134
306.982	6506
306.997	6437
307.052	5839
307.072	6048
307.107	7113
307.162	9437
307.163	9504
307.217	16724
307.253	19778
307.272	20222
307.327	22708
307.343	20740
307.381	16514
307.434	14194
307.436	14485
307.491	26353
307.524	40223
307.546	44446
307.600	41772
307.614	37041
307.655	22308
307.704	11951
307.710	11555
307.765	13403
307.795	16539
307.819	19552
307.874	34490
307.885	34242
307.929	26390
307.975	16479
307.984	15790
308.038	18267
308.065	21538
308.093	35405
308.148	71437
308.156	79967
308.202	121994
308.246	153951
308.257	152595
308.312	87388
308.336	64682
308.366	50542
308.421	36099
308.426	34477
308.475	21767
308.517	15116
308.530	13898
308.585	11904
308.607	11072
308.639	11340
308.694	13990
308.697	14210
308.748	25306
308.787	38832
308.803	39324
308.857	31056
308.877	25608
308.912	20159
308.967	17822
308.967	17825
309.021	24120
309.058	30048
309.076	36733
309.130	62292
309.148	72123
309.185	116883
309.238	189836
309.239	190318
309.293	212026
309.328	198637
309.348	174667
309.402	90153
309.418	69391
309.457	49636
309.508	32597
309.511	32271
309.566	32906
309.598	35071
309.620	42511
309.674	65127
309.688	71642
309.729	68974
309.778	54939
309.783	53569
309.837	36961
309.868	29039
309.892	33997
309.946	49653
309.959	54956
310.001	69654
310.049	82077
310.055	79373
310.109	46589
310.139	28029
310.163	22157
310.218	13292
310.229	11980
310.272	10385
310.319	8961
310.326	8742
310.381	7605
310.409	7122
310.435	7054
310.489	7091
310.499	7092
310.543	7275
310.589	7694
310.598	7814
310.652	8859
310.679	9008
310.706	7843
310.760	5388
310.769	5061
310.814	4891
310.859	4813
310.868	4829
310.923	4841
310.948	4868
310.977	5718
311.031	7614
311.038	7876
311.085	7799
311.128	7249
311.139	7137
311.193	6886
311.218	6693
311.247	6378
311.301	5799
311.308	5733
311.356	5954
311.398	6126
311.410	6031
311.464	5469
311.488	5225
311.518	5470
311.572	5914
311.578	5985
311.626	8297
311.668	10248
311.680	10474
311.734	11228
311.758	11605
311.788	10590
311.842	8650
311.847	8446
311.896	12477
311.937	16034
311.950	15633
312.004	13774
312.027	12869
312.058	10930
312.112	7542
312.117	7201
312.165	6575
312.207	6040
312.297	11418
312.386	8746
312.476	7725
312.566	16609
312.656	8951
312.745	5534
312.835	6849
312.925	7692
313.015	7913
313.104	7638
313.194	6376
313.284	5814
313.374	9642
313.463	8296
313.553	5943
313.643	5210
313.732	4953
313.822	5175
313.912	7307
314.001	7907
314.091	9507
314.180	12345
314.270	10676
314.360	12128
314.449	9610
314.539	5623
314.628	5606
314.718	7733
314.808	10313
314.897	6523
314.987	6480
315.076	8141
315.166	11395
315.255	9809
315.345	10437
315.434	10026
315.524	8850
315.613	10338
315.703	12614
315.792	14832
315.881	30480
315.971	13486
316.060	19689
316.150	26868
316.239	28496
316.328	9903
316.418	7044
316.507	7029
316.597	9439
316.686	7903
316.775	13743
316.865	28621
316.954	7086
317.043	4846
317.133	6171
317.222	6175
317.311	5739
317.400	4759
317.490	9560
317.579	9327
317.668	6895
317.757	10966
317.847	20657
317.936	52134
318.025	30944
318.114	17464
318.203	13051
318.293	18276
318.382	36437
318.471	27551
318.560	35815
318.649	64977
318.738	15217
318.828	11112
318.917	12418
319.006	13331
319.095	33617
319.184	83713
319.273	47972
319.362	26726
319.451	10702
319.540	8860
319.629	22231
319.718	35324
319.807	17311
319.896	28553
319.985	97385
320.074	35979
320.163	11686
320.252	18690
320.341	17200
320.430	14866
320.519	19976
320.608	10900
320.697	10027
320.786	9621
320.875	12198
320.964	16554
321.053	24654
321.142	35469
321.230	36352
321.319	27967
321.408	65954
321.497	26722
321.586	26204
321.675	28538
321.764	29088
321.852	18962
321.941	38914
322.030	24618
322.119	27388
322.207	65601
322.296	44554
322.385	23780
322.474	26723
322.562	76934
322.651	38958
322.740	28093
322.829	39295
322.917	39689
323.006	24566
323.095	20947
323.183	15581
323.272	23161
323.361	36688
323.449	93972
323.538	34132
323.626	72296
323.715	41385
323.804	20392
323.892	68101
323.981	38196
324.069	13913
324.158	37621
324.246	34041
324.335	15822
324.424	25165
324.512	9916
324.601	16239
324.689	36618
324.778	69010
324.866	32739
324.954	9918
325.043	9628
325.131	19265
325.220	31999
325.308	36322
325.397	26269
325.485	16116
325.574	5786
325.662	6226
325.750	7340
325.839	7102
325.927	6447
326.015	8420
326.104	12866
326.192	17932
326.280	7145
326.369	7067
326.457	11411
326.545	19740
326.634	8021
326.722	6247
326.810	5760
326.898	6395
326.987	7302
327.075	18695
327.163	19131
327.251	12283
327.340	28082
327.428	42646
327.516	8504
327.604	7016
327.692	6550
327.781	8633
327.869	14017
327.957	9461
328.045	8136
328.133	5734
328.221	7851
328.309	7142
328.397	6657
328.485	9038
328.574	12476
328.662	39883
328.750	20982
328.838	9273
328.926	6693
329.014	6350
329.102	10162
329.190	27984
329.278	16167
329.366	5218
329.454	4527
329.542	5091
329.630	4102
329.718	5752
329.806	7001
329.893	7742
329.981	7071
330.069	8052
330.157	23546
330.245	65633
330.333	33891
330.421	9616
330.509	12962
330.597	49671
330.684	30302
330.772	13006
330.860	17648
330.948	23415
331.036	9637
331.123	4950
331.211	5675
331.299	8685
331.387	19791
331.475	33313
331.562	10680
331.650	6468
331.738	7420
331.825	10549
331.913	5041
332.001	5748
332.089	7630
332.176	18429
332.264	38477
332.352	28135
332.439	10303
332.527	8537
332.614	6076
332.702	9727
332.790	6773
332.877	19712
332.965	35551
333.052	11273
333.140	12308
333.228	27027
333.315	7447
333.403	8455
333.490	23763
333.578	21620
333.665	31841
333.753	15288
333.840	6823
333.928	9169
334.015	24765
334.103	35159
334.190	94293
334.278	25378
334.365	12632
334.452	9949
334.540	6071
334.627	9725
334.715	13092
334.802	26615
334.889	114742
334.977	99621
335.064	16450
335.151	9261
335.239	9874
335.326	13806
335.413	49988
335.501	62318
335.588	10458
335.675	8826
335.762	11049
335.850	20201
335.937	12805
336.024	33497
336.111	123232
336.199	51880
336.286	12835
336.373	7131
336.460	4625
336.547	6344
336.635	8029
336.722	7579
336.809	6647
336.896	11744
336.983	36819
337.070	80240
337.157	98685
337.245	75197
337.332	47351
337.419	9199
337.506	7346
337.593	9879
337.680	28961
337.767	81340
337.854	24927
337.941	28767
338.028	32101
338.115	11290
338.202	15720
338.289	25308
338.376	77571
338.463	25906
338.550	48358
338.637	47201
338.724	19135
338.811	26384
338.898	6570
338.984	6032
339.071	8783
339.158	10391
339.245	25459
339.332	15727
339.419	21157
339.506	19143
339.593	4338
339.679	6879
339.766	5038
339.853	9101
339.940	18843
340.027	6752
340.113	6885
340.200	10342
340.287	6773
340.374	10375
340.460	16644
340.547	6859
340.634	12875
340.720	44759
340.807	24299
340.894	5790
340.980	5929
341.067	6242
341.154	7325
341.240	10987
341.327	23482
341.414	9195
341.500	9263
341.587	7441
341.674	6143
341.760	17248
341.847	19384
341.933	7059
342.020	3448
342.106	4120
342.193	6661
342.279	13617
342.366	9788
342.452	16679
342.539	9086
342.625	21524
342.712	47294
342.798	20718
342.885	9164
342.971	5218
343.058	2965
343.144	4915
343.230	4190
343.317	5997
343.403	4478
343.490	2896
343.576	3600
343.662	4866
343.749	5439
343.835	8847
343.921	15584
344.008	79045
344.094	157326
344.180	36980
344.267	16686
344.353	50583
344.439	52705
344.525	25769
344.612	9847
344.698	9077
344.784	6282
344.870	5173
344.957	5437
345.043	10126
345.129	7050
345.215	16883
345.301	7903
345.387	5477
345.474	3683
345.560	4497
345.646	5827
345.732	6374
345.818	7578
345.904	6441
345.990	7285
346.076	8235
346.162	14153
346.249	7494
346.335	4697
346.421	6318
346.507	21196
346.593	65697
346.679	16223
346.765	7317
346.851	6134
346.937	6181
347.023	5331
347.108	7451
347.194	5239
347.280	5690
347.366	8098
347.452	22445
347.538	80706
347.624	61710
347.710	50375
347.796	10457
347.882	5333
347.967	5622
348.053	9586
348.139	6188
348.225	5060
348.311	5808
348.397	4424
348.482	6897
348.568	8243
348.654	5172
348.740	6481
348.825	7061
348.911	11486
348.997	39962
349.083	71102
349.168	13060
349.254	6737
349.340	6989
349.425	4530
349.511	8735
349.597	9728
349.682	18428
349.768	52987
349.854	22980
349.939	7107
350.025	4840
350.110	4248
350.196	3725
350.282	2370
350.367	4808
350.453	8959
350.538	9761
350.624	7962
350.709	8343
350.795	4760
350.880	5492
350.966	6377
351.051	9939
351.137	7313
351.222	6736
351.308	19268
351.393	47601
351.479	12601
351.564	5445
351.649	5390
351.735	4649
351.820	4055
351.906	5368
351.991	8278
352.076	31887
352.162	44352
352.247	10567
352.332	6732
352.418	15128
352.503	19428
352.588	74013
352.673	55259
352.759	14113
352.844	7040
352.929	8492
353.014	10381
353.100	7570
353.185	11735
353.270	20065
353.355	19301
353.441	6538
353.526	7383
353.611	17923
353.696	19818
353.781	11959
353.866	5415
353.952	7309
354.037	17248
354.122	38688
354.207	33509
354.292	12597
354.377	6423
354.462	5306
354.547	8309
354.632	8232
354.717	11791
354.802	13314
354.887	6446
354.972	5017
355.057	3973
355.142	4285
355.227	6819
355.312	12256
355.397	25840
355.482	60209
355.567	26256
355.652	22071
355.737	21798
355.822	59888
355.907	43095
355.991	10332
356.076	5278
356.161	5890
356.246	5013
356.331	5452
356.416	14742
356.501	86542
356.585	82353
356.670	15378
356.755	10846
356.840	16099
356.924	67087
357.009	206410
357.094	77966
357.179	22036
357.263	13825
357.348	15371
357.433	14050
357.517	13248
357.602	9125
357.687	7955
357.771	9648
357.856	10951
357.941	13206
358.025	52076
358.110	191109
358.195	87853
358.279	17704
358.364	13528
358.448	46053
358.533	117847
358.617	82928
358.702	78793
358.787	29097
358.871	21177
358.956	16199
359.040	6126
359.125	4175
359.209	5050
359.294	5584
359.378	8240
359.462	13396
359.547	9746
359.631	6648
359.716	4323
359.800	6479
359.885	11861
359.969	6174
360.053	6188
360.138	7016
360.222	10482
360.306	18802
360.391	14348
360.475	16570
360.559	33335
360.644	42932
360.728	31638
360.812	50574
360.896	123930
360.981	60250
361.065	34542
361.149	10612
361.233	10418
361.318	7602
361.402	8783
361.486	8276
361.570	6022
361.654	9417
361.739	23780
361.823	88469
361.907	119778
361.991	23977
362.075	16459
362.159	35598
362.243	25055
362.327	22730
362.411	26944
362.495	15402
362.580	8817
362.664	6367
362.748	5975
362.832	8970
362.916	12005
363.000	40948
363.084	115383
363.168	143632
363.252	37684
363.336	16108
363.420	23087
363.503	72364
363.587	75409
363.671	15707
363.755	13284
363.839	18491
363.923	8821
364.007	19246
364.091	21535
364.175	28623
364.258	106101
364.342	71745
364.426	82102
364.510	44585
364.594	25128
364.677	30007
364.761	109929
364.845	72907
364.929	33524
365.013	26543
365.096	22727
365.180	24339
365.264	31652
365.347	103038
365.431	46502
365.515	15368
365.598	8571
365.682	8386
365.766	16357
365.849	19212
365.933	10645
366.017	13964
366.100	11526
366.184	4184
366.267	6828
366.351	5786
366.435	5608
366.518	3499
366.602	4941
366.685	6093
366.769	7078
366.852	14892
366.936	25005
367.019	13861
367.103	11884
367.186	21887
367.270	7838
367.353	4364
367.436	6038
367.520	5212
367.603	8416
367.687	11249
367.770	22548
367.853	13007
367.937	38909
368.020	57061
368.104	15609
368.187	16616
368.270	25163
368.353	21609
368.437	27484
368.520	58565
368.603	36262
368.687	45557
368.770	78291
368.853	20535
368.936	23537
369.020	24284
369.103	8812
369.186	6066
369.269	7556
369.352	15330
369.436	21717
369.519	13837
369.602	6623
369.685	8423
369.768	8365
369.851	7843
369.934	6081
370.018	8775
370.101	18731
370.184	15350
370.267	12645
370.350	19028
370.433	28816
370.516	63699
370.599	69759
370.682	25239
370.765	51773
370.848	56873
370.931	93008
371.014	36443
371.097	9755
371.180	7532
371.263	5418
371.346	4631
371.429	6814
371.511	6616
371.594	13295
371.677	20846
371.760	25495
371.843	20352
371.926	79499
372.009	166401
372.091	57511
372.174	42239
372.257	86861
372.340	34252
372.423	34192
372.505	38265
372.588	17517
372.671	34140
372.754	94988
372.836	44952
372.919	39857
373.002	70596
373.085	23392
373.167	19518
373.250	45431
373.332	88292
373.415	115385
373.498	216806
373.580	82116
373.663	109277
373.746	138346
373.828	35208
373.911	18950
373.993	20372
374.076	68725
374.159	60875
374.241	30446
374.324	83234
374.406	52074
374.489	69374
374.571	179422
374.654	72629
374.736	39924
374.819	115042
374.901	158755
374.983	149861
375.066	30264
375.148	14798
375.231	55076
375.313	98711
375.395	40217
375.478	10064
375.560	8549
375.643	11690
375.725	37914
375.807	138352
375.890	110346
375.972	51443
376.054	31401
376.136	47021
376.219	21242
376.301	42592
376.383	116995
376.465	43027
376.548	33613
376.630	39258
376.712	102777
376.794	42923
376.877	8053
376.959	5117
377.041	8224
377.123	18101
377.205	21166
377.287	4660
377.369	5959
377.452	5965
377.534	6225
377.616	5413
377.698	6259
377.780	4583
377.862	6972
377.944	6199
378.026	3370
378.108	5089
378.190	4499
378.272	5099
378.354	4156
378.436	3561
378.518	10673
378.600	37526
378.682	30992
378.764	59718
378.846	43656
378.928	16416
379.010	22714
379.091	11590
379.173	6855
379.255	5099
379.337	9746
379.419	29182
379.501	81725
379.583	30256
379.664	11546
379.746	23568
379.828	62994
379.910	79671
379.991	65379
380.073	11713
380.155	9780
380.237	6140
380.318	5683
380.400	5842
380.482	15088
380.564	21729
380.645	22529
380.727	19568
380.809	12753
380.890	8672
380.972	6590
381.053	6181
381.135	9717
381.217	22105
381.298	63569
381.380	29870
381.461	26399
381.543	101421
381.624	116277
381.706	23377
381.787	15852
381.869	16551
381.951	49194
382.032	164999
382.113	103479
382.195	25904
382.276	19655
382.358	37804
382.439	97712
382.521	105398
382.602	151205
382.684	72587
382.765	138437
382.846	158266
382.928	237878
383.009	124243
383.090	89221
383.172	307847
383.253	423867
383.334	153946
383.416	147228
383.497	74276
383.578	42392
383.659	79400
383.741	266258
383.822	580673
383.903	293681
383.984	119190
384.066	180713
384.147	108169
384.228	27623
384.309	21727
384.390	15868
384.471	11155
384.553	14282
384.634	19471
384.715	20026
384.796	9750
384.877	14454
384.958	55425
385.039	64905
385.120	25395
385.201	13076
385.282	17301
385.363	17861
385.444	13136
385.525	25077
385.606	75611
385.687	61028
385.768	18510
385.849	24035
385.930	86198
386.011	135998
386.092	36542
386.173	11492
386.254	10184
386.335	11242
386.416	11991
386.496	38802
386.577	59262
386.658	24844
386.739	15351
386.820	15878
386.901	12191
386.981	11422
387.062	7476
387.143	14867
387.224	59012
387.304	53675
387.385	21322
387.466	14945
387.547	17427
387.627	12043
387.708	23626
387.789	99671
387.869	114129
387.950	30527
388.031	6826
388.111	8829
388.192	24423
388.273	35407
388.353	19004
388.434	10552
388.514	21967
388.595	86409
388.676	111391
388.756	58170
388.837	57500
388.917	34387
388.998	7756
389.078	8470
389.159	6373
389.239	5840
389.320	12790
389.400	10652
389.480	24643
389.561	60741
389.641	28214
389.722	12882
389.802	21011
389.883	27815
389.963	69330
390.043	43500
390.124	16659
390.204	23212
390.284	68164
390.365	40962
390.445	49151
390.525	86364
390.605	67011
390.686	33131
390.766	11520
390.846	7571
390.927	4708
391.007	6409
391.087	8090
391.167	7444
391.247	5697
391.328	13560
391.408	20414
391.488	13420
391.568	4710
391.648	9642
391.728	14114
391.808	13314
391.888	14684
391.969	34955
392.049	53262
392.129	25752
392.209	28281
392.289	67459
392.369	35947
392.449	35203
392.529	21366
392.609	16951
392.689	20761
392.769	64262
392.849	52357
392.929	41355
393.009	95864
393.089	66121
393.169	52326
393.248	156140
393.328	492212
393.408	483367
393.488	144546
393.568	46705
393.648	23162
393.728	16468
393.807	11186
393.887	11241
393.967	9064
394.047	12148
394.127	12867
394.206	19077
394.286	60577
394.366	251835
394.446	248536
394.525	54955
394.605	15330
394.685	18637
394.764	47572
394.844	80455
394.924	51629
395.003	16035
395.083	10089
395.163	9838
395.242	9018
395.322	9116
395.402	5533
395.481	9997
395.561	31755
395.640	86848
395.720	61878
395.799	85457
395.879	59004
395.958	26344
396.038	86045
396.117	327745
396.197	333677
396.276	104203
396.356	41741
396.435	35684
396.515	22671
396.594	26866
396.673	48900
396.753	163044
396.832	444864
396.912	336382
396.991	93037
397.070	28068
397.150	15287
397.229	12624
397.308	16187
397.388	26158
397.467	13351
397.546	7699
397.625	4388
397.705	10925
397.784	10070
397.863	6838
397.942	4013
398.022	6503
398.101	27706
398.180	77816
398.259	39690
398.338	12250
398.417	8188
398.497	6098
398.576	7094
398.655	3817
398.734	4481
398.813	5525
398.892	25079
398.971	79822
399.050	36297
399.129	5520
399.208	3443
399.287	4831
399.366	3242
399.445	4139
399.524	4615
399.603	3327
399.682	10380
399.761	29882
399.840	85218
399.919	58880
399.998	8593
400.077	3777
400.156	2178
400.235	7359
400.313	4546
400.392	7822
400.471	33987
400.550	52332
400.629	13208
400.708	7192
400.786	7240
400.865	24206
400.944	24593
401.023	11507
401.102	3244
401.180	3693
401.259	3868
401.338	5810
401.416	7905
401.495	6976
401.574	5991
401.652	4971
401.731	7893
401.810	6754
401.888	3016
401.967	2153
402.046	3035
402.124	6723
402.203	9858
402.281	5875
402.360	7008
402.438	27212
402.517	18296
402.596	8091
402.674	6183
402.753	4480
402.831	2916
402.910	6477
402.988	21783
403.066	69591
403.145	36318
403.223	23219
403.302	54827
403.380	40267
403.459	40077
403.537	16430
403.615	7491
403.694	2573
403.772	3373
403.850	3282
403.929	1673
404.007	3189
404.085	8723
404.164	9101
404.242	3287
404.320	5562
404.398	10831
404.477	29841
404.555	125599
404.633	100817
404.711	16499
404.789	5860
404.868	3813
404.946	3291
405.024	2028
405.102	2866
405.180	2204
405.258	1420
405.336	3010
405.415	3975
405.493	9853
405.571	8586
405.649	2054
405.727	2903
405.805	6457
405.883	6447
405.961	7170
406.039	7938
406.117	3962
406.195	7829
406.273	31405
406.351	111813
406.429	63072
406.507	13826
406.585	4810
406.663	5743
406.740	7526
406.818	6338
406.896	3683
406.974	5511
407.052	9822
407.130	68964
407.208	88259
407.285	17835
407.363	3319
407.441	4369
407.519	3099
407.596	5138
407.674	10729
407.752	22054
407.830	27575
407.907	15382
407.985	5547
408.063	3204
408.141	2295
408.218	8076
408.296	6829
408.373	5338
408.451	5328
408.529	4833
408.606	2544
408.684	1704
408.762	1496
408.839	2152
408.917	1242
408.994	1982
409.072	2009
409.149	2415
409.227	4512
409.304	6276
409.382	5204
409.459	5026
409.537	8039
409.614	7068
409.692	4451
409.769	5380
409.846	8559
409.924	12284
410.001	7235
410.079	5478
410.156	4180
410.233	4789
410.311	2514
410.388	2501
410.465	3611
410.543	4801
410.620	3252
410.697	4803
410.775	4743
410.852	2050
410.929	5738
411.006	7944
411.083	3965
411.161	10809
411.238	11591
411.315	7117
411.392	3385
411.469	6596
411.547	6225
411.624	2698
411.701	2929
411.778	4660
411.855	10712
411.932	5035
412.009	2666
412.086	3126
412.163	4276
412.240	5836
412.317	7443
412.394	5383
412.471	2782
412.548	2175
412.625	2539
412.702	5332
412.779	9747
412.856	6700
412.933	1623
413.010	3023
413.087	5798
413.164	31410
413.241	41958
413.318	11514
413.395	6671
413.471	11086
413.548	4014
413.625	3629
413.702	4466
413.779	3873
413.855	1389
413.932	1485
414.009	811
414.086	2252
414.162	2394
414.239	7387
414.316	31520
414.393	66041
414.469	20448
414.546	3948
414.623	1701
414.699	3111
414.776	3816
414.853	3222
414.929	3277
415.006	3645
415.082	4349
415.159	3377
415.236	2248
415.312	3499
415.389	7942
415.465	10638
415.542	4866
415.618	3196
415.695	7120
415.771	4106
415.848	3985
415.924	4273
416.000	2680
416.077	3380
416.153	581
416.230	269
416.306	780
416.383	2122
416.459	1642
416.535	1424
416.612	1326
416.688	2406
416.764	1917
416.841	1763
416.917	2347
416.993	2359
417.069	4035
417.146	5157
417.222	7071
417.298	4563
417.374	1712
417.451	3441
417.527	4659
417.603	5284
417.679	3364
417.755	2896
417.831	888
417.908	2498
417.984	1470
418.060	994
418.136	9225
418.212	11781
418.288	4428
418.364	2861
418.440	2465
418.516	6854
418.592	9645
418.668	16323
418.744	23002
418.820	16275
418.896	3252
418.972	1049
419.048	3175
419.124	10061
419.200	7236
419.276	2187
419.352	639
419.428	1868
419.504	2454
419.579	5259
419.655	2776
419.731	4311
419.807	14617
419.883	26074
419.959	16272
420.034	5235
420.110	10842
420.186	42235
420.262	29518
420.337	6355
420.413	3622
420.489	3099
420.565	2673
420.640	2238
420.716	2624
420.792	2076
420.867	3217
420.943	2637
421.019	7128
421.094	5163
421.170	2861
421.245	1615
421.321	3128
421.397	3144
421.472	5486
421.548	12427
421.623	11071
421.699	6049
421.774	5656
421.850	4868
421.925	9607
422.001	8116
422.076	6155
422.152	8204
422.227	13402
422.302	15499
422.378	20657
422.453	36470
422.529	87793
422.604	230550
422.679	334468
422.755	235727
422.830	93278
422.905	38440
422.981	20873
423.056	13990
423.131	10643
423.207	8526
423.282	8881
423.357	16964
423.432	10801
423.508	10580
423.583	23940
423.658	17383
423.733	6753
423.808	8392
423.883	8056
423.959	7213
424.034	5089
424.109	4733
424.184	2838
424.259	2728
424.334	1888
424.409	2563
424.484	3322
424.559	3569
424.634	3596
424.709	4695
424.784	6081
424.859	3794
424.934	7217
425.009	32248
425.084	48937
425.159	16822
425.234	2492
425.309	2233
425.384	1833
425.459	2137
425.534	2289
425.609	3143
425.683	2235
425.758	2104
425.833	3241
425.908	5456
425.983	19689
426.058	52254
426.132	20436
426.207	5600
426.282	8375
426.357	7258
426.431	2416
426.506	3009
426.581	2928
426.655	3270
426.730	2591
426.805	2822
426.879	3052
426.954	3759
427.029	9109
427.103	47658
427.178	99974
427.253	40375
427.327	5164
427.402	7194
427.476	11758
427.551	4584
427.625	4071
427.700	4154
427.774	2858
427.849	4124
427.923	1543
427.998	2725
428.072	4000
428.147	10143
428.221	33976
428.296	83061
428.370	36996
428.444	8075
428.519	10744
428.593	22315
428.667	17909
428.742	22403
428.816	19923
428.890	60163
428.965	77020
429.039	28455
429.113	24913
429.188	8877
429.262	2779
429.336	8343
429.410	25430
429.485	17094
429.559	19513
429.633	13792
429.707	4406
429.781	14641
429.855	72179
429.930	99974
430.004	59119
430.078	90974
430.152	72759
430.226	101902
430.300	90248
430.374	14906
430.448	7574
430.522	29765
430.596	79937
430.670	46303
430.744	97898
430.818	131360
430.892	27008
430.966	6191
431.040	2317
431.114	2234
431.188	1764
431.262	1997
431.336	2584
431.410	9859
431.484	28601
431.557	17759
431.631	2514
431.705	2862
431.779	15439
431.853	67862
431.927	43614
432.000	6184
432.074	2322
432.148	4086
432.222	3955
432.295	1908
432.369	2353
432.443	7238
432.516	41869
432.590	95252
432.664	33709
432.737	5249
432.811	653
432.885	935
432.958	2336
433.032	1406
433.106	100
433.179	698
433.253	1209
433.326	1902
433.400	76
433.473	803
433.547	150
433.620	2190
433.694	5544
433.767	6421
433.841	1895
433.914	1343
433.988	517
434.061	1578
434.134	1149
434.208	476
434.281	833
434.355	1237
434.428	1615
434.501	643
434.575	939
434.648	1788
434.721	1373
434.795	385
434.868	103
434.941	1157
435.014	160
435.088	1501
435.161	2610
435.234	5813
435.307	6617
435.381	3316
435.454	2591
435.527	3800
435.600	3630
435.673	3614
435.746	2256
435.819	2010
435.892	1663
435.966	1505
436.039	1045
436.112	2719
436.185	656
436.258	1160
436.331	20
436.404	721
436.477	529
436.550	813
436.623	111
436.696	1389
436.769	1569
436.842	1998
436.915	2286
436.987	4967
437.060	1714
437.133	568
437.206	664
437.279	1994
437.352	1136
437.425	711
437.498	2137
437.570	8140
437.643	6839
437.716	2163
437.789	797
437.861	6478
437.934	15213
438.007	7328
438.080	1885
438.152	3236
438.225	7282
438.298	51985
438.370	127786
438.443	52818
438.516	14601
438.588	4067
438.661	554
438.734	1535
438.806	2637
438.879	4041
438.951	4434
439.024	8052
439.096	2951
439.169	2017
439.241	516
439.314	1153
439.386	3957
439.459	7378
439.531	9692
439.604	3364
439.676	725
439.749	464
439.821	328
439.893	1613
439.966	1284
440.038	3017
440.110	2676
440.183	2408
440.255	1804
440.327	4453
440.400	24910
440.472	89704
440.544	53179
440.617	8198
440.689	6650
440.761	8394
440.833	14346
440.905	8899
440.978	1170
441.050	957
441.122	2217
441.194	452
441.266	1187
441.338	1795
441.411	4914
441.483	32217
441.555	45604
441.627	10930
441.699	6487
441.771	6157
441.843	2255
441.915	1302
441.987	1020
442.059	2437
442.131	3356
442.203	5971
442.275	6544
442.347	6282
442.419	7188
442.491	35714
442.563	84308
442.635	39296
442.706	29108
442.778	22221
442.850	4156
442.922	1785
442.994	3972
443.066	6151
443.137	4565
443.209	3407
443.281	5466
443.353	13582
443.425	47233
443.496	150658
443.568	141555
443.640	53207
443.711	11350
443.783	5640
443.855	3075
443.926	2441
443.998	2723
444.070	5721
444.141	4138
444.213	7365
444.285	8578
444.356	6670
444.428	5482
444.499	3110
444.571	1353
444.642	1568
444.714	2724
444.785	6736
444.857	9045
444.928	18676
445.000	11144
445.071	13829
445.143	14733
445.214	9293
445.285	14404
445.357	41994
445.428	105148
445.500	219640
445.571	145961
445.642	75789
445.714	35095
445.785	32703
445.856	10593
445.928	9501
445.999	6847
446.070	6377
446.141	6389
446.213	8617
446.284	4684
446.355	5878
446.426	3005
446.497	2589
446.569	7156
446.640	10405
446.711	7659
446.782	2278
446.853	3789
446.924	4854
446.995	2613
447.066	3705
447.138	7433
447.209	4476
447.280	653
447.351	1413
447.422	786
447.493	3867
447.564	4578
447.635	6801
447.706	3048
447.777	1119
447.847	1049
447.918	1544
447.989	3860
448.060	6030
448.131	13164
448.202	11981
448.273	8070
448.344	3839
448.414	1298
448.485	2086
448.556	1465
448.627	1513
448.698	1981
448.768	1336
448.839	1408
448.910	6851
448.981	5324
449.051	3123
449.122	595
449.193	826
449.263	1331
449.334	1708
449.405	3558
449.475	9955
449.546	6715
449.616	7722
449.687	6056
449.758	2548
449.828	704
449.899	2170
449.969	1061
450.040	1703
450.110	2786
450.181	3220
450.251	1667
450.322	2150
450.392	2721
450.463	2379
450.533	1250
450.604	2542
450.674	1160
450.744	1763
450.815	1546
450.885	2164
450.955	1110
451.026	1231
451.096	2027
451.166	3007
451.237	9313
451.307	21588
451.377	8312
451.447	2293
451.518	1529
451.588	2200
451.658	2534
451.728	5210
451.799	22534
451.869	24355
451.939	5183
452.009	2139
452.079	1418
452.149	2472
452.219	5825
452.289	26216
452.360	18004
452.430	4335
452.500	2697
452.570	4430
452.640	6249
452.710	20176
452.780	28802
452.850	19974
452.920	17625
452.990	6497
453.060	4399
453.129	5757
453.199	8319
453.269	27112
453.339	52173
453.409	77296
453.479	83753
453.549	122952
453.619	131753
453.688	50226
453.758	8502
453.828	3617
453.898	2536
453.968	2275
454.037	1299
454.087	1758
454.107	1938
454.168	1550
454.177	1486
454.247	1608
454.249	1628
454.316	1883
454.330	2215
454.386	3417
454.411	7085
454.456	12861
454.492	15772
454.525	18424
454.574	9600
454.595	5787
454.655	3177
454.665	2813
454.734	2811
454.736	2973
454.804	7573
454.817	10730
454.873	22648
454.898	23956
454.943	25958
454.979	16999
455.013	9104
455.060	5705
455.082	4555
455.141	5519
455.152	5476
455.221	16936
455.222	17164
455.291	28355
455.303	25721
455.360	14202
455.384	13635
455.430	12607
455.465	13715
455.499	14485
455.546	19860
455.569	21796
455.627	14648
455.638	13472
455.707	3406
455.708	3408
455.777	1985
455.789	2107
455.846	2618
455.869	2345
455.916	1782
455.950	1799
455.985	1701
456.031	2089
456.054	2307
456.112	1978
456.124	1951
456.193	2436
456.193	2423
456.262	3186
456.274	3475
456.332	4602
456.355	4597
456.401	4101
456.436	3431
456.470	2876
456.516	2585
456.540	2446
456.597	1631
456.609	1524
456.678	1017
456.678	1000
456.747	1413
456.759	1320
456.817	929
456.840	1008
456.886	1050
456.920	1395
456.955	1962
457.001	2428
457.024	2804
457.082	4011
457.093	4183
457.162	6422
457.163	6448
457.232	5472
457.243	5362
457.301	4180
457.324	3046
457.370	1608
457.405	1851
457.439	2157
457.485	1753
457.508	1665
457.566	3358
457.577	3664
457.646	3271
457.647	3292
457.715	5467
457.727	5988
457.784	9163
457.808	11924
457.853	15563
457.889	17629
457.922	17309
457.969	12016
457.991	12229
458.050	15278
458.060	15735
458.129	26049
458.130	26329
458.198	25388
458.211	22799
458.267	13125
458.292	9346
458.336	6094
458.372	5875
458.405	7963
458.453	11523
458.474	14128
458.533	26066
458.543	27199
458.611	42693
458.614	42930
458.680	27513
458.694	21796
458.749	10373
458.775	7845
458.818	4955
458.855	4014
458.887	3520
458.936	3626
458.955	3594
459.016	3170
459.024	3185
459.093	3614
459.097	3630
459.162	3315
459.177	3376
459.230	3976
459.257	4451
459.299	4996
459.338	5145
459.368	5275
459.418	5705
459.437	5451
459.499	4545
459.505	4563
459.574	3623
459.579	3631
459.643	3341
459.659	3132
459.711	2910
459.740	3308
459.780	3953
459.820	4098
459.849	4151
459.900	4857
459.917	4859
459.981	4209
459.986	4153
460.054	3317
460.061	3233
460.123	3295
460.141	3603
460.191	5257
460.222	5899
460.260	6177
460.302	7497
460.328	7295
460.382	5231
460.397	5094
460.462	4435
460.465	4464
460.534	5606
460.543	5847
460.602	13787
460.623	16881
460.671	25284
460.703	33528
460.739	31901
460.783	27078
460.808	23776
460.864	8219
460.876	6805
460.944	4187
460.945	4161
461.013	4485
461.024	4409
461.081	4077
461.104	4428
461.150	4526
461.184	4175
461.218	4086
461.264	3816
461.286	3666
461.345	3619
461.355	3651
461.423	4107
461.425	4097
461.491	3850
461.505	4141
461.559	9714
461.585	11760
461.628	18573
461.665	26287
461.696	29336
461.745	37319
461.764	33634
461.825	11704
461.832	11188
461.901	5684
461.905	5672
461.969	4926
461.985	4564
462.037	4698
462.065	5050
462.105	5747
462.145	6155
462.173	8744
462.225	14230
462.241	15871
462.305	23854
462.310	23228
462.378	12913
462.385	11234
462.446	6329
462.465	5392
462.514	4707
462.545	4776
462.582	4988
462.625	4999
462.650	4560
462.705	3649
462.718	3918
462.785	5600
462.786	5649
462.854	8284
462.865	8846
462.922	11291
462.945	12320
462.990	9619
463.025	6548
463.058	5830
463.104	4637
463.126	4094
463.184	3992
463.194	4173
463.262	4635
463.264	4675
463.330	5411
463.344	5504
463.398	6452
463.424	6838
463.466	6237
463.504	5805
463.533	6074
463.583	6465
463.601	6654
463.663	6796
463.669	6986
463.737	10025
463.743	10265
463.805	16013
463.823	17811
463.873	26645
463.903	32241
463.940	34202
463.982	37465
464.008	30740
464.062	12587
464.076	11458
464.142	5566
464.144	5501
464.211	4944
464.221	4960
464.279	5684
464.301	5895
464.347	6456
464.381	7025
464.414	7628
464.461	8350
464.482	8655
464.540	9702
464.550	9339
464.617	6022
464.620	5911
464.685	7420
464.699	7784
464.753	8781
464.779	9280
464.820	9256
464.859	9082
464.888	9170
464.938	9399
464.956	9667
465.018	10713
465.023	10555
465.091	8199
465.098	7916
465.158	7331
465.177	7265
465.226	7393
465.257	7233
465.293	7849
465.336	8913
465.361	9504
465.416	10665
465.428	11760
465.495	17778
465.496	17886
465.563	30950
465.575	33257
465.631	39729
465.654	42745
465.698	26825
465.734	12260
465.765	10329
465.813	7444
465.833	7136
465.893	7146
465.900	7161
465.968	7159
465.972	7156
466.035	6650
466.052	6501
466.102	7088
466.131	7395
466.170	7115
466.210	6819
466.237	7407
466.290	8585
466.304	8563
466.369	8304
466.372	8341
466.439	9107
466.449	9209
466.506	10222
466.528	10598
466.573	16514
466.607	20926
466.641	31431
466.687	46008
466.708	50995
466.766	65026
466.775	59910
466.842	20334
466.845	18417
466.909	12103
466.925	10731
466.977	9867
467.004	9472
467.044	9920
467.083	10359
467.111	10884
467.163	11823
467.178	12193
467.242	13679
467.245	13676
467.312	13204
467.321	13126
467.379	13076
467.400	13020
467.446	14305
467.480	15197
467.559	13402
467.638	9992
467.717	11005
467.796	13685
467.875	14745
467.955	13388
468.034	22495
468.113	53035
468.192	79308
468.271	19786
468.350	12895
468.429	13947
468.508	15265
468.588	12644
468.667	12402
468.746	11640
468.825	11673
468.904	9503
468.983	12850
469.062	21066
469.141	25831
469.220	9142
469.299	10113
469.378	9627
469.456	11038
469.535	10042
469.614	10881
469.693	11280
469.772	16108
469.851	22755
469.930	16102
470.009	11352
470.088	10786
470.166	13086
470.245	19033
470.324	23458
470.403	16049
470.482	10530
470.560	10545
470.639	11648
470.718	14078
470.797	10294
470.875	14132
470.954	19535
471.033	21585
471.111	8629
471.190	7790
471.269	6774
471.347	7708
471.426	8471
471.505	10972
471.583	9505
471.662	9960
471.740	8321
471.819	8361
471.898	9129
471.976	9303
472.055	7653
472.133	10619
472.212	14272
472.290	15733
472.369	9666
472.447	7932
472.526	6786
472.604	9786
472.683	9648
472.761	10749
472.839	8750
472.918	8845
472.996	8766
473.075	11683
473.153	10226
473.231	9412
473.310	11256
473.388	10919
473.466	9044
473.545	11710
473.623	14664
473.701	14712
473.780	8897
473.858	8452
473.936	10830
474.014	9044
474.093	10524
474.171	17078
474.249	24750
474.327	15532
474.405	8097
474.484	8785
474.562	9445
474.640	7785
474.718	8980
474.796	8717
474.874	7804
474.952	6916
475.030	7798
475.108	8363
475.187	8829
475.265	9880
475.343	14976
475.421	16788
475.499	9166
475.577	9662
475.655	13819
475.733	29791
475.811	52665
475.889	47874
475.966	31049
476.044	9638
476.122	12888
476.200	15645
476.278	12458
476.356	7830
476.434	9654
476.512	12654
476.590	15424
476.667	13156
476.745	9158
476.823	9409
476.901	9298
476.979	9136
477.056	9068
477.134	10019
477.212	10049
477.290	10048
477.367	7360
477.445	8235
477.523	7166
477.601	7953
477.678	8979
477.756	10925
477.834	12693
477.911	8668
477.989	8463
478.066	8200
478.144	10288
478.222	12298
478.299	18427
478.377	16688
478.454	7695
478.532	7649
478.609	8115
478.687	9118
478.764	7990
478.842	8097
478.919	9596
478.997	10190
479.074	7764
479.152	10668
479.229	13147
479.307	8453
479.384	6445
479.461	7391
479.539	8221
479.616	9611
479.694	7791
479.771	10637
479.848	10299
479.926	13867
480.003	15756
480.080	8228
480.157	7224
480.235	7820
480.312	7838
480.389	9267
480.467	17594
480.544	22110
480.621	10119
480.698	10052
480.775	11290
480.853	11118
480.930	9382
481.007	9367
481.084	11260
481.161	11342
481.238	10795
481.315	7662
481.392	7059
481.470	7698
481.547	8095
481.624	7190
481.701	7628
481.778	8621
481.855	10598
481.932	16840
482.009	28369
482.086	20023
482.163	9337
482.240	14382
482.317	23675
482.393	18530
482.470	9433
482.547	10553
482.624	8609
482.701	9363
482.778	8739
482.855	7950
482.932	7459
483.009	7804
483.085	8970
483.162	11587
483.239	11004
483.316	7749
483.393	8307
483.469	8878
483.546	10461
483.623	11270
483.699	7421
483.776	9113
483.853	10994
483.930	15555
484.006	43953
484.083	73953
484.160	29432
484.236	30852
484.313	24646
484.389	19200
484.466	16779
484.543	16385
484.619	18281
484.696	21187
484.772	20917
484.849	23564
484.925	16585
485.002	16975
485.078	18103
485.155	17488
485.231	15497
485.308	15495
485.384	17698
485.461	21748
485.537	41497
485.614	51886
485.690	18141
485.766	15781
485.843	17746
485.919	26195
485.995	27308
486.072	15380
486.148	13302
486.224	14201
486.301	15470
486.377	20268
486.453	18853
486.530	17107
486.606	20499
486.682	23680
486.758	33510
486.835	42101
486.911	31291
486.987	53958
487.063	57323
487.139	69377
487.215	46323
487.292	22948
487.368	16612
487.444	18956
487.520	24769
487.596	24366
487.672	35588
487.748	96820
487.824	140852
487.900	45385
487.976	20245
488.052	20956
488.128	25511
488.204	20445
488.280	18088
488.356	21311
488.432	51080
488.508	80752
488.584	25102
488.660	15510
488.736	16171
488.812	16996
488.888	20808
488.964	29307
489.039	65824
489.115	104161
489.191	60954
489.267	17642
489.343	16149
489.418	12945
489.494	11501
489.570	10689
489.646	13242
489.722	12914
489.797	13945
489.873	24622
489.949	58687
490.024	50208
490.100	13350
490.176	13260
490.251	16524
490.327	22408
490.403	13400
490.478	11834
490.554	10389
490.629	10800
490.705	9487
490.781	12671
490.856	12206
490.932	14610
491.007	14651
491.083	13577
491.158	11662
491.234	19046
491.309	44374
491.385	46941
491.460	13657
491.536	14948
491.611	12310
491.686	15185
491.762	20199
491.837	43841
491.913	73235
491.988	105312
492.063	130409
492.139	37876
492.214	21100
492.289	11704
492.365	9574
492.440	13086
492.515	13131
492.590	13451
492.666	9983
492.741	16461
492.816	24977
492.891	14029
492.967	9566
493.042	9145
493.117	7588
493.192	8586
493.267	12324
493.342	26558
493.418	29380
493.493	10439
493.568	7951
493.643	9151
493.718	12717
493.793	22497
493.868	23801
493.943	15281
494.018	10275
494.093	8830
494.168	10000
494.243	7955
494.318	8280
494.393	7922
494.468	7209
494.543	8340
494.618	10110
494.693	9568
494.768	8940
494.842	9808
494.917	7796
494.992	8740
495.067	7529
495.142	6795
495.217	9258
495.292	9445
495.366	11979
495.441	14388
495.516	18801
495.591	25600
495.665	91399
495.740	223011
495.815	91620
495.890	15300
495.964	10593
496.039	13788
496.114	10635
496.188	12302
496.263	11857
496.338	11527
496.412	13207
496.487	15740
496.561	17231
496.636	17674
496.710	12858
496.785	14809
496.860	16519
496.934	13216
497.009	12955
497.083	12358
497.158	12143
497.232	16505
497.307	20290
497.381	15548
497.455	18711
497.530	26405
497.604	17483
497.679	17768
497.753	30846
497.827	40309
497.902	33670
497.976	39090
498.050	90842
498.125	370191
498.199	387077
498.273	58203
498.348	37501
498.422	28492
498.496	26062
498.570	25524
498.645	19129
498.719	19867
498.793	25702
498.867	40848
498.941	52247
499.016	148771
499.090	410959
499.164	152305
499.238	17226
499.312	15289
499.386	19032
499.460	17804
499.534	17191
499.609	20828
499.683	32670
499.757	30997
499.831	65054
499.905	275203
499.979	264731
500.053	43169
500.127	39802
500.201	28557
500.275	17536
500.349	17275
500.422	19831
500.496	28649
500.570	60809
500.644	154699
500.718	294036
500.792	70494
500.866	17796
500.940	23270
501.013	19508
501.087	19404
501.161	33395
501.235	42122
501.309	92247
501.382	263678
501.456	234427
501.530	51431
501.603	87237
501.677	35377
501.751	13386
501.825	17756
501.898	34338
501.972	104695
502.046	69933
502.119	19125
502.193	45797
502.266	115284
502.340	57398
502.413	47465
502.487	100932
502.561	58532
502.634	16901
502.708	13210
502.781	11458
502.855	10816
502.928	8564
503.002	9669
503.075	8888
503.149	10176
503.222	10856
503.295	13932
503.369	15998
503.442	22685
503.516	76112
503.589	201773
503.662	132416
503.736	39725
503.809	88701
503.882	74363
503.956	105040
504.029	100874
504.102	63087
504.175	80502
504.249	27943
504.322	16792
504.395	14913
504.468	10289
504.542	9559
504.615	7617
504.688	8233
504.761	6652
504.834	11582
504.907	13048
504.980	21917
505.053	12087
505.127	13019
505.200	18131
505.273	16092
505.346	10783
505.419	7065
505.492	8607
505.565	6152
505.638	6971
505.711	5833
505.784	6626
505.857	6316
505.930	8493
506.003	6246
506.076	9998
506.149	12224
506.221	15898
506.294	14509
506.367	37765
506.440	139876
506.513	79807
506.586	17758
506.659	10001
506.731	8174
506.804	9562
506.877	14796
506.950	11244
507.022	7663
507.095	10041
507.168	14898
507.241	9080
507.313	6785
507.386	7874
507.459	12762
507.531	8252
507.604	6317
507.677	6688
507.749	4596
507.822	10802
507.894	16518
507.967	19021
508.040	9533
508.112	9138
508.185	8142
508.257	7417
508.330	14448
508.402	8512
508.475	7510
508.547	10322
508.620	9678
508.692	17649
508.765	10645
508.837	6411
508.909	7453
508.982	7348
509.054	8311
509.127	7479
509.199	6582
509.271	5666
509.344	6227
509.416	6821
509.488	6171
509.560	6775
509.633	7110
509.705	9362
509.777	8538
509.849	13086
509.922	7613
509.994	7038
510.066	6442
510.138	5944
510.210	13981
510.283	11701
510.355	10876
510.427	9247
510.499	8875
510.571	9711
510.643	8541
510.715	16942
510.787	13465
510.859	10437
510.931	11385
511.003	15913
511.076	14574
511.148	7466
511.219	8028
511.291	15629
511.363	19882
511.435	7798
511.507	6316
511.579	7790
511.651	8009
511.723	7293
511.795	6672
511.867	7603
511.939	10501
512.010	25590
512.082	20969
512.154	8655
512.226	8711
512.298	11583
512.369	15937
512.441	13984
512.513	14318
512.585	9860
512.656	9772
512.728	12179
512.800	8806
512.871	8993
512.943	8473
513.015	6876
513.086	8314
513.158	10078
513.230	8990
513.301	16179
513.373	20111
513.444	10328
513.516	8357
513.588	7768
513.659	9017
513.731	12812
513.802	10752
513.874	25380
513.945	46127
514.016	14099
514.088	9270
514.159	9033
514.231	13467
514.302	16485
514.374	11625
514.445	10265
514.516	28637
514.588	20350
514.659	12548
514.730	24139
514.802	18973
514.873	10827
514.944	13054
515.016	11218
515.087	12675
515.158	17585
515.229	26314
515.301	11835
515.372	13679
515.443	8727
515.514	7232
515.585	7177
515.656	8159
515.728	7942
515.799	7699
515.870	9231
515.941	9059
516.012	8808
516.083	12041
516.154	14245
516.225	20546
516.296	19926
516.367	16900
516.438	18485
516.509	24324
516.580	34147
516.651	104877
516.722	382905
516.793	179511
516.864	37238
516.935	36259
517.006	38729
517.077	51416
517.148	110708
517.219	400501
517.289	637100
517.360	204029
517.431	67810
517.502	18730
517.573	16965
517.643	15351
517.714	16052
517.785	17829
517.856	19363
517.926	25444
517.997	29429
518.068	35955
518.138	48559
518.209	66057
518.280	251773
518.350	934669
518.421	368987
518.492	45861
518.562	26538
518.633	25873
518.703	23259
518.774	38507
518.845	91578
518.915	89132
518.986	32095
519.056	25341
519.127	40894
519.197	63378
519.268	153404
519.338	101437
519.408	23540
519.479	26489
519.549	19876
519.620	13483
519.690	10223
519.760	9429
519.831	10736
519.901	10837
519.971	10074
520.042	10941
520.112	11991
520.182	14493
520.253	16386
520.323	9822
520.393	8405
520.463	12912
520.534	9030
520.604	18218
520.674	14294
520.744	13556
520.814	19925
520.885	23056
520.955	45316
521.025	179418
521.095	72007
521.165	13396
521.235	10958
521.305	9772
521.375	9671
521.445	10777
521.515	13875
521.585	16920
521.655	15726
521.725	13592
521.795	12815
521.865	7962
521.935	16672
522.005	13227
522.075	8586
522.145	11076
522.215	11828
522.285	16749
522.355	23573
522.424	49265
522.494	41416
522.564	18936
522.634	34581
522.704	105825
522.774	41398
522.843	11594
522.913	10847
522.983	13598
523.053	10557
523.122	10830
523.192	15365
523.262	56696
523.331	55781
523.401	11053
523.471	8332
523.540	7967
523.610	6798
523.680	6947
523.749	7987
523.819	10298
523.888	10881
523.958	6566
524.027	7467
524.097	9870
524.166	8170
524.236	8610
524.305	10984
524.375	7638
524.444	6268
524.514	9283
524.583	8257
524.653	11510
524.722	13519
524.791	7816
524.861	8963
524.930	6577
524.999	7848
525.069	13377
525.138	10991
525.207	13230
525.277	9892
525.346	8807
525.415	8148
525.484	8136
525.554	11261
525.623	10796
525.692	9848
525.761	11110
525.830	12216
525.900	12853
525.969	21042
526.038	31200
526.107	57541
526.176	169841
526.245	136806
526.314	49924
526.383	92347
526.452	114787
526.522	199810
526.591	206051
526.660	70520
526.729	35715
526.797	37441
526.867	67889
526.935	294358
527.004	485105
527.073	250816
527.142	28359
527.211	13994
527.280	14736
527.349	15200
527.418	6790
527.487	8848
527.555	5919
527.624	6736
527.693	5222
527.762	7038
527.831	5746
527.899	7554
527.968	6716
528.037	5756
528.106	10459
528.174	19167
528.243	15392
528.312	21724
528.380	28914
528.449	9197
528.518	8109
528.586	4471
528.655	6502
528.723	6413
528.792	5533
528.861	6415
528.929	5461
528.998	6450
529.066	4528
529.135	5812
529.203	4395
529.272	5089
529.340	6097
529.409	7922
529.477	5861
529.545	8566
529.614	11328
529.682	9829
529.751	13239
529.819	13271
529.887	8932
529.956	6147
530.024	7030
530.092	5097
530.161	8980
530.229	14600
530.297	7907
530.365	6879
530.434	6915
530.502	4237
530.570	5142
530.638	4801
530.707	7288
530.775	8011
530.843	5632
530.911	6797
530.979	5815
531.047	5707
531.115	6981
531.183	5936
531.252	6898
531.320	6427
531.388	5298
531.456	6610
531.524	5174
531.592	6955
531.660	8812
531.728	6430
531.796	5253
531.864	7419
531.932	6874
532.000	6286
532.067	6640
532.135	8606
532.203	9578
532.271	8609
532.339	17136
532.407	46935
532.475	27333
532.542	14157
532.610	14313
532.678	17629
532.746	74478
532.814	195918
532.881	52485
532.949	10786
533.017	8068
533.084	7493
533.152	6765
533.220	7322
533.287	7565
533.355	7075
533.423	7649
533.490	6143
533.558	7032
533.625	8292
533.693	7967
533.761	8783
533.828	7585
533.896	6893
533.963	16795
534.031	18701
534.098	27409
534.166	13348
534.233	6660
534.300	8173
534.368	8279
534.435	7430
534.503	8981
534.570	8890
534.637	8652
534.705	10080
534.772	11673
534.840	16512
534.907	76418
534.974	97554
535.041	15808
535.109	12309
535.176	7325
535.243	8401
535.310	8828
535.378	6646
535.445	6187
535.512	6834
535.579	6751
535.646	6071
535.714	7116
535.781	8620
535.848	7336
535.915	8382
535.982	7043
536.049	7391
536.116	9263
536.183	6917
536.250	7838
536.317	8402
536.384	10855
536.451	15081
536.518	16219
536.585	10515
536.652	14300
536.719	21151
536.786	15870
536.853	11617
536.920	18835
536.987	30312
537.053	26992
537.120	97152
537.187	87085
537.254	11627
537.321	8090
537.388	8606
537.454	7288
537.521	6983
537.588	7256
537.654	9120
537.721	9064
537.788	9447
537.855	6753
537.921	7469
537.988	7874
538.055	9532
538.121	8618
538.188	8796
538.254	14452
538.321	30765
538.388	19283
538.454	9812
538.521	8554
538.587	7267
538.654	7186
538.720	8253
538.787	6993
538.853	8707
538.920	12350
538.986	11713
539.053	9581
539.119	9898
539.185	8514
539.252	12049
539.318	18254
539.385	12671
539.451	9578
539.517	11425
539.583	13324
539.650	29380
539.716	76097
539.782	23711
539.849	9116
539.915	10438
539.981	10444
540.047	12430
540.114	10747
540.180	11523
540.246	10029
540.312	14895
540.378	29078
540.444	31612
540.510	29775
540.576	83866
540.643	28030
540.709	9526
540.775	8757
540.841	8755
540.907	12352
540.973	17775
541.039	15404
541.105	18418
541.171	9983
541.237	8993
541.303	10745
541.369	11419
541.435	14180
541.500	25916
541.566	16484
541.632	9699
541.698	8178
541.764	8920
541.830	8038
541.896	8235
541.961	9483
542.027	8640
542.093	9431
542.159	9695
542.224	9060
542.290	15185
542.356	24523
542.421	31114
542.487	13604
542.553	9574
542.618	11807
542.684	10633
542.750	9346
542.815	12718
542.881	19464
542.947	73033
543.012	56388
543.078	11239
543.143	8237
543.209	10598
543.274	9286
543.340	12183
543.405	26636
543.471	45896
543.536	11717
543.602	10196
543.667	8435
543.732	9562
543.798	7125
543.863	9054
543.928	7648
543.994	7859
544.059	8824
544.124	8687
544.190	7951
544.255	9363
544.320	9854
544.386	10299
544.451	13735
544.516	16795
544.581	14323
544.646	45472
544.712	73686
544.777	16952
544.842	12653
544.907	13264
544.972	10505
545.037	10324
545.102	12434
545.168	12077
545.233	13454
545.298	14033
545.363	14787
545.428	16358
545.493	28441
545.558	63069
545.623	27381
545.688	12623
545.753	12612
545.818	12390
545.883	11641
545.947	11183
546.012	13971
546.077	14907
546.142	14894
546.207	13243
546.272	18232
546.337	18142
546.401	15046
546.466	13535
546.531	12645
546.596	14788
546.661	14743
546.725	15121
546.790	12833
546.855	14750
546.919	14403
546.984	17308
547.049	18000
547.113	21858
547.178	20070
547.243	22797
547.307	25965
547.372	30709
547.436	32284
547.501	28434
547.565	29690
547.630	31378
547.695	29882
547.759	33030
547.823	28850
547.888	25863
547.952	26828
548.017	27880
548.081	30401
548.146	36858
548.210	33862
548.274	30635
548.339	28757
548.403	27269
548.468	25265
548.532	25353
548.596	26101
548.660	26823
548.725	30060
548.789	34367
548.853	35286
548.917	30219
548.982	34184
549.046	34054
549.110	24327
549.174	24898
549.238	26423
549.303	28599
549.367	30515
549.431	28304
549.495	26889
549.559	27838
549.623	31487
549.687	34930
549.751	40256
549.815	41065
549.879	39895
549.943	37000
550.007	39385
550.071	39748
550.135	40182
550.199	36898
550.263	35142
550.327	35057
550.391	40980
550.455	38320
550.519	37673
550.582	39836
550.646	49616
550.710	51848
550.774	44356
550.838	44703
550.901	46257
550.965	48271
551.029	49630
551.093	54465
551.156	62467
551.220	92470
551.284	107088
551.347	67074
551.411	88207
551.475	92979
551.538	51773
551.602	45321
551.666	42069
551.729	39421
551.793	38307
551.856	37820
551.920	37309
551.983	38116
552.047	37771
552.110	37815
552.174	38217
552.237	38331
552.301	35928
552.364	35153
552.428	34212
552.491	35190
552.554	35869
552.618	37512
552.681	38008
552.745	38933
552.808	51390
552.871	62757
552.934	45638
552.998	38380
553.061	37047
553.124	34614
553.187	33825
553.251	35581
553.314	36467
553.377	35125
553.440	39536
553.503	46634
553.567	52026
553.630	39500
553.693	37878
553.756	38468
553.819	36900
553.882	36700
553.945	35877
554.008	35050
554.071	35077
554.134	36446
554.197	34175
554.260	34597
554.323	36062
554.386	36370
554.449	35765
554.512	36564
554.575	34292
554.638	36918
554.701	35616
554.764	34432
554.827	33190
554.889	32095
554.952	30172
555.015	30178
555.078	30687
555.141	30966
555.203	30275
555.266	30110
555.329	30552
555.391	29930
555.454	29456
555.517	28985
555.580	28180
555.642	26714
555.705	25461
555.768	26845
555.830	25679
555.893	25360
555.955	24383
556.018	24737
556.080	24091
556.143	24834
556.206	24019
556.268	24899
556.330	26033
556.393	24370
556.455	23787
556.518	30446
556.580	30334
556.643	21629
556.705	21519
556.767	19569
556.830	21197
556.892	22743
556.955	31049
557.017	25058
557.079	21087
557.142	21101
557.204	21690
557.266	36811
557.328	31721
557.391	18768
557.453	17928
557.515	18343
557.577	21845
557.639	22840
557.701	18622
557.764	18215
557.826	18857
557.888	20999
557.950	20773
558.012	22770
558.074	27092
558.136	54337
558.198	124725
558.260	49062
558.322	24081
558.384	25223
558.446	27041
558.508	32274
558.570	39241
558.632	55836
558.694	74755
558.756	77476
558.818	229908
558.880	555934
558.942	171478
559.003	136196
559.065	68900
559.127	32300
559.189	31050
559.251	34381
559.312	45831
559.374	107487
559.436	366162
559.498	174006
559.559	35516
559.621	32662
559.683	35413
559.744	56596
559.806	176442
559.868	250983
559.929	52013
559.991	33929
560.052	47666
560.114	123121
560.176	77853
560.237	72635
560.299	116343
560.360	30442
560.422	17351
560.483	16766
560.545	15851
560.606	15415
560.667	13740
560.729	13631
560.790	14096
560.852	14035
560.913	13440
560.974	13750
561.036	13666
561.097	14490
561.158	13329
561.220	15034
561.281	14178
561.342	14859
561.403	17014
561.465	20348
561.526	42043
561.587	57493
561.648	18327
561.709	15065
561.771	13671
561.832	14177
561.893	13302
561.954	12816
562.015	13127
562.076	14060
562.137	13244
562.198	13959
562.259	13586
562.320	13990
562.381	14588
562.442	21040
562.503	17234
562.564	13960
562.625	13563
562.686	13316
562.747	13969
562.808	14578
562.869	13383
562.930	16331
562.991	15454
563.051	15376
563.112	13851
563.173	13416
563.234	12358
563.294	12899
563.355	13523
563.416	13020
563.477	13017
563.537	13674
563.598	13961
563.659	13854
563.720	13110
563.780	14588
563.841	15041
563.901	13958
563.962	13500
564.023	13748
564.083	13708
564.144	14687
564.204	13692
564.265	14234
564.325	16147
564.386	29307
564.446	27553
564.507	13264
564.567	13285
564.628	13236
564.688	12702
564.749	12398
564.809	16083
564.869	17693
564.930	13508
564.990	12795
565.050	12793
565.111	13047
565.171	12398
565.231	12830
565.292	12825
565.352	12389
565.412	13547
565.472	13785
565.532	14217
565.593	13584
565.653	12215
565.713	12741
565.773	14064
565.833	15979
565.893	20193
565.953	14363
566.013	12511
566.074	14715
566.134	18058
566.194	28097
566.254	28713
566.314	19314
566.374	14125
566.434	14377
566.494	13616
566.554	13161
566.614	13529
566.673	13585
566.733	14638
566.793	14822
566.853	15679
566.913	14325
566.973	15897
567.033	16102
567.092	15795
567.152	15110
567.212	15505
567.272	16335
567.331	16973
567.391	15482
567.451	17882
567.511	23392
567.570	23521
567.630	16088
567.690	15345
567.749	16230
567.809	16427
567.868	17158
567.928	19457
567.988	20815
568.047	20852
568.107	23295
568.166	29909
568.226	43911
568.285	59520
568.345	47217
568.404	37691
568.464	32597
568.523	29880
568.582	31286
568.642	33932
568.701	40237
568.761	60242
568.820	96591
568.879	87624
568.939	60968
568.998	44328
569.057	33175
569.116	26406
569.176	23465
569.235	19468
569.294	18872
569.353	17721
569.413	16802
569.472	16201
569.531	15515
569.590	14864
569.649	15472
569.708	13559
569.767	15601
569.827	17542
569.886	15537
569.945	13718
570.004	13943
570.063	13377
570.122	14069
570.181	15924
570.240	16286
570.299	16854
570.358	16265
570.417	12995
570.475	13291
570.534	14460
570.593	14390
570.652	14123
570.711	14618
570.770	14302
570.829	15082
570.887	14601
570.946	15439
571.005	12881
571.064	13525
571.122	14733
571.181	16156
571.240	13350
571.299	12821
571.357	12933
571.416	13073
571.475	16214
571.533	15803
571.592	13364
571.650	14239
571.709	12486
571.768	13403
571.826	12228
571.885	12161
571.943	11131
572.002	11800
572.060	12853
572.119	12267
572.177	10880
572.236	10279
572.294	10340
572.352	12038
572.411	10889
572.469	11983
572.528	10698
572.586	11918
572.644	13226
572.703	16123
572.761	11654
572.819	11494
572.877	11752
572.936	10449
572.994	11232
573.052	11171
573.110	11266
573.169	11839
573.227	11769
573.285	10870
573.343	10571
573.401	11410
573.459	11265
573.517	10770
573.576	10918
573.634	10680
573.692	11609
573.750	11245
573.808	10401
573.866	12853
573.924	14244
573.982	14851
574.040	11597
574.098	11430
574.155	9720
574.213	10199
574.271	10299
574.329	10757
574.387	10492
574.445	9437
574.503	9489
574.560	9650
574.618	9665
574.676	9557
574.734	9164
574.792	10903
574.849	9529
574.907	8953
574.965	10238
575.022	8997
575.080	9008
575.138	9934
575.195	10622
575.253	10826
575.311	11511
575.368	10274
575.426	9772
575.483	11214
575.541	9846
575.598	10585
575.656	11310
575.713	10712
575.771	10041
575.828	9490
575.886	9655
575.943	10728
576.001	10489
576.058	10680
576.115	12065
576.173	12931
576.230	13534
576.287	16070
576.345	12888
576.402	10872
576.459	11760
576.517	11560
576.574	11744
576.631	13026
576.688	11411
576.746	10705
576.803	10195
576.860	10429
576.917	10571
576.974	11024
577.031	10351
577.089	10940
577.146	10782
577.203	11247
577.260	11782
577.317	12135
577.374	12330
577.431	12404
577.488	10371
577.545	9971
577.602	11130
577.659	11322
577.716	10115
577.773	10384
577.830	9595
577.886	10298
577.943	10468
578.000	10179
578.057	11212
578.114	10848
578.171	11463
578.227	11257
578.284	9879
578.341	10823
578.398	9475
578.454	11778
578.511	12867
578.568	15507
578.625	13324
578.681	11276
578.738	9821
578.794	10403
578.851	10163
578.908	11185
578.964	11799
579.021	11836
579.077	10360
579.134	10897
579.190	10421
579.247	10226
579.303	10729
579.360	10234
579.416	10007
579.473	10065
579.529	8956
579.586	10034
579.642	10917
579.698	10925
579.755	10383
579.811	10090
579.867	10639
579.924	9755
579.980	10285
580.036	10797
580.093	10744
580.149	10488
580.205	12059
580.261	10823
580.317	10892
580.374	11984
580.430	14444
580.486	12928
580.542	11871
580.598	11457
580.619	11479
580.654	11518
580.692	11401
580.710	11346
580.765	11197
580.767	11188
580.823	12290
580.838	11942
580.879	11030
580.911	11479
580.935	11796
580.984	11401
580.991	11347
581.047	11770
581.057	11785
581.103	11847
581.130	12104
581.159	12365
581.203	12393
581.215	12387
581.270	12123
581.276	12156
581.326	12491
581.349	12258
581.382	11890
581.422	12422
581.438	12650
581.494	12773
581.494	12779
581.550	12854
581.567	12808
581.606	12737
581.640	13471
581.661	13877
581.713	13172
581.717	13117
581.773	12724
581.786	12815
581.829	13151
581.859	13391
581.885	13554
581.932	14214
581.940	14327
581.996	14297
582.004	14194
582.052	13452
582.077	13541
582.107	13752
582.150	13705
582.163	13638
582.219	14718
582.223	14679
582.274	14347
582.296	14290
582.330	14166
582.368	14374
582.386	14439
582.441	14504
582.441	14497
582.497	14119
582.514	14376
582.552	15132
582.587	14862
582.608	14615
582.659	14760
582.663	14759
582.719	15287
582.732	15259
582.774	15322
582.805	15543
582.830	15632
582.877	15415
582.885	15421
582.941	15265
582.950	15368
582.996	15602
583.023	16067
583.052	16771
583.095	17425
583.107	17498
583.162	17732
583.168	17734
583.218	17902
583.240	17852
583.273	17820
583.313	17260
583.328	16995
583.384	17557
583.385	17541
583.439	17197
583.458	17347
583.494	17498
583.531	17108
583.549	17099
583.603	17447
583.605	17447
583.660	18429
583.676	18250
583.715	17875
583.748	18265
583.770	18527
583.820	19346
583.825	19440
583.881	19053
583.893	19005
583.936	18800
583.965	18559
583.991	18311
584.038	19294
584.046	19535
584.101	19528
584.110	19553
584.156	19444
584.183	19477
584.211	19564
584.255	19906
584.266	19996
584.321	19661
584.328	19679
584.376	20243
584.400	20723
584.431	21211
584.472	20770
584.486	20640
584.541	21455
584.545	21448
584.596	21739
584.617	21836
584.651	22590
584.689	23731
584.706	23842
584.761	23433
584.762	23408
584.816	23523
584.834	23980
584.871	24917
584.906	25188
584.926	25465
584.978	25502
584.980	25522
585.035	26439
585.051	26680
585.090	27988
585.123	29240
585.145	29753
585.195	29517
585.200	29627
585.254	32422
585.267	32898
585.309	33900
585.340	34687
585.364	35592
585.412	37657
585.419	38099
585.473	41752
585.484	42469
585.528	46955
585.556	52283
585.583	63635
585.628	89647
585.637	99599
585.692	185779
585.700	200475
585.747	249216
585.772	215895
585.801	141163
585.845	62514
585.856	54128
585.910	41303
585.917	39982
585.965	37699
585.989	37079
586.019	36883
586.061	36327
586.074	36595
586.128	37871
586.133	37956
586.183	38659
586.205	39001
586.237	39972
586.277	39840
586.292	39608
586.346	39766
586.349	39674
586.401	40320
586.421	40839
586.455	41780
586.493	42498
586.509	44743
586.564	53953
586.565	54199
586.618	72201
586.637	74073
586.672	64426
586.709	52762
586.727	50090
586.781	48518
586.781	48610
586.835	47173
586.853	46750
586.889	45981
586.925	45190
586.944	45600
586.996	47211
586.998	47364
587.052	48935
587.068	49512
587.106	50814
587.140	51042
587.161	51473
587.212	52727
587.215	52931
587.269	55093
587.284	55513
587.323	56577
587.356	57195
587.377	58126
587.427	60438
587.431	60731
587.485	62313
587.499	62634
587.539	64460
587.571	65571
587.593	66587
587.643	69471
587.648	70023
587.702	73470
587.715	74334
587.755	77178
587.786	78792
587.810	80763
587.858	84416
587.864	85223
587.917	92138
587.930	93597
587.971	99589
588.001	103406
588.025	106760
588.073	112749
588.079	114143
588.133	125014
588.145	127382
588.187	138837
588.217	146132
588.241	154311
588.288	171043
588.295	174209
588.348	198972
588.360	203933
588.402	228462
588.431	245354
588.456	263127
588.503	297888
588.510	305515
588.564	364571
588.575	376879
588.617	447017
588.646	496151
588.671	564624
588.718	699729
588.725	735353
588.778	1015112
588.789	1073528
588.832	1400534
588.861	1624744
588.886	1727359
588.932	1871223
588.939	1866026
588.993	1720962
589.004	1702526
589.047	1763253
589.075	1746707
589.100	1542014
589.147	1138229
589.154	1104390
589.207	846509
589.218	794899
589.261	734172
589.290	696466
589.314	722194
589.361	777298
589.368	808201
589.421	1064827
589.433	1120426
589.475	1447620
589.504	1674896
589.528	1730307
589.576	1763834
589.582	1754676
589.635	1634983
589.647	1591940
589.689	1196842
589.718	915280
589.742	778849
589.790	519683
589.795	507687
589.849	392691
589.861	366088
589.902	322292
589.932	288482
589.955	267266
590.004	220733
590.009	218585
590.062	191039
590.075	183882
590.115	172793
590.146	163356
590.168	158511
590.218	146529
590.222	146356
590.275	138716
590.289	136268
590.328	130753
590.360	125312
590.381	122954
590.431	116451
590.435	116541
590.488	111855
590.503	110245
590.541	109071
590.574	107282
590.594	105918
590.645	101539
590.647	101803
590.700	99508
590.716	98534
590.753	97068
590.787	95240
590.806	95101
590.859	93348
590.859	93624
590.912	90676
590.930	89431
590.965	90586
591.001	91082
591.018	90918
591.071	89297
591.072	88963
591.124	88661
591.143	88208
591.177	88494
591.214	87993
591.230	88815
591.283	90728
591.285	90467
591.336	88784
591.356	87763
591.389	87763
591.427	86736
591.442	86211
591.495	83398
591.498	82879
591.547	82397
591.569	81822
591.600	81461
591.640	80166
591.653	80806
591.706	82436
591.711	82288
591.759	83588
591.782	83922
591.811	86252
591.853	88836
591.864	88243
591.917	83272
591.924	82278
591.969	83189
591.995	83176
592.022	83427
592.066	83049
592.075	83949
592.127	87583
592.137	87946
592.180	91629
592.208	93391
592.233	90246
592.279	83204
592.285	83425
592.338	82790
592.350	82319
592.390	80900
592.421	79335
592.443	79893
592.491	80124
592.495	80419
592.548	80286
592.562	79948
592.600	80436
592.633	80278
592.653	80728
592.704	80644
592.705	81102
592.775	80640
592.846	81863
592.916	81530
592.987	83177
593.058	81632
593.128	77928
593.199	77453
593.270	77335
593.341	76827
593.411	77748
593.482	77955
593.553	75884
593.623	77254
593.694	77421
593.764	79548
593.835	77289
593.906	76437
593.976	76536
594.047	79714
594.117	84866
594.188	84255
594.258	77311
594.329	76682
594.399	76619
594.470	76843
594.540	78399
594.611	78091
594.681	76876
594.751	77250
594.822	80773
594.892	80279
594.963	82497
595.033	82694
595.103	83293
595.174	85392
595.244	102336
595.314	112068
595.384	85855
595.455	84048
595.525	85760
595.595	88971
595.665	88225
595.736	85343
595.806	86437
595.876	85824
595.946	86746
596.016	86564
596.087	88647
596.157	89222
596.227	88513
596.297	93647
596.367	94872
596.437	100187
596.507	110881
596.577	119177
596.647	99064
596.717	97695
596.787	98910
596.857	98241
596.927	100815
596.997	98488
597.067	99924
597.137	102166
597.207	102143
597.277	103775
597.347	100486
597.417	99049
597.487	102535
597.557	104063
597.626	103065
597.696	105874
597.766	113579
597.836	120984
597.906	100038
597.975	95330
598.045	94968
598.115	98179
598.185	101331
598.254	108742
598.324	115073
598.394	116477
598.464	113912
598.533	110066
598.603	105463
598.672	104189
598.742	105127
598.812	105981
598.881	106808
598.951	105514
599.020	106654
599.090	107825
599.159	110774
599.229	105593
599.299	105408
599.368	108023
599.437	105114
599.507	100919
599.576	101652
599.646	100387
599.715	100251
599.785	100334
599.854	100474
599.924	101820
599.993	100714
600.062	98419
600.132	100386
600.201	104671
600.270	115145
600.340	116120
600.409	115051
600.478	112867
600.547	115257
600.617	111511
600.686	99922
600.755	95955
600.824	96397
600.894	93637
600.963	89537
601.032	90865
601.101	90615
601.170	89139
601.239	90220
601.308	91514
601.378	90183
601.447	89499
601.516	89970
601.585	92165
601.654	95882
601.723	92885
601.792	94812
601.861	94832
601.930	101060
601.999	103142
602.068	98757
602.137	102916
602.206	102709
602.275	102806
602.343	108252
602.412	108277
602.481	101026
602.550	101452
602.619	104104
602.688	105380
602.756	106077
602.825	103517
602.894	105460
602.963	104705
603.032	106892
603.100	106954
603.169	105941
603.238	109549
603.307	105879
603.375	106308
603.444	109887
603.513	106774
603.581	108241
603.650	111216
603.719	103847
603.787	102779
603.856	106340
603.924	109648
603.993	109548
604.061	111034
604.130	116623
604.198	118390
604.267	117143
604.335	118555
604.404	119354
604.472	122088
604.541	121989
604.609	122794
604.678	124486
604.746	125669
604.815	129127
604.883	127787
604.951	129130
605.020	129671
605.088	128707
605.156	127505
605.225	128301
605.293	127524
605.361	128476
605.429	128387
605.498	133057
605.566	134204
605.634	139267
605.702	140742
605.771	143093
605.839	145576
605.907	138250
605.975	138585
606.043	135606
606.111	135316
606.180	137558
606.248	131814
606.316	131921
606.384	136975
606.452	139867
606.520	140086
606.588	132232
606.656	126605
606.724	126302
606.792	121087
606.860	110133
606.928	102798
606.996	99487
607.064	97814
607.132	100918
607.200	106737
607.267	108073
607.335	109417
607.403	111198
607.471	108980
607.539	105946
607.607	104698
607.674	96031
607.742	97996
607.810	98291
607.878	96563
607.946	98035
608.013	100765
608.081	104481
608.149	104838
608.216	105646
608.284	108949
608.352	107566
608.419	110016
608.487	118890
608.555	107411
608.622	105360
608.690	111156
608.757	120123
608.825	120809
608.893	121407
608.960	119223
609.028	120275
609.095	123824
609.163	112075
609.230	102884
609.298	99115
609.365	99386
609.432	106333
609.500	114410
609.567	126644
609.635	142541
609.702	147327
609.769	140904
609.837	118122
609.904	103108
609.971	105745
610.039	115469
610.106	143976
610.173	248686
610.241	524356
610.308	346317
610.375	175043
610.442	114618
610.509	106418
610.577	105149
610.644	106164
610.711	108741
610.778	111791
610.845	114189
610.912	120577
610.980	122289
611.047	124332
611.114	121224
611.181	117559
611.248	116344
611.315	123969
611.382	123219
611.449	127713
611.516	128655
611.583	128782
611.650	128103
611.717	130919
611.784	132961
611.851	138847
611.918	148962
611.984	168127
612.051	229300
612.118	436976
612.185	989069
612.252	578308
612.319	187897
612.386	160960
612.452	150206
612.519	147869
612.586	156181
612.653	149064
612.719	147058
612.786	142169
612.853	132934
612.919	130443
612.986	132416
613.053	125345
613.120	119384
613.186	118146
613.253	119989
613.319	118276
613.386	119609
613.453	121490
613.519	126819
613.586	136060
613.652	153314
613.719	139938
613.785	134001
613.852	122769
613.918	119890
613.985	121218
614.051	126769
614.118	130618
614.184	123565
614.250	120054
614.317	121106
614.383	120275
614.449	121709
614.516	121635
614.582	123243
614.648	121672
614.715	119904
614.781	119314
614.847	120307
614.914	120871
614.980	119119
615.046	117241
615.112	119248
615.179	121211
615.245	123741
615.311	128445
615.377	145034
615.443	145615
615.509	127778
615.575	130442
615.642	126913
615.708	131751
615.774	136842
615.840	148878
615.906	161913
615.972	200177
616.038	312114
616.104	563707
616.170	1194805
616.236	922987
616.302	258737
616.368	198699
616.434	155287
616.500	149190
616.565	158773
616.631	183360
616.697	157410
616.763	164829
616.829	223039
616.895	356196
616.961	328109
617.026	169260
617.092	134340
617.158	131675
617.224	127838
617.289	121577
617.355	118930
617.421	119267
617.487	118878
617.552	111876
617.618	110282
617.684	111199
617.749	112690
617.815	109192
617.880	104888
617.946	108239
618.012	111256
618.077	113509
618.143	107878
618.208	110170
618.274	117141
618.339	116888
618.405	101360
618.470	103209
618.536	103904
618.601	108840
618.667	101696
618.732	97621
618.798	96579
618.863	96015
618.928	94663
618.994	99956
619.059	104893
619.124	119297
619.190	102686
619.255	96510
619.320	96199
619.386	96485
619.451	92716
619.516	92467
619.581	93587
619.647	95582
619.712	95238
619.777	93250
619.842	95406
619.907	97414
619.972	97556
620.038	96630
620.103	92271
620.168	94255
620.233	94415
620.298	94289
620.363	96278
620.428	96825
620.493	96458
620.558	98046
620.623	97776
620.688	98293
620.753	96048
620.818	99459
620.883	99574
620.948	97814
621.013	98310
621.078	97486
621.143	98911
621.207	103135
621.272	104078
621.337	102852
621.402	104618
621.467	114046
621.532	112995
621.596	107075
621.661	100099
621.726	99096
621.791	100979
621.855	104592
621.920	106225
621.985	106862
622.049	111681
622.114	109915
622.179	106512
622.243	109565
622.308	109889
622.373	112948
622.437	113639
622.502	106436
622.566	107839
622.631	106549
622.695	108624
622.760	108177
622.824	107141
622.889	109406
622.953	113159
623.018	138051
623.082	131479
623.147	112187
623.211	110208
623.276	111855
623.340	104393
623.404	103751
623.469	102785
623.533	104580
623.597	101090
623.662	101818
623.726	98164
623.790	94368
623.854	93996
623.919	95019
623.983	94207
624.047	95754
624.111	93912
624.176	97586
624.240	99732
624.304	104770
624.368	96188
624.432	96886
624.496	98731
624.560	105378
624.625	108083
624.689	100298
624.753	101542
624.817	97629
624.881	96386
624.945	91295
625.009	90351
625.073	91757
625.137	97222
625.201	108922
625.265	105792
625.329	93383
625.393	96965
625.456	94394
625.520	96175
625.584	102585
625.648	110270
625.712	132522
625.776	208538
625.839	216976
625.903	112689
625.967	90388
626.031	119297
626.095	152581
626.158	94668
626.222	78066
626.286	75106
626.349	74213
626.413	71432
626.477	74843
626.540	70889
626.604	70167
626.668	70213
626.731	68765
626.795	71363
626.858	71734
626.922	69288
626.986	69022
627.049	66858
627.113	69575
627.176	68147
627.240	66010
627.303	66453
627.366	67024
627.430	67583
627.493	67736
627.557	66472
627.620	67223
627.684	67001
627.747	67469
627.810	64060
627.874	60739
627.937	60296
628.000	64189
628.064	61796
628.127	56356
628.190	57830
628.253	57451
628.317	55323
628.380	55441
628.443	53140
628.506	55275
628.569	54065
628.632	51346
628.696	52544
628.759	51105
628.822	49937
628.885	48219
628.948	49282
629.011	49202
629.074	50101
629.137	47829
629.200	48027
629.263	51154
629.326	47587
629.389	47183
629.452	48161
629.515	48970
629.578	47319
629.641	49299
629.704	48603
629.767	49425
629.830	46075
629.892	45524
629.955	46196
630.018	49850
630.081	50283
630.144	55524
630.207	47399
630.269	49267
630.332	48437
630.395	46711
630.458	43650
630.520	43519
630.583	44143
630.646	42733
630.708	41818
630.771	42472
630.834	44161
630.896	42943
630.959	43124
631.021	42448
631.084	41489
631.146	44226
631.209	47032
631.272	41121
631.334	40767
631.397	41433
631.459	41599
631.522	42698
631.584	42643
631.646	44510
631.709	45353
631.771	51554
631.834	45761
631.896	42342
631.958	39530
632.021	42329
632.083	39993
632.145	42111
632.208	40524
632.270	42101
632.332	38482
632.395	39223
632.457	41750
632.519	39788
632.581	39374
632.643	39030
632.706	39779
632.768	38261
632.830	38906
632.892	39633
632.954	38258
633.016	40195
633.078	38495
633.141	38879
633.203	37917
633.265	38505
633.327	38570
633.389	38292
633.451	42073
633.513	45613
633.575	43133
633.637	43618
633.698	41487
633.760	39827
633.822	39577
633.884	39196
633.946	39767
634.008	38862
634.070	37941
634.132	40129
634.193	41192
634.255	42576
634.317	41161
634.379	43913
634.441	39896
634.502	39623
634.564	37910
634.626	36380
634.687	36217
634.749	36675
634.811	36334
634.873	35041
634.934	35293
634.996	37487
635.057	35686
635.119	35308
635.181	36511
635.242	37283
635.304	34828
635.365	37803
635.427	35963
635.488	35378
635.550	34952
635.611	36487
635.673	33270
635.734	38553
635.796	37126
635.857	40976
635.918	38033
635.980	41180
636.041	39290
636.102	42501
636.164	40862
636.225	41588
636.286	37394
636.348	37919
636.409	35701
636.470	34379
636.531	35444
636.593	37151
636.654	35550
636.715	32884
636.776	32138
636.838	31064
636.899	32731
636.960	31396
637.021	31566
637.082	30763
637.143	32373
637.204	29520
637.265	29956
637.326	32494
637.387	31560
637.448	29860
637.509	31588
637.570	30978
637.631	31261
637.692	29337
637.753	28061
637.814	29763
637.875	29927
637.936	30838
637.997	29441
638.058	31486
638.119	30931
638.179	29498
638.240	29275
638.301	31138
638.362	28418
638.423	30356
638.483	31029
638.544	28520
638.605	29821
638.666	28291
638.726	29558
638.787	30230
638.848	27984
638.908	28266
638.969	28225
639.030	28137
639.090	27889
639.151	28888
639.211	29766
639.272	34763
639.332	47496
639.393	33583
639.453	27965
639.514	29661
639.574	27353
639.635	27009
639.695	27888
639.756	26241
639.816	29503
639.877	30308
639.937	43217
639.997	47734
640.058	28080
640.118	26313
640.178	26319
640.239	26178
640.299	25633
640.359	25263
640.420	26135
640.480	27361
640.540	28417
640.600	27298
640.661	28170
640.721	28325
640.781	31912
640.841	26829
640.901	27314
640.961	27030
641.021	27985
641.082	29496
641.142	36450
641.202	28232
641.262	24148
641.322	25659
641.382	24426
641.442	25364
641.502	24671
641.562	25746
641.622	23746
641.682	25770
641.742	25781
641.802	25978
641.861	26290
641.921	26865
641.981	27907
642.041	28174
642.101	31456
642.161	24579
642.221	22515
642.280	24174
642.340	23650
642.400	22894
642.460	24592
642.519	25025
642.579	24704
642.639	25913
642.698	22800
642.758	27176
642.818	24322
642.877	23700
642.937	26394
642.997	29025
643.056	35781
643.116	26712
643.175	25638
643.235	25298
643.294	24523
643.354	25186
643.414	27139
643.473	28078
643.532	31475
643.592	36736
643.651	50769
643.711	80905
643.770	149376
643.830	354411
643.889	669636
643.948	147957
644.008	39821
644.067	31138
644.126	26179
644.186	26170
644.245	25328
644.304	22177
644.363	24983
644.423	21844
644.482	24095
644.541	23845
644.600	21973
644.659	27014
644.719	28547
644.778	36391
644.837	51795
644.896	94065
644.955	187729
645.014	64096
645.073	28580
645.132	25292
645.191	25049
645.250	23505
645.309	24866
645.368	24708
645.427	27948
645.486	35049
645.545	48690
645.604	25366
645.663	23727
645.722	22328
645.781	23620
645.840	24450
645.898	28071
645.957	35755
646.016	45036
646.075	74982
646.134	139159
646.192	366456
646.251	469946
646.310	71995
646.369	31655
646.427	28449
646.486	25147
646.545	23561
646.603	21982
646.662	21855
646.721	21719
646.779	20239
646.838	20126
646.896	24818
646.955	26942
647.014	35658
647.072	54608
647.131	127049
647.189	58659
647.248	21691
647.306	21012
647.365	21283
647.423	18380
647.481	20598
647.540	18140
647.598	18828
647.657	18071
647.715	19595
647.773	18390
647.832	19376
647.890	17783
647.948	17960
648.007	18920
648.065	17191
648.123	18043
648.181	19891
648.240	18419
648.298	17358
648.356	18748
648.414	18919
648.472	18257
648.531	19513
648.589	18199
648.647	17702
648.705	17635
648.763	18028
648.821	17991
648.879	18036
648.937	20065
648.995	20449
649.053	22304
649.111	28887
649.169	40638
649.227	63458
649.285	122974
649.343	317880
649.401	140289
649.459	59529
649.516	36950
649.574	22589
649.632	23283
649.690	25120
649.748	24273
649.806	27519
649.863	42028
649.921	91895
649.979	56172
650.037	19273
650.094	16019
650.152	17743
650.210	15621
650.268	17892
650.325	16494
650.383	17368
650.440	15091
650.498	16360
650.556	16217
650.613	15052
650.671	15675
650.728	16455
650.786	16016
650.843	17042
650.901	13972
650.958	15422
651.016	14104
651.073	15332
651.131	13582
651.188	15032
651.246	15499
651.303	14581
651.360	14662
651.418	13811
651.475	14948
651.532	13415
651.590	14569
651.647	14673
651.704	14079
651.762	14330
651.819	14539
651.876	14225
651.933	13555
651.990	14972
652.048	13540
652.105	13973
652.162	14719
652.219	13714
652.276	14372
652.333	14152
652.390	12920
652.448	13626
652.505	14363
652.562	13681
652.619	12900
652.676	14516
652.733	15017
652.790	12973
652.847	11208
652.904	13229
652.961	12212
653.017	12453
653.074	14518
653.131	13664
653.188	12037
653.245	13493
653.302	12633
653.359	13122
653.415	13539
653.472	12916
653.529	13697
653.586	13597
653.642	12768
653.699	13550
653.756	12055
653.813	13233
653.869	12650
653.926	12169
653.983	11354
654.039	12595
654.096	12054
654.152	13320
654.209	12401
654.266	12961
654.322	13831
654.379	14290
654.435	15408
654.492	14197
654.548	19133
654.605	24803
654.661	16044
654.717	13845
654.774	13597
654.830	13265
654.887	12968
654.943	13401
655.000	12132
655.056	12931
655.112	13826
655.168	12800
655.225	12735
655.281	14669
655.337	16617
655.394	21712
655.450	18092
655.506	16975
655.562	23317
655.618	19745
655.675	12655
655.731	13088
655.787	11909
655.843	13997
655.899	11675
655.955	12734
656.011	12334
656.067	11826
656.123	12527
656.179	13420
656.235	13266
656.291	11889
656.347	12615
656.403	12926
656.459	13192
656.515	14375
656.571	13861
656.627	13699
656.683	12015
656.739	13606
656.795	12923
656.850	13897
656.906	14974
656.962	13681
657.018	12002
657.074	13634
657.129	13473
657.185	15991
657.241	21249
657.297	16339
657.352	12747
657.408	12710
657.464	13638
657.519	13308
657.575	10717
657.630	12206
657.686	11971
657.742	12186
657.797	12407
657.853	12831
657.908	13110
657.964	12005
658.019	12164
658.075	12768
658.130	12828
658.186	11296
658.241	11999
658.297	10920
658.352	11780
658.407	12677
658.463	11415
658.518	12192
658.573	12038
658.629	11353
658.684	11671
658.739	12043
658.795	11365
658.850	12028
658.905	12153
658.960	12703
659.016	11309
659.071	13388
659.126	13234
659.181	12782
659.236	17821
659.291	19584
659.346	13895
659.401	12366
659.457	12605
659.512	11888
659.567	13094
659.622	12434
659.677	11893
659.732	12028
659.787	11507
659.842	14320
659.897	14507
659.952	12079
660.007	11796
660.061	12225
660.116	10392
660.171	10738
660.226	11601
660.281	11977
660.336	10793
660.391	11895
660.445	10793
660.500	11802
660.555	11209
660.610	11463
660.664	12485
660.719	11031
660.774	12202
660.828	12127
660.883	11801
660.938	12628
660.992	11251
661.047	11965
661.101	10719
661.156	11228
661.211	11082
661.265	11196
661.320	10729
661.374	11422
661.429	10648
661.483	11607
661.538	10671
661.592	11810
661.647	10288
661.701	11675
661.755	11310
661.810	11642
661.864	11525
661.919	11428
661.973	11875
662.027	11576
662.081	10962
662.136	11574
662.190	11716
662.244	11806
662.299	10795
662.353	11423
662.407	11717
662.461	11423
662.515	11831
662.569	11078
662.624	12226
662.678	11406
662.732	10263
662.786	11146
662.840	11339
662.894	11888
662.948	11020
663.002	11134
663.056	10934
663.110	10216
663.164	10291
663.218	10919
663.272	11234
663.326	11587
663.380	10596
663.434	11134
663.488	11237
663.542	12097
663.595	10965
663.649	11292
663.703	11140
663.757	10791
663.811	10213
663.864	10829
663.918	10671
663.972	10196
664.026	10031
664.079	11521
664.133	11654
664.187	10901
664.240	11372
664.294	10826
664.348	11085
664.401	10785
664.455	11004
664.508	10766
664.562	11279
664.615	11016
664.669	9990
664.722	11143
664.776	10293
664.829	11005
664.883	10903
664.936	10910
664.990	9765
665.043	12195
665.097	11782
665.150	13203
665.203	11218
665.257	11338
665.310	11288
665.363	12452
665.417	11481
665.470	11292
665.523	11298
665.576	12085
665.630	11216
665.683	12345
665.736	11214
665.789	11786
665.842	10622
665.895	11516
665.949	10977
666.002	10829
666.055	11584
666.108	12091
666.161	10666
666.214	12560
666.267	11684
666.320	12528
666.373	11947
666.426	12066
666.479	10903
666.532	11816
666.585	12887
666.638	12816
666.691	11808
666.744	13060
666.796	12472
666.849	12357
666.902	10821
666.955	11532
667.008	9943
667.060	11684
667.113	10187
667.166	10191
667.219	11372
667.271	11274
667.324	10369
667.377	10826
667.430	10033
667.482	11622
667.535	11265
667.587	11722
667.640	12427
667.693	13865
667.745	18483
667.798	18021
667.850	12120
667.903	11763
667.955	11100
668.008	11755
668.060	12361
668.113	13308
668.165	12010
668.218	11573
668.270	11883
668.322	12528
668.375	11708
668.427	11473
668.479	10396
668.532	11152
668.584	11523
668.636	11681
668.689	11203
668.741	11499
668.793	11037
668.845	11696
668.898	11935
668.950	10526
669.002	11273
669.054	11530
669.106	10639
669.158	10955
669.211	10422
669.263	11150
669.315	11525
669.367	11318
669.419	11425
669.471	12582
669.523	11319
669.575	13696
669.627	11934
669.679	10746
669.731	11422
669.783	11303
669.835	11745
669.886	11542
669.938	12034
669.990	11127
670.042	10576
670.094	12593
670.146	11789
670.197	12833
670.249	14501
670.301	16262
670.353	17972
670.404	22891
670.456	30014
670.508	44650
670.560	72769
670.611	122987
670.663	212445
670.715	507311
670.766	681652
670.818	182011
670.869	42028
670.921	26923
670.972	21371
671.024	17604
671.075	15811
671.127	14808
671.178	13130
671.230	14091
671.281	12560
671.333	13297
671.384	13386
671.436	14371
671.487	14889
671.538	16396
671.590	19310
671.641	25750
671.692	36638
671.744	58697
671.795	38419
671.846	19262
671.897	13301
671.949	14272
672.000	12139
672.051	12537
672.102	11600
672.153	11832
672.204	10680
672.256	11375
672.307	11456
672.358	11318
672.409	11548
672.460	11207
672.511	11123
672.562	10433
672.613	9842
672.664	10510
672.715	10223
672.766	10937
672.817	9838
672.868	10317
672.919	9973
672.970	9588
673.021	9668
673.071	10705
673.122	9151
673.173	10514
673.224	9956
673.275	10111
673.326	10385
673.376	9577
673.427	10062
673.478	9920
673.528	9439
673.579	9327
673.630	9119
673.680	10657
673.731	8985
673.782	9227
673.832	9804
673.883	10433
673.934	9126
673.984	9036
674.035	9782
674.085	9958
674.136	10117
674.186	10968
674.237	11705
674.287	14618
674.338	10291
674.388	9584
674.438	9729
674.489	10421
674.539	9321
674.589	10095
674.640	10048
674.690	9523
674.740	9981
674.791	10948
674.841	9462
674.891	10910
674.942	9543
674.992	9154
675.042	7927
675.092	9412
675.142	8677
675.193	7954
675.243	7935
675.293	10140
675.343	9275
675.393	9179
675.443	8801
675.493	9029
675.543	9111
675.593	9382
675.643	8357
675.693	9218
675.743	9851
675.793	8382
675.843	8360
675.893	10182
675.943	8841
675.993	8251
676.043	8845
676.093	8970
676.142	8763
676.192	8679
676.242	8611
676.292	8401
676.341	9243
676.391	8643
676.441	7533
676.491	8482
676.540	7181
676.590	8236
676.640	8786
676.689	8575
676.739	7346
676.789	8299
676.838	7737
676.888	8043
676.937	7966
676.987	8159
677.037	7109
677.086	8133
677.136	8227
677.185	7423
677.235	7178
677.284	8296
677.333	7361
677.383	7632
677.432	6470
677.482	7372
677.531	8054
677.580	7585
677.630	7306
677.679	7049
677.728	7314
677.778	7688
677.827	6914
677.876	7511
677.925	7014
677.975	8249
678.024	7285
678.073	7728
678.122	8738
678.171	8505
678.220	7984
678.269	9036
678.319	9329
678.368	8639
678.417	8774
678.466	8832
678.515	9132
678.564	8231
678.613	8092
678.662	7709
678.711	8878
678.760	8259
678.809	7603
678.857	7774
678.906	7687
678.955	8075
679.004	8316
679.053	7935
679.102	7256
679.151	7870
679.199	7163
679.248	7342
679.297	7514
679.346	7924
679.394	6638
679.443	8453
679.492	6818
679.540	8319
679.589	7985
679.638	7513
679.686	6814
679.735	8013
679.784	7329
679.832	7349
679.881	6580
679.929	6806
679.978	6474
680.026	7732
680.075	7124
680.123	7404
680.172	6471
680.220	7024
680.268	6978
680.317	7064
680.365	6140
680.414	5655
680.462	6936
680.510	7703
680.559	6192
680.607	7141
680.655	6894
680.703	7103
680.752	6155
680.800	6598
680.848	6694
680.896	5927
680.945	6827
680.993	6639
681.041	6153
681.089	6742
681.137	5368
681.185	6402
681.233	5903
681.258	6715
681.281	7408
681.329	5877
681.377	6506
681.380	6620
681.425	7289
681.473	8860
681.502	8160
681.521	7537
681.569	8178
681.617	7952
681.624	8061
681.665	8165
681.713	8284
681.745	8757
681.761	8878
681.809	8446
681.857	8740
681.867	8732
681.904	8380
681.952	8932
681.989	8534
682.000	8315
682.048	9002
682.096	8664
682.111	9053
682.143	9645
682.191	9108
682.233	10415
682.239	10539
682.286	10426
682.334	9739
682.354	10033
682.382	10297
682.430	10224
682.476	9102
682.477	9007
682.525	10218
682.572	10337
682.598	10473
682.620	10502
682.667	11570
682.715	11668
682.720	11634
682.763	10626
682.810	11786
682.841	11241
682.857	10869
682.905	11618
682.952	12666
682.963	12712
683.000	12566
683.047	11908
683.085	12389
683.095	12447
683.142	11670
683.190	12619
683.206	12587
683.237	12366
683.284	12934
683.328	13169
683.332	13132
683.379	12803
683.426	12945
683.449	12947
683.473	12847
683.521	13006
683.568	13033
683.571	13089
683.615	13073
683.662	14129
683.693	14400
683.709	14490
683.757	13467
683.804	14255
683.814	14321
683.851	14206
683.898	14835
683.936	14453
683.945	14363
683.992	14298
684.039	15840
684.057	15696
684.086	15202
684.133	15691
684.179	15870
684.180	15828
684.227	15993
684.274	16747
684.300	16891
684.321	16875
684.368	15049
684.415	16151
684.422	16184
684.462	16210
684.509	16125
684.543	16776
684.556	16966
684.603	16284
684.649	15890
684.665	16255
684.696	16985
684.743	16987
684.786	17419
684.790	17424
684.837	17767
684.883	18087
684.908	18686
684.930	19213
684.977	19496
685.023	18675
685.029	18788
685.070	18824
685.117	18704
685.150	19693
685.164	20171
685.210	19988
685.257	20962
685.272	20693
685.303	19855
685.350	20530
685.393	20012
685.396	19958
685.443	20924
685.490	21505
685.514	21926
685.536	22063
685.583	20884
685.629	21531
685.636	21497
685.675	21249
685.722	20813
685.757	21302
685.768	21452
685.815	21434
685.861	22120
685.878	21950
685.908	21612
685.954	21739
686.000	22383
686.000	22382
686.047	23001
686.093	24110
686.121	24446
686.139	24280
686.185	23197
686.232	22884
686.242	22769
686.278	22401
686.324	22536
686.363	22485
686.370	22532
686.416	22216
686.463	23527
686.484	23502
686.509	23227
686.555	23053
686.601	22212
686.606	22229
686.647	22619
686.693	22446
686.727	23166
686.739	23369
686.785	22761
686.831	23131
686.848	23178
686.877	23187
686.923	22897
686.969	22679
686.969	22677
687.015	23566
687.061	23517
687.090	24070
687.107	24280
687.153	23893
687.199	24018
687.211	23856
687.245	23508
687.291	24403
687.332	24241
687.336	24250
687.382	24897
687.428	24765
687.453	25305
687.474	25374
687.520	24684
687.565	23593
687.574	23519
687.611	23975
687.657	24368
687.695	25001
687.702	25100
687.748	25628
687.794	26344
687.816	26335
687.839	26053
687.885	25563
687.931	25459
687.937	25332
687.976	25095
688.022	26217
688.058	26129
688.067	26077
688.113	26442
688.158	25906
688.179	26158
688.204	26484
688.249	25780
688.295	26712
688.300	26622
688.340	26461
688.386	27931
688.421	27570
688.431	27336
688.477	27203
688.522	27322
688.542	27240
688.567	27523
688.613	27179
688.658	28129
688.663	28103
688.703	27755
688.749	28273
688.784	28118
688.794	28101
688.839	28396
688.884	27765
688.905	27851
688.930	27935
688.975	27991
689.020	27952
689.026	27943
689.065	28362
689.110	28121
689.146	28290
689.155	28257
689.201	27921
689.246	27740
689.267	27695
689.291	27974
689.336	28280
689.381	27853
689.388	27909
689.426	28203
689.471	28051
689.509	28243
689.516	28296
689.561	28240
689.606	27879
689.630	28177
689.651	28632
689.696	28261
689.741	28898
689.750	28862
689.785	28737
689.830	28772
689.871	28432
689.875	28395
689.920	28459
689.965	28033
689.992	27728
690.010	27952
690.054	28263
690.099	28929
690.112	29087
690.144	28855
690.189	28744
690.233	27818
690.233	27852
690.278	28401
690.323	28284
690.354	28926
690.367	29188
690.412	28823
690.457	29412
690.474	29293
690.501	29158
690.546	28925
690.590	29131
690.595	29063
690.635	28835
690.680	28851
690.716	29259
690.724	29535
690.769	30053
690.813	31488
690.836	31286
690.857	31302
690.902	32796
690.946	33530
690.957	33741
690.991	36277
691.035	39579
691.077	42643
691.080	42670
691.124	41498
691.168	40895
691.198	39948
691.213	39062
691.257	37404
691.301	34332
691.318	33461
691.346	33205
691.390	31778
691.434	31518
691.439	31358
691.478	31483
691.522	31880
691.559	31798
691.567	31873
691.611	32715
691.655	33015
691.680	33183
691.699	33092
691.743	33045
691.787	32795
691.800	32622
691.831	32886
691.875	33488
691.919	33889
691.921	33845
691.964	34385
692.008	35004
692.041	35379
692.052	35389
692.096	35318
692.139	35026
692.162	34580
692.183	34302
692.227	34797
692.271	34235
692.282	34173
692.315	34411
692.359	34420
692.402	34824
692.403	34886
692.447	34170
692.490	33955
692.523	33996
692.534	34221
692.578	34375
692.622	34801
692.643	34804
692.666	34670
692.709	34067
692.753	34169
692.763	33944
692.797	33724
692.840	34314
692.884	34141
692.884	34206
692.928	34792
692.971	34833
693.004	35117
693.015	35094
693.059	34442
693.102	34304
693.124	33878
693.146	34136
693.189	35184
693.233	35503
693.245	35713
693.276	36177
693.320	36362
693.363	36559
693.365	36486
693.407	36898
693.450	37803
693.485	37864
693.493	37975
693.537	38961
693.580	39395
693.605	39627
693.624	40508
693.667	42579
693.710	44694
693.725	45287
693.753	50565
693.797	58995
693.840	66978
693.845	67846
693.883	63752
693.926	58682
693.966	54276
693.970	53865
694.013	48076
694.056	42769
694.086	38740
694.099	38736
694.142	38734
694.185	38668
694.206	38425
694.229	38259
694.272	38063
694.315	37945
694.326	37762
694.358	37919
694.401	38133
694.444	38334
694.446	38267
694.487	38390
694.530	38309
694.566	38175
694.573	38075
694.616	36978
694.659	35695
694.686	34873
694.702	34992
694.745	35491
694.787	35367
694.806	35396
694.830	35781
694.873	36132
694.916	36700
694.926	36739
694.959	36399
695.002	35912
695.044	35099
695.046	34996
695.087	35749
695.130	36530
695.166	36951
695.172	37034
695.215	37135
695.258	37272
695.286	37221
695.301	37252
695.343	37021
695.386	36983
695.406	36744
695.428	36796
695.471	36930
695.514	37146
695.526	37118
695.556	37730
695.599	38461
695.641	39126
695.646	39113
695.684	38713
695.726	38072
695.766	37508
695.769	37629
695.811	38137
695.854	38628
695.886	38823
695.896	38760
695.938	38195
695.981	37542
696.005	37086
696.023	37455
696.065	38324
696.108	39234
696.125	39389
696.150	39479
696.192	39671
696.235	39808
696.245	39790
696.277	39603
696.319	38936
696.361	38441
696.365	38306
696.404	38553
696.446	38648
696.485	38716
696.488	38847
696.530	39437
696.572	39817
696.604	40145
696.614	40138
696.656	39556
696.698	39068
696.724	38672
696.740	38833
696.783	39019
696.825	39270
696.844	39272
696.867	39537
696.909	39678
696.951	39922
696.964	39904
696.992	39496
697.034	38778
697.076	37948
697.083	37763
697.118	38406
697.160	38872
697.202	39204
697.203	39118
697.244	39175
697.286	39359
697.323	39111
697.327	39184
697.369	39165
697.411	39127
697.442	38973
697.453	39234
697.494	39952
697.536	40632
697.562	40945
697.578	40960
697.620	40777
697.661	40479
697.682	40312
697.703	40936
697.744	41866
697.786	42950
697.801	43166
697.828	43127
697.869	42913
697.911	42758
697.921	42606
697.952	41886
697.994	40786
698.035	39755
698.040	39521
698.077	39362
698.118	39085
698.160	38794
698.160	38692
698.201	39006
698.243	39219
698.279	39343
698.284	39507
698.325	40076
698.367	40639
698.399	40947
698.408	40970
698.449	40644
698.491	40269
698.518	39942
698.532	40295
698.573	41039
698.614	41796
698.638	42106
698.656	42146
698.697	42024
698.738	41866
698.757	41697
698.779	42048
698.820	42496
698.862	42944
698.877	43002
698.903	43199
698.944	43338
698.985	43478
698.996	43404
699.026	42995
699.067	42275
699.116	41308
699.235	41872
699.354	40761
699.474	42269
699.593	43141
699.713	41981
699.832	41341
699.951	43296
700.070	40604
700.190	39308
700.309	39893
700.428	40739
700.547	39264
700.667	40121
700.786	41413
700.905	37842
701.024	39527
701.143	38087
701.262	36471
701.381	36458
701.500	38663
701.619	39944
701.738	37636
701.857	37599
701.976	36445
702.095	36883
702.214	39439
702.333	38724
702.452	36860
702.571	37263
702.690	37369
702.809	36117
702.928	34951
703.047	35353
703.165	34092
703.284	35274
703.403	34876
703.522	37052
703.640	36430
703.759	39968
703.878	42753
703.997	35275
704.115	33260
704.234	34357
704.353	33898
704.471	33956
704.590	33913
704.708	31861
704.827	31698
704.946	32997
705.064	34605
705.183	33940
705.301	39315
705.420	52323
705.538	46746
705.656	41286
705.775	40299
705.893	47071
706.012	49765
706.130	42722
706.249	42650
706.367	41338
706.485	42217
706.604	41679
706.722	41864
706.840	45612
706.958	44933
707.077	40584
707.195	38736
707.313	39143
707.431	37680
707.549	37990
707.668	37684
707.786	38322
707.904	37404
708.022	36978
708.140	36210
708.258	37235
708.376	38714
708.494	38209
708.612	41545
708.730	55689
708.848	52523
708.966	47639
709.084	43761
709.202	44881
709.320	46102
709.438	44951
709.556	44278
709.674	45048
709.791	44108
709.909	43822
710.027	42954
710.145	42352
710.263	42589
710.380	42424
710.498	41254
710.616	41600
710.733	40902
710.851	41673
710.969	42440
711.086	40323
711.204	39838
711.322	40947
711.439	40978
711.557	40184
711.674	39822
711.792	39080
711.909	39007
712.027	39432
712.144	37021
712.262	38558
712.379	42295
712.497	58334
712.614	56760
712.732	48976
712.849	47251
712.966	48224
713.084	53796
713.201	48721
713.318	48318
713.436	48119
713.553	46894
713.670	48667
713.787	50903
713.905	48647
714.022	46951
714.139	46698
714.256	49225
714.373	53338
714.490	67819
714.608	130478
714.725	440855
714.842	369663
714.959	59911
715.076	46983
715.193	43434
715.310	42765
715.427	41201
715.544	40548
715.661	41766
715.778	41638
715.895	44470
716.011	43095
716.128	39921
716.245	41443
716.362	43160
716.479	44329
716.596	38900
716.713	40051
716.829	38946
716.946	38549
717.063	35599
717.180	37779
717.296	36929
717.413	37004
717.530	36577
717.646	35646
717.763	36615
717.880	35220
717.996	35448
718.113	36624
718.229	35135
718.346	33317
718.462	34412
718.579	38703
718.695	50727
718.812	42649
718.928	39665
719.045	34322
719.161	32117
719.277	31735
719.394	32009
719.510	34045
719.626	33684
719.743	41115
719.859	41634
719.975	54759
720.092	145250
720.208	261935
720.324	49191
720.440	36503
720.557	38604
720.673	44819
720.789	52053
720.905	84593
721.021	38966
721.137	32230
721.253	31570
721.369	33275
721.486	33622
721.602	38843
721.718	30770
721.834	29040
721.950	29445
722.066	29162
722.181	29409
722.297	30024
722.413	28301
722.529	28979
722.645	28189
722.761	28579
722.877	27422
722.993	28563
723.108	29283
723.224	28034
723.340	28062
723.456	26163
723.571	27835
723.687	25665
723.803	27667
723.918	26281
724.034	27170
724.150	26453
724.265	27921
724.381	42586
724.497	43870
724.612	26592
724.728	24107
724.843	25809
724.959	26623
725.074	39760
725.190	39953
725.305	26672
725.421	24267
725.536	23306
725.651	23752
725.767	24996
725.882	23467
725.997	23256
726.113	22967
726.228	22495
726.343	23330
726.459	22322
726.574	23635
726.689	22726
726.804	22476
726.920	22924
727.035	22901
727.150	22395
727.265	22955
727.380	23253
727.495	22515
727.610	20437
727.725	22678
727.841	22495
727.956	25499
728.071	25271
728.186	21460
728.301	21191
728.416	22347
728.531	20958
728.645	20025
728.760	21818
728.875	20944
728.990	20587
729.105	21928
729.220	21360
729.335	20980
729.449	20043
729.564	19273
729.679	20137
729.794	19953
729.908	21916
730.023	20282
730.138	18314
730.253	18723
730.367	18350
730.482	18494
730.596	19517
730.711	20335
730.826	20170
730.940	19380
731.055	19984
731.169	18474
731.284	18823
731.398	19152
731.513	20356
731.627	19246
731.742	21920
731.856	22663
731.970	19519
732.085	22277
732.199	23603
732.313	32248
732.428	61649
732.542	150879
732.656	79455
732.771	25153
732.885	22602
732.999	20982
733.113	21824
733.227	20925
733.342	20190
733.456	19887
733.570	20149
733.684	19600
733.798	19533
733.912	19602
734.026	17978
734.140	19661
734.254	19646
734.368	26001
734.482	27461
734.596	18081
734.710	17974
734.824	17689
734.938	18236
735.052	17924
735.166	19825
735.280	18872
735.393	18297
735.507	17541
735.621	21621
735.735	27717
735.849	18638
735.962	17945
736.076	18200
736.190	18142
736.303	21980
736.417	23031
736.531	17936
736.644	18066
736.758	16034
736.872	17057
736.985	16608
737.099	16769
737.212	15817
737.326	16092
737.439	16801
737.553	15010
737.666	16366
737.780	15094
737.893	15839
738.007	14994
738.120	15051
738.233	15588
738.347	15229
738.460	16196
738.573	16645
738.687	16464
738.800	16401
738.913	18347
739.026	16742
739.140	15944
739.253	14703
739.366	15151
739.479	15002
739.592	14249
739.705	15202
739.818	14718
739.932	14692
740.045	14787
740.158	14172
740.271	15227
740.384	14617
740.497	13796
740.610	15401
740.723	14355
740.836	15411
740.949	15549
741.062	18035
741.174	15897
741.287	15537
741.400	14094
741.513	14884
741.626	14273
741.739	14136
741.851	13987
741.964	13684
742.077	14318
742.189	14309
742.302	14496
742.415	14517
742.527	13007
742.640	14246
742.753	14263
742.865	12634
742.978	13254
743.090	14026
743.203	13930
743.316	13693
743.428	12960
743.541	12624
743.653	12534
743.766	12762
743.878	13299
743.990	15529
744.103	15358
744.215	13748
744.327	13797
744.440	15225
744.552	17956
744.664	14116
744.777	13080
744.889	12351
745.001	12876
745.113	13556
745.226	11740
745.338	12271
745.450	12200
745.562	12979
745.674	12378
745.786	12213
745.898	12278
746.010	13594
746.122	12555
746.234	12032
746.347	12039
746.459	12391
746.570	11388
746.682	13101
746.794	12810
746.906	11729
747.018	12044
747.130	12073
747.242	11785
747.354	11861
747.466	12292
747.577	10968
747.689	11161
747.801	12739
747.913	12072
748.024	11569
748.136	10837
748.248	11127
748.359	10695
748.471	11006
748.583	10886
748.694	11068
748.806	13645
748.918	13412
749.029	12436
749.141	12888
749.252	11797
749.364	13661
749.475	19925
749.587	14467
749.698	11556
749.809	11627
749.921	10927
750.032	10823
750.144	10350
750.255	9883
750.366	10564
750.478	10640
750.589	10620
750.700	10579
750.811	11694
750.923	13003
751.034	21449
751.145	18439
751.256	10203
751.367	10932
751.479	10112
751.590	9517
751.701	9547
751.812	9739
751.923	10355
752.034	10362
752.145	10161
752.256	10562
752.367	9576
752.478	10941
752.589	10541
752.700	9792
752.811	10009
752.922	10796
753.032	10797
753.143	10961
753.254	9646
753.365	11109
753.476	10278
753.586	10165
753.697	8784
753.808	10297
753.919	9319
754.029	9504
754.140	9461
754.251	10295
754.361	9610
754.472	9961
754.582	9740
754.693	10277
754.804	10162
754.914	9624
755.025	9363
755.135	9574
755.246	10050
755.356	9389
755.466	10087
755.577	9654
755.687	10036
755.798	9530
755.908	9061
756.018	9687
756.129	8821
756.239	9789
756.349	9622
756.460	9690
756.570	9938
756.680	9094
756.790	10170
756.900	10906
757.011	9519
757.121	9995
757.231	9721
757.341	9646
757.451	9400
757.561	8784
757.671	9258
757.781	9132
757.891	9797
758.001	10526
758.111	10093
758.221	10495
758.331	11153
758.441	11235
758.551	11993
758.661	11846
758.771	11253
758.880	10589
758.990	9463
759.100	10276
759.210	10236
759.320	10304
759.429	9375
759.539	11005
759.649	9651
759.758	10293
759.868	10507
759.978	11083
760.087	11542
760.197	10834
760.307	11703
760.416	10728
760.526	9439
760.635	10534
760.745	11101
760.854	11508
760.964	11038
761.073	11463
761.182	10670
761.292	11090
761.401	10713
761.511	10681
761.620	10243
761.729	10487
761.839	9633
761.948	11273
762.057	10865
762.166	10292
762.276	9894
762.385	12356
762.494	10453
762.603	10641
762.712	11210
762.822	11326
762.931	10605
763.040	11429
763.149	10667
763.258	11043
763.367	11354
763.476	11156
763.585	11218
763.694	11928
763.803	12048
763.912	12383
764.021	11885
764.130	12746
764.238	12144
764.347	12154
764.456	12952
764.565	12929
764.674	14179
764.783	14057
764.891	14103
765.000	16891
765.109	16182
765.217	16667
765.326	20582
765.435	23679
765.543	25209
765.652	28466
765.761	34537
765.869	48547
765.978	69957
766.086	117290
766.195	221316
766.303	504571
766.412	979683
766.520	831072
766.629	364651
766.737	153423
766.846	89542
766.954	60873
767.062	45603
767.171	37099
767.279	29912
767.387	25658
767.496	22807
767.604	20196
767.712	19473
767.820	17813
767.928	18248
768.037	16880
768.145	17078
768.253	17668
768.361	16485
768.469	16945
768.577	14863
768.685	16798
768.793	18429
768.901	17320
769.009	19460
769.117	21270
769.225	26664
769.333	34592
769.441	51082
769.549	87473
769.657	190847
769.765	524121
769.873	817574
769.981	391512
770.088	120075
770.196	61586
770.304	41834
770.412	32585
770.519	26241
770.627	21776
770.735	19471
770.842	18891
770.950	16025
771.058	15987
771.165	15618
771.273	14659
771.380	13946
771.488	14561
771.595	14302
771.703	13026
771.810	14052
771.918	13257
772.025	13357
772.133	12549
772.240	12859
772.348	14363
772.455	12842
772.562	12628
772.670	12392
772.777	12540
772.884	11179
772.991	12386
773.099	10984
773.206	11492
773.313	12289
773.420	11984
773.528	11083
773.635	11088
773.742	10581
773.849	11951
773.956	11495
774.063	10862
774.170	11049
774.277	12723
774.384	10447
774.491	10661
774.598	11432
774.705	11690
774.812	13119
774.919	12403
775.026	11843
775.133	11088
775.239	11181
775.346	10916
775.453	10184
775.560	10105
775.667	10135
775.773	10620
775.880	10523
775.987	10791
776.093	10871
776.200	10382
776.307	9573
776.413	10053
776.520	10274
776.627	11248
776.733	9293
776.840	9664
776.946	12031
777.053	10611
777.159	10230
777.266	9247
777.372	11469
777.478	9705
777.585	11100
777.691	9233
777.798	10582
777.904	10468
778.010	13043
778.117	12388
778.223	10116
778.329	9630
778.435	9683
778.542	9815
778.648	9706
778.754	8888
778.860	9974
778.966	9883
779.072	9714
779.178	9230
779.284	9177
779.391	8640
779.497	9374
779.603	11262
779.708	9752
779.815	15311
779.920	32919
780.026	56500
780.132	12289
780.238	9170
780.344	8726
780.450	10314
780.556	8748
780.661	8333
780.767	9445
780.873	8679
780.979	8378
781.085	8569
781.190	8697
781.296	8489
781.402	8988
781.507	8490
781.613	7808
781.719	8584
781.824	9096
781.930	9461
782.035	8184
782.141	8403
782.246	7829
782.352	8388
782.457	9230
782.563	8811
782.668	8688
782.773	9291
782.879	7868
782.984	9645
783.090	9945
783.195	11679
783.300	9821
783.405	8544
783.511	7446
783.616	8455
783.721	8583
783.826	8625
783.932	9369
784.037	8782
784.142	7956
784.247	7895
784.352	7652
784.457	7885
784.562	7726
784.667	7726
784.772	7329
784.877	7790
784.982	7896
785.087	8465
785.192	8931
785.297	7353
785.402	8498
785.507	8107
785.611	7950
785.716	7935
785.821	7731
785.926	7192
786.031	7725
786.135	7575
786.240	7698
786.345	6167
786.450	6951
786.554	8210
786.659	7220
786.763	5853
786.868	7967
786.973	8992
787.077	7694
787.182	7456
787.286	7384
787.391	7366
787.495	6821
787.600	7037
787.704	7423
787.809	7260
787.913	6849
788.017	8011
788.122	7442
788.226	7262
788.330	6642
788.435	7212
788.539	7380
788.643	6604
788.747	6534
788.852	6506
788.956	5905
789.060	7774
789.164	6785
789.268	6370
789.372	6981
789.476	5929
789.580	6932
789.684	6156
789.788	7607
789.892	6937
789.996	6711
790.100	6831
790.204	5998
790.308	6364
790.412	6684
790.516	6805
790.620	7023
790.724	7408
790.828	5490
790.931	5706
791.035	8184
791.139	6238
791.242	6771
791.346	7456
791.450	6513
791.554	7073
791.657	4703
791.761	7332
791.864	6772
791.968	6637
792.072	6976
792.175	6267
792.279	5711
792.382	6344
792.486	6463
792.589	6127
792.693	6325
792.796	5521
792.899	6789
793.003	7252
793.106	4701
793.209	6249
793.313	7512
793.416	4790
793.519	7755
793.623	8542
793.726	8987
793.829	7088
793.932	5837
794.035	5255
794.138	7155
794.242	6354
794.345	7738
794.448	8679
794.551	10598
794.654	19490
794.757	29348
794.860	10824
794.963	7159
795.066	5402
795.169	6470
795.272	5837
795.375	7046
795.477	5806
795.580	6444
795.683	5235
795.786	6166
795.889	4668
795.991	6951
796.094	6649
796.197	4441
796.300	6692
796.402	5035
796.505	4789
796.608	5107
796.710	6090
796.813	5582
796.915	5478
797.018	6277
797.120	5762
797.223	4745
797.326	7264
797.428	5264
797.530	5062
797.633	5284
797.735	7272
797.838	7879
797.940	8237
798.042	4698
798.145	5442
798.247	5680
798.349	4493
798.452	5435
798.554	4933
798.656	4734
798.758	6260
798.860	4321
798.962	4961
799.065	4571
799.167	5139
799.269	7029
799.371	6186
799.473	6679
799.575	6531
799.677	6944
799.779	8169
799.881	6620
799.983	6510
800.085	5341
800.187	5101
800.289	5294
800.390	5527
800.492	6037
800.594	6487
800.696	4257
800.798	5573
800.899	4465
801.001	4801
801.103	4638
801.205	5195
801.306	5055
801.408	4256
801.509	4564
801.611	5869
801.713	5462
801.814	4754
801.916	4120
802.017	5108
802.119	3533
802.220	5006
802.322	3464
802.423	7143
802.525	4542
802.626	5766
802.727	5110
802.829	5223
802.930	3206
803.031	6384
803.133	5100
803.234	4084
803.335	4263
803.436	4492
803.538	3976
803.639	3628
803.740	4595
803.841	3686
803.942	4490
804.043	5084
804.144	3573
804.245	3736
804.346	4449
804.447	5058
804.548	5240
804.649	7496
804.750	5236
804.851	3150
804.952	4249
805.053	4631
805.154	3376
805.255	5192
805.355	4165
805.456	5228
805.557	3793
805.658	2742
805.758	5116
805.859	4275
805.960	5029
806.061	2736
806.161	3658
806.262	4973
806.362	4745
806.463	4074
806.564	4219
806.664	4055
806.765	5430
806.865	5037
806.966	4648
807.066	4088
807.166	5105
807.267	4667
807.367	3934
807.468	5117
807.568	3504
807.668	5592
807.769	4963
807.869	3739
807.969	4034
808.069	4568
808.170	4093
808.270	4560
808.370	4259
808.470	5556
808.570	3921
808.670	3984
808.770	4872
808.870	4364
808.970	4226
809.070	3800
809.170	3659
809.271	4982
809.370	4166
809.470	3953
809.570	3644
809.670	3136
809.770	4353
809.870	4208
809.970	4516
810.070	3823
810.169	3756
810.269	2587
810.369	4386
810.469	3590
810.568	2557
810.668	3409
810.768	3439
810.867	4861
810.967	3540
811.066	3353
811.166	3190
811.265	4474
811.365	3141
811.464	3562
811.564	3756
811.663	4430
811.763	3648
811.862	4254
811.962	4594
812.061	4318
812.160	3266
812.260	4682
812.359	4326
812.458	5163
812.557	9095
812.657	10366
812.756	5828
812.855	4995
812.954	3527
813.053	4016
813.153	3877
813.252	3686
813.351	3367
813.450	4154
813.549	3750
813.648	3238
813.747	3294
813.846	4455
813.945	3366
814.044	3820
814.143	3452
814.242	4844
814.341	3836
814.439	4652
814.538	4848
814.637	4043
814.736	3573
814.835	5654
814.933	4361
815.032	5290
815.131	4031
815.229	5666
815.328	6314
815.427	5375
815.525	5831
815.624	5663
815.722	5590
815.821	5207
815.919	5040
816.018	5175
816.116	6196
816.215	6486
816.313	5793
816.412	6576
816.510	5634
816.609	7874
816.707	7534
816.805	6479
816.904	6517
817.002	8370
817.100	8140
817.198	8619
817.296	8085
817.395	10021
817.493	10892
817.591	11036
817.689	14623
817.787	18453
817.885	28165
817.983	45794
818.081	93163
818.179	213879
818.277	471183
818.375	369782
818.473	118688
818.571	51124
818.669	34892
818.767	31561
818.865	30714
818.963	36641
819.061	52927
819.158	84510
819.256	169169
819.354	364824
819.452	635881
819.549	418089
819.647	156261
819.745	70545
819.842	44290
819.940	32173
820.038	23823
820.135	18889
820.233	16380
820.330	13320
820.428	10057
820.525	11569
820.623	9857
820.720	9317
820.818	8760
820.915	8083
821.012	8814
821.110	7083
821.207	8038
821.304	6204
821.402	7288
821.499	7121
821.596	6731
821.693	6372
821.791	7453
821.888	8030
821.985	11179
822.082	9078
822.179	6814
822.276	6153
822.373	5811
822.470	5371
822.567	5156
822.664	4633
822.761	5625
822.858	4620
822.955	5213
823.052	5422
823.149	5417
823.246	5277
823.343	4323
823.440	4916
823.536	4307
823.633	4689
823.730	4477
823.827	4716
823.923	5288
824.020	5739
824.117	4287
824.213	3681
824.310	3992
824.407	4346
824.503	4657
824.600	4809
824.696	3599
824.793	5330
824.889	3918
824.986	4632
825.082	3600
825.179	4951
825.275	4377
825.371	4554
825.468	4355
825.564	3531
825.660	4074
825.757	3934
825.853	4881
825.949	3277
826.045	3987
826.142	3858
826.238	4095
826.334	4385
826.430	2623
826.526	3683
826.622	2786
826.718	4027
826.814	3789
826.910	4453
827.006	3245
827.102	3423
827.198	4778
827.294	4001
827.390	4581
827.486	3936
827.582	2070
827.678	3106
827.774	4668
827.869	2843
827.965	5192
828.061	2605
828.157	3459
828.252	3003
828.348	2464
828.444	4254
828.539	2421
828.635	3466
828.731	4403
828.826	3862
828.922	4238
829.017	3077
829.113	4260
829.208	3250
829.304	3171
829.399	4504
829.495	2884
829.590	4136
829.685	2215
829.781	4367
829.876	3008
829.971	2859
830.066	3528
830.162	4155
830.257	3034
830.352	3701
830.447	4457
830.543	3911
830.638	2714
830.733	4738
830.828	3131
830.923	4083
831.018	4004
831.113	4200
831.208	1968
831.303	2782
831.398	3362
831.493	3160
831.588	3942
831.683	2633
831.778	2871
831.873	3293
831.967	3950
832.062	2026
832.157	2295
832.252	4089
832.346	2593
832.441	4985
832.536	6148
832.631	11385
832.725	8851
832.820	3647
832.914	2910
833.009	2957
833.104	4080
833.198	4171
833.293	3077
833.387	4180
833.482	1914
833.576	2080
833.670	3678
833.765	3625
833.859	2837
833.954	4059
834.048	3261
834.142	3195
834.237	2852
834.331	3425
834.425	2515
834.519	2412
834.613	3923
834.708	2738
834.802	3232
834.896	2773
834.990	2065
835.084	3604
835.178	2401
835.272	3195
835.366	3154
835.460	4078
835.554	2813
835.648	2575
835.742	2668
835.836	2667
835.930	2145
836.024	3125
836.117	3496
836.211	2836
836.305	4691
836.399	6028
836.493	2644
836.586	3870
836.680	2602
836.774	2519
836.867	3254
836.961	1836
837.055	1837
837.148	2492
837.242	3254
837.335	1800
837.429	3254
837.522	2427
837.616	3220
837.709	5681
837.803	3988
837.896	4032
837.989	3148
838.083	3915
838.176	6697
838.269	5183
838.363	3928
838.456	4052
838.549	4594
838.642	7143
838.735	11296
838.829	5161
838.922	2588
839.015	2982
839.108	1988
839.201	3194
839.294	2668
839.387	4479
839.480	2044
839.573	4257
839.666	4728
839.759	3091
839.852	3087
839.945	2984
840.038	2219
840.131	2663
840.223	2873
840.316	4017
840.409	2155
840.502	2787
840.594	3699
840.687	1615
840.780	2030
840.873	2289
840.965	2871
841.058	3830
841.150	6315
841.243	4046
841.336	3736
841.428	3335
841.521	2746
841.613	2745
841.706	2893
841.798	2155
841.890	2818
841.983	2210
842.075	3342
842.167	2918
842.260	2751
842.352	3920
842.444	4814
842.537	7340
842.629	8662
842.721	3016
842.813	2771
842.905	2148
842.997	2798
843.090	3562
843.182	4478
843.274	7641
843.366	13708
843.458	23420
843.550	14220
843.642	4141
843.734	3350
843.826	3557
843.918	3257
844.009	4039
844.101	2679
844.193	3154
844.285	2689
844.377	3180
844.469	2902
844.560	2587
844.652	2210
844.744	2852
844.835	2765
844.927	3120
845.019	2980
845.110	3239
845.202	2252
845.293	2993
845.385	1988
845.476	3176
845.568	3677
845.659	3333
845.751	2546
845.842	3063
845.934	1796
846.025	2279
846.116	3120
846.208	2947
846.299	1658
846.390	2587
846.482	2772
846.573	3748
846.664	3416
846.755	5562
846.846	4322
846.937	1514
847.029	2128
847.120	1968
847.211	1350
847.302	3577
847.393	1537
847.484	2418
847.575	2148
847.666	2155
847.757	2472
847.847	2000
847.938	2569
848.029	2849
848.120	1951
848.211	1997
848.302	1527
848.392	2251
848.483	3151
848.574	1704
848.664	2451
848.755	2690
848.846	2434
848.936	2524
849.027	2510
849.118	3214
849.208	2062
849.299	3235
849.389	2967
849.480	5700
849.570	7411
849.661	14866
849.751	20508
849.841	7194
849.932	2520
850.022	2917
850.112	2745
850.203	3114
850.293	1826
850.383	2158
850.474	1508
850.564	2573
850.654	2114
850.744	2827
850.834	2376
850.924	2321
851.014	2498
851.104	3348
851.194	2080
851.284	2809
851.374	3863
851.464	2568
851.554	2890
851.644	2959
851.734	4624
851.824	3041
851.914	2076
852.004	2939
852.094	2345
852.183	2502
852.273	2791
852.363	1961
852.452	2094
852.542	2725
852.632	1638
852.721	2509
852.811	1937
852.901	2371
852.990	2183
853.080	2770
853.169	2391
853.259	2515
853.348	2481
853.438	3304
853.527	3719
853.617	4468
853.706	7322
853.795	10769
853.885	23193
853.974	40107
854.063	74016
854.152	105954
854.242	35280
854.331	7426
854.420	3704
854.509	3778
854.598	2721
854.687	3635
854.777	2618
854.866	2241
854.955	1966
855.044	1965
855.133	1790
855.222	1842
855.311	1491
855.400	2345
855.488	1434
855.577	1805
855.666	1778
855.755	3152
855.844	1763
855.933	2505
856.021	2115
856.110	1979
856.199	2245
856.288	1948
856.376	1884
856.465	1504
856.554	2707
856.642	2205
856.731	2220
856.819	2286
856.908	2185
856.996	2293
857.085	2175
857.173	1956
857.262	1840
857.350	3033
857.438	1480
857.527	2898
857.615	1943
857.703	2430
857.792	1546
857.880	1987
857.968	1511
858.056	1724
858.145	2394
858.233	2355
858.321	1253
858.409	3141
858.497	1875
858.585	2249
858.673	2606
858.761	911
858.849	1764
858.937	1697
859.025	2285
859.113	2689
859.201	2133
859.289	2652
859.377	2254
859.465	2948
859.552	2558
859.640	2104
859.728	1604
859.816	2020
859.903	1511
859.991	1288
860.079	2151
860.166	2470
860.254	1597
860.342	1769
860.429	2036
860.517	1556
860.604	2797
860.692	1734
860.779	1661
860.867	1999
860.954	2292
861.042	2713
861.129	2686
861.216	1979
861.304	2101
861.391	1867
861.478	1984
861.565	1666
861.653	2056
861.740	1302
861.827	1277
861.914	998
862.001	1533
862.089	2735
862.176	2189
862.263	1332
862.350	1422
862.437	1171
862.524	902
862.611	2028
862.698	2361
862.785	1632
862.871	2120
862.958	1410
863.045	1591
863.132	1677
863.219	1824
863.306	1355
863.392	1693
863.479	1703
863.566	2079
863.652	2102
863.739	1171
863.826	2226
863.912	1695
863.999	1312
864.086	2475
864.172	2515
864.259	1433
864.345	2552
864.432	1754
864.518	2510
864.604	2008
864.691	1646
864.777	2012
864.863	2461
864.950	2683
865.036	2149
865.122	4734
865.209	3622
865.295	3472
865.381	3973
865.467	3334
865.553	4871
865.639	5100
865.726	7411
865.812	12181
865.898	22567
865.984	31737
866.070	60402
866.156	55817
866.242	14613
866.328	5145
866.414	4191
866.499	3958
866.585	3406
866.671	3446
866.757	3239
866.843	3549
866.928	3033
867.014	2773
867.100	3717
867.186	2665
867.271	4025
867.357	4362
867.442	4419
867.528	3553
867.614	3327
867.699	3042
867.785	3117
867.870	2896
867.956	2877
868.041	2958
868.127	2822
868.212	2799
868.297	3058
868.383	2747
868.468	5147
868.553	7481
868.639	8047
868.724	14543
868.809	11361
868.894	3864
868.979	3150
869.065	2766
869.150	1980
869.235	3171
869.320	2562
869.405	2262
869.490	1557
869.575	2265
869.660	2898
869.745	2881
869.830	1857
869.915	2477
870.000	2314
870.085	2742
870.169	2950
870.254	2237
870.339	2792
870.424	1663
870.509	2432
870.593	2552
870.678	2386
870.763	1923
870.847	2507
870.932	3221
871.016	2764
871.101	2537
871.186	2654
871.270	3168
871.355	2166
871.439	1419
871.523	2606
871.608	1662
871.692	2300
871.777	2263
871.861	2721
871.945	2651
872.030	2453
872.114	2121
872.198	1548
872.282	1855
872.367	2117
872.451	1096
872.535	1533
872.619	1955
872.703	2853
872.787	2049
872.871	1917
872.955	1376
873.039	1181
873.123	1934
873.207	2341
873.291	2309
873.375	2174
873.459	2242
873.543	2417
873.627	2083
873.711	1085
873.794	1919
873.878	2470
873.962	880
874.045	2415
874.129	2088
874.137	2151
874.213	2777
874.245	2382
874.296	1750
874.352	1530
874.380	1421
874.460	2211
874.464	2244
874.547	1500
874.568	1635
874.631	2030
874.676	1757
874.714	1527
874.784	2292
874.798	2445
874.881	2568
874.892	2316
874.965	571
874.999	1108
875.048	1837
875.107	1566
875.131	1468
875.215	1648
875.215	1646
875.298	556
875.323	812
875.381	1491
875.430	2276
875.465	2801
875.538	2308
875.548	2241
875.631	1505
875.646	1563
875.714	1774
875.753	1477
875.798	1206
875.861	1641
875.881	1750
875.964	1790
875.968	1781
876.047	1676
876.076	1744
876.130	1839
876.183	2271
876.213	2540
876.291	2284
876.296	2265
876.379	1455
876.398	1433
876.462	1300
876.506	1439
876.545	1610
876.613	1461
876.628	1391
876.711	1623
876.721	1556
876.794	1304
876.828	1540
876.877	1801
876.935	1688
876.960	1623
877.043	1437
877.043	1436
877.125	1488
877.150	1615
877.208	1727
877.258	1804
877.291	1901
877.365	1667
877.374	1657
877.456	1584
877.472	1447
877.539	888
877.579	1476
877.622	1905
877.687	1988
877.704	2033
877.787	949
877.794	952
877.869	1033
877.901	1310
877.952	1835
878.008	1250
878.034	922
878.115	988
878.117	991
878.199	1321
878.222	1277
878.282	1324
878.329	1952
878.364	2256
878.437	1916
878.447	1894
878.529	1303
878.544	1333
878.611	1422
878.651	1149
878.694	870
878.758	837
878.776	812
878.858	1266
878.865	1283
878.941	1530
878.972	1503
879.023	1395
879.078	1300
879.105	1442
879.185	2239
879.187	2240
879.269	2087
879.292	1845
879.351	1360
879.399	1014
879.433	851
879.506	1315
879.516	1368
879.598	1044
879.613	1063
879.680	1099
879.720	1450
879.762	1779
879.827	1138
879.844	1040
879.926	1300
879.933	1360
880.007	1483
880.040	1308
880.089	1425
880.147	2137
880.171	2331
880.253	3954
880.254	3963
880.335	5333
880.360	5753
880.417	7269
880.467	10410
880.499	12475
880.574	14089
880.580	13876
880.662	5146
880.680	4087
880.744	2027
880.787	1387
880.825	1126
880.893	1021
880.907	987
880.989	1285
881.000	1230
881.070	1124
881.106	1208
881.152	1278
881.213	1025
881.233	884
881.315	906
881.319	934
881.396	1862
881.426	1830
881.478	1265
881.532	987
881.559	1021
881.639	783
881.641	771
881.722	1321
881.745	1133
881.803	1018
881.852	1215
881.885	1159
881.958	1583
881.966	1658
882.047	2145
882.064	2190
882.129	2171
882.171	2310
882.210	2797
882.277	4105
882.291	4201
882.372	1831
882.383	1762
882.454	1237
882.489	927
882.535	858
882.596	1201
882.616	1202
882.697	876
882.702	858
882.778	784
882.808	767
882.859	860
882.914	1154
882.940	1305
883.020	1086
883.021	1080
883.102	808
883.127	704
883.183	964
883.233	956
883.264	720
883.339	710
883.345	750
883.426	994
883.445	1132
883.507	1127
883.551	1083
883.587	1162
883.657	652
883.668	608
883.749	1462
883.763	1432
883.830	1085
883.869	1080
883.910	998
883.975	893
883.991	882
884.072	935
884.081	913
884.152	870
884.187	965
884.233	973
884.292	793
884.314	734
884.394	567
884.398	559
884.475	587
884.504	623
884.555	575
884.610	568
884.636	620
884.716	880
884.716	882
884.797	962
884.821	1021
884.877	1007
884.927	726
884.958	470
885.033	282
885.038	293
885.118	373
885.139	358
885.199	539
885.244	831
885.279	867
885.350	849
885.359	851
885.439	827
885.456	800
885.520	1089
885.561	1261
885.600	1052
885.667	1010
885.680	1036
885.760	1001
885.773	998
885.840	861
885.878	691
885.920	262
885.984	-239
886.000	-82
886.080	917
886.089	1003
886.160	640
886.195	384
886.240	458
886.300	720
886.320	834
886.400	1333
886.406	1373
886.480	1283
886.511	1122
886.560	758
886.616	498
886.640	527
886.720	435
886.722	439
886.800	338
886.827	297
886.879	456
886.932	662
886.959	744
887.038	716
887.039	716
887.119	889
887.143	958
887.198	702
887.248	379
887.278	506
887.354	957
887.358	954
887.437	884
887.459	862
887.517	1024
887.564	1074
887.596	1052
887.669	1071
887.676	1053
887.755	816
887.774	737
887.835	1276
887.880	1839
887.914	1588
887.985	804
887.994	814
888.073	1110
888.090	1121
888.153	880
888.195	823
888.232	548
888.300	-35
888.311	-18
888.391	150
888.405	188
888.470	142
888.510	108
888.549	495
888.615	1198
888.628	1125
888.708	658
888.720	586
888.787	552
888.825	520
888.866	571
888.930	671
888.945	677
889.024	769
889.035	775
889.103	207
889.140	-87
889.182	377
889.245	1095
889.261	950
889.340	233
889.349	157
889.419	525
889.454	708
889.498	561
889.559	368
889.577	614
889.656	1721
889.664	1832
889.735	1212
889.768	916
889.814	1016
889.873	1153
889.978	430
890.083	406
890.187	384
890.292	1065
890.397	1125
890.501	972
890.606	314
890.710	1047
890.815	1122
890.919	654
891.024	606
891.128	1055
891.233	861
891.337	759
891.442	1063
891.546	890
891.650	-207
891.755	794
891.859	1820
891.963	899
892.068	2094
892.172	1480
892.276	932
892.380	1279
892.484	973
892.589	317
892.693	575
892.797	950
892.901	1013
893.005	798
893.109	374
893.213	1738
893.317	1651
893.421	897
893.525	269
893.629	-275
893.733	622
893.837	677
893.941	280
894.045	1615
894.148	312
894.252	694
894.356	1082
894.460	1876
894.564	1003
894.667	1309
894.771	885
894.875	27
894.978	452
895.082	413
895.186	556
895.289	701
895.393	1390
895.496	295
895.600	171
895.703	-135
895.807	643
895.910	1628
896.014	1157
896.117	-272
896.221	1233
896.324	605
896.427	311
896.531	402
896.634	945
896.737	1480
896.840	847
896.944	823
897.047	1029
897.150	926
897.253	347
897.356	686
897.460	903
897.563	727
897.666	1191
897.769	729
897.872	730
897.975	505
898.078	786
898.181	437
898.284	1100
898.387	321
898.490	807
898.593	1558
898.695	677
898.798	439
898.901	816
899.004	913
899.107	145
899.209	1844
899.312	625
899.415	1125
899.518	1166
899.620	453
899.723	279
899.826	1160
899.928	1919
900.031	236
900.133	247
900.236	-186
900.338	373
900.441	691
900.543	395
900.646	249
900.748	302
900.851	440
900.953	684
901.055	766
901.158	846
901.260	990
901.362	-106
901.465	50
901.567	300
901.669	184
901.771	822
901.873	834
901.976	482
902.078	320
902.180	416
902.282	733
902.384	-1069
902.486	587
902.588	791
902.690	858
902.792	571
902.894	1100
902.996	631
903.098	559
903.200	173
903.302	232
903.404	596
903.505	-234
903.607	250
903.709	320
903.811	848
903.913	834
904.014	-492
904.116	762
904.218	-690
904.319	1164
904.421	1574
904.523	989
904.624	599
904.726	799
904.827	908
904.929	551
905.030	692
905.132	701
905.233	-809
905.335	-112
905.436	-195
905.537	1009
905.639	849
905.740	931
905.841	494
905.943	250
906.044	16
906.145	278
906.247	444
906.348	890
906.449	382
906.550	854
906.651	942
906.752	173
906.854	-185
906.955	351
907.056	-259
907.157	1600
907.258	213
907.359	-387
907.460	942
907.561	-234
907.662	686
907.762	-86
907.863	-489
907.964	624
908.065	633
908.166	851
908.267	505
908.367	654
908.468	1052
908.569	866
908.670	1728
908.770	980
908.871	1082
908.971	877
909.072	925
909.173	843
909.273	1510
909.374	711
909.474	112
909.575	1498
909.675	86
909.776	1273
909.876	381
909.977	216
910.077	1017
910.177	64
910.278	545
910.378	100
910.478	803
910.579	615
910.679	1159
910.779	235
910.879	-308
910.980	1086
911.080	994
911.180	253
911.280	431
911.380	277
911.480	551
911.580	-178
911.680	297
911.780	1474
911.880	537
911.980	-111
912.080	373
912.180	430
912.280	-154
912.380	103
912.480	-23
912.580	-349
912.679	-193
912.779	186
912.879	481
912.979	202
913.078	813
913.178	823
913.278	847
913.377	549
913.477	701
913.577	603
913.676	1666
913.776	447
913.875	346
913.975	1291
914.074	561
914.174	710
914.273	379
914.373	845
914.472	395
914.572	-854
914.671	715
914.770	621
914.870	218
914.969	-149
915.068	-366
915.167	25
915.267	481
915.366	488
915.465	507
915.564	-404
915.663	326
915.763	202
915.862	457
915.961	160
916.060	-265
916.159	641
916.258	-526
916.357	344
916.456	188
916.555	-266
916.654	-227
916.752	893
916.851	256
916.950	658
917.049	-512
917.148	-316
917.247	191
917.345	779
917.444	-296
917.543	72
917.642	122
917.740	-93
917.839	252
917.937	77
918.036	281
918.135	-170
918.233	305
918.332	196
918.430	408
918.529	-33
918.627	-69
918.726	654
918.824	711
918.923	391
919.021	-190
919.119	357
919.218	297
919.316	360
919.414	127
919.512	333
919.611	462
919.709	171
919.807	533
919.905	591
920.003	-34
920.102	63
920.200	-318
920.298	-596
920.396	54
920.494	715
920.592	208
920.690	496
920.788	173
920.886	364
920.984	448
921.082	-350
921.180	62
921.277	86
921.375	1224
921.473	234
921.571	-228
921.669	504
921.766	808
921.864	614
921.962	432
922.060	809
922.157	251
922.255	434
922.352	949
922.450	1152
922.548	221
922.645	169
922.743	516
922.840	1656
922.938	2204
923.035	1500
923.133	680
923.230	1489
923.327	1774
923.425	2524
923.522	1738
923.619	2000
923.717	970
923.814	906
923.911	936
924.008	1640
924.106	678
924.203	1907
924.300	1541
924.397	1628
924.494	2182
924.591	1809
924.688	1121
924.786	1232
924.883	1274
924.979	1491
925.077	1259
925.173	668
925.270	1554
925.367	2007
925.464	1326
925.561	1552
925.658	1525
925.755	2226
925.852	1786
925.948	1608
926.045	1658
926.142	1488
926.239	1084
926.335	1117
926.432	1785
926.529	1202
926.625	2567
926.722	1110
926.818	925
926.915	1056
927.011	835
927.108	1768
927.204	957
927.301	1020
927.397	1851
927.494	1816
927.590	672
927.687	1022
927.783	1222
927.879	1424
927.976	844
928.072	549
928.168	1662
928.264	1316
928.361	1470
928.457	1703
928.553	1715
928.649	200
928.745	210
928.841	1039
928.937	1209
929.033	2073
929.129	595
929.225	1171
929.321	1043
929.417	717
929.513	393
929.609	1179
929.705	194
929.801	1029
929.897	390
929.993	908
930.089	770
930.184	1059
930.280	1072
930.376	722
930.471	497
930.567	-47
930.663	471
930.758	1810
930.854	-153
930.950	864
931.045	1435
931.141	923
931.236	2246
931.332	1380
931.427	370
931.523	1652
931.618	974
931.714	148
931.809	457
931.905	880
932.000	169
932.095	1170
932.191	805
932.286	773
932.381	486
932.476	1210
932.572	-40
932.667	699
932.762	503
932.857	809
932.952	968
933.047	-61
933.142	155
933.237	478
933.332	870
933.427	819
933.522	107
933.617	262
933.712	1152
933.807	1072
933.902	659
933.997	518
934.092	593
934.187	753
934.282	697
934.376	706
934.471	450
934.566	-91
934.661	611
934.755	1115
934.850	305
934.945	1345
935.039	897
935.134	618
935.228	174
935.323	1112
935.417	143
935.512	100
935.606	-65
935.701	406
935.795	705
935.890	303
935.984	817
936.079	-140
936.173	493
936.267	-406
936.362	-255
936.456	1377
936.550	1365
936.644	672
936.738	51
936.833	257
936.927	-462
937.021	466
937.115	416
937.209	-605
937.303	1411
937.397	683
937.491	555
937.585	254
937.679	27
937.773	221
937.867	-385
937.961	-142
938.055	-83
938.149	1293
938.243	554
938.337	825
938.430	31
938.524	368
938.618	243
938.712	829
938.805	462
938.899	684
938.993	400
939.086	1291
939.180	39
939.274	355
939.367	465
939.461	-229
939.554	444
939.648	1369
939.741	66
939.835	24
939.928	357
940.022	1285
940.115	334
940.208	742
940.302	224
940.395	898
940.488	-110
940.582	786
940.675	-392
940.768	100
940.861	26
940.954	593
941.048	-461
941.141	43
941.234	15
941.327	597
941.420	952
941.513	524
941.606	-367
941.699	1078
941.792	49
941.885	982
941.978	580
942.071	405
942.164	-488
942.257	45
942.349	243
942.442	968
942.535	276
942.628	798
942.721	-18
942.813	-448
942.906	1342
942.999	495
943.091	-993
943.184	-505
943.277	-238
943.369	146
943.462	-333
943.554	-63
943.647	-244
943.739	740
943.832	-85
943.924	-325
944.017	-156
944.109	-908
944.201	-614
944.294	365
944.386	654
944.478	-236
944.571	-109
944.663	-407
944.755	94
944.847	242
944.940	-106
945.032	-695
945.124	-641
945.216	49
945.308	-69
945.400	1007
945.492	-322
945.584	-299
945.676	134
945.768	-27
945.860	436
945.952	69
946.044	50
946.136	551
946.228	-717
946.320	195
946.412	-298
946.503	72
946.595	890
946.687	327
946.779	-914
946.870	-487
946.962	215
947.054	315
947.145	421
947.237	3
947.329	676
947.420	-376
947.512	485
947.603	516
947.695	-223
947.786	-567
947.878	195
947.969	291
948.061	273
948.152	-963
948.243	-980
948.335	237
948.426	-499
948.517	67
948.609	89
948.700	-291
948.791	-632
948.882	-165
948.973	-974
949.065	-553
949.156	-390
949.247	-1154
949.338	-473
949.429	-171
949.520	-1050
949.611	-1448
949.702	321
949.793	16
949.884	-47
949.975	-522
950.066	-872
950.157	-250
950.247	-587
950.338	-446
950.429	-1136
950.520	-17
950.611	134
950.701	268
950.792	311
950.883	776
950.973	-239
951.064	-225
951.155	71
951.245	72
951.336	50
951.427	-943
951.517	-120
951.608	331
951.698	-738
951.788	-776
951.879	-215
951.969	-909
952.060	-228
952.150	33
952.240	-161
952.331	-1564
952.421	348
952.511	-818
952.602	490
952.692	-768
952.782	-264
952.872	184
952.962	-529
953.052	-768
953.143	-239
953.233	409
953.323	-15
953.413	-386
953.503	42
953.593	-427
953.683	-367
953.773	-824
953.863	-606
953.953	-67
954.042	-562
954.132	-770
954.222	190
954.312	-220
954.402	-325
954.492	273
954.581	890
954.671	-674
954.761	-1732
954.850	714
954.940	-953
955.030	-620
955.119	-1253
955.209	-292
955.298	-993
955.388	133
955.477	673
955.567	-950
955.656	799
955.746	366
955.835	-205
955.925	-734
956.014	-152
956.103	-6
956.193	25
956.282	-534
956.371	-429
956.461	-381
956.550	-358
956.639	211
956.728	-2081
956.817	-478
956.906	-561
956.995	494
957.085	-815
957.174	-283
957.263	-741
957.352	-458
957.441	-791
957.530	-541
957.619	-182
957.708	-129
957.796	-693
957.885	-157
957.974	-816
958.063	-427
958.152	-1289
958.241	-1038
958.329	-891
958.418	-1014
958.507	-372
958.596	660
958.684	-1416
958.773	-234
958.861	-850
958.950	-263
959.039	-45
959.127	-712
959.216	67
959.304	-297
959.393	-452
959.481	-186
959.570	-872
959.658	-442
959.746	40
959.835	487
959.923	829
960.011	-108
960.100	-436
960.188	50
960.276	-906
960.365	-649
960.453	-358
960.541	-1243
960.629	-446
960.717	-686
960.805	-856
960.893	-633
960.981	-1113
961.069	430
961.158	-858
961.245	244
961.333	352
961.421	-1183
961.509	395
961.597	-80
961.685	-658
961.773	-445
961.861	-469
961.949	260
962.036	-529
962.124	-519
962.212	-878
962.299	-381
962.387	-828
962.475	-27
962.562	-771
962.650	-266
962.738	-413
962.825	-867
962.913	211
963.000	-730
963.088	-749
963.175	-27
963.263	-842
963.350	-413
963.438	-925
963.525	68
963.612	1291
963.700	3658
963.787	11199
963.874	3802
963.962	-262
964.049	-160
964.136	-588
964.223	-500
964.310	-11
964.398	-543
964.485	396
964.572	300
964.659	798
964.746	614
964.833	-53
964.920	-477
965.007	-906
965.094	166
965.181	-436
965.268	500
965.355	-302
965.441	-208
965.528	-790
965.615	857
965.702	-251
965.789	-593
965.875	246
965.962	-181
966.049	-538
966.136	-290
966.222	-551
966.309	163
966.395	-204
966.482	153
966.569	-219
966.655	128
966.742	-849
966.828	147
966.915	-532
967.001	5
967.087	-1011
967.174	450
967.260	512
967.347	732
967.433	2488
967.519	6641
967.605	1919
967.692	-673
967.778	-379
967.864	-854
967.950	-543
968.036	-1178
968.123	-368
968.209	-77
968.295	-1242
968.381	1290
968.467	36
968.553	-1704
968.639	-212
968.725	-720
968.811	1206
968.897	1294
968.983	-722
969.069	-404
969.154	-139
969.240	93
969.326	-842
969.412	-39
969.497	-187
969.583	-1361
969.669	-226
969.755	117
969.840	-1134
969.926	655
970.012	-336
970.097	1702
970.183	-430
970.268	200
970.354	65
970.439	688
970.525	4654
970.610	-50
970.696	76
970.781	-184
970.866	-1606
970.952	54
971.037	-635
971.122	-799
971.208	118
971.293	-710
971.378	-1936
971.463	-735
971.549	531
971.634	-498
971.719	-1099
971.804	577
971.889	811
971.974	-756
972.059	-871
972.144	-1070
972.229	-765
972.314	-744
972.399	-332
972.484	-731
972.569	526
972.654	-250
972.739	2576
972.824	1304
972.908	-209
972.993	-805
973.078	-350
973.163	-747
973.247	-819
973.332	-1789
973.417	801
973.501	-1284
973.586	-370
973.671	-588
973.755	-273
973.840	-177
973.924	320
974.009	93
974.093	-565
974.178	1385
974.262	1050
974.346	1370
974.431	-242
974.515	-218
974.600	-1333
974.684	106
974.768	-267
974.852	319
974.937	-1044
975.021	574
975.105	-926
975.189	-231
975.273	-70
975.358	-577
975.442	-1181
975.526	35
975.610	-1125
975.694	-555
975.778	242
975.862	58
975.946	-2628
976.030	529
976.114	-951
976.198	-221
976.281	-311
976.365	-36
976.449	-1321
976.533	-44
976.617	-523
976.700	-330
976.784	-512
976.868	-657
976.951	-245
977.035	-97
977.119	-1172
977.202	-503
977.286	-702
977.369	-353
977.453	-374
977.536	-358
977.620	-831
977.703	667
977.787	-1255
977.870	-183
977.953	-133
978.037	-1793
978.120	928
978.203	15
978.287	1300
978.370	-393
978.453	-243
978.536	-595
978.620	166
978.703	808
978.786	-379
978.869	-553
978.952	-1763
979.035	450
979.118	-97
979.201	-1225
979.284	-381
979.367	-1518
979.450	-120
979.533	-1639
979.616	-469
979.699	-1660
979.782	-1096
979.865	-816
979.948	-643
980.030	-508
980.113	-1335
980.196	-1613
980.279	-732
980.361	-1075
980.444	-889
980.526	-295
980.609	-100
980.692	-589
980.774	-179
980.857	-1763
980.939	234
981.022	-1714
981.104	-995
981.187	-1447
981.269	-33
981.352	-664
981.434	-1111
981.516	-1532
981.599	-117
981.681	79
981.763	-1005
981.846	196
981.928	-511
982.010	-1098
982.092	-1780
982.174	-156
982.256	-1476
982.339	-905
982.421	-749
982.503	-286
982.585	-2118
982.667	-641
982.749	-925
982.831	-527
982.913	-1556
982.995	-299
983.077	-489
983.158	597
983.240	-1222
983.322	-401
983.404	-369
983.486	-844
983.568	-691
983.649	-1069
983.731	-592
983.813	-307
983.894	-1588
983.976	-1259
984.058	-1080
984.139	-227
984.221	-1609
984.302	72
984.384	-1011
984.465	-1008
984.547	-1077
984.628	-1433
984.710	-383
984.791	-666
984.872	-746
984.954	-1037
985.035	-229
985.116	-1374
985.198	-1296
985.279	-76
985.360	-1734
985.441	-1140
985.522	-482
985.604	-676
985.685	-2155
985.766	-335
985.847	-343
985.928	-905
986.009	-1822
986.090	-1382
986.171	-382
986.252	-1829
986.333	-1403
986.414	-988
986.495	-1259
986.576	-997
986.656	-917
986.737	-1380
986.818	-1341
986.899	-1542
986.980	-1227
987.060	-157
987.141	-1490
987.222	-66
987.302	-1812
987.383	-300
987.464	-1031
987.544	-397
987.625	-1669
987.705	-508
987.786	-1177
987.866	-771
987.947	-973
988.027	-1197
988.108	-259
988.188	-1320
988.268	-280
988.349	-640
988.429	-1673
988.509	-479
988.589	-992
988.670	-2715
988.750	-149
988.830	-554
988.910	-500
988.990	-303
989.070	-1955
989.151	-966
989.231	-901
989.311	-605
989.391	-1171
989.471	-101
989.551	-1992
989.631	-1006
989.711	-1817
989.791	-1506
989.870	-1184
989.950	-245
990.030	-2091
990.110	-1263
990.190	-1691
990.269	-823
990.349	-930
990.429	-674
990.509	-1116
990.588	-1024
990.668	-799
990.747	-1728
990.827	-1417
990.907	-582
990.986	-1854
991.066	-826
991.145	-1619
991.225	-978
991.304	-2001
991.383	-495
991.463	-1562
991.542	-710
991.622	-1558
991.701	-1680
991.780	-1465
991.859	-1581
991.939	-1148
992.018	-968
992.097	-367
992.176	-775
992.256	-1759
992.335	-2044
992.414	-1037
992.493	-1192
992.572	-1157
992.651	101
992.730	-1018
992.809	-663
992.888	-1779
992.967	-1700
993.046	-541
993.125	-2110
993.203	-2086
993.282	-1013
993.361	-1271
993.440	-950
993.519	-2031
993.597	-1609
993.676	-1442
993.755	-765
993.834	-1278
993.912	-2021
993.991	-719
994.069	-1225
994.148	-1828
994.226	-1829
994.305	-887
994.384	-1930
994.462	-382
994.540	-1584
994.619	-1516
994.697	-590
994.776	-1972
994.854	-229
994.932	-1644
995.011	-996
995.089	-1737
995.167	-1264
995.245	-1182
995.324	-1782
995.402	-1012
995.480	-964
995.558	-1449
995.636	-2235
995.714	-2408
995.792	-643
995.870	-1853
995.948	-834
996.026	-1742
996.104	-2582
996.182	-1039
996.260	-1505
996.338	-1066
996.416	-2670
996.494	-2170
996.572	-1213
996.649	-1498
996.727	-2540
996.805	-1170
996.883	-1334
996.960	-1964
997.038	-27
997.116	-704
997.193	-2522
997.271	-901
997.348	-1881
997.426	-1430
997.504	-1318
997.581	-960
997.658	-1688
997.736	-2221
997.813	-671
997.891	-439
997.968	-1425
998.046	-1424
998.123	-965
998.200	-639
998.277	-1509
998.355	-1818
998.432	-2214
998.509	-1639
998.586	-1362
998.663	-1308
998.741	-1315
998.818	-1570
998.895	-1756
998.972	-1042
999.049	-793
999.126	-2122
999.203	-813
999.280	-1753
999.357	-1864
999.434	-2267
999.511	-1409
999.587	-717
999.664	-2100
999.741	-1081
999.818	-1444
999.895	-1806
999.971	-2921
1000.048	-1859
1000.125	-641
1000.202	-1392
1000.278	-1524
1000.355	-984
1000.431	-958
1000.508	-1580
1000.584	-1994
1000.661	-1487
1000.738	-2211
1000.814	-1390
1000.890	-1589
1000.967	-1794
1001.043	-726
1001.120	-2206
1001.196	-764
1001.272	-2613
1001.349	-1335
1001.425	-1120
1001.501	-1309
1001.577	-2236
1001.654	-1114
1001.730	-1841
1001.806	-1171
1001.882	-2419
1001.958	-1931
1002.034	-1655
1002.110	-1282
1002.186	-2496
1002.262	-1910
1002.338	-1771
1002.414	-1185
1002.490	-1610
1002.566	-1594
1002.642	-2121
1002.718	-1134
1002.794	-1453
1002.870	-1466
1002.945	-1985
1003.021	-2433
1003.097	-1086
1003.173	-646
1003.248	-2515
1003.324	-1688
1003.400	-1400
1003.475	-2127
1003.551	-735
1003.626	-1952
1003.702	-1330
1003.777	-1413
1003.853	-1941
1003.928	-1747
1004.004	-1111
1004.079	-75
1004.155	-1348
1004.230	-3067
1004.305	-678
1004.381	-1598
1004.456	-2043
1004.531	-1923
1004.607	-2419
1004.682	-1778
1004.757	-1754
1004.832	-1895
1004.907	-1466
1004.982	-1368
1005.057	-1228
1005.133	-2184
1005.208	-1933
1005.283	-1194
1005.358	-1757
1005.433	-2188
1005.508	-1677
1005.583	-1473
1005.657	-1414
1005.732	-182
1005.807	-2227
1005.882	-1716
1005.957	-759
1006.032	-822
1006.106	-1364
1006.181	-1795
1006.256	-1567
1006.331	-1481
1006.405	-1101
1006.480	-1386
1006.554	-1896
1006.629	-1032
1006.704	-2199
1006.778	-922
1006.853	-1179
1006.927	-1762
1007.002	-2475
1007.076	-2057
1007.150	-959
1007.225	-1510
1007.299	-1300
1007.373	-2073
1007.448	-1194
1007.522	-732
1007.596	-2219
1007.671	-2327
1007.745	-1256
1007.819	-2020
1007.893	-2359
1007.967	-585
1008.041	-2780
1008.115	-471
1008.190	-2171
1008.264	-747
1008.338	-2503
1008.412	-2538
1008.486	-1081
1008.560	-1725
1008.633	-1353
1008.707	-1974
1008.781	-977
1008.855	-1371
1008.929	-1831
1009.003	-2078
1009.076	-1744
1009.150	-966
1009.224	-1862
1009.298	-1515
1009.371	-2016
1009.445	-1805
1009.519	-1842
1009.592	-2573
1009.666	-1320
1009.739	-1696
1009.813	-2696
1009.886	-491
1009.960	-2726
1010.033	-1643
1010.107	-1346
1010.180	-1572
1010.253	-2603
1010.327	-2307
1010.400	-1900
1010.473	-2186
1010.547	-1399
1010.620	-2017
1010.693	-1373
1010.766	-2097
1010.840	-1982
1010.913	-1131
1010.986	-1934
1011.059	-1909
1011.132	-2967
1011.205	-1425
1011.278	-2737
1011.351	-2058
1011.424	-1603
1011.497	-2047
1011.570	-1902
1011.643	-1609
1011.716	-1373
1011.789	-1744
1011.862	-1132
1011.934	-923
1012.007	-2370
1012.080	-1523
1012.153	-1676
1012.225	-925
1012.298	-2069
1012.371	-2056
1012.443	-1411
1012.516	-1324
1012.588	-1961
1012.661	-1331
1012.733	-2590
1012.806	-561
1012.879	-1446
1012.951	-1725
1013.023	-1844
1013.096	-1606
1013.168	-2046
1013.241	-792
1013.313	-2182
1013.385	-2134
1013.458	-1833
1013.530	-2378
1013.602	-2688
1013.674	-1745
1013.746	-2519
1013.819	-2003
1013.891	-1958
1013.963	-1706
1014.035	-1852
1014.107	-1187
1014.179	-975
1014.251	-1700
1014.323	-1074
1014.395	-1668
1014.467	-2221
1014.539	-1765
1014.611	-2335
1014.683	-2680
1014.754	-1843
1014.826	-2490
1014.898	-2380
1014.970	-2394
1015.042	-1055
1015.113	-1744
1015.185	-1846
1015.257	-2484
1015.328	-1263
1015.400	-2089
1015.471	-1839
1015.543	-2773
1015.615	-1517
1015.686	-1165
1015.757	-1739
1015.829	-1768
1015.901	-1629
1015.972	-1599
1016.043	-1869
1016.115	-1633
1016.186	-1531
1016.257	-2249
1016.328	-1226
1016.400	-1359
1016.471	-2466
1016.542	-1773
1016.613	-2327
1016.685	-1374
1016.756	-1384
1016.827	-2433
1016.898	-3167
1016.969	-1403
1017.040	-2371
1017.111	-2342
1017.182	-1270
1017.253	-1776
1017.324	-3094
1017.395	-1635
1017.466	-2142
1017.537	-2202
1017.608	-1413
1017.678	-1764
1017.749	-2800
1017.820	-1766
1017.891	-1981
1017.961	-2406
1018.032	-2195
1018.103	-1615
1018.173	-1964
1018.244	-2532
1018.315	-2009
1018.385	-1036
1018.456	-2407
1018.526	-2737
1018.597	-1366
1018.667	-1337
1018.738	-2041
1018.808	-1923
1018.878	-2338
1018.949	-1723
1019.019	-2132
1019.089	-1288
1019.160	-854
1019.230	-2952
1019.300	-1640
1019.371	-2087
1019.441	-1979
1019.511	-1998
1019.581	-1927
1019.651	-1948
1019.721	-1780
1019.791	-1165
1019.861	-1476
1019.931	-1338
1020.001	-2819
1020.071	-1576
1020.141	-2198
1020.211	-1278
1020.281	-2812
1020.351	-2339
1020.421	-1607
1020.491	-1890
1020.560	-2307
1020.630	-2478
1020.700	-1907
1020.770	-2064
1020.839	-1920
1020.909	-1693
1020.979	-1599
1021.048	-1440
1021.118	-2636
1021.187	-2137
1021.257	-1738
1021.326	-2564
1021.396	-2012
1021.465	-2314
1021.535	-2406
1021.604	-3308
1021.674	-1798
1021.743	-1907
1021.812	-2124
1021.882	-2507
1021.951	-2597
1022.020	-2182
1022.089	-1344
1022.159	-1649
1022.228	-2283
1022.297	-2831
1022.366	-1798
1022.435	-2112
1022.504	-2033
1022.573	-2714
1022.642	-2007
1022.711	-2720
1022.781	-1322
1022.849	-1854
1022.918	-2163
1022.987	-1834
1023.056	-2720
1023.125	-2052
1023.194	-2688
1023.263	-1843
1023.331	-2694
1023.400	-2693
1023.469	-2612
1023.538	-2516
1023.606	-2723
1023.675	-2164
1023.744	-2359
1023.812	-1907
1023.881	-1751
1023.949	-2223
1024.018	-2460
1024.086	-2290
1024.155	-2169
1024.223	-2121
1024.292	-1606
1024.360	-1851
1024.429	-1759
1024.497	-2374
1024.565	-1690
1024.634	-1635
1024.702	-1012
1024.770	-1515
1024.838	-2300
1024.907	-1519
1024.975	-2807
1025.043	-1228
1025.111	-2798
1025.179	-1524
1025.247	-2571
1025.315	-2044
1025.383	-1633
1025.451	-2452
1025.519	-3021
1025.587	-1971
1025.655	-2196
1025.723	-1765
1025.791	-2268
1025.859	-2292
1025.927	-1794
1025.995	-2140
1026.062	-2485
1026.130	-2322
1026.198	-2790
1026.266	-2171
1026.333	-1949
1026.401	-977
1026.469	-2522
1026.536	-2180
1026.604	-2443
1026.671	-2193
1026.739	-2637
1026.806	-2224
1026.874	-1717
1026.941	-2293
1027.009	-1221
1027.076	-1912
1027.144	-1582
1027.211	-2558
1027.278	-2405
1027.345	-1478
1027.413	-2583
1027.480	-2512
1027.547	-2199
1027.614	-2174
1027.682	-1626
1027.749	-1738
1027.816	-2059
1027.883	-2339
1027.950	-1689
1028.017	-2167
1028.084	-1150
1028.151	-2479
1028.218	-2611
1028.285	-1431
1028.352	-1392
1028.419	-1854
1028.486	-2429
1028.553	-1579
1028.619	-2447
1028.686	-1147
1028.753	-2091
1028.820	-1476
1028.886	-3267
1028.953	-3007
1029.020	-2055
1029.086	-1869
1029.153	-1954
1029.220	-2331
1029.286	-2709
1029.353	-1187
1029.419	-2895
1029.486	-2168
1029.552	-2367
1029.619	-1664
1029.685	-2516
1029.751	-2575
1029.818	-1515
1029.884	-2347
1029.951	-1816
1030.017	-2241
1030.083	-2107
1030.149	-1752
1030.216	-1748
1030.282	-2251
1030.348	-2406
1030.414	-1868
1030.480	-1537
1030.546	-2368
1030.612	-2257
1030.678	-2922
1030.744	-1488
1030.810	-1963
1030.876	-1744
1030.942	-2071
1031.008	-1678
1031.074	-2281
1031.140	-2408
1031.206	-2386
1031.272	-2843
1031.337	-1747
1031.403	-1817
1031.469	-1864
1031.534	-1952
1031.600	-1762
1031.666	-2679
1031.731	-2016
1031.797	-1876
1031.863	-1704
1031.928	-1630
1031.994	-2184
1032.059	-1529
1032.125	-1801
1032.190	-1996
1032.256	-2092
1032.321	-2194
1032.386	-2009
1032.452	-1611
1032.517	-2119
1032.582	-1933
1032.647	-1810
1032.713	-2596
1032.778	-2035
1032.843	-2385
1032.908	-2535
1032.974	-2191
1033.039	-2561
1033.104	-2595
1033.169	-3028
1033.234	-2194
1033.299	-1967
1033.364	-2006
1033.429	-1998
1033.494	-1377
1033.559	-2209
1033.624	-2812
1033.688	-2573
1033.753	-2547
1033.818	-733
1033.883	-2447
1033.948	-1171
1034.013	-1970
1034.077	-1719
1034.142	-1571
1034.207	-908
1034.271	-1115
1034.336	61
1034.400	-1406
1034.465	-1324
1034.530	-938
1034.594	-1565
1034.658	-1931
1034.723	-2002
1034.787	-2220
1034.852	-1436
1034.916	-1928
1034.981	-2207
1035.045	-1680
1035.109	-2266
1035.173	-2300
1035.238	-2273
1035.302	-1980
1035.366	-2740
1035.430	-1121
1035.495	-2130
1035.559	-2478
1035.623	-1638
1035.687	-2784
1035.751	-994
1035.815	-2416
1035.879	-1937
1035.943	-1783
1036.007	-2205
1036.071	-2145
1036.135	-2008
1036.198	-2243
1036.262	-1563
1036.326	-2248
1036.390	-1823
1036.454	-1438
1036.517	-1828
1036.581	-1455
1036.645	-1109
1036.709	-2032
1036.772	-2672
1036.836	-2998
1036.900	-2092
1036.963	-2216
1037.026	-2541
1037.090	-2086
1037.154	-1434
1037.217	-1496
1037.280	-1825
1037.344	-3001
1037.407	-1943
1037.471	-2012
1037.534	-1559
1037.597	-2476
1037.661	-2746
1037.724	-2374
1037.787	-2550
1037.850	-2309
1037.913	-1588
1037.977	-812
1038.040	-2527
1038.103	-2492
1038.166	-2993
1038.229	-1869
1038.292	-2312
1038.355	-1832
1038.418	-2401
1038.481	-2710
1038.544	-2808
1038.607	-1971
1038.670	-2361
1038.732	-2583
1038.795	-2827
1038.858	-1855
1038.921	-2130
1038.984	-2311
1039.046	-2802
1039.109	-2215
1039.172	-2020
1039.234	-2167
1039.297	-2252
1039.360	-2012
1039.422	-1490
1039.485	-2196
1039.547	-2359
1039.610	-2824
1039.672	-1732
1039.734	-2299
1039.797	-2550
1039.859	-2198
1039.922	-2280
1039.984	-2932
1040.046	-2363
1040.109	-2363
1040.171	-1882
1040.233	-2330
1040.295	-2603
1040.358	-2620
1040.420	-2565
1040.482	-1931
1040.544	-2093
1040.606	-2389
1040.668	-1947
1040.730	-2770
1040.792	-2855
1040.854	-2258
1040.916	-2021
1040.978	-2948
1041.040	-1404
1041.102	-1830
1041.164	-2812
1041.225	-2238
1041.287	-2243
1041.349	-2506
1041.411	-2933
1041.472	-2573
1041.534	-2314
1041.596	-2755
1041.657	-2160
1041.719	-2076
1041.781	-2231
1041.842	-2820
1041.904	-2619
1041.965	-2692
1042.027	-1854
1042.088	-2947
1042.150	-2266
1042.211	-1345
1042.272	-2135
1042.334	-2681
1042.395	-3554
1042.456	-2685
1042.518	-2746
1042.579	-2060
1042.640	-2137
1042.701	-1586
1042.763	-3383
1042.824	-2478
1042.885	-2268
1042.946	-3664
1043.007	-941
1043.068	-2344
1043.129	-1922
1043.190	-2428
1043.251	-2173
1043.312	-2703
1043.373	-2392
1043.434	-3072
1043.495	-2458
1043.556	-2405
1043.616	-2640
1043.677	-2861
1043.738	-2387
1043.799	-2496
1043.859	-2041
1043.920	-2206
1043.981	-2460
1044.041	-3094
1044.102	-1971
1044.162	-2625
1044.223	-2368
1044.284	-2199
1044.344	-2155
1044.405	-2266
1044.465	-3220
1044.525	-2227
1044.586	-2431
1044.646	-1649
1044.707	-1880
1044.767	-2753
1044.827	-2283
1044.887	-2583
1044.948	-1834
1045.008	-2235
1045.068	-2322
1045.128	-1480
1045.188	-2098
1045.249	-2199
1045.309	-1524
1045.369	-2053
1045.429	-2471
1045.489	-2641
1045.549	-2434
1045.609	-3040
1045.669	-2916
1045.729	-1776
1045.789	-1331
1045.848	-2552
1045.908	-1943
1045.968	-2029
1046.028	-2879
1046.088	-1834
1046.147	-1892
1046.207	-1651
1046.267	-1733
1046.326	-1466
1046.386	-1643
1046.446	-1990
1046.505	-1995
1046.565	-1243
1046.624	-612
1046.684	-881
1046.743	-1020
1046.803	-891
1046.862	83
1046.922	0
