'Start Wavelength	183.907
'End Wavelength	1046.922
'Gate Delay	5.000
'Gate Width (ms)	1.050
'Laser Output Level	0.000
'X Position	0.000
'Y Position	0.000
'Z Position	0.000
'Grid Point Number	1.000
'Shot Number	100.000
183.907	1076.000
183.977	-796.000
184.047	453
184.116	1035
184.186	673
184.256	-164
184.325	371
184.395	-283
184.465	1438
184.534	178
184.604	-299
184.674	353
184.743	145
184.813	282
184.883	1686
184.952	-332
185.022	703
185.092	-2
185.161	-166
185.231	10
185.301	596
185.370	-40
185.440	565
185.509	-361
185.579	273
185.649	-12
185.718	732
185.788	654
185.857	-89
185.927	57
185.996	95
186.066	-774
186.136	1019
186.205	-902
186.275	-54
186.344	558
186.414	832
186.483	-42
186.553	1380
186.622	1033
186.692	555
186.761	388
186.831	273
186.900	-63
186.970	490
187.039	-62
187.109	1344
187.178	518
187.248	1122
187.317	276
187.387	118
187.456	702
187.526	210
187.595	184
187.664	913
187.734	550
187.803	389
187.873	146
187.942	571
188.012	-95
188.081	1565
188.150	-280
188.220	940
188.289	1123
188.358	1167
188.428	1233
188.497	705
188.567	556
188.636	-24
188.705	325
188.775	-87
188.844	123
188.913	809
188.983	-431
189.052	479
189.121	559
189.191	-378
189.260	745
189.329	536
189.399	430
189.468	666
189.537	769
189.606	-100
189.676	334
189.745	758
189.814	945
189.883	-100
189.953	30
190.022	1297
190.091	2004
190.161	3308
190.230	835
190.299	-114
190.368	394
190.437	-223
190.507	603
190.576	119
190.645	-345
190.714	190
190.783	-183
190.853	938
190.922	1089
190.991	388
191.060	1090
191.129	407
191.198	359
191.268	-142
191.337	486
191.406	617
191.475	1085
191.544	-65
191.613	765
191.682	-59
191.752	541
191.821	485
191.890	245
191.959	1069
192.028	752
192.097	350
192.166	949
192.235	-136
192.304	843
192.373	472
192.442	594
192.511	266
192.580	613
192.650	1057
192.719	94
192.788	1029
192.857	206
192.926	1007
192.995	842
193.064	640
193.133	881
193.202	1481
193.271	1353
193.340	1593
193.409	1457
193.478	1897
193.547	2112
193.615	2194
193.684	2019
193.753	1417
193.822	1514
193.891	1236
193.960	963
194.029	540
194.098	1126
194.167	-848
194.236	835
194.305	471
194.374	84
194.443	-290
194.512	472
194.580	1099
194.649	951
194.718	742
194.787	568
194.856	263
194.925	469
194.994	1221
195.062	628
195.131	394
195.200	1121
195.269	1386
195.338	537
195.407	1138
195.475	477
195.544	1921
195.613	1275
195.682	502
195.751	1498
195.819	1184
195.888	1489
195.957	1726
196.026	808
196.094	1168
196.163	1538
196.232	1345
196.301	1186
196.369	1381
196.438	634
196.507	758
196.576	-298
196.644	842
196.713	1559
196.782	437
196.850	944
196.919	590
196.988	776
197.056	427
197.125	844
197.194	1624
197.262	-34
197.331	1134
197.400	722
197.468	57
197.537	53
197.606	348
197.674	879
197.743	3616
197.812	1927
197.880	3176
197.949	2394
198.017	3089
198.086	2126
198.155	1303
198.223	1894
198.292	3384
198.360	1237
198.429	890
198.497	1106
198.566	2044
198.635	2911
198.703	1463
198.772	1340
198.840	3305
198.909	3189
198.977	1084
199.046	910
199.114	1811
199.183	393
199.251	580
199.320	-190
199.388	682
199.457	829
199.525	1663
199.594	997
199.662	852
199.731	436
199.799	805
199.867	1603
199.936	205
200.004	493
200.073	948
200.141	406
200.210	346
200.278	207
200.346	925
200.415	1713
200.483	2015
200.552	1064
200.620	595
200.688	1028
200.757	1095
200.825	1196
200.893	570
200.962	830
201.030	1018
201.098	268
201.167	328
201.235	690
201.303	535
201.372	1878
201.440	352
201.508	1605
201.577	654
201.645	1160
201.713	452
201.781	1254
201.850	1672
201.918	1000
201.986	907
202.055	1280
202.123	829
202.191	248
202.259	1050
202.327	800
202.396	939
202.464	906
202.532	1619
202.600	5669
202.669	3525
202.737	1345
202.805	1514
202.873	881
202.941	1385
203.009	1353
203.078	813
203.146	847
203.214	1434
203.282	-235
203.350	1417
203.418	305
203.487	752
203.555	903
203.623	602
203.691	520
203.759	557
203.827	1272
203.895	1110
203.963	481
204.031	272
204.099	745
204.168	1038
204.236	971
204.304	1096
204.372	1237
204.440	951
204.508	324
204.576	861
204.644	1291
204.712	1382
204.780	917
204.848	1245
204.916	470
204.984	546
205.052	889
205.120	1114
205.188	127
205.256	881
205.324	1017
205.392	1209
205.460	1527
205.528	1893
205.596	612
205.664	1628
205.732	1158
205.799	3734
205.867	6592
205.935	1225
206.003	1915
206.071	1349
206.139	981
206.207	1923
206.275	1429
206.343	1009
206.411	993
206.478	1476
206.546	667
206.614	1197
206.682	1418
206.750	1219
206.818	988
206.885	2137
206.953	659
207.021	1523
207.089	910
207.157	860
207.225	1496
207.292	1045
207.360	1675
207.428	1102
207.496	1146
207.563	1826
207.631	1125
207.699	1451
207.767	1121
207.834	965
207.902	1789
207.970	940
208.038	1387
208.105	1421
208.173	993
208.241	1359
208.309	3064
208.376	1770
208.444	3159
208.512	1820
208.579	904
208.647	2034
208.715	2910
208.782	1432
208.850	1486
208.918	1717
208.985	1600
209.053	2758
209.120	1166
209.188	896
209.256	1262
209.323	861
209.391	2747
209.459	2524
209.526	1389
209.594	1019
209.661	1106
209.729	1655
209.796	1654
209.864	2146
209.932	323
209.999	2875
210.067	1617
210.134	2398
210.202	1339
210.269	3733
210.337	2719
210.404	1556
210.472	2045
210.539	2069
210.607	1136
210.674	2181
210.742	2161
210.809	1650
210.877	1762
210.944	3473
211.012	593
211.079	3387
211.146	1175
211.214	1863
211.281	1712
211.349	2571
211.416	1977
211.484	1544
211.551	1472
211.618	1740
211.686	2481
211.753	1135
211.821	1666
211.888	1626
211.955	2277
212.023	2037
212.090	1945
212.157	2315
212.225	2493
212.292	4067
212.359	6348
212.427	17815
212.494	9076
212.561	3534
212.629	2429
212.696	1961
212.763	2378
212.831	1829
212.898	2191
212.965	2269
213.032	2748
213.100	2494
213.167	1384
213.234	2812
213.301	2333
213.369	2430
213.436	2163
213.503	1760
213.570	2050
213.638	2385
213.705	2013
213.772	1923
213.839	1986
213.906	2545
213.973	2452
214.041	1443
214.108	2269
214.175	2160
214.242	1597
214.309	2387
214.376	2455
214.444	2084
214.511	2626
214.578	2364
214.645	2912
214.712	2727
214.779	2576
214.846	2169
214.913	3260
214.980	3042
215.048	3443
215.115	3285
215.182	3454
215.249	2702
215.316	1120
215.383	2941
215.450	1634
215.517	2520
215.584	1557
215.651	1797
215.718	1509
215.785	3781
215.852	1830
215.919	2878
215.986	3558
216.053	2002
216.120	971
216.187	2746
216.254	2529
216.321	2286
216.388	2018
216.455	3577
216.522	2621
216.589	2784
216.656	4633
216.722	4920
216.789	3242
216.856	3790
216.923	4091
216.990	2391
217.057	2609
217.124	3994
217.191	3066
217.258	4933
217.324	5036
217.391	6636
217.458	4468
217.525	3721
217.592	3430
217.659	2325
217.725	3298
217.792	3464
217.859	3875
217.926	1921
217.993	1822
218.059	2215
218.126	1455
218.193	1372
218.260	1625
218.327	2080
218.393	1578
218.460	1480
218.527	1044
218.594	2140
218.660	3818
218.727	4279
218.794	2031
218.860	1303
218.927	1312
218.994	1274
219.061	1181
219.127	2534
219.194	3220
219.261	2433
219.327	1041
219.394	2030
219.461	537
219.527	1695
219.594	2361
219.661	2221
219.727	217
219.794	1886
219.860	575
219.927	1240
219.994	3507
220.060	5803
220.127	4041
220.193	2962
220.260	2592
220.326	3998
220.393	6084
220.460	9522
220.526	6233
220.593	3865
220.659	5029
220.726	3977
220.792	9076
220.859	9245
220.925	11943
220.992	17835
221.058	14996
221.125	14159
221.191	10555
221.258	4522
221.324	3223
221.391	2388
221.457	2432
221.524	2403
221.590	3342
221.657	10444
221.723	8040
221.789	7108
221.856	7215
221.922	3403
221.989	2992
222.055	2176
222.121	1196
222.188	3955
222.254	2152
222.321	1341
222.387	1757
222.453	1436
222.520	1650
222.586	1797
222.652	1289
222.719	1169
222.785	1867
222.851	2350
222.918	1227
222.984	1825
223.050	1849
223.116	1215
223.183	2704
223.249	1693
223.315	904
223.382	1972
223.448	1347
223.514	546
223.580	1252
223.647	982
223.713	39
223.779	1050
223.845	1771
223.911	1357
223.978	300
224.044	1459
224.110	538
224.176	1726
224.242	1199
224.309	-204
224.375	573
224.441	1211
224.507	738
224.573	1025
224.639	1610
224.705	1197
224.772	1544
224.838	1569
224.904	1195
224.970	1401
225.036	1651
225.102	1246
225.168	2406
225.234	2219
225.300	1906
225.366	1607
225.432	1163
225.499	1193
225.565	1344
225.631	1447
225.697	1327
225.763	2687
225.829	2326
225.895	2801
225.961	3851
226.027	4281
226.093	2856
226.159	3912
226.225	6136
226.291	13808
226.357	25703
226.423	13048
226.489	7019
226.554	4422
226.620	3832
226.686	4591
226.752	7307
226.818	12190
226.884	30821
226.950	29088
227.016	10588
227.082	6365
227.148	4865
227.214	4600
227.279	4186
227.345	3347
227.411	3315
227.477	2842
227.543	7080
227.609	7688
227.674	4134
227.740	2245
227.806	3164
227.872	2351
227.938	2348
228.003	3402
228.069	2775
228.135	1563
228.201	2044
228.267	2271
228.332	2721
228.398	3422
228.464	2745
228.530	625
228.595	1670
228.661	663
228.727	2902
228.792	3675
228.858	1908
228.924	1337
228.990	3692
229.055	1716
229.121	3653
229.187	2290
229.252	2137
229.318	2202
229.384	2370
229.449	2747
229.515	-189
229.581	366
229.646	3269
229.712	2045
229.777	4681
229.843	5845
229.909	4363
229.974	4371
230.040	3677
230.105	3097
230.171	3220
230.236	4068
230.302	6038
230.368	5428
230.433	2960
230.499	3157
230.564	3883
230.630	1463
230.695	2314
230.761	2760
230.826	983
230.892	4631
230.957	2362
231.023	1323
231.088	2027
231.154	1803
231.219	3284
231.284	3125
231.350	3639
231.415	467
231.481	2351
231.546	1745
231.612	2038
231.677	904
231.742	428
231.808	2979
231.873	967
231.939	532
232.004	5568
232.069	4438
232.135	2084
232.200	1436
232.265	1695
232.331	968
232.396	457
232.461	793
232.527	1157
232.592	1132
232.657	2442
232.723	3171
232.788	2713
232.853	2686
232.918	1711
232.984	1509
233.049	856
233.114	2752
233.179	3336
233.245	5492
233.310	6888
233.375	1331
233.440	1820
233.506	1116
233.571	997
233.636	1521
233.701	1882
233.766	4121
233.832	6210
233.897	2483
233.962	950
234.027	4150
234.092	2048
234.157	1975
234.222	2258
234.288	4157
234.353	12291
234.418	11595
234.483	6699
234.548	4412
234.613	3000
234.678	3669
234.743	3661
234.808	14272
234.873	8397
234.938	5059
235.004	2609
235.069	2402
235.134	2185
235.199	2671
235.264	2052
235.329	1402
235.394	3170
235.459	4009
235.524	1814
235.589	2814
235.654	2477
235.719	1312
235.784	2271
235.849	2560
235.913	6745
235.978	8480
236.043	9986
236.108	4323
236.173	2848
236.238	4997
236.303	2003
236.368	2123
236.433	4726
236.498	8738
236.563	6153
236.627	10479
236.692	38269
236.757	33302
236.822	12492
236.887	9530
236.952	6757
237.017	5729
237.081	7415
237.146	7629
237.211	16728
237.276	35644
237.341	65500
237.405	30524
237.470	12841
237.535	9247
237.600	4649
237.664	4566
237.729	3037
237.794	4882
237.859	11676
237.923	8578
237.988	4487
238.053	6458
238.118	6626
238.182	16648
238.247	16586
238.312	7158
238.376	6046
238.441	3546
238.506	4688
238.570	1473
238.635	3330
238.700	2872
238.764	2946
238.829	7747
238.893	10346
238.958	5240
239.023	4046
239.087	3112
239.152	3603
239.216	2442
239.281	2357
239.346	2984
239.410	2404
239.475	2453
239.539	16005
239.604	14008
239.668	4869
239.733	1845
239.797	4299
239.862	11571
239.926	14893
239.991	6448
240.055	3421
240.120	3917
240.184	2920
240.249	2168
240.313	2791
240.378	2689
240.442	8880
240.507	17149
240.571	5062
240.635	8011
240.700	10926
240.764	4482
240.829	2473
240.893	1129
240.957	3082
241.022	7967
241.086	17289
241.151	8839
241.215	3068
241.279	4885
241.344	9213
241.408	4612
241.472	2797
241.537	4233
241.601	3623
241.665	2046
241.730	1601
241.794	3906
241.858	2181
241.922	3157
241.987	3312
242.051	2174
242.115	1686
242.179	2697
242.244	2747
242.308	3402
242.372	3299
242.436	4011
242.501	3189
242.565	1798
242.629	2142
242.693	2941
242.757	2237
242.822	2597
242.886	3393
242.950	3117
243.014	1966
243.078	4124
243.142	3829
243.206	2770
243.271	3876
243.335	2891
243.399	5505
243.463	19450
243.527	58794
243.591	19412
243.655	7978
243.719	4987
243.783	5553
243.847	8687
243.911	10208
243.975	12010
244.040	8644
244.104	5129
244.168	3428
244.232	6160
244.296	8243
244.360	9245
244.424	4520
244.488	4206
244.552	3781
244.615	1943
244.679	2961
244.743	4127
244.807	3764
244.871	2665
244.935	2882
244.999	1232
245.063	2659
245.127	3160
245.191	6036
245.255	6726
245.319	4652
245.383	3716
245.446	4184
245.510	1844
245.574	3535
245.638	3941
245.702	2667
245.766	11032
245.829	6881
245.893	3892
245.957	3153
246.021	3654
246.085	3524
246.149	5303
246.212	12294
246.276	17221
246.340	8342
246.404	6269
246.467	6399
246.531	9689
246.595	5945
246.659	5616
246.722	4331
246.786	6219
246.850	6845
246.913	8861
246.977	3356
247.041	4478
247.104	4154
247.168	4522
247.232	11571
247.295	24446
247.359	12688
247.423	5764
247.486	11053
247.550	7661
247.614	4469
247.677	7710
247.741	4576
247.804	3236
247.868	4905
247.932	8956
247.995	23013
248.059	8866
248.122	4349
248.186	6561
248.249	9540
248.313	35557
248.376	38794
248.440	24488
248.503	9542
248.567	8339
248.630	10428
248.694	15891
248.757	18373
248.821	39340
248.884	24186
248.948	19840
249.011	30248
249.075	44468
249.138	40440
249.202	16546
249.265	10168
249.328	13217
249.392	8890
249.455	7628
249.519	5688
249.582	7897
249.645	12947
249.709	10183
249.772	6720
249.835	6079
249.899	7160
249.962	6136
250.025	6443
250.089	14048
250.152	20475
250.215	11467
250.279	7730
250.342	8424
250.405	7011
250.468	6277
250.532	8807
250.595	14957
250.658	48925
250.721	88396
250.785	32181
250.848	17317
250.911	9936
250.974	9482
251.038	10908
251.101	24150
251.164	11730
251.227	13463
251.290	12302
251.354	18017
251.417	68517
251.480	74633
251.543	45838
251.606	128755
251.669	102863
251.732	39120
251.795	35251
251.859	36264
251.922	83642
251.985	52025
252.048	18987
252.111	13878
252.174	12211
252.237	22437
252.300	47381
252.363	51900
252.426	109488
252.489	48431
252.552	23717
252.615	15838
252.678	15959
252.741	33724
252.804	47565
252.867	108936
252.930	66092
252.993	35033
253.056	20251
253.119	15375
253.182	12035
253.245	20324
253.308	16143
253.371	13989
253.434	12392
253.497	12109
253.559	22099
253.622	17777
253.685	19312
253.748	22272
253.811	10656
253.874	12915
253.937	12604
254.000	9477
254.062	14647
254.125	24630
254.188	20980
254.251	21032
254.314	8645
254.376	17025
254.439	20334
254.502	16444
254.565	15397
254.628	28796
254.690	17717
254.753	10663
254.816	8229
254.878	9799
254.941	16367
255.004	18306
255.067	7468
255.129	8162
255.192	5244
255.255	4134
255.317	6343
255.380	4650
255.443	2559
255.505	3659
255.568	3400
255.631	4438
255.693	3608
255.756	2720
255.819	4379
255.881	3428
255.944	2885
256.006	3107
256.069	2604
256.132	2139
256.194	4818
256.257	14963
256.319	10419
256.382	9586
256.444	5918
256.507	4010
256.569	4027
256.632	3937
256.694	7648
256.757	19689
256.819	60628
256.882	24155
256.944	9367
257.007	8170
257.069	8606
257.132	6435
257.194	5238
257.257	3773
257.319	4748
257.381	5639
257.444	14561
257.506	66257
257.569	79410
257.631	42348
257.693	21437
257.756	10531
257.818	9394
257.880	5628
257.943	4976
258.005	4332
258.067	4123
258.130	4593
258.192	5262
258.254	11998
258.317	7051
258.379	5057
258.441	14810
258.503	14543
258.566	16603
258.628	25906
258.690	5976
258.753	6200
258.815	11599
258.877	6120
258.939	4684
259.001	4652
259.064	3345
259.126	5684
259.188	7331
259.250	5068
259.312	6480
259.375	19901
259.437	13312
259.499	4892
259.561	4001
259.623	4818
259.685	4131
259.747	4442
259.809	15461
259.872	34729
259.934	44393
259.996	43123
260.058	11650
260.120	5678
260.182	5424
260.244	4417
260.306	2723
260.368	3988
260.430	2894
260.492	7697
260.554	17526
260.616	15294
260.678	23091
260.740	36465
260.802	9803
260.864	7297
260.926	4733
260.988	6177
261.050	5340
261.112	11028
261.174	31236
261.236	28791
261.298	7966
261.359	14361
261.421	23006
261.483	6152
261.545	4864
261.607	2936
261.669	3840
261.731	9365
261.793	23046
261.854	10053
261.916	6009
261.978	4793
262.040	5601
262.102	5060
262.164	7648
262.225	8219
262.287	4091
262.349	12343
262.411	10882
262.472	5224
262.534	8248
262.596	23266
262.658	7797
262.719	3618
262.781	5900
262.843	20799
262.904	9986
262.966	6179
263.028	8289
263.090	35256
263.151	100417
263.213	32300
263.275	14961
263.336	6786
263.398	5625
263.459	3214
263.521	4644
263.583	10699
263.644	8572
263.706	4108
263.767	2250
263.829	2588
263.891	2528
263.952	2473
264.014	1908
264.075	3551
264.137	11277
264.198	5955
264.260	2361
264.321	2778
264.383	7305
264.444	20109
264.506	6177
264.567	4700
264.629	6354
264.690	15236
264.752	6192
264.813	4242
264.875	2301
264.936	3599
264.998	1977
265.059	2157
265.120	2372
265.182	5105
265.243	28465
265.305	31512
265.366	7105
265.427	4188
265.489	4423
265.550	2050
265.611	3385
265.673	3574
265.734	2983
265.795	2513
265.857	2382
265.918	2720
265.979	7896
266.040	48402
266.102	43869
266.163	11881
266.224	8714
266.286	5636
266.347	3236
266.408	3361
266.469	4104
266.530	2639
266.592	2683
266.653	6669
266.714	11905
266.775	4342
266.836	3872
266.898	2464
266.959	5036
267.020	3778
267.081	3260
267.142	2651
267.203	1465
267.264	2806
267.326	3748
267.387	2623
267.448	2624
267.509	2790
267.570	2123
267.631	1624
267.692	1020
267.753	3546
267.814	1773
267.875	6138
267.936	16913
267.997	7068
268.058	5349
268.119	3394
268.180	3510
268.241	2556
268.302	2571
268.363	1391
268.424	2751
268.485	2512
268.546	1584
268.607	1341
268.668	1910
268.729	1213
268.790	2749
268.851	3501
268.912	8545
268.972	11999
269.033	5395
269.094	1882
269.155	2320
269.216	2369
269.277	2432
269.338	2588
269.398	1758
269.459	3142
269.520	4615
269.581	7480
269.642	9046
269.702	4954
269.763	3168
269.824	2626
269.885	4570
269.945	7681
270.006	2461
270.067	2286
270.128	2541
270.188	2378
270.249	1975
270.310	1641
270.370	2269
270.431	2554
270.492	1556
270.553	2111
270.613	6595
270.674	15611
270.734	6278
270.795	3439
270.856	5384
270.916	4645
270.977	2975
271.038	3802
271.098	3831
271.159	6665
271.219	7743
271.280	3252
271.340	2574
271.401	3915
271.462	11599
271.522	6532
271.583	3516
271.643	4135
271.704	3310
271.764	4462
271.825	9834
271.885	33873
271.946	48838
272.006	16510
272.066	19230
272.127	36757
272.187	11464
272.248	6922
272.308	6899
272.369	24633
272.429	15677
272.489	11339
272.550	11718
272.610	11668
272.671	9348
272.731	8295
272.791	14684
272.852	8101
272.912	7424
272.972	4131
273.033	3929
273.093	8125
273.153	7362
273.214	5074
273.274	5997
273.334	18795
273.394	42226
273.455	17722
273.515	14951
273.575	38115
273.635	16519
273.696	19922
273.756	38694
273.816	17331
273.876	10460
273.936	19474
273.997	37572
274.057	10116
274.117	7197
274.177	10810
274.237	44468
274.297	41624
274.358	28703
274.418	30742
274.478	24746
274.538	10206
274.598	8473
274.658	28322
274.718	38717
274.778	15178
274.838	7391
274.898	15760
274.958	53016
275.018	39350
275.078	25386
275.138	10815
275.198	5749
275.258	4867
275.318	6768
275.378	10381
275.438	12252
275.498	9075
275.558	21835
275.618	48238
275.678	29256
275.738	16103
275.798	12671
275.858	7380
275.918	3550
275.978	5485
276.038	5362
276.098	4190
276.157	8214
276.217	27666
276.277	13653
276.337	9032
276.397	4543
276.457	6476
276.517	4390
276.576	3398
276.636	3460
276.696	7101
276.756	15822
276.815	13064
276.875	6047
276.935	7239
276.995	5296
277.055	4025
277.114	4414
277.174	6655
277.234	22032
277.293	11145
277.353	4929
277.413	4265
277.472	4350
277.532	6149
277.592	6628
277.651	24559
277.711	53854
277.771	16780
277.830	53853
277.890	48896
277.950	28905
278.009	88604
278.069	35243
278.128	33047
278.188	53863
278.248	22982
278.307	55203
278.367	36993
278.426	10680
278.486	7278
278.545	5980
278.605	4722
278.664	5505
278.724	6754
278.783	14150
278.843	40015
278.902	13154
278.962	7816
279.021	9234
279.081	13593
279.140	13817
279.199	8791
279.259	10012
279.318	9680
279.378	13456
279.437	26447
279.496	81300
279.556	226902
279.615	208863
279.675	60161
279.734	33221
279.793	42278
279.853	62818
279.912	25805
279.971	14244
280.031	13445
280.090	22137
280.149	42729
280.208	37367
280.268	151037
280.327	177978
280.386	46322
280.445	29274
280.505	27766
280.564	13882
280.623	11406
280.682	14504
280.742	22986
280.801	8175
280.860	5697
280.919	4907
280.978	4808
281.037	4524
281.097	4218
281.156	4434
281.215	4571
281.274	5943
281.333	25166
281.392	22611
281.451	6412
281.510	4587
281.569	4213
281.628	4002
281.688	3406
281.747	5348
281.806	5027
281.865	3447
281.924	2537
281.983	3467
282.042	2075
282.101	2644
282.160	3176
282.219	2308
282.278	4544
282.337	14452
282.396	11206
282.454	4181
282.513	5566
282.572	21750
282.631	14617
282.690	3757
282.749	3856
282.808	4862
282.867	4981
282.926	4593
282.985	2914
283.043	2908
283.102	3928
283.161	4270
283.220	10540
283.279	27491
283.338	8089
283.396	4544
283.455	5350
283.514	5370
283.573	8785
283.631	6775
283.690	4577
283.749	4784
283.808	9469
283.866	12747
283.925	5129
283.984	4622
284.043	7169
284.101	8094
284.160	5683
284.219	7332
284.277	6755
284.336	10462
284.395	31490
284.453	28521
284.512	11637
284.570	13892
284.629	12902
284.688	12343
284.746	15670
284.805	17574
284.863	22626
284.922	28812
284.981	33050
285.039	46946
285.098	78983
285.156	165715
285.215	252354
285.273	241738
285.332	185535
285.390	104922
285.449	66446
285.507	44776
285.566	33486
285.624	24546
285.683	18975
285.741	15911
285.799	13784
285.858	11379
285.916	9876
285.975	7853
286.033	7299
286.091	6339
286.150	6076
286.208	6185
286.267	6713
286.325	6099
286.383	9720
286.442	8504
286.500	5391
286.558	4600
286.616	4299
286.675	6031
286.733	5277
286.791	4812
286.850	5059
286.908	6783
286.966	13120
287.024	5550
287.083	3789
287.141	3285
287.199	3982
287.257	6194
287.315	5101
287.374	5822
287.432	12932
287.490	9485
287.548	5809
287.606	4146
287.664	3920
287.723	5672
287.781	8051
287.839	5233
287.897	5754
287.955	7175
288.013	11838
288.071	27594
288.129	95553
288.187	275669
288.245	131277
288.303	40588
288.361	23579
288.419	17474
288.477	12569
288.535	9042
288.593	6525
288.651	5939
288.709	4381
288.767	4323
288.825	4140
288.883	3081
288.941	3300
288.999	2726
289.057	3076
289.115	2646
289.173	2775
289.231	3337
289.289	3502
289.346	3643
289.404	4255
289.462	7238
289.520	7820
289.578	3662
289.636	2101
289.694	2332
289.751	2018
289.809	2506
289.867	2820
289.925	3199
289.983	4528
290.040	2405
290.098	2304
290.156	2499
290.214	3634
290.271	2009
290.329	2486
290.387	2075
290.444	1318
290.502	1074
290.560	1433
290.617	855
290.675	1729
290.733	2181
290.790	3514
290.848	2500
290.906	2412
290.963	3399
291.021	3181
291.078	2974
291.136	3723
291.194	9538
291.251	25237
291.309	7746
291.366	2572
291.424	2794
291.481	3628
291.539	2778
291.596	3404
291.654	1930
291.711	1170
291.769	2295
291.826	6485
291.884	4532
291.941	2234
291.999	2683
292.056	2790
292.114	3480
292.171	2702
292.228	2920
292.286	4114
292.343	7647
292.401	9609
292.458	6676
292.515	4482
292.573	4604
292.630	4999
292.687	4416
292.745	3853
292.802	4131
292.859	13257
292.917	26477
292.974	16979
293.031	5164
293.089	3774
293.146	3235
293.203	2188
293.260	1689
293.318	3855
293.375	5349
293.432	2716
293.489	2021
293.546	2631
293.604	5406
293.661	15604
293.718	41935
293.775	22106
293.832	11196
293.889	9176
293.947	9463
294.004	6696
294.061	6007
294.118	12786
294.175	25079
294.232	29445
294.289	12718
294.346	6002
294.403	4611
294.460	5571
294.517	4336
294.574	2937
294.631	3502
294.688	4252
294.745	11309
294.802	42763
294.859	49197
294.916	20270
294.973	11717
295.030	9285
295.087	7183
295.144	5518
295.201	4102
295.258	3977
295.315	5364
295.372	16432
295.429	35564
295.486	15563
295.542	8525
295.599	16270
295.656	32429
295.713	22178
295.770	32761
295.827	14159
295.883	6488
295.940	6009
295.997	9207
296.054	10684
296.111	5114
296.167	4358
296.224	2563
296.281	2105
296.338	2336
296.394	2506
296.451	4728
296.508	13773
296.564	28133
296.621	18421
296.678	32340
296.734	52232
296.791	20368
296.848	10857
296.904	11445
296.961	23276
297.018	37202
297.074	29613
297.131	12137
297.187	7875
297.244	12139
297.301	32507
297.357	66176
297.414	25012
297.470	9382
297.527	6516
297.583	5165
297.640	5186
297.696	5060
297.753	3006
297.809	2412
297.866	1968
297.922	2586
297.979	2494
298.035	3254
298.092	7822
298.148	20880
298.204	22531
298.261	10864
298.317	14665
298.374	42590
298.430	28686
298.486	12979
298.543	9369
298.599	8324
298.656	10386
298.712	15376
298.768	38703
298.824	30602
298.881	9951
298.937	6137
298.993	5058
299.050	6931
299.106	6033
299.162	4649
299.218	5201
299.275	4085
299.331	5461
299.387	9781
299.443	36570
299.500	43475
299.556	18556
299.612	8664
299.668	7747
299.724	9485
299.780	11434
299.837	7741
299.893	10492
299.949	34412
300.005	44958
300.061	33627
300.117	56220
300.173	29363
300.229	13745
300.285	14911
300.341	17425
300.397	9498
300.453	5489
300.510	5135
300.566	5669
300.622	7325
300.678	19732
300.734	38517
300.790	36266
300.845	41933
300.901	27343
300.957	36578
301.013	32271
301.069	11885
301.125	8004
301.181	8235
301.237	7332
301.293	4006
301.349	4547
301.405	4258
301.461	4287
301.516	5894
301.572	6271
301.628	11332
301.684	10401
301.740	13521
301.796	26816
301.851	17155
301.907	26864
301.963	29545
302.019	39090
302.074	103620
302.130	111019
302.186	52549
302.242	21947
302.297	14147
302.353	12657
302.409	24783
302.464	25046
302.520	18081
302.576	38825
302.631	49821
302.687	30254
302.743	12900
302.798	7184
302.854	5802
302.910	7004
302.965	7709
303.021	15049
303.076	13997
303.132	16246
303.187	20588
303.243	11320
303.299	5923
303.354	4665
303.410	3862
303.465	3904
303.521	4371
303.576	4841
303.632	5971
303.687	11448
303.743	33073
303.798	32615
303.853	13506
303.909	7068
303.964	6166
304.020	9494
304.075	15393
304.130	13163
304.186	23142
304.241	25900
304.297	21036
304.352	11346
304.358	10885
304.407	7150
304.449	6942
304.463	6877
304.518	7756
304.539	7091
304.573	6016
304.629	6628
304.630	6692
304.684	10115
304.720	19554
304.739	24199
304.794	41279
304.811	35659
304.850	21956
304.902	9811
304.905	9052
304.960	6352
304.992	6341
305.015	6335
305.071	6726
305.083	6411
305.126	5236
305.173	3980
305.181	3783
305.236	3910
305.264	3554
305.292	3272
305.347	5109
305.354	5432
305.402	7436
305.445	7464
305.457	7432
305.512	8392
305.535	8704
305.567	9278
305.622	9399
305.626	9663
305.678	17209
305.716	33527
305.733	38852
305.788	50033
305.807	43005
305.843	31549
305.897	35990
305.898	35991
305.953	38117
305.988	26012
306.008	19639
306.063	11982
306.078	10656
306.118	7907
306.168	5407
306.173	5190
306.228	4946
306.259	4523
306.283	4264
306.338	4040
306.349	4132
306.393	4691
306.440	6074
306.448	6297
306.503	6079
306.530	6690
306.558	9364
306.613	19982
306.620	21664
306.668	32051
306.711	42191
306.723	42895
306.778	35342
306.801	26674
306.833	17063
306.888	8504
306.892	8185
306.943	6170
306.982	5744
306.997	5730
307.052	5233
307.072	5199
307.107	5856
307.162	7853
307.163	7889
307.217	13012
307.253	15489
307.272	15601
307.327	17176
307.343	16135
307.381	13743
307.434	11709
307.436	12106
307.491	24974
307.524	37439
307.546	39907
307.600	39831
307.614	35633
307.655	22341
307.704	10875
307.710	10500
307.765	13173
307.795	15828
307.819	19112
307.874	32295
307.885	32858
307.929	25641
307.975	16921
307.984	16981
308.038	22585
308.065	28241
308.093	50439
308.148	104653
308.156	116970
308.202	181000
308.246	228936
308.257	223619
308.312	121348
308.336	82392
308.366	61674
308.421	40720
308.426	38736
308.475	24693
308.517	16995
308.530	15822
308.585	13589
308.607	13106
308.639	13477
308.694	15125
308.697	15309
308.748	29691
308.787	44507
308.803	43739
308.857	33530
308.877	27698
308.912	22905
308.967	20586
308.967	20575
309.021	29392
309.058	37672
309.076	47082
309.130	81230
309.148	94549
309.185	168948
309.238	290262
309.239	291114
309.293	320747
309.328	300528
309.348	260854
309.402	127617
309.418	94053
309.457	66483
309.508	42368
309.511	41916
309.566	42440
309.598	44517
309.620	55032
309.674	87144
309.688	95917
309.729	90462
309.778	71817
309.783	69933
309.837	45473
309.868	33905
309.892	37488
309.946	49841
309.959	54198
310.001	68715
310.049	82648
310.055	79926
310.109	46889
310.139	28141
310.163	22404
310.218	14150
310.229	12839
310.272	10750
310.319	8859
310.326	8668
310.381	7770
310.409	7335
310.435	7002
310.489	6324
310.499	6273
310.543	6752
310.589	7290
310.598	7275
310.652	7130
310.679	6965
310.706	6213
310.760	4529
310.769	4307
310.814	4004
310.859	3661
310.868	3721
310.923	4276
310.948	4501
310.977	5277
311.031	6702
311.038	6924
311.085	6183
311.128	5174
311.139	5168
311.193	5291
311.218	5314
311.247	4877
311.301	4059
311.308	3948
311.356	4534
311.398	5122
311.410	5011
311.464	4435
311.488	4185
311.518	4286
311.572	4446
311.578	4467
311.626	6925
311.668	9162
311.680	9133
311.734	8662
311.758	8489
311.788	8158
311.842	7547
311.847	7470
311.896	9651
311.937	11581
311.950	11486
312.004	10982
312.027	10697
312.058	8822
312.112	5493
312.117	5160
312.165	5363
312.207	5543
312.297	8580
312.386	6776
312.476	7493
312.566	14431
312.656	6681
312.745	3838
312.835	5330
312.925	5558
313.015	5581
313.104	7534
313.194	4378
313.284	5292
313.374	7324
313.463	5807
313.553	5488
313.643	4754
313.732	3314
313.822	4048
313.912	5317
314.001	6614
314.091	6859
314.180	9056
314.270	7827
314.360	9614
314.449	8231
314.539	4779
314.628	5250
314.718	5305
314.808	9472
314.897	5525
314.987	6018
315.076	8032
315.166	10585
315.255	9171
315.345	8881
315.434	8625
315.524	8505
315.613	9578
315.703	12622
315.792	19658
315.881	66290
315.971	20514
316.060	18408
316.150	27805
316.239	28812
316.328	9935
316.418	5802
316.507	5230
316.597	8105
316.686	7194
316.775	12266
316.865	30283
316.954	6930
317.043	4378
317.133	5271
317.222	4227
317.311	5092
317.400	3812
317.490	9207
317.579	9609
317.668	7882
317.757	13619
317.847	31855
317.936	114518
318.025	40355
318.114	24175
318.203	13093
318.293	15411
318.382	29458
318.471	23366
318.560	31287
318.649	61254
318.738	12689
318.828	10972
318.917	11563
319.006	13956
319.095	34117
319.184	77595
319.273	43513
319.362	22455
319.451	8503
319.540	8103
319.629	18341
319.718	30560
319.807	13775
319.896	25150
319.985	96289
320.074	33892
320.163	9982
320.252	17608
320.341	12106
320.430	10563
320.519	15927
320.608	8664
320.697	7384
320.786	7197
320.875	10442
320.964	14163
321.053	21174
321.142	29430
321.230	30734
321.319	23004
321.408	53867
321.497	22992
321.586	22403
321.675	28385
321.764	25273
321.852	15995
321.941	30926
322.030	20467
322.119	21789
322.207	56447
322.296	42203
322.385	19817
322.474	23436
322.562	67334
322.651	33350
322.740	25900
322.829	37057
322.917	40177
323.006	21912
323.095	18256
323.183	14822
323.272	22314
323.361	38492
323.449	124424
323.538	39102
323.626	86154
323.715	52386
323.804	20976
323.892	77366
323.981	39986
324.069	13969
324.158	41647
324.246	39229
324.335	13320
324.424	20162
324.512	9177
324.601	12134
324.689	30258
324.778	56380
324.866	31115
324.954	8467
325.043	8347
325.131	18328
325.220	31982
325.308	36417
325.397	25212
325.485	15067
325.574	5716
325.662	5841
325.750	5804
325.839	5515
325.927	4538
326.015	7792
326.104	12601
326.192	19338
326.280	5055
326.369	5846
326.457	7936
326.545	16017
326.634	7152
326.722	4186
326.810	5083
326.898	4990
326.987	6267
327.075	15290
327.163	17193
327.251	9689
327.340	20668
327.428	28662
327.516	5959
327.604	6280
327.692	5923
327.781	7342
327.869	13847
327.957	9063
328.045	7690
328.133	4153
328.221	6881
328.309	5586
328.397	4656
328.485	7147
328.574	10344
328.662	35695
328.750	19884
328.838	7811
328.926	4745
329.014	4490
329.102	7093
329.190	18279
329.278	12588
329.366	3974
329.454	3604
329.542	3929
329.630	2925
329.718	5024
329.806	5843
329.893	4933
329.981	4486
330.069	8247
330.157	26906
330.245	80835
330.333	39833
330.421	8847
330.509	11960
330.597	41810
330.684	26245
330.772	9354
330.860	13372
330.948	14907
331.036	7086
331.123	4009
331.211	4720
331.299	6534
331.387	13225
331.475	23244
331.562	8651
331.650	4305
331.738	5306
331.825	7911
331.913	4148
332.001	3939
332.089	6269
332.176	15030
332.264	40310
332.352	27942
332.439	7877
332.527	5622
332.614	5414
332.702	8275
332.790	6560
332.877	17489
332.965	40012
333.052	11758
333.140	13057
333.228	31553
333.315	8874
333.403	7607
333.490	23457
333.578	22303
333.665	39918
333.753	15851
333.840	6161
333.928	8096
334.015	25076
334.103	35185
334.190	106337
334.278	25432
334.365	12827
334.452	8823
334.540	5784
334.627	8663
334.715	13194
334.802	28330
334.889	145067
334.977	140469
335.064	20016
335.151	8098
335.239	8520
335.326	13101
335.413	49014
335.501	64066
335.588	9869
335.675	6407
335.762	8296
335.850	14551
335.937	12747
336.024	34315
336.111	148099
336.199	59797
336.286	13302
336.373	6233
336.460	3902
336.547	5633
336.635	6977
336.722	5499
336.809	5694
336.896	10338
336.983	30122
337.070	70500
337.157	105985
337.245	92898
337.332	64658
337.419	8703
337.506	5538
337.593	6364
337.680	22684
337.767	64779
337.854	18388
337.941	21824
338.028	31694
338.115	10313
338.202	11399
338.289	25017
338.376	93371
338.463	27178
338.550	39212
338.637	41236
338.724	17509
338.811	27742
338.898	6295
338.984	4367
339.071	5911
339.158	8049
339.245	20240
339.332	12555
339.419	18576
339.506	17549
339.593	3231
339.679	4254
339.766	3056
339.853	6803
339.940	14321
340.027	5022
340.113	5467
340.200	8080
340.287	5332
340.374	7244
340.460	13031
340.547	5748
340.634	11283
340.720	42373
340.807	22775
340.894	4357
340.980	4749
341.067	4385
341.154	5561
341.240	9441
341.327	19633
341.414	6614
341.500	6894
341.587	4783
341.674	4787
341.760	12995
341.847	15153
341.933	5425
342.020	2168
342.106	2770
342.193	4414
342.279	10606
342.366	7973
342.452	13087
342.539	7131
342.625	18003
342.712	42989
342.798	17561
342.885	6700
342.971	2195
343.058	2600
343.144	2943
343.230	3924
343.317	4322
343.403	3871
343.490	3073
343.576	2789
343.662	4564
343.749	5080
343.835	8039
343.921	14351
344.008	79206
344.094	177475
344.180	38619
344.267	15377
344.353	52544
344.439	54725
344.525	20223
344.612	7784
344.698	6139
344.784	4081
344.870	3685
344.957	4029
345.043	7596
345.129	5879
345.215	12173
345.301	7074
345.387	4930
345.474	2973
345.560	3304
345.646	4165
345.732	4045
345.818	5281
345.904	4623
345.990	6324
346.076	6359
346.162	13333
346.249	5434
346.335	3238
346.421	5739
346.507	21852
346.593	74155
346.679	15778
346.765	5700
346.851	4808
346.937	4596
347.023	3834
347.108	5327
347.194	3786
347.280	4560
347.366	7036
347.452	22067
347.538	90497
347.624	62127
347.710	50101
347.796	7781
347.882	4265
347.967	3835
348.053	6022
348.139	3477
348.225	3185
348.311	3929
348.397	3092
348.482	5538
348.568	5997
348.654	3511
348.740	6443
348.825	6041
348.911	10446
348.997	41398
349.083	79412
349.168	13345
349.254	5249
349.340	4668
349.425	3649
349.511	5682
349.597	7356
349.682	16365
349.768	51016
349.854	21761
349.939	5247
350.025	3497
350.110	3188
350.196	3314
350.282	2761
350.367	3530
350.453	8704
350.538	8950
350.624	5917
350.709	5339
350.795	2909
350.880	3364
350.966	5863
351.051	9058
351.137	6335
351.222	5307
351.308	15652
351.393	42764
351.479	10336
351.564	3559
351.649	4040
351.735	3582
351.820	2636
351.906	4544
351.991	6183
352.076	28650
352.162	40902
352.247	8545
352.332	5302
352.418	11276
352.503	14425
352.588	63294
352.673	48171
352.759	10590
352.844	5158
352.929	5784
353.014	8391
353.100	5953
353.185	12066
353.270	15508
353.355	15461
353.441	5366
353.526	5998
353.611	13633
353.696	15963
353.781	9643
353.866	3899
353.952	5359
354.037	13276
354.122	32291
354.207	26878
354.292	10103
354.377	4564
354.462	4463
354.547	6493
354.632	5444
354.717	9268
354.802	13704
354.887	4999
354.972	3780
355.057	3156
355.142	3814
355.227	5020
355.312	9475
355.397	20226
355.482	49869
355.567	23241
355.652	18192
355.737	19332
355.822	60399
355.907	45843
355.991	8147
356.076	3671
356.161	5234
356.246	3649
356.331	5624
356.416	14216
356.501	98959
356.585	96069
356.670	13506
356.755	9301
356.840	14347
356.924	67150
357.009	230886
357.094	79432
357.179	18020
357.263	13020
357.348	12516
357.433	11632
357.517	9997
357.602	8897
357.687	6743
357.771	13367
357.856	38222
357.941	22500
358.025	49276
358.110	210944
358.195	90466
358.279	15102
358.364	11749
358.448	40709
358.533	109475
358.617	76436
358.702	78585
358.787	27098
358.871	15370
358.956	12491
359.040	4993
359.125	3356
359.209	5629
359.294	17164
359.378	28840
359.462	14031
359.547	8138
359.631	5274
359.716	3438
359.800	4331
359.885	8028
359.969	5458
360.053	4521
360.138	5842
360.222	8510
360.306	14707
360.391	11726
360.475	21863
360.559	46141
360.644	41723
360.728	29775
360.812	54028
360.896	147426
360.981	56250
361.065	28759
361.149	9123
361.233	8001
361.318	6600
361.402	9529
361.486	7278
361.570	4916
361.654	7371
361.739	20909
361.823	94134
361.907	141287
361.991	24308
362.075	14209
362.159	29308
362.243	20875
362.327	19659
362.411	27063
362.495	13921
362.580	7979
362.664	5519
362.748	3914
362.832	6707
362.916	11564
363.000	41725
363.084	127210
363.168	168545
363.252	37447
363.336	14005
363.420	19089
363.503	68612
363.587	77860
363.671	14170
363.755	9753
363.839	14971
363.923	6680
364.007	16277
364.091	19476
364.175	26638
364.258	112220
364.342	76036
364.426	90333
364.510	47008
364.594	21924
364.677	28208
364.761	128354
364.845	85337
364.929	28352
365.013	20999
365.096	17795
365.180	21053
365.264	29027
365.347	110963
365.431	42576
365.515	11213
365.598	6694
365.682	5603
365.766	10305
365.849	12610
365.933	7802
366.017	9964
366.100	6804
366.184	3628
366.267	5396
366.351	4360
366.435	3849
366.518	2917
366.602	3303
366.685	4785
366.769	5307
366.852	9195
366.936	17107
367.019	10583
367.103	7863
367.186	14462
367.270	4658
367.353	2898
367.436	4234
367.520	3843
367.603	6381
367.687	8710
367.770	18100
367.853	11037
367.937	37387
368.020	61208
368.104	13373
368.187	14022
368.270	18788
368.353	15017
368.437	25808
368.520	62460
368.603	34881
368.687	43924
368.770	80895
368.853	19136
368.936	17539
369.020	16639
369.103	6676
369.186	4613
369.269	5255
369.352	11491
369.436	16946
369.519	10844
369.602	4852
369.685	6614
369.768	6152
369.851	5658
369.934	4095
370.018	5711
370.101	14141
370.184	12466
370.267	8543
370.350	14956
370.433	23345
370.516	68300
370.599	87902
370.682	27017
370.765	41744
370.848	51974
370.931	101077
371.014	35984
371.097	7913
371.180	6625
371.263	4482
371.346	2527
371.429	3984
371.511	5362
371.594	9909
371.677	15916
371.760	17438
371.843	15563
371.926	73516
372.009	165529
372.091	50935
372.174	39803
372.257	94412
372.340	34295
372.423	25273
372.505	26252
372.588	12749
372.671	31496
372.754	100007
372.836	47238
372.919	33322
373.002	61184
373.085	20373
373.167	16632
373.250	41650
373.332	91120
373.415	117215
373.498	233746
373.580	80767
373.663	123292
373.746	155945
373.828	32351
373.911	14201
373.993	16257
374.076	61728
374.159	56286
374.241	27785
374.324	82332
374.406	51547
374.489	70105
374.571	195508
374.654	77091
374.736	38875
374.819	122641
374.901	171462
374.983	170582
375.066	29835
375.148	12379
375.231	50710
375.313	94304
375.395	32384
375.478	8929
375.560	6766
375.643	10672
375.725	37526
375.807	159038
375.890	124028
375.972	56585
376.054	29229
376.136	50122
376.219	22148
376.301	46734
376.383	136543
376.465	49456
376.548	30767
376.630	38525
376.712	118324
376.794	50491
376.877	7277
376.959	3957
377.041	6157
377.123	11819
377.205	14386
377.287	3683
377.369	3943
377.452	4568
377.534	4636
377.616	4284
377.698	4461
377.780	3703
377.862	5658
377.944	5324
378.026	3156
378.108	3963
378.190	3928
378.272	4162
378.354	2734
378.436	3556
378.518	7159
378.600	26396
378.682	23675
378.764	57851
378.846	42697
378.928	11798
379.010	16558
379.091	10076
379.173	5457
379.255	4514
379.337	7860
379.419	28419
379.501	82036
379.583	30667
379.664	9099
379.746	19643
379.828	54944
379.910	75393
379.991	64685
380.073	11508
380.155	7370
380.237	5732
380.318	4692
380.400	5648
380.482	12762
380.564	19778
380.645	19676
380.727	18403
380.809	9792
380.890	8215
380.972	6014
381.053	5998
381.135	7511
381.217	20764
381.298	56653
381.380	27543
381.461	24407
381.543	116687
381.624	136840
381.706	24330
381.787	12891
381.869	15068
381.951	49212
382.032	184561
382.113	109239
382.195	23938
382.276	17675
382.358	40412
382.439	103765
382.521	114749
382.602	176731
382.684	79901
382.765	153476
382.846	187018
382.928	317037
383.009	165488
383.090	110310
383.172	428884
383.253	627900
383.334	200632
383.416	175192
383.497	88909
383.578	47223
383.659	92352
383.741	358583
383.822	886188
383.903	433362
383.984	138934
384.066	203625
384.147	119941
384.228	27438
384.309	21004
384.390	15508
384.471	12198
384.553	13226
384.634	17565
384.715	16913
384.796	10138
384.877	13225
384.958	54353
385.039	62127
385.120	21744
385.201	11675
385.282	13041
385.363	14238
385.444	12564
385.525	23451
385.606	81975
385.687	66115
385.768	16581
385.849	20092
385.930	81337
386.011	137275
386.092	34747
386.173	9070
386.254	7648
386.335	8663
386.416	9205
386.496	34478
386.577	55414
386.658	19305
386.739	11964
386.820	11250
386.901	8985
386.981	8827
387.062	6394
387.143	14013
387.224	55143
387.304	49797
387.385	17509
387.466	10386
387.547	15132
387.627	9676
387.708	21822
387.789	98197
387.869	119309
387.950	30376
388.031	6665
388.111	5059
388.192	15835
388.273	23125
388.353	13751
388.434	8419
388.514	19246
388.595	91933
388.676	115080
388.756	53050
388.837	50186
388.917	30169
388.998	6376
389.078	7558
389.159	5942
389.239	5374
389.320	10125
389.400	8412
389.480	22224
389.561	60054
389.641	27419
389.722	10343
389.802	16354
389.883	25059
389.963	71213
390.043	42979
390.124	13804
390.204	21535
390.284	63571
390.365	38213
390.445	46723
390.525	128567
390.605	107363
390.686	31914
390.766	12060
390.846	7701
390.927	4915
391.007	5635
391.087	7403
391.167	8963
391.247	5468
391.328	11998
391.408	15771
391.488	10598
391.568	3166
391.648	8317
391.728	11550
391.808	11432
391.888	12831
391.969	32441
392.049	52010
392.129	21334
392.209	27372
392.289	67631
392.369	35532
392.449	27452
392.529	17813
392.609	16125
392.689	21409
392.769	68950
392.849	58502
392.929	40127
393.009	95939
393.089	76850
393.169	70092
393.248	230279
393.328	830232
393.408	858313
393.488	233534
393.568	65821
393.648	32748
393.728	21394
393.807	15798
393.887	14156
393.967	12729
394.047	12936
394.127	16116
394.206	24269
394.286	86632
394.366	394200
394.446	402831
394.525	83024
394.605	20765
394.685	18473
394.764	37555
394.844	64781
394.924	44201
395.003	14805
395.083	11148
395.163	10108
395.242	9087
395.322	9284
395.402	7307
395.481	10445
395.561	28113
395.640	74827
395.720	58545
395.799	80939
395.879	60418
395.958	35529
396.038	124622
396.117	513159
396.197	541532
396.276	142081
396.356	45605
396.435	33925
396.515	25077
396.594	31465
396.673	62328
396.753	243719
396.832	749011
396.912	536684
396.991	126144
397.070	35577
397.150	18923
397.229	14491
397.308	18871
397.388	29373
397.467	15502
397.546	8197
397.625	5229
397.705	9497
397.784	9935
397.863	6406
397.942	4259
398.022	6270
398.101	23026
398.180	66260
398.259	32492
398.338	8599
398.417	7063
398.497	5567
398.576	5880
398.655	3177
398.734	3875
398.813	4571
398.892	21721
398.971	74234
399.050	33966
399.129	4737
399.208	3683
399.287	3413
399.366	2414
399.445	2814
399.524	3288
399.603	1952
399.682	8398
399.761	24806
399.840	80170
399.919	59568
399.998	8462
400.077	3140
400.156	2143
400.235	5404
400.313	3513
400.392	5017
400.471	28944
400.550	46080
400.629	10722
400.708	5574
400.786	4239
400.865	13865
400.944	15373
401.023	7844
401.102	2375
401.180	2258
401.259	2589
401.338	3967
401.416	5534
401.495	4815
401.574	4202
401.652	3385
401.731	5720
401.810	5291
401.888	2655
401.967	1657
402.046	4179
402.124	5205
402.203	7360
402.281	5534
402.360	7033
402.438	19061
402.517	12189
402.596	4768
402.674	4173
402.753	2516
402.831	2604
402.910	5094
402.988	22765
403.066	76993
403.145	41736
403.223	22891
403.302	60395
403.380	43138
403.459	43603
403.537	16390
403.615	6204
403.694	1484
403.772	2792
403.850	1751
403.929	1893
404.007	2310
404.085	8088
404.164	9172
404.242	3585
404.320	3424
404.398	8392
404.477	27330
404.555	143928
404.633	119286
404.711	16663
404.789	4626
404.868	4510
404.946	2039
405.024	1584
405.102	2299
405.180	848
405.258	832
405.336	2780
405.415	2634
405.493	7290
405.571	6934
405.649	2287
405.727	1185
405.805	6047
405.883	4792
405.961	5545
406.039	5591
406.117	2358
406.195	7352
406.273	32420
406.351	124967
406.429	68845
406.507	9689
406.585	3884
406.663	4127
406.740	6048
406.818	4690
406.896	2805
406.974	4013
407.052	9763
407.130	71953
407.208	97206
407.285	18273
407.363	4061
407.441	3732
407.519	3047
407.596	3892
407.674	10726
407.752	32165
407.830	31012
407.907	12248
407.985	3825
408.063	3028
408.141	2549
408.218	5498
408.296	5329
408.373	4497
408.451	4827
408.529	4095
408.606	1662
408.684	1308
408.762	913
408.839	1049
408.917	561
408.994	989
409.072	1248
409.149	1811
409.227	4872
409.304	5294
409.382	4324
409.459	4953
409.537	8080
409.614	6453
409.692	4142
409.769	4841
409.846	9229
409.924	11716
410.001	6447
410.079	3499
410.156	3615
410.233	4097
410.311	2711
410.388	2516
410.465	3264
410.543	3730
410.620	2411
410.697	3431
410.775	4267
410.852	1673
410.929	4877
411.006	5721
411.083	2955
411.161	7790
411.238	8398
411.315	4090
411.392	2387
411.469	4118
411.547	4640
411.624	1653
411.701	2272
411.778	3679
411.855	9089
411.932	4793
412.009	1822
412.086	2200
412.163	3021
412.240	3204
412.317	5013
412.394	3270
412.471	1679
412.548	1839
412.625	1360
412.702	3555
412.779	6802
412.856	5136
412.933	1051
413.010	1982
413.087	4785
413.164	26577
413.241	36838
413.318	8429
413.395	5580
413.471	8078
413.548	3586
413.625	2220
413.702	2561
413.779	3308
413.855	596
413.932	563
414.009	31
414.086	690
414.162	1917
414.239	4705
414.316	25640
414.393	57757
414.469	19501
414.546	2405
414.623	754
414.699	1643
414.776	4093
414.853	1349
414.929	2616
415.006	2091
415.082	2175
415.159	2543
415.236	1523
415.312	2103
415.389	6459
415.465	8421
415.542	3420
415.618	2789
415.695	5365
415.771	3275
415.848	2458
415.924	2745
416.000	1646
416.077	2409
416.153	320
416.230	278
416.306	1121
416.383	1363
416.459	1506
416.535	750
416.612	1697
416.688	1123
416.764	1546
416.841	1788
416.917	2210
416.993	2773
417.069	2422
417.146	3925
417.222	3873
417.298	2915
417.374	786
417.451	2592
417.527	3703
417.603	3987
417.679	3563
417.755	1804
417.831	777
417.908	1059
417.984	902
418.060	1270
418.136	7770
418.212	9504
418.288	3446
418.364	1778
418.440	1794
418.516	4630
418.592	5551
418.668	12938
418.744	17084
418.820	11846
418.896	2918
418.972	1048
419.048	1961
419.124	7832
419.200	4778
419.276	1388
419.352	361
419.428	982
419.504	2276
419.579	2669
419.655	2732
419.731	2604
419.807	11581
419.883	21339
419.959	13978
420.034	4477
420.110	8224
420.186	36495
420.262	27229
420.337	4175
420.413	3228
420.489	1924
420.565	2438
420.640	1645
420.716	2385
420.792	459
420.867	2292
420.943	2338
421.019	5929
421.094	3611
421.170	2330
421.245	1845
421.321	2448
421.397	2113
421.472	6466
421.548	17242
421.623	12352
421.699	4633
421.774	4199
421.850	4450
421.925	8292
422.001	6316
422.076	5741
422.152	7020
422.227	11267
422.302	13178
422.378	19123
422.453	35828
422.529	93603
422.604	288618
422.679	460042
422.755	292962
422.830	96034
422.905	36695
422.981	19771
423.056	13580
423.131	9641
423.207	7443
423.282	7267
423.357	13144
423.432	9311
423.508	9041
423.583	19087
423.658	13722
423.733	5013
423.808	6151
423.883	6093
423.959	4928
424.034	5003
424.109	4372
424.184	1973
424.259	2194
424.334	1118
424.409	1554
424.484	2170
424.559	2862
424.634	2301
424.709	4289
424.784	4200
424.859	3195
424.934	5515
425.009	25504
425.084	42550
425.159	14885
425.234	2423
425.309	1356
425.384	9044
425.459	13569
425.534	4217
425.609	2116
425.683	1352
425.758	1758
425.833	1821
425.908	3248
425.983	15536
426.058	44308
426.132	18674
426.207	3593
426.282	5439
426.357	4926
426.431	2524
426.506	2579
426.581	2234
426.655	1691
426.730	1713
426.805	1633
426.879	2467
426.954	2135
427.029	6943
427.103	42355
427.178	107685
427.253	45193
427.327	5895
427.402	7088
427.476	17727
427.551	8513
427.625	3904
427.700	2960
427.774	1138
427.849	2456
427.923	921
427.998	1659
428.072	1939
428.147	8007
428.221	33614
428.296	98946
428.370	48682
428.444	7936
428.519	7202
428.593	13561
428.667	11768
428.742	15641
428.816	16126
428.890	62539
428.965	96886
429.039	30112
429.113	18010
429.188	6563
429.262	1972
429.336	6790
429.410	21295
429.485	12905
429.559	12195
429.633	9390
429.707	4013
429.781	11157
429.855	66493
429.930	98652
430.004	49027
430.078	69639
430.152	65578
430.226	128930
430.300	123642
430.374	18976
430.448	7551
430.522	23490
430.596	68045
430.670	43251
430.744	113985
430.818	158884
430.892	32242
430.966	6653
431.040	3012
431.114	1096
431.188	843
431.262	1758
431.336	1354
431.410	6875
431.484	19753
431.557	12238
431.631	2358
431.705	3589
431.779	18470
431.853	85606
431.927	57131
432.000	7915
432.074	2585
432.148	2903
432.222	2761
432.295	1571
432.369	1551
432.443	5412
432.516	41679
432.590	108839
432.664	39766
432.737	4455
432.811	1238
432.885	1001
432.958	1440
433.032	255
433.106	1497
433.179	151
433.253	1045
433.326	165
433.400	440
433.473	477
433.547	406
433.620	998
433.694	4097
433.767	5067
433.841	2078
433.914	951
433.988	90
434.061	580
434.134	1172
434.208	-447
434.281	-934
434.355	401
434.428	1429
434.501	1082
434.575	135
434.648	1554
434.721	434
434.795	530
434.868	22
434.941	255
435.014	95
435.088	1361
435.161	3697
435.234	6205
435.307	7344
435.381	3904
435.454	2868
435.527	4341
435.600	3993
435.673	3257
435.746	1655
435.819	636
435.892	1670
435.966	1104
436.039	1110
436.112	1291
436.185	292
436.258	766
436.331	-1058
436.404	344
436.477	-98
436.550	362
436.623	695
436.696	110
436.769	1832
436.842	1377
436.915	1631
436.987	3208
437.060	1371
437.133	432
437.206	647
437.279	788
437.352	496
437.425	628
437.498	1791
437.570	5942
437.643	5160
437.716	1044
437.789	1052
437.861	4385
437.934	13083
438.007	6141
438.080	1870
438.152	2033
438.225	7795
438.298	57207
438.370	155962
438.443	61845
438.516	14719
438.588	3731
438.661	1170
438.734	1228
438.806	1517
438.879	2498
438.951	3278
439.024	6734
439.096	1825
439.169	959
439.241	370
439.314	796
439.386	2816
439.459	5346
439.531	8555
439.604	3722
439.676	553
439.749	623
439.821	864
439.893	1000
439.966	1051
440.038	2115
440.110	3334
440.183	1420
440.255	751
440.327	4618
440.400	23448
440.472	98821
440.544	64670
440.617	8412
440.689	6387
440.761	7856
440.833	11824
440.905	8254
440.978	1335
441.050	997
441.122	1583
441.194	111
441.266	1391
441.338	777
441.411	4238
441.483	30344
441.555	45606
441.627	10860
441.699	5290
441.771	5306
441.843	2256
441.915	511
441.987	874
442.059	1509
442.131	2374
442.203	3771
442.275	5724
442.347	5269
442.419	7570
442.491	41480
442.563	102665
442.635	45200
442.706	23531
442.778	18381
442.850	4488
442.922	2555
442.994	2907
443.066	5054
443.137	3897
443.209	3535
443.281	4842
443.353	12713
443.425	53022
443.496	190300
443.568	181886
443.640	65402
443.711	13781
443.783	5720
443.855	3485
443.926	2142
443.998	2713
444.070	3761
444.141	3200
444.213	6035
444.285	7205
444.356	7033
444.428	6082
444.499	3133
444.571	968
444.642	1345
444.714	2400
444.785	5417
444.857	6772
444.928	14601
445.000	9477
445.071	10635
445.143	12581
445.214	8629
445.285	12671
445.357	37899
445.428	128987
445.500	294126
445.571	181263
445.642	92657
445.714	35550
445.785	29283
445.856	11232
445.928	9002
445.999	7227
446.070	5557
446.141	5763
446.213	7802
446.284	4317
446.355	3672
446.426	3149
446.497	2494
446.569	4824
446.640	9386
446.711	7236
446.782	2151
446.853	4250
446.924	4355
446.995	3518
447.066	3334
447.138	5006
447.209	3693
447.280	620
447.351	1151
447.422	473
447.493	2131
447.564	3898
447.635	5582
447.706	2885
447.777	1270
447.847	484
447.918	246
447.989	2291
448.060	4152
448.131	10454
448.202	9654
448.273	7252
448.344	2786
448.414	2288
448.485	1572
448.556	857
448.627	1073
448.698	975
448.768	464
448.839	1612
448.910	5154
448.981	5794
449.051	1804
449.122	587
449.193	436
449.263	758
449.334	1375
449.405	3084
449.475	8766
449.546	6251
449.616	6837
449.687	5670
449.758	2264
449.828	1998
449.899	1359
449.969	520
450.040	1221
450.110	3063
450.181	3594
450.251	1603
450.322	1194
450.392	2157
450.463	2044
450.533	1100
450.604	729
450.674	1333
450.744	2149
450.815	966
450.885	1465
450.955	1270
451.026	1071
451.096	1538
451.166	1386
451.237	6682
451.307	17544
451.377	7821
451.447	1664
451.518	1066
451.588	1564
451.658	1622
451.728	4295
451.799	17042
451.869	21504
451.939	5615
452.009	1494
452.079	1126
452.149	1887
452.219	5195
452.289	20468
452.360	17451
452.430	3909
452.500	2937
452.570	4086
452.640	7359
452.710	18709
452.780	28005
452.850	20457
452.920	18479
452.990	7407
453.060	3682
453.129	5032
453.199	7252
453.269	25172
453.339	55974
453.409	86813
453.479	79226
453.549	116943
453.619	123328
453.688	55209
453.758	9353
453.828	3295
453.898	2510
453.968	1345
454.037	1553
454.087	2219
454.107	2483
454.168	2382
454.177	2361
454.247	1009
454.249	1033
454.316	1274
454.330	1528
454.386	2432
454.411	5063
454.456	9204
454.492	12866
454.525	16167
454.574	9538
454.595	6676
454.655	2727
454.665	2115
454.734	3228
454.736	3352
454.804	6781
454.817	9253
454.873	18871
454.898	21003
454.943	24660
454.979	17121
455.013	10527
455.060	5818
455.082	3858
455.141	4280
455.152	4219
455.221	13135
455.222	13337
455.291	25034
455.303	22681
455.360	12369
455.384	11097
455.430	8987
455.465	9361
455.499	9417
455.546	15128
455.569	17442
455.627	13589
455.638	13033
455.707	3563
455.708	3571
455.777	2195
455.789	2252
455.846	2454
455.869	2112
455.916	1518
455.950	1733
455.985	1934
456.031	1987
456.054	1912
456.112	1815
456.124	1827
456.193	2326
456.193	2313
456.262	2265
456.274	2484
456.332	3433
456.355	3629
456.401	3631
456.436	3220
456.470	2906
456.516	1903
456.540	1464
456.597	1960
456.609	2034
456.678	1525
456.678	1510
456.747	1769
456.759	1745
456.817	1666
456.840	1681
456.886	1677
456.920	1855
456.955	2149
457.001	1981
457.024	1905
457.082	2844
457.093	3013
457.162	4856
457.163	4877
457.232	6389
457.243	5934
457.301	3530
457.324	2885
457.370	1974
457.405	2015
457.439	2144
457.485	2420
457.508	2456
457.566	2802
457.577	2954
457.646	4499
457.647	4520
457.715	6800
457.727	7313
457.784	10689
457.808	13826
457.853	17977
457.889	20909
457.922	20980
457.969	14420
457.991	14167
458.050	16844
458.060	17396
458.129	30011
458.130	30329
458.198	31135
458.211	28555
458.267	17245
458.292	12557
458.336	8346
458.372	7329
458.405	8819
458.453	12741
458.474	15898
458.533	28326
458.543	29398
458.611	49611
458.614	49865
458.680	34051
458.694	27857
458.749	13971
458.775	10217
458.818	5953
458.855	5142
458.887	4696
458.936	3567
458.955	3212
459.016	3489
459.024	3515
459.093	3940
459.097	3936
459.162	3573
459.177	3622
459.230	4195
459.257	4788
459.299	5384
459.338	5201
459.368	5166
459.418	6077
459.437	6081
459.499	4750
459.505	4678
459.574	4301
459.579	4278
459.643	3649
459.659	3551
459.711	3864
459.740	4157
459.780	4281
459.820	4571
459.849	4940
459.900	5212
459.917	5186
459.981	5189
459.986	5171
460.054	5093
460.061	5095
460.123	5744
460.141	5946
460.191	6715
460.222	7443
460.260	8342
460.302	9478
460.328	9054
460.382	7595
460.397	7457
460.462	5425
460.465	5436
460.534	7796
460.543	8026
460.602	16062
460.623	19376
460.671	28797
460.703	38794
460.739	37806
460.783	32155
460.808	28203
460.864	9312
460.876	7534
460.944	4621
460.945	4586
461.013	5100
461.024	5026
461.081	4295
461.104	4476
461.150	4772
461.184	4659
461.218	4655
461.264	4368
461.286	4295
461.345	4220
461.355	4251
461.423	4985
461.425	4996
461.491	4867
461.505	4800
461.559	7801
461.585	9434
461.628	14186
461.665	19500
461.696	22003
461.745	28982
461.764	26987
461.825	12009
461.832	11623
461.901	5814
461.905	5788
461.969	5556
461.985	5359
462.037	5181
462.065	5172
462.105	5206
462.145	5563
462.173	7661
462.225	11358
462.241	12331
462.305	18566
462.310	18230
462.378	12349
462.385	11150
462.446	6651
462.465	5736
462.514	5452
462.545	5677
462.582	5286
462.625	4998
462.650	4936
462.705	4921
462.718	5095
462.785	5501
462.786	5523
462.854	6992
462.865	7350
462.922	9360
462.945	10207
462.990	8139
463.025	5757
463.058	5538
463.104	5397
463.126	5018
463.184	4221
463.194	4281
463.262	4336
463.264	4370
463.330	5332
463.344	5405
463.398	5751
463.424	6027
463.466	5723
463.504	5399
463.533	5656
463.583	5820
463.601	5988
463.663	6811
463.669	6936
463.737	8345
463.743	8522
463.805	13315
463.823	14604
463.873	20168
463.903	23880
463.940	25215
463.982	27733
464.008	23582
464.062	11563
464.076	10895
464.142	6411
464.144	6335
464.211	5459
464.221	5402
464.279	5902
464.301	6185
464.347	6652
464.381	6926
464.414	7312
464.461	7884
464.482	8183
464.540	9103
464.550	8959
464.617	7648
464.620	7588
464.685	8659
464.699	8946
464.753	10345
464.779	10996
464.820	11535
464.859	12118
464.888	11570
464.938	10432
464.956	10697
465.018	11668
465.023	11595
465.091	10372
465.098	10216
465.158	9376
465.177	9212
465.226	9857
465.257	10253
465.293	10335
465.336	10200
465.361	10979
465.416	12955
465.428	13529
465.495	16535
465.496	16609
465.563	24744
465.575	26227
465.631	31457
465.654	33897
465.698	22532
465.734	11851
465.765	10900
465.813	9462
465.833	9218
465.893	9403
465.900	9378
465.968	8976
465.972	8942
466.035	9532
466.052	9673
466.102	9485
466.131	9345
466.170	9536
466.210	9736
466.237	9974
466.290	10439
466.304	10331
466.369	9671
466.372	9743
466.439	11565
466.449	11801
466.506	12690
466.528	13044
466.573	17155
466.607	20157
466.641	27132
466.687	36895
466.708	40669
466.766	51345
466.775	47840
466.842	20691
466.845	19368
466.909	15714
466.925	14949
466.977	13645
467.004	13030
467.044	13333
467.083	13635
467.111	14875
467.163	17139
467.178	17417
467.242	18469
467.245	18417
467.312	16798
467.321	16561
467.379	15675
467.400	15311
467.446	15918
467.480	16315
467.559	15369
467.638	13576
467.717	13395
467.796	15227
467.875	17177
467.955	14226
468.034	19375
468.113	40807
468.192	59144
468.271	19116
468.350	15446
468.429	16023
468.508	17128
468.588	14416
468.667	13102
468.746	12791
468.825	13143
468.904	12171
468.983	14272
469.062	17956
469.141	22812
469.220	12040
469.299	11118
469.378	13009
469.456	16137
469.535	14665
469.614	13458
469.693	12880
469.772	16511
469.851	20639
469.930	15927
470.009	13114
470.088	14268
470.166	16284
470.245	26191
470.324	32711
470.403	22534
470.482	16130
470.560	12792
470.639	13966
470.718	15782
470.797	13006
470.875	14856
470.954	17587
471.033	19261
471.111	10796
471.190	9822
471.269	9200
471.347	9646
471.426	10668
471.505	12087
471.583	12872
471.662	12548
471.740	11046
471.819	11312
471.898	11528
471.976	10982
472.055	11042
472.133	11655
472.212	14808
472.290	14176
472.369	10193
472.447	9827
472.526	8511
472.604	10867
472.683	10284
472.761	11696
472.839	11763
472.918	11052
472.996	10860
473.075	12105
473.153	12093
473.231	9512
473.310	10733
473.388	11791
473.466	10404
473.545	12529
473.623	16505
473.701	16175
473.780	10379
473.858	10338
473.936	11681
474.014	10571
474.093	11999
474.171	15868
474.249	20012
474.327	14407
474.405	9662
474.484	10356
474.562	9353
474.640	9599
474.718	10843
474.796	9909
474.874	10436
474.952	9459
475.030	9877
475.108	10307
475.187	11913
475.265	13063
475.343	17983
475.421	19728
475.499	10503
475.577	11456
475.655	13147
475.733	22541
475.811	37698
475.889	34278
475.966	23538
476.044	10359
476.122	13713
476.200	17439
476.278	12775
476.356	9796
476.434	10404
476.512	12457
476.590	16626
476.667	14993
476.745	8553
476.823	10380
476.901	9417
476.979	9755
477.056	9365
477.134	9718
477.212	9551
477.290	9324
477.367	9130
477.445	7881
477.523	7935
477.601	8714
477.678	8128
477.756	10902
477.834	11604
477.911	9048
477.989	8113
478.066	8356
478.144	9436
478.222	12843
478.299	19615
478.377	17648
478.454	8619
478.532	8457
478.609	8999
478.687	10357
478.764	8658
478.842	9644
478.919	9267
478.997	9240
479.074	7711
479.152	9287
479.229	11358
479.307	8581
479.384	6298
479.461	7348
479.539	7563
479.616	10571
479.694	8250
479.771	8975
479.848	8711
479.926	11667
480.003	14206
480.080	8427
480.157	8205
480.235	8199
480.312	7972
480.389	8843
480.467	13084
480.544	17136
480.621	9927
480.698	9783
480.775	9542
480.853	10171
480.930	7119
481.007	9733
481.084	8406
481.161	10367
481.238	9739
481.315	8448
481.392	7331
481.470	8437
481.547	8071
481.624	7558
481.701	7528
481.778	8117
481.855	8531
481.932	13652
482.009	21516
482.086	16239
482.163	8588
482.240	13757
482.317	24787
482.393	19788
482.470	9009
482.547	9133
482.624	7639
482.701	8516
482.778	7898
482.855	7081
482.932	7721
483.009	7443
483.085	8301
483.162	9747
483.239	10002
483.316	7682
483.393	8230
483.469	7627
483.546	9008
483.623	9747
483.699	8050
483.776	9421
483.853	9359
483.930	13694
484.006	31223
484.083	54393
484.160	32227
484.236	46757
484.313	35682
484.389	26474
484.466	23682
484.543	23081
484.619	22776
484.696	25914
484.772	24647
484.849	26469
484.925	20864
485.002	21914
485.078	23244
485.155	22412
485.231	20331
485.308	20024
485.384	21628
485.461	23944
485.537	36055
485.614	42373
485.690	20641
485.766	18671
485.843	20014
485.919	27885
485.995	30218
486.072	18808
486.148	17520
486.224	18370
486.301	18057
486.377	21233
486.453	20795
486.530	21536
486.606	27505
486.682	30624
486.758	34824
486.835	37361
486.911	31334
486.987	47577
487.063	54585
487.139	67666
487.215	48072
487.292	25680
487.368	20572
487.444	24483
487.520	29466
487.596	29655
487.672	41426
487.748	102885
487.824	154826
487.900	58731
487.976	25780
488.052	23250
488.128	28412
488.204	22952
488.280	19765
488.356	22990
488.432	40383
488.508	60213
488.584	25523
488.660	18726
488.736	19381
488.812	19967
488.888	24980
488.964	31194
489.039	63823
489.115	98694
489.191	58805
489.267	19212
489.343	17932
489.418	16666
489.494	15112
489.570	14584
489.646	16588
489.722	16261
489.797	15358
489.873	23055
489.949	43830
490.024	38695
490.100	15584
490.176	15125
490.251	17946
490.327	24646
490.403	14625
490.478	14359
490.554	12633
490.629	12896
490.705	12783
490.781	14781
490.856	13800
490.932	16858
491.007	16545
491.083	14998
491.158	13379
491.234	17751
491.309	33373
491.385	34876
491.460	14101
491.536	16260
491.611	14362
491.686	16524
491.762	20192
491.837	41276
491.913	66608
491.988	92611
492.063	116875
492.139	33208
492.214	20054
492.289	11688
492.365	11913
492.440	14103
492.515	13581
492.590	13820
492.666	10667
492.741	16053
492.816	20588
492.891	13015
492.967	10396
493.042	10130
493.117	9517
493.192	10378
493.267	12207
493.342	17938
493.418	19969
493.493	11987
493.568	9395
493.643	10600
493.718	13654
493.793	18665
493.868	22790
493.943	15312
494.018	12546
494.093	10516
494.168	10648
494.243	9542
494.318	8707
494.393	9587
494.468	8867
494.543	9053
494.618	11236
494.693	10811
494.768	9633
494.842	10063
494.917	9386
494.992	9940
495.067	10006
495.142	9797
495.217	10722
495.292	10950
495.366	11984
495.441	15071
495.516	18857
495.591	24979
495.665	83424
495.740	199443
495.815	83955
495.890	15207
495.964	12036
496.039	14630
496.114	13060
496.188	13409
496.263	13420
496.338	11871
496.412	12729
496.487	14944
496.561	16770
496.636	17080
496.710	12846
496.785	14208
496.860	16609
496.934	13591
497.009	14280
497.083	14210
497.158	15272
497.232	17580
497.307	20698
497.381	17711
497.455	20401
497.530	25342
497.604	18280
497.679	19932
497.753	30012
497.827	41128
497.902	38477
497.976	41656
498.050	79683
498.125	292065
498.199	314632
498.273	63512
498.348	45517
498.422	36309
498.496	32244
498.570	30220
498.645	22923
498.719	19930
498.793	23912
498.867	33395
498.941	41971
499.016	114542
499.090	310104
499.164	120681
499.238	17300
499.312	14930
499.386	19741
499.460	18103
499.534	16180
499.609	21017
499.683	27964
499.757	25497
499.831	49425
499.905	201150
499.979	196229
500.053	31768
500.127	30555
500.201	23492
500.275	16827
500.349	15653
500.422	18461
500.496	25897
500.570	51040
500.644	118349
500.718	213186
500.792	52563
500.866	14809
500.940	17915
501.013	15817
501.087	15874
501.161	28453
501.235	33461
501.309	62284
501.382	178534
501.456	163121
501.530	36815
501.603	57077
501.677	25044
501.751	11228
501.825	14344
501.898	23942
501.972	71437
502.046	45862
502.119	14747
502.193	32196
502.266	77625
502.340	38782
502.413	32976
502.487	65613
502.561	37632
502.634	13681
502.708	11948
502.781	10705
502.855	9721
502.928	6849
503.002	8548
503.075	8003
503.149	9284
503.222	9156
503.295	10466
503.369	13078
503.442	16620
503.516	52021
503.589	133024
503.662	88179
503.736	28824
503.809	61890
503.882	52030
503.956	73766
504.029	73965
504.102	60879
504.175	82411
504.249	31222
504.322	16028
504.395	12576
504.468	8859
504.542	8928
504.615	7418
504.688	8075
504.761	6496
504.834	10345
504.907	12010
504.980	19043
505.053	11247
505.127	12324
505.200	15987
505.273	12088
505.346	7802
505.419	6261
505.492	7988
505.565	5415
505.638	6224
505.711	5458
505.784	5260
505.857	5868
505.930	7500
506.003	5274
506.076	8412
506.149	8741
506.221	11071
506.294	11687
506.367	26433
506.440	95634
506.513	54440
506.586	13652
506.659	8149
506.731	7529
506.804	8273
506.877	12710
506.950	9641
507.022	7173
507.095	7811
507.168	10948
507.241	7882
507.313	6011
507.386	6768
507.459	10883
507.531	7633
507.604	5619
507.677	6831
507.749	4078
507.822	8558
507.894	17328
507.967	22707
508.040	12642
508.112	11256
508.185	10634
508.257	8952
508.330	15196
508.402	9158
508.475	8640
508.547	9585
508.620	10571
508.692	15264
508.765	9576
508.837	7188
508.909	7729
508.982	7445
509.054	9602
509.127	8315
509.199	7602
509.271	6633
509.344	7098
509.416	7288
509.488	8286
509.560	7648
509.633	7867
509.705	10093
509.777	9012
509.849	13105
509.922	9425
509.994	7343
510.066	8003
510.138	7636
510.210	18428
510.283	16235
510.355	12864
510.427	11774
510.499	11560
510.571	11468
510.643	10901
510.715	17935
510.787	14102
510.859	12148
510.931	12818
511.003	17523
511.076	14934
511.148	9541
511.219	8268
511.291	13804
511.363	16593
511.435	10031
511.507	7061
511.579	9454
511.651	8857
511.723	8244
511.795	8752
511.867	8867
511.939	10221
512.010	19445
512.082	16556
512.154	8589
512.226	9586
512.298	15100
512.369	20691
512.441	17172
512.513	15744
512.585	12846
512.656	12773
512.728	13290
512.800	10318
512.871	11669
512.943	10159
513.015	9810
513.086	10480
513.158	11482
513.230	11129
513.301	15448
513.373	19785
513.444	11871
513.516	10272
513.588	9820
513.659	12042
513.731	14321
513.802	11722
513.874	24145
513.945	43229
514.016	15299
514.088	9989
514.159	10472
514.231	14322
514.302	20301
514.374	14617
514.445	12437
514.516	23724
514.588	17719
514.659	13018
514.730	21902
514.802	18690
514.873	15247
514.944	16418
515.016	13925
515.087	15113
515.158	17100
515.229	22516
515.301	15840
515.372	20935
515.443	13516
515.514	11127
515.585	9342
515.656	10561
515.728	10334
515.799	9664
515.870	11039
515.941	11092
516.012	11102
516.083	16354
516.154	16793
516.225	22454
516.296	23179
516.367	21336
516.438	25118
516.509	31827
516.580	44022
516.651	140223
516.722	509423
516.793	230200
516.864	47038
516.935	42930
517.006	49647
517.077	63114
517.148	138392
517.219	543514
517.289	884996
517.360	206595
517.431	61237
517.502	22851
517.573	20831
517.643	19734
517.714	20814
517.785	22343
517.856	24178
517.926	31002
517.997	39151
518.068	48639
518.138	64657
518.209	91248
518.280	339405
518.350	1238801
518.421	538202
518.492	67380
518.562	34288
518.633	29397
518.703	26711
518.774	42802
518.845	93273
518.915	95826
518.986	35112
519.056	26154
519.127	38463
519.197	54694
519.268	110602
519.338	71453
519.408	20243
519.479	25739
519.549	18773
519.620	14314
519.690	10344
519.760	11098
519.831	11711
519.901	11441
519.971	10325
520.042	9490
520.112	11726
520.182	14688
520.253	16034
520.323	11567
520.393	14849
520.463	25268
520.534	15163
520.604	35194
520.674	17344
520.744	15787
520.814	38045
520.885	34973
520.955	33742
521.025	122180
521.095	51275
521.165	11962
521.235	10114
521.305	8418
521.375	9516
521.445	10580
521.515	12788
521.585	16968
521.655	14142
521.725	11928
521.795	12277
521.865	7346
521.935	14182
522.005	11355
522.075	7767
522.145	10200
522.215	9209
522.285	14251
522.355	19098
522.424	33608
522.494	29172
522.564	15996
522.634	30489
522.704	96211
522.774	36679
522.843	11736
522.913	9839
522.983	13201
523.053	10573
523.122	10469
523.192	12821
523.262	50927
523.331	49364
523.401	10993
523.471	7817
523.540	8975
523.610	6394
523.680	7041
523.749	7291
523.819	9255
523.888	9513
523.958	6664
524.027	7852
524.097	7687
524.166	7778
524.236	9072
524.305	9662
524.375	6794
524.444	6629
524.514	9455
524.583	7670
524.653	9815
524.722	10931
524.791	7089
524.861	9342
524.930	5691
524.999	6969
525.069	12140
525.138	9098
525.207	10799
525.277	8807
525.346	8122
525.415	8459
525.484	7708
525.554	8908
525.623	11213
525.692	10255
525.761	11851
525.830	12476
525.900	13657
525.969	21824
526.038	33360
526.107	61919
526.176	188719
526.245	160521
526.314	54282
526.383	99000
526.452	134815
526.522	219349
526.591	233527
526.660	69730
526.729	37213
526.797	38738
526.867	69669
526.935	302243
527.004	525174
527.073	296139
527.142	31829
527.211	14724
527.280	13496
527.349	13718
527.418	6987
527.487	8994
527.555	6383
527.624	6745
527.693	4936
527.762	7966
527.831	6050
527.899	6924
527.968	7173
528.037	5536
528.106	7654
528.174	16836
528.243	11967
528.312	16806
528.380	23142
528.449	8029
528.518	6785
528.586	4377
528.655	6679
528.723	5533
528.792	4252
528.861	6004
528.929	4856
528.998	6059
529.066	4930
529.135	5191
529.203	4743
529.272	4054
529.340	5850
529.409	7531
529.477	4784
529.545	6537
529.614	9317
529.682	7744
529.751	9216
529.819	12521
529.887	7457
529.956	5363
530.024	7104
530.092	5198
530.161	8351
530.229	12205
530.297	6906
530.365	6462
530.434	5856
530.502	4998
530.570	5479
530.638	3860
530.707	6571
530.775	8089
530.843	4840
530.911	5541
530.979	5493
531.047	5440
531.115	6031
531.183	6257
531.252	5340
531.320	5631
531.388	4998
531.456	5432
531.524	3576
531.592	6746
531.660	7225
531.728	4704
531.796	4221
531.864	5984
531.932	5524
532.000	4861
532.067	5874
532.135	7865
532.203	8596
532.271	9269
532.339	15171
532.407	40591
532.475	24783
532.542	13707
532.610	12991
532.678	16067
532.746	70763
532.814	186831
532.881	46698
532.949	11009
533.017	7674
533.084	7003
533.152	6714
533.220	7163
533.287	7348
533.355	6176
533.423	5717
533.490	5681
533.558	5467
533.625	6452
533.693	6906
533.761	7340
533.828	6187
533.896	6584
533.963	14325
534.031	17723
534.098	26109
534.166	11557
534.233	7579
534.300	7861
534.368	7786
534.435	7181
534.503	6664
534.570	9496
534.637	8102
534.705	9860
534.772	11038
534.840	18415
534.907	82683
534.974	113618
535.041	16042
535.109	11356
535.176	7716
535.243	7742
535.310	6834
535.378	7291
535.445	6530
535.512	6445
535.579	6632
535.646	5349
535.714	6813
535.781	9037
535.848	7830
535.915	8497
535.982	6578
536.049	7287
536.116	8580
536.183	7085
536.250	7543
536.317	7352
536.384	9300
536.451	13929
536.518	14444
536.585	10202
536.652	13711
536.719	19049
536.786	14325
536.853	12438
536.920	15991
536.987	25918
537.053	24976
537.120	93260
537.187	81089
537.254	11270
537.321	8506
537.388	10339
537.454	6784
537.521	7368
537.588	7056
537.654	9000
537.721	9259
537.788	10601
537.855	7648
537.921	9361
537.988	8327
538.055	9711
538.121	6451
538.188	9140
538.254	13866
538.321	26530
538.388	17463
538.454	9178
538.521	8735
538.587	7392
538.654	7450
538.720	7041
538.787	6979
538.853	8589
538.920	10235
538.986	10637
539.053	9130
539.119	10315
539.185	8844
539.252	11448
539.318	15477
539.385	13385
539.451	10525
539.517	12228
539.583	13675
539.650	26770
539.716	69822
539.782	21286
539.849	9010
539.915	10203
539.981	9666
540.047	11814
540.114	9999
540.180	11157
540.246	10748
540.312	14010
540.378	25521
540.444	27101
540.510	28096
540.576	79767
540.643	25588
540.709	9845
540.775	9765
540.841	8930
540.907	11744
540.973	17558
541.039	16965
541.105	18448
541.171	11045
541.237	8660
541.303	10271
541.369	12372
541.435	13175
541.500	23563
541.566	15025
541.632	10026
541.698	7931
541.764	9250
541.830	7485
541.896	7416
541.961	9581
542.027	9343
542.093	9568
542.159	10156
542.224	9547
542.290	14173
542.356	22756
542.421	27276
542.487	14528
542.553	9853
542.618	11994
542.684	10030
542.750	10574
542.815	12196
542.881	19306
542.947	69115
543.012	51150
543.078	10684
543.143	9381
543.209	10198
543.274	10228
543.340	12180
543.405	26296
543.471	42211
543.536	12961
543.602	8932
543.667	7889
543.732	9600
543.798	6909
543.863	9440
543.928	7982
543.994	7994
544.059	8211
544.124	8481
544.190	8146
544.255	10049
544.320	9803
544.386	9480
544.451	13761
544.516	15169
544.581	14861
544.646	41381
544.712	67235
544.777	16008
544.842	10627
544.907	11232
544.972	10858
545.037	10691
545.102	11249
545.168	11612
545.233	12548
545.298	12708
545.363	14035
545.428	15700
545.493	26108
545.558	56806
545.623	24345
545.688	12511
545.753	11933
545.818	11205
545.883	11643
545.947	11287
546.012	12674
546.077	12445
546.142	12669
546.207	13232
546.272	16555
546.337	16656
546.401	14719
546.466	13737
546.531	13128
546.596	14893
546.661	15550
546.725	15440
546.790	13946
546.855	14717
546.919	14655
546.984	17674
547.049	18064
547.113	21818
547.178	20262
547.243	24127
547.307	26987
547.372	31287
547.436	31398
547.501	28723
547.565	31389
547.630	31915
547.695	32357
547.759	32438
547.823	30452
547.888	28957
547.952	28555
548.017	29909
548.081	33374
548.146	36445
548.210	33988
548.274	33102
548.339	32322
548.403	31271
548.468	28116
548.532	27798
548.596	29815
548.660	29044
548.725	32118
548.789	35862
548.853	36342
548.917	31945
548.982	34281
549.046	33576
549.110	26177
549.174	26096
549.238	29354
549.303	31589
549.367	33886
549.431	31362
549.495	30148
549.559	30421
549.623	34480
549.687	39317
549.751	44028
549.815	44942
549.879	43791
549.943	40919
550.007	44195
550.071	44275
550.135	44035
550.199	39884
550.263	37413
550.327	38076
550.391	41408
550.455	40231
550.519	41143
550.582	45180
550.646	54115
550.710	55353
550.774	49101
550.838	48995
550.901	50924
550.965	53788
551.029	56587
551.093	60524
551.156	67754
551.220	88589
551.284	101615
551.347	71540
551.411	77980
551.475	79265
551.538	54921
551.602	48106
551.666	46255
551.729	42130
551.793	42669
551.856	41663
551.920	42086
551.983	41403
552.047	41561
552.110	40999
552.174	41458
552.237	43123
552.301	40384
552.364	38982
552.428	38317
552.491	39155
552.554	40523
552.618	40649
552.681	42566
552.745	43587
552.808	59928
552.871	77639
552.934	53136
552.998	42045
553.061	39333
553.124	38898
553.187	38120
553.251	38821
553.314	38439
553.377	38105
553.440	40961
553.503	46134
553.567	49196
553.630	41581
553.693	39654
553.756	41619
553.819	38703
553.882	39144
553.945	38644
554.008	37879
554.071	37658
554.134	40081
554.197	37232
554.260	36798
554.323	37808
554.386	37872
554.449	38463
554.512	39139
554.575	37476
554.638	37801
554.701	36590
554.764	36058
554.827	35283
554.889	32666
554.952	31092
555.015	31697
555.078	31705
555.141	32204
555.203	31907
555.266	31853
555.329	32528
555.391	30165
555.454	30623
555.517	31188
555.580	28198
555.642	27919
555.705	26826
555.768	27527
555.830	26082
555.893	25106
555.955	25581
556.018	24509
556.080	23492
556.143	25323
556.206	24545
556.268	26093
556.330	25377
556.393	25307
556.455	24064
556.518	27605
556.580	28181
556.643	22179
556.705	21911
556.767	20741
556.830	22421
556.892	22493
556.955	29092
557.017	24109
557.079	21251
557.142	21120
557.204	21882
557.266	35327
557.328	30395
557.391	18638
557.453	18007
557.515	19147
557.577	20569
557.639	22464
557.701	19815
557.764	18101
557.826	18832
557.888	21249
557.950	20787
558.012	23948
558.074	26919
558.136	59011
558.198	144871
558.260	56077
558.322	25116
558.384	26905
558.446	29137
558.508	34655
558.570	40032
558.632	58033
558.694	79228
558.756	88695
558.818	259991
558.880	665317
558.942	218850
559.003	157516
559.065	81425
559.127	35407
559.189	35367
559.251	38447
559.312	50941
559.374	122929
559.436	423387
559.498	217513
559.559	40520
559.621	34549
559.683	38372
559.744	60553
559.806	193199
559.868	300178
559.929	61128
559.991	35617
560.052	49606
560.114	138470
560.176	89193
560.237	77524
560.299	130850
560.360	34360
560.422	15797
560.483	15598
560.545	14208
560.606	12869
560.667	12301
560.729	12501
560.790	11407
560.852	11847
560.913	11744
560.974	12243
561.036	12168
561.097	12962
561.158	12215
561.220	13151
561.281	11514
561.342	12629
561.403	14717
561.465	17933
561.526	37959
561.587	49103
561.648	16825
561.709	12662
561.771	11348
561.832	11857
561.893	11307
561.954	12547
562.015	11966
562.076	11808
562.137	10733
562.198	11779
562.259	11684
562.320	11653
562.381	13310
562.442	18251
562.503	14751
562.564	11314
562.625	11585
562.686	11253
562.747	11701
562.808	11818
562.869	10495
562.930	13913
562.991	12221
563.051	12030
563.112	11466
563.173	11423
563.234	10750
563.294	11228
563.355	10394
563.416	11794
563.477	10515
563.537	11146
563.598	11609
563.659	12521
563.720	11910
563.780	12762
563.841	12377
563.901	10945
563.962	11023
564.023	10411
564.083	12412
564.144	11382
564.204	10961
564.265	11665
564.325	13208
564.386	21726
564.446	20678
564.507	11305
564.567	11381
564.628	10911
564.688	10650
564.749	11293
564.809	11956
564.869	14185
564.930	11502
564.990	11561
565.050	10429
565.111	11108
565.171	11147
565.231	10910
565.292	11128
565.352	10535
565.412	12252
565.472	11988
565.532	12433
565.593	11482
565.653	11181
565.713	12168
565.773	12416
565.833	14950
565.893	18586
565.953	11918
566.013	11518
566.074	13255
566.134	15650
566.194	21254
566.254	23796
566.314	16520
566.374	12085
566.434	12655
566.494	13393
566.554	12374
566.614	13135
566.673	13295
566.733	13673
566.793	14579
566.853	15135
566.913	15119
566.973	15362
567.033	15484
567.092	15837
567.152	15692
567.212	14951
567.272	15817
567.331	16695
567.391	16510
567.451	17483
567.511	22501
567.570	21528
567.630	16143
567.690	16254
567.749	16088
567.809	17108
567.868	19040
567.928	21439
567.988	24001
568.047	27454
568.107	32765
568.166	43171
568.226	70327
568.285	100790
568.345	77130
568.404	58439
568.464	48787
568.523	45176
568.582	46145
568.642	51776
568.701	66542
568.761	102123
568.820	169931
568.879	153077
568.939	102945
568.998	69450
569.057	51191
569.116	41650
569.176	33449
569.235	27462
569.294	24318
569.353	21601
569.413	20823
569.472	18209
569.531	17996
569.590	16762
569.649	15988
569.708	14767
569.767	16254
569.827	17727
569.886	15959
569.945	12970
570.004	13951
570.063	13577
570.122	14132
570.181	13970
570.240	15253
570.299	16598
570.358	15537
570.417	12398
570.475	12344
570.534	12412
570.593	12329
570.652	12687
570.711	13926
570.770	12152
570.829	13344
570.887	12528
570.946	14998
571.005	12702
571.064	12723
571.122	14288
571.181	15057
571.240	12185
571.299	10933
571.357	11597
571.416	12001
571.475	13584
571.533	13315
571.592	11901
571.650	12212
571.709	10730
571.768	11433
571.826	11744
571.885	10746
571.943	10698
572.002	10703
572.060	11054
572.119	10068
572.177	9671
572.236	10233
572.294	9929
572.352	10720
572.411	9567
572.469	10644
572.528	9643
572.586	10462
572.644	11317
572.703	15371
572.761	11590
572.819	10187
572.877	10079
572.936	8827
572.994	9726
573.052	9803
573.110	9941
573.169	10377
573.227	9204
573.285	9236
573.343	9115
573.401	9775
573.459	9647
573.517	9734
573.576	10682
573.634	10492
573.692	10617
573.750	9844
573.808	8294
573.866	10162
573.924	12482
573.982	12615
574.040	10001
574.098	10035
574.155	8655
574.213	9068
574.271	8962
574.329	9721
574.387	9025
574.445	9562
574.503	7962
574.560	7356
574.618	8661
574.676	7896
574.734	7824
574.792	9140
574.849	8304
574.907	8108
574.965	7562
575.022	8417
575.080	8489
575.138	8788
575.195	7801
575.253	8690
575.311	10386
575.368	9518
575.426	7581
575.483	9026
575.541	8742
575.598	7599
575.656	9150
575.713	9427
575.771	8340
575.828	8874
575.886	8792
575.943	9293
576.001	8901
576.058	9880
576.115	9133
576.173	11173
576.230	12193
576.287	14042
576.345	10962
576.402	9217
576.459	9013
576.517	10698
576.574	11235
576.631	10628
576.688	9916
576.746	9475
576.803	9243
576.860	8753
576.917	9307
576.974	9394
577.031	8886
577.089	9367
577.146	9490
577.203	9684
577.260	10014
577.317	9753
577.374	10689
577.431	10929
577.488	9156
577.545	8880
577.602	8714
577.659	8615
577.716	8738
577.773	8585
577.830	8117
577.886	9042
577.943	8713
578.000	8643
578.057	9800
578.114	9740
578.171	8981
578.227	8994
578.284	8470
578.341	9747
578.398	7629
578.454	10423
578.511	11618
578.568	11756
578.625	9616
578.681	8856
578.738	8662
578.794	9430
578.851	9276
578.908	10664
578.964	9965
579.021	10338
579.077	9609
579.134	9541
579.190	9295
579.247	10269
579.303	9071
579.360	9520
579.416	8215
579.473	9431
579.529	8159
579.586	9063
579.642	8880
579.698	10098
579.755	10004
579.811	10810
579.867	10430
579.924	8541
579.980	8507
580.036	10085
580.093	9337
580.149	9841
580.205	10292
580.261	10549
580.317	10794
580.374	10895
580.430	13296
580.486	11327
580.542	10089
580.598	10192
580.619	10063
580.654	9847
580.692	10020
580.710	10119
580.765	9666
580.767	9658
580.823	10853
580.838	10817
580.879	10766
580.911	10376
580.935	10086
580.984	9406
580.991	9331
581.047	10842
581.057	10691
581.103	10013
581.130	10352
581.159	10703
581.203	10274
581.215	10183
581.270	10597
581.276	10540
581.326	9991
581.349	9984
581.382	9972
581.422	10543
581.438	10814
581.494	10761
581.494	10750
581.550	9952
581.567	10413
581.606	11320
581.640	10584
581.661	10185
581.713	11707
581.717	11836
581.773	10552
581.786	10617
581.829	10764
581.859	10906
581.885	11098
581.932	11291
581.940	11327
581.996	11326
582.004	11315
582.052	11131
582.077	10864
582.107	10604
582.150	10802
582.163	10867
582.219	10887
582.223	10916
582.274	11364
582.296	11417
582.330	11425
582.368	11903
582.386	12148
582.441	10546
582.441	10544
582.497	11818
582.514	11495
582.552	10961
582.587	11602
582.608	11970
582.659	11584
582.663	11539
582.719	11612
582.732	11573
582.774	11615
582.805	11851
582.830	11960
582.877	11946
582.885	11959
582.941	11786
582.950	11715
582.996	11397
583.023	12178
583.052	13143
583.095	12560
583.107	12344
583.162	12675
583.168	12695
583.218	12717
583.240	12543
583.273	12319
583.313	11976
583.328	11989
583.384	12250
583.385	12265
583.439	12118
583.458	12025
583.494	12078
583.531	11946
583.549	11891
583.603	12734
583.605	12756
583.660	12316
583.676	12357
583.715	12469
583.748	12443
583.770	12459
583.820	13148
583.825	13184
583.881	12639
583.893	12517
583.936	12607
583.965	13031
583.991	13036
584.038	13191
584.046	13336
584.101	13859
584.110	13974
584.156	14207
584.183	13758
584.211	13207
584.255	14182
584.266	14466
584.321	13266
584.328	13347
584.376	14007
584.400	14164
584.431	14359
584.472	13784
584.486	13599
584.541	14221
584.545	14230
584.596	14339
584.617	14418
584.651	14904
584.689	15553
584.706	15626
584.761	15196
584.762	15199
584.816	15867
584.834	15874
584.871	16061
584.906	16476
584.926	16691
584.978	16757
584.980	16776
585.035	18145
585.051	18442
585.090	18872
585.123	19862
585.145	20639
585.195	20369
585.200	20379
585.254	21949
585.267	22719
585.309	25429
585.340	26420
585.364	27001
585.412	29056
585.419	29447
585.473	32824
585.484	33777
585.528	39513
585.556	45488
585.583	58275
585.628	88321
585.637	99684
585.692	198514
585.700	216455
585.747	279247
585.772	240355
585.801	152674
585.845	56812
585.856	45972
585.910	31817
585.917	30365
585.965	27409
585.989	26129
586.019	24814
586.061	24205
586.074	24356
586.128	24744
586.133	24910
586.183	26448
586.205	26507
586.237	26455
586.277	26108
586.292	25989
586.346	26512
586.349	26468
586.401	25994
586.421	26262
586.455	27126
586.493	28269
586.509	29934
586.564	36731
586.565	36956
586.618	49358
586.637	50611
586.672	44613
586.709	36774
586.727	34653
586.781	33301
586.781	33314
586.835	31578
586.853	31110
586.889	30801
586.925	30621
586.944	30805
586.996	31716
586.998	31775
587.052	33483
587.068	33905
587.106	34242
587.140	34514
587.161	35025
587.212	35779
587.215	35848
587.269	38051
587.284	38491
587.323	39264
587.356	39671
587.377	40357
587.427	42351
587.431	42508
587.485	44656
587.499	45061
587.539	46003
587.571	46457
587.593	47350
587.643	50808
587.648	51188
587.702	54377
587.715	55182
587.755	57757
587.786	59814
587.810	61524
587.858	64785
587.864	65315
587.917	71057
587.930	72504
587.971	78917
588.001	83581
588.025	86948
588.073	93501
588.079	94659
588.133	105069
588.145	107698
588.187	118722
588.217	127071
588.241	135801
588.288	154167
588.295	156843
588.348	179868
588.360	184990
588.402	208606
588.431	226778
588.456	245609
588.503	283375
588.510	290036
588.564	348325
588.575	361509
588.617	430243
588.646	481801
588.671	548981
588.718	689646
588.725	725074
588.778	1019877
588.789	1084527
588.832	1447580
588.861	1695998
588.886	1829086
588.932	1990000
588.939	1974533
588.993	1741359
589.004	1730931
589.047	1861438
589.075	1856965
589.100	1634081
589.147	1158486
589.154	1116242
589.207	829120
589.218	775772
589.261	704189
589.290	666861
589.314	687296
589.361	744697
589.368	773878
589.421	1036184
589.433	1097056
589.475	1461301
589.504	1710250
589.528	1773954
589.576	1789494
589.582	1774093
589.635	1675478
589.647	1629070
589.689	1204572
589.718	891983
589.742	738884
589.790	470407
589.795	456417
589.849	340164
589.861	314940
589.902	269873
589.932	237948
589.955	217710
590.004	176805
590.009	174594
590.062	151734
590.075	146204
590.115	133370
590.146	123810
590.168	118864
590.218	107616
590.222	107064
590.275	99247
590.289	97213
590.328	92674
590.360	88723
590.381	86254
590.431	79984
590.435	79815
590.488	75668
590.503	74653
590.541	72880
590.574	70793
590.594	69426
590.645	66115
590.647	66098
590.700	63203
590.716	62203
590.753	60348
590.787	58757
590.806	58370
590.859	56933
590.859	56982
590.912	54836
590.930	54184
590.965	54067
591.001	53607
591.018	53098
591.071	51472
591.072	51378
591.124	50488
591.143	50024
591.177	49517
591.214	48968
591.230	49122
591.283	49502
591.285	49429
591.336	49828
591.356	49960
591.389	49424
591.427	48466
591.442	47772
591.495	44827
591.498	44548
591.547	44029
591.569	43680
591.600	43222
591.640	42405
591.653	42404
591.706	42196
591.711	42100
591.759	43761
591.782	44564
591.811	45585
591.853	46797
591.864	46418
591.917	43946
591.924	43512
591.969	42406
591.995	41701
592.022	42026
592.066	42289
592.075	42804
592.127	45608
592.137	46050
592.180	47564
592.208	48314
592.233	46469
592.279	42652
592.285	42568
592.338	41272
592.350	40901
592.390	40252
592.421	39637
592.443	39983
592.491	40514
592.495	40549
592.548	40008
592.562	39787
592.600	39695
592.633	39488
592.653	39507
592.704	39153
592.705	39372
592.775	39073
592.846	40829
592.916	41151
592.987	42823
593.058	40341
593.128	38046
593.199	38585
593.270	39563
593.341	39021
593.411	39299
593.482	38310
593.553	39789
593.623	38480
593.694	39024
593.764	42088
593.835	39209
593.906	39452
593.976	38736
594.047	40372
594.117	46004
594.188	45313
594.258	39965
594.329	38840
594.399	39757
594.470	39657
594.540	41154
594.611	40934
594.681	40751
594.751	40780
594.822	44608
594.892	44927
594.963	44048
595.033	43119
595.103	45058
595.174	47019
595.244	58200
595.314	64873
595.384	47667
595.455	46438
595.525	46780
595.595	49019
595.665	48988
595.736	47825
595.806	48235
595.876	49108
595.946	47856
596.016	48002
596.087	49520
596.157	50545
596.227	50046
596.297	53042
596.367	55502
596.437	60052
596.507	67492
596.577	72855
596.647	60387
596.717	59073
596.787	60371
596.857	59373
596.927	60472
596.997	59676
597.067	60521
597.137	62250
597.207	62022
597.277	62097
597.347	60076
597.417	58570
597.487	60343
597.557	61871
597.626	62626
597.696	64913
597.766	68404
597.836	73660
597.906	59421
597.975	54540
598.045	55904
598.115	57541
598.185	60099
598.254	67225
598.324	72732
598.394	74538
598.464	71747
598.533	69069
598.603	64406
598.672	65314
598.742	65558
598.812	64784
598.881	65298
598.951	64378
599.020	64740
599.090	67525
599.159	68996
599.229	65344
599.299	63261
599.368	65968
599.437	65594
599.507	60608
599.576	60978
599.646	58796
599.715	58179
599.785	58099
599.854	58479
599.924	60169
599.993	58804
600.062	57293
600.132	58318
600.201	62119
600.270	71579
600.340	71994
600.409	69390
600.478	69788
600.547	70898
600.617	66065
600.686	56268
600.755	52652
600.824	52276
600.894	49586
600.963	47886
601.032	47341
601.101	47478
601.170	45878
601.239	45389
601.308	47123
601.378	46329
601.447	44870
601.516	44699
601.585	46916
601.654	49863
601.723	47377
601.792	45974
601.861	48144
601.930	51331
601.999	53785
602.068	51702
602.137	53327
602.206	53032
602.275	52402
602.343	57471
602.412	57232
602.481	51082
602.550	51289
602.619	53018
602.688	53690
602.756	54006
602.825	52971
602.894	55069
602.963	55071
603.032	55730
603.100	55187
603.169	55699
603.238	55454
603.307	56780
603.375	56213
603.444	57034
603.513	58133
603.581	59150
603.650	59066
603.719	57897
603.787	59664
603.856	60990
603.924	61966
603.993	64094
604.061	64944
604.130	68426
604.198	69348
604.267	70933
604.335	71031
604.404	70485
604.472	72531
604.541	72159
604.609	73234
604.678	73374
604.746	74296
604.815	77135
604.883	78014
604.951	78358
605.020	77659
605.088	78973
605.156	80176
605.225	83166
605.293	81224
605.361	81070
605.429	82963
605.498	84822
605.566	87090
605.634	90802
605.702	92944
605.771	94863
605.839	95719
605.907	92917
605.975	90810
606.043	87596
606.111	89389
606.180	88999
606.248	87331
606.316	86581
606.384	88226
606.452	93476
606.520	97068
606.588	93611
606.656	90202
606.724	89573
606.792	83353
606.860	76666
606.928	69211
606.996	67584
607.064	66322
607.132	67759
607.200	72608
607.267	74833
607.335	75325
607.403	76509
607.471	74029
607.539	73307
607.607	74038
607.674	64551
607.742	66305
607.810	66944
607.878	66199
607.946	65655
608.013	69417
608.081	71053
608.149	71070
608.216	72327
608.284	76706
608.352	75038
608.419	76000
608.487	81451
608.555	73714
608.622	74646
608.690	77824
608.757	86279
608.825	88008
608.893	85567
608.960	84864
609.028	85650
609.095	87801
609.163	79192
609.230	71262
609.298	65326
609.365	66732
609.432	71742
609.500	78659
609.567	91282
609.635	102913
609.702	106834
609.769	103531
609.837	83830
609.904	71789
609.971	73217
610.039	85770
610.106	117610
610.173	230407
610.241	539791
610.308	367482
610.375	170287
610.442	87319
610.509	75458
610.577	74578
610.644	73856
610.711	75188
610.778	77767
610.845	79936
610.912	85288
610.980	88761
611.047	86910
611.114	87633
611.181	83459
611.248	82141
611.315	87665
611.382	88443
611.449	92916
611.516	93080
611.583	93155
611.650	93032
611.717	95177
611.784	97082
611.851	102784
611.918	112660
611.984	133392
612.051	200587
612.118	431193
612.185	1079498
612.252	619363
612.319	152418
612.386	122796
612.452	112486
612.519	109886
612.586	114347
612.653	110248
612.719	110637
612.786	104464
612.853	96416
612.919	94775
612.986	97549
613.053	90214
613.120	85586
613.186	82263
613.253	84317
613.319	83146
613.386	83901
613.453	86850
613.519	91163
613.586	93999
613.652	106576
613.719	96178
613.785	93489
613.852	87966
613.918	84487
613.985	87272
614.051	91437
614.118	94806
614.184	88525
614.250	84567
614.317	88014
614.383	85716
614.449	86619
614.516	88062
614.582	88765
614.648	85482
614.715	84895
614.781	84080
614.847	84572
614.914	85469
614.980	82579
615.046	81794
615.112	83428
615.179	85107
615.245	87942
615.311	94316
615.377	113327
615.443	113811
615.509	94915
615.575	94605
615.642	90885
615.708	95262
615.774	100524
615.840	110297
615.906	124156
615.972	168344
616.038	292175
616.104	580361
616.170	1337613
616.236	1052381
616.302	224232
616.368	159968
616.434	117551
616.500	109446
616.565	121909
616.631	149114
616.697	121676
616.763	127652
616.829	192520
616.895	340075
616.961	308639
617.026	129622
617.092	93842
617.158	91393
617.224	88541
617.289	83848
617.355	78660
617.421	78360
617.487	79410
617.552	74503
617.618	73571
617.684	73386
617.749	74895
617.815	72099
617.880	68082
617.946	68602
618.012	73169
618.077	73371
618.143	69636
618.208	70607
618.274	75670
618.339	76695
618.405	63701
618.470	65940
618.536	65445
618.601	66494
618.667	62119
618.732	58606
618.798	57085
618.863	56771
618.928	56972
618.994	59293
619.059	61139
619.124	71494
619.190	60976
619.255	56660
619.320	56994
619.386	56821
619.451	54758
619.516	53277
619.581	54598
619.647	55610
619.712	55661
619.777	54539
619.842	55326
619.907	55988
619.972	57268
620.038	56995
620.103	53871
620.168	53917
620.233	55009
620.298	53118
620.363	56252
620.428	56390
620.493	57538
620.558	57272
620.623	58293
620.688	59557
620.753	57260
620.818	59399
620.883	59372
620.948	59553
621.013	59915
621.078	58954
621.143	59116
621.207	61623
621.272	60210
621.337	61453
621.402	60895
621.467	67567
621.532	66555
621.596	61811
621.661	58704
621.726	56561
621.791	58269
621.855	59173
621.920	60674
621.985	61466
622.049	66115
622.114	63003
622.179	61642
622.243	62850
622.308	63647
622.373	66245
622.437	65372
622.502	61196
622.566	59979
622.631	59388
622.695	62884
622.760	61345
622.824	61118
622.889	62955
622.953	66064
623.018	80794
623.082	79623
623.147	65954
623.211	64526
623.276	64649
623.340	60467
623.404	58041
623.469	57952
623.533	58929
623.597	57334
623.662	57291
623.726	54010
623.790	50821
623.854	49918
623.919	51111
623.983	52002
624.047	53880
624.111	53030
624.176	54392
624.240	56774
624.304	59837
624.368	53657
624.432	53688
624.496	55552
624.560	60530
624.625	62674
624.689	58020
624.753	58443
624.817	56243
624.881	54361
624.945	51014
625.009	50673
625.073	50687
625.137	55895
625.201	62307
625.265	60725
625.329	52883
625.393	54067
625.456	53446
625.520	55321
625.584	58372
625.648	64220
625.712	80013
625.776	129811
625.839	138250
625.903	69145
625.967	51085
626.031	68198
626.095	93652
626.158	55967
626.222	41489
626.286	39915
626.349	37489
626.413	35688
626.477	38602
626.540	37405
626.604	35464
626.668	36446
626.731	34832
626.795	36882
626.858	37077
626.922	35380
626.986	36017
627.049	32652
627.113	36206
627.176	34863
627.240	33300
627.303	34640
627.366	33956
627.430	35322
627.493	34921
627.557	33470
627.620	35731
627.684	35475
627.747	36256
627.810	31883
627.874	31373
627.937	30164
628.000	33020
628.064	31678
628.127	27279
628.190	27822
628.253	28885
628.317	26710
628.380	26589
628.443	25227
628.506	26142
628.569	24296
628.632	22944
628.696	23900
628.759	23947
628.822	22260
628.885	23333
628.948	22670
629.011	23251
629.074	22554
629.137	20894
629.200	21058
629.263	23516
629.326	19644
629.389	21389
629.452	21397
629.515	22405
629.578	20962
629.641	23357
629.704	22099
629.767	21859
629.830	20310
629.892	20830
629.955	20133
630.018	22801
630.081	22416
630.144	28831
630.207	22144
630.269	23001
630.332	22331
630.395	20975
630.458	19511
630.520	18774
630.583	19985
630.646	19124
630.708	18952
630.771	18043
630.834	20235
630.896	18261
630.959	18971
631.021	18014
631.084	19922
631.146	20265
631.209	21921
631.272	19143
631.334	19044
631.397	19387
631.459	20146
631.522	21048
631.584	20991
631.646	22485
631.709	22758
631.771	28383
631.834	23634
631.896	20693
631.958	17626
632.021	19451
632.083	17554
632.145	18908
632.208	18219
632.270	18663
632.332	17528
632.395	17147
632.457	18711
632.519	18004
632.581	18375
632.643	16903
632.706	18219
632.768	16474
632.830	17207
632.892	16686
632.954	16510
633.016	18717
633.078	17298
633.141	16768
633.203	16843
633.265	17779
633.327	17101
633.389	17529
633.451	20613
633.513	22122
633.575	21208
633.637	21267
633.698	19818
633.760	18560
633.822	18970
633.884	18700
633.946	18346
634.008	19298
634.070	19647
634.132	20693
634.193	21454
634.255	23569
634.317	22524
634.379	24374
634.441	21160
634.502	19850
634.564	19204
634.626	17489
634.687	17067
634.749	16984
634.811	17016
634.873	16177
634.934	16467
634.996	17768
635.057	16454
635.119	15626
635.181	16951
635.242	17554
635.304	15550
635.365	18180
635.427	16295
635.488	16731
635.550	14926
635.611	17436
635.673	15165
635.734	18608
635.796	18239
635.857	20700
635.918	18886
635.980	22467
636.041	22849
636.102	24802
636.164	24971
636.225	24000
636.286	19975
636.348	18728
636.409	17501
636.470	17127
636.531	16337
636.593	17792
636.654	16184
636.715	15365
636.776	14355
636.838	13169
636.899	15830
636.960	14495
637.021	13512
637.082	14036
637.143	13713
637.204	12179
637.265	13030
637.326	14370
637.387	13949
637.448	12338
637.509	14074
637.570	13201
637.631	13739
637.692	12663
637.753	11525
637.814	13330
637.875	12913
637.936	12491
637.997	13091
638.058	13924
638.119	13729
638.179	12735
638.240	11387
638.301	12560
638.362	11669
638.423	12596
638.483	13048
638.544	10625
638.605	12634
638.666	10809
638.726	12160
638.787	12164
638.848	11608
638.908	12024
638.969	12037
639.030	11875
639.090	10694
639.151	10901
639.211	13178
639.272	16798
639.332	23603
639.393	15853
639.453	11908
639.514	12970
639.574	12115
639.635	11229
639.695	12458
639.756	10967
639.816	11748
639.877	14036
639.937	22554
639.997	26485
640.058	11671
640.118	10118
640.178	11339
640.239	9892
640.299	10517
640.359	10261
640.420	10956
640.480	13338
640.540	12899
640.600	12606
640.661	12844
640.721	13201
640.781	16334
640.841	11861
640.901	11668
640.961	12007
641.021	12072
641.082	14678
641.142	18405
641.202	13508
641.262	8853
641.322	10405
641.382	9805
641.442	10830
641.502	9522
641.562	10935
641.622	9823
641.682	11332
641.742	12518
641.802	11567
641.861	11460
641.921	11734
641.981	13582
642.041	12048
642.101	13854
642.161	9873
642.221	9085
642.280	10101
642.340	9105
642.400	9886
642.460	10252
642.519	9282
642.579	9253
642.639	10948
642.698	7413
642.758	12179
642.818	10867
642.877	9956
642.937	10503
642.997	11870
643.056	17147
643.116	9502
643.175	11162
643.235	9268
643.294	10413
643.354	12158
643.414	12230
643.473	15345
643.532	18243
643.592	25299
643.651	42210
643.711	78077
643.770	159887
643.830	403519
643.889	837019
643.948	171800
644.008	29307
644.067	18654
644.126	14981
644.186	13661
644.245	11080
644.304	9787
644.363	12479
644.423	8631
644.482	10844
644.541	11131
644.600	8829
644.659	14450
644.719	15110
644.778	25122
644.837	41731
644.896	86511
644.955	195439
645.014	58266
645.073	14360
645.132	11213
645.191	11328
645.250	10709
645.309	12314
645.368	11893
645.427	15365
645.486	22962
645.545	39836
645.604	13536
645.663	9884
645.722	9999
645.781	11487
645.840	12522
645.898	16120
645.957	25100
646.016	38033
646.075	72859
646.134	146915
646.192	406815
646.251	574127
646.310	73597
646.369	21435
646.427	18176
646.486	13540
646.545	11303
646.603	10111
646.662	10347
646.721	9718
646.779	9068
646.838	8805
646.896	12573
646.955	16366
647.014	23747
647.072	44947
647.131	124570
647.189	54213
647.248	10437
647.306	9209
647.365	9017
647.423	6987
647.481	8562
647.540	6066
647.598	7904
647.657	6458
647.715	7973
647.773	5985
647.832	7926
647.890	5921
647.948	6273
648.007	7225
648.065	5929
648.123	5942
648.181	7689
648.240	6314
648.298	6652
648.356	6342
648.414	6978
648.472	7242
648.531	7096
648.589	6295
648.647	6736
648.705	5832
648.763	7241
648.821	6539
648.879	7289
648.937	7618
648.995	9385
649.053	12091
649.111	19312
649.169	31782
649.227	56982
649.285	120935
649.343	353010
649.401	151751
649.459	36328
649.516	22109
649.574	10206
649.632	12887
649.690	12936
649.748	13174
649.806	16946
649.863	31185
649.921	85360
649.979	51078
650.037	10352
650.094	5953
650.152	7007
650.210	5781
650.268	7024
650.325	6476
650.383	6128
650.440	4677
650.498	6075
650.556	5285
650.613	4676
650.671	5259
650.728	5615
650.786	6285
650.843	7151
650.901	4557
650.958	5849
651.016	5180
651.073	4915
651.131	4457
651.188	4382
651.246	5178
651.303	3813
651.360	5411
651.418	4993
651.475	5543
651.532	4579
651.590	5561
651.647	4647
651.704	4087
651.762	5601
651.819	4993
651.876	4227
651.933	4410
651.990	5150
652.048	3311
652.105	3866
652.162	4618
652.219	4076
652.276	4523
652.333	4780
652.390	3218
652.448	4440
652.505	4231
652.562	3814
652.619	4289
652.676	4659
652.733	5954
652.790	3902
652.847	3088
652.904	4532
652.961	3042
653.017	3888
653.074	4196
653.131	4026
653.188	3919
653.245	4199
653.302	3868
653.359	4196
653.415	4032
653.472	3689
653.529	4345
653.586	3106
653.642	3534
653.699	4681
653.756	3383
653.813	3456
653.869	4573
653.926	2800
653.983	3738
654.039	4469
654.096	3037
654.152	4704
654.209	2406
654.266	4432
654.322	3378
654.379	4406
654.435	5567
654.492	5209
654.548	7010
654.605	11453
654.661	5689
654.717	3151
654.774	5049
654.830	4542
654.887	4075
654.943	4370
655.000	5139
655.056	3928
655.112	4640
655.168	3785
655.225	3502
655.281	5206
655.337	5729
655.394	9604
655.450	6893
655.506	6531
655.562	9378
655.618	8642
655.675	3371
655.731	4253
655.787	3858
655.843	4868
655.899	3246
655.955	4303
656.011	3794
656.067	3661
656.123	4304
656.179	4585
656.235	4749
656.291	3913
656.347	5822
656.403	4518
656.459	3962
656.515	5402
656.571	4324
656.627	4774
656.683	3801
656.739	4592
656.795	4368
656.850	4781
656.906	5234
656.962	5227
657.018	3634
657.074	3639
657.129	5529
657.185	6243
657.241	11486
657.297	6341
657.352	4697
657.408	3523
657.464	5282
657.519	4083
657.575	2153
657.630	4109
657.686	3159
657.742	3172
657.797	2886
657.853	3622
657.908	4687
657.964	2512
658.019	3640
658.075	4330
658.130	4216
658.186	2283
658.241	3779
658.297	3271
658.352	2644
658.407	4087
658.463	2887
658.518	4290
658.573	3426
658.629	3797
658.684	3457
658.739	4400
658.795	3102
658.850	3277
658.905	3728
658.960	3045
659.016	3065
659.071	3181
659.126	3693
659.181	5044
659.236	7060
659.291	7921
659.346	4378
659.401	4453
659.457	4013
659.512	3689
659.567	3767
659.622	2952
659.677	3910
659.732	3194
659.787	3325
659.842	4728
659.897	4469
659.952	3998
660.007	3229
660.061	3410
660.116	2206
660.171	3193
660.226	2572
660.281	3409
660.336	2758
660.391	3755
660.445	2471
660.500	3952
660.555	2984
660.610	2847
660.664	3938
660.719	2861
660.774	3666
660.828	3637
660.883	3443
660.938	3445
660.992	2453
661.047	3700
661.101	3393
661.156	3139
661.211	2881
661.265	2843
661.320	3018
661.374	3414
661.429	2726
661.483	3461
661.538	2353
661.592	1921
661.647	3084
661.701	3744
661.755	3163
661.810	4032
661.864	3042
661.919	2651
661.973	4313
662.027	3451
662.081	1802
662.136	2889
662.190	2970
662.244	3419
662.299	2758
662.353	2670
662.407	3389
662.461	3102
662.515	3831
662.569	3619
662.624	3705
662.678	3211
662.732	2763
662.786	3715
662.840	3437
662.894	4143
662.948	2540
663.002	2730
663.056	3188
663.110	2124
663.164	2219
663.218	2939
663.272	3303
663.326	3870
663.380	4285
663.434	3081
663.488	2701
663.542	2606
663.595	3616
663.649	2682
663.703	4071
663.757	3158
663.811	2301
663.864	3132
663.918	3576
663.972	2584
664.026	3366
664.079	3102
664.133	3597
664.187	2607
664.240	3415
664.294	3382
664.348	3065
664.401	3677
664.455	3027
664.508	3187
664.562	2416
664.615	3304
664.669	1761
664.722	3433
664.776	1997
664.829	3845
664.883	2941
664.936	2976
664.990	3325
665.043	3705
665.097	3244
665.150	4565
665.203	3212
665.257	3474
665.310	3261
665.363	4015
665.417	3519
665.470	3633
665.523	3438
665.576	3540
665.630	2503
665.683	3420
665.736	3377
665.789	2571
665.842	3178
665.895	3201
665.949	3469
666.002	2806
666.055	3740
666.108	3929
666.161	3300
666.214	3474
666.267	4138
666.320	4178
666.373	3691
666.426	3414
666.479	3084
666.532	3629
666.585	4749
666.638	5498
666.691	4301
666.744	4833
666.796	4196
666.849	3308
666.902	3011
666.955	4006
667.008	3222
667.060	3004
667.113	3270
667.166	3652
667.219	3663
667.271	3146
667.324	3556
667.377	2770
667.430	2911
667.482	3238
667.535	3647
667.587	4348
667.640	3922
667.693	4976
667.745	8001
667.798	8514
667.850	3232
667.903	3134
667.955	2938
668.008	4411
668.060	4790
668.113	4122
668.165	2952
668.218	4177
668.270	4380
668.322	4226
668.375	3325
668.427	4306
668.479	3830
668.532	4779
668.584	3271
668.636	3060
668.689	3615
668.741	3515
668.793	3776
668.845	3153
668.898	3999
668.950	3486
669.002	3674
669.054	4121
669.106	3352
669.158	4393
669.211	3906
669.263	3812
669.315	4129
669.367	4421
669.419	4206
669.471	5428
669.523	5456
669.575	6856
669.627	5644
669.679	3760
669.731	4649
669.783	4746
669.835	4404
669.886	4954
669.938	4624
669.990	4924
670.042	3388
670.094	4890
670.146	5895
670.197	6334
670.249	8582
670.301	9723
670.353	11937
670.404	17232
670.456	24956
670.508	42263
670.560	70130
670.611	122317
670.663	217227
670.715	509696
670.766	723452
670.818	221394
670.869	43929
670.921	21984
670.972	16394
671.024	11385
671.075	9980
671.127	7940
671.178	6684
671.230	6224
671.281	5923
671.333	5924
671.384	5494
671.436	6732
671.487	8275
671.538	8748
671.590	12765
671.641	18004
671.692	29794
671.744	55115
671.795	31574
671.846	11618
671.897	6847
671.949	6541
672.000	4411
672.051	4540
672.102	4398
672.153	3604
672.204	3466
672.256	4526
672.307	3149
672.358	4422
672.409	3449
672.460	4186
672.511	3282
672.562	3871
672.613	2863
672.664	3806
672.715	3331
672.766	3579
672.817	2222
672.868	3220
672.919	2726
672.970	3206
673.021	2786
673.071	2751
673.122	3567
673.173	3133
673.224	2613
673.275	3409
673.326	3148
673.376	3514
673.427	2937
673.478	2468
673.528	3469
673.579	3199
673.630	3310
673.680	3622
673.731	2339
673.782	2168
673.832	2394
673.883	3460
673.934	2220
673.984	3329
674.035	3473
674.085	3256
674.136	3214
674.186	3891
674.237	4341
674.287	6127
674.338	3752
674.388	2754
674.438	2657
674.489	2549
674.539	3444
674.589	3844
674.640	2933
674.690	3080
674.740	2746
674.791	3211
674.841	3732
674.891	3194
674.942	2564
674.992	2447
675.042	1984
675.092	2381
675.142	2461
675.193	2484
675.243	2327
675.293	3154
675.343	3391
675.393	3045
675.443	2669
675.493	2491
675.543	2008
675.593	3199
675.643	2658
675.693	3791
675.743	3264
675.793	2454
675.843	2366
675.893	2802
675.943	3312
675.993	1656
676.043	2529
676.093	3135
676.142	2700
676.192	2747
676.242	1408
676.292	2234
676.341	2736
676.391	2525
676.441	1911
676.491	2182
676.540	1785
676.590	2786
676.640	2333
676.689	2246
676.739	1663
676.789	2019
676.838	1867
676.888	2264
676.937	2123
676.987	1722
677.037	1264
677.086	2152
677.136	2691
677.185	1915
677.235	1614
677.284	1902
677.333	2485
677.383	844
677.432	1017
677.482	1959
677.531	2715
677.580	2266
677.630	2018
677.679	1065
677.728	2077
677.778	1839
677.827	2091
677.876	2378
677.925	1345
677.975	2227
678.024	2028
678.073	2147
678.122	1908
678.171	2487
678.220	1853
678.269	3413
678.319	2574
678.368	3681
678.417	2792
678.466	3160
678.515	2365
678.564	1522
678.613	2139
678.662	1407
678.711	2027
678.760	2718
678.809	1559
678.857	2297
678.906	1442
678.955	2537
679.004	2364
679.053	2254
679.102	1762
679.151	1978
679.199	1421
679.248	2121
679.297	1472
679.346	1599
679.394	2529
679.443	2014
679.492	1557
679.540	2218
679.589	2446
679.638	2118
679.686	2125
679.735	1606
679.784	1735
679.832	2007
679.881	1642
679.929	2262
679.978	1446
680.026	1730
680.075	1403
680.123	814
680.172	1213
680.220	1844
680.268	1709
680.317	1999
680.365	1228
680.414	978
680.462	1760
680.510	1516
680.559	1254
680.607	2369
680.655	1376
680.703	2021
680.752	1823
680.800	1370
680.848	897
680.896	1044
680.945	880
680.993	1799
681.041	1405
681.089	1278
681.137	1683
681.185	1526
681.233	1321
681.258	1809
681.281	2239
681.329	1464
681.377	1226
681.380	1281
681.425	1659
681.473	1511
681.502	1596
681.521	1589
681.569	2348
681.617	1297
681.624	1478
681.665	2392
681.713	2173
681.745	1800
681.761	1571
681.809	1897
681.857	2560
681.867	2535
681.904	2313
681.952	2790
681.989	3026
682.000	3057
682.048	2356
682.096	2786
682.111	2687
682.143	2338
682.191	2868
682.233	3719
682.239	3819
682.286	3012
682.334	2619
682.354	2431
682.382	2098
682.430	3266
682.476	3274
682.477	3247
682.525	3197
682.572	2846
682.598	2702
682.620	2532
682.667	3167
682.715	3877
682.720	3853
682.763	3370
682.810	3182
682.841	3533
682.857	3632
682.905	3791
682.952	3619
682.963	3647
683.000	3696
683.047	4301
683.085	4693
683.095	4741
683.142	4199
683.190	4425
683.206	4232
683.237	3888
683.284	4013
683.328	3798
683.332	3750
683.379	4494
683.426	4354
683.449	4494
683.473	4601
683.521	4415
683.568	4738
683.571	4703
683.615	3881
683.662	5257
683.693	4857
683.709	4617
683.757	4427
683.804	4858
683.814	5008
683.851	5497
683.898	5187
683.936	5469
683.945	5506
683.992	5299
684.039	6615
684.057	6099
684.086	5223
684.133	5699
684.179	5435
684.180	5401
684.227	5770
684.274	5714
684.300	6076
684.321	6338
684.368	5778
684.415	5641
684.422	5681
684.462	5683
684.509	5731
684.543	5338
684.556	5211
684.603	5877
684.649	5456
684.665	5499
684.696	5606
684.743	6017
684.786	5613
684.790	5573
684.837	5529
684.883	7192
684.908	7200
684.930	7090
684.977	6891
685.023	6646
685.029	6692
685.070	6674
685.117	6538
685.150	6229
685.164	6245
685.210	7428
685.257	7472
685.272	7529
685.303	7356
685.350	7713
685.393	7475
685.396	7467
685.443	8240
685.490	9300
685.514	9129
685.536	8657
685.583	8499
685.629	8357
685.636	8251
685.675	7824
685.722	8556
685.757	8443
685.768	8383
685.815	8279
685.861	7805
685.878	7955
685.908	8345
685.954	8398
686.000	8736
686.000	8737
686.047	9665
686.093	10185
686.121	10509
686.139	10291
686.185	10190
686.232	9185
686.242	8969
686.278	8464
686.324	8237
686.363	8398
686.370	8449
686.416	8058
686.463	9246
686.484	8928
686.509	8558
686.555	8696
686.601	8424
686.606	8469
686.647	8730
686.693	7965
686.727	8143
686.739	8259
686.785	8320
686.831	8424
686.848	8524
686.877	8644
686.923	7951
686.969	8091
686.969	8091
687.015	8618
687.061	8442
687.090	9141
687.107	9489
687.153	8815
687.199	9029
687.211	8895
687.245	8669
687.291	8790
687.332	9798
687.336	9899
687.382	9600
687.428	9762
687.453	9856
687.474	9701
687.520	9091
687.565	9157
687.574	9120
687.611	9444
687.657	9368
687.695	9086
687.702	9056
687.748	10654
687.794	10518
687.816	10518
687.839	10165
687.885	9884
687.931	9359
687.937	9180
687.976	8568
688.022	9631
688.058	9333
688.067	9253
688.113	9573
688.158	9208
688.179	9534
688.204	10014
688.249	9879
688.295	10101
688.300	10119
688.340	10380
688.386	11091
688.421	10797
688.431	10622
688.477	10362
688.522	10192
688.542	10263
688.567	10575
688.613	10545
688.658	10799
688.663	10736
688.703	10144
688.749	10683
688.784	10431
688.794	10373
688.839	10529
688.884	10648
688.905	10701
688.930	10741
688.975	10182
689.020	10258
689.026	10194
689.065	10028
689.110	10180
689.146	10074
689.155	10007
689.201	10035
689.246	10382
689.267	10145
689.291	10162
689.336	10419
689.381	11158
689.388	11129
689.426	10775
689.471	10655
689.509	10885
689.516	10931
689.561	11061
689.606	10825
689.630	10807
689.651	10880
689.696	10872
689.741	11181
689.750	11200
689.785	11304
689.830	10902
689.871	10825
689.875	10814
689.920	10759
689.965	10712
689.992	10498
690.010	10543
690.054	10643
690.099	10997
690.112	11117
690.144	11145
690.189	10695
690.233	10443
690.233	10457
690.278	10300
690.323	10584
690.354	10464
690.367	10509
690.412	10858
690.457	11252
690.474	11233
690.501	10994
690.546	10820
690.590	10486
690.595	10473
690.635	10706
690.680	10256
690.716	10521
690.724	10662
690.769	10966
690.813	11922
690.836	11582
690.857	11198
690.902	11514
690.946	11626
690.957	11617
690.991	11783
691.035	12457
691.077	12624
691.080	12656
691.124	12721
691.168	13398
691.198	13499
691.213	13424
691.257	12848
691.301	12751
691.318	12758
691.346	12635
691.390	11829
691.434	11131
691.439	11087
691.478	11752
691.522	12143
691.559	12379
691.567	12421
691.611	13169
691.655	12652
691.680	12887
691.699	12901
691.743	12541
691.787	12713
691.800	12589
691.831	12704
691.875	12941
691.919	13154
691.921	13139
691.964	13236
692.008	13407
692.041	13198
692.052	13156
692.096	12812
692.139	12898
692.162	12872
692.183	12973
692.227	13236
692.271	13667
692.282	13604
692.315	13540
692.359	13769
692.402	13972
692.403	13998
692.447	13448
692.490	13552
692.523	13687
692.534	13794
692.578	13732
692.622	13377
692.643	13460
692.666	13497
692.709	13230
692.753	12625
692.763	12562
692.797	12646
692.840	12970
692.884	13137
692.884	13166
692.928	13214
692.971	13118
693.004	13223
693.015	13286
693.059	13507
693.102	13798
693.124	13649
693.146	13542
693.189	13808
693.233	13708
693.245	13768
693.276	14148
693.320	14432
693.363	14404
693.365	14375
693.407	14163
693.450	14168
693.485	14271
693.493	14325
693.537	14135
693.580	13731
693.605	13722
693.624	13762
693.667	13611
693.710	13651
693.725	13521
693.753	14179
693.797	15626
693.840	16672
693.845	16772
693.883	16445
693.926	15792
693.966	15570
693.970	15541
694.013	14376
694.056	13698
694.086	13187
694.099	13418
694.142	13864
694.185	14191
694.206	14477
694.229	14748
694.272	14991
694.315	15303
694.326	15297
694.358	15520
694.401	16078
694.444	16554
694.446	16533
694.487	16087
694.530	15547
694.566	15192
694.573	15104
694.616	14187
694.659	13334
694.686	12664
694.702	12708
694.745	13068
694.787	13166
694.806	13201
694.830	13275
694.873	13380
694.916	13616
694.926	13581
694.959	13597
695.002	13717
695.044	13847
695.046	13813
695.087	14025
695.130	14297
695.166	14613
695.172	14680
695.215	14613
695.258	14747
695.286	14753
695.301	14703
695.343	14423
695.386	14158
695.406	14013
695.428	14080
695.471	14049
695.514	14317
695.526	14204
695.556	14243
695.599	14956
695.641	15044
695.646	15047
695.684	14754
695.726	14176
695.766	13749
695.769	13802
695.811	14132
695.854	14492
695.886	14594
695.896	14580
695.938	14531
695.981	14131
696.005	14055
696.023	14379
696.065	15019
696.108	15633
696.125	15838
696.150	15754
696.192	15636
696.235	15336
696.245	15283
696.277	15302
696.319	15096
696.361	14946
696.365	14888
696.404	14676
696.446	14390
696.485	14288
696.488	14370
696.530	14769
696.572	15279
696.604	15568
696.614	15526
696.656	15211
696.698	14937
696.724	14711
696.740	14822
696.783	14971
696.825	15250
696.844	15253
696.867	15230
696.909	15190
696.951	15119
696.964	15108
696.992	15260
697.034	15146
697.076	15221
697.083	15186
697.118	15512
697.160	15854
697.202	16201
697.203	16169
697.244	15916
697.286	15526
697.323	15105
697.327	15171
697.369	15417
697.411	15713
697.442	15925
697.453	16020
697.494	16175
697.536	16392
697.562	16416
697.578	16445
697.620	16483
697.661	16407
697.682	16394
697.703	16836
697.744	17499
697.786	18364
697.801	18576
697.828	18614
697.869	18600
697.911	18593
697.921	18532
697.952	17853
697.994	16983
698.035	16052
698.040	15900
698.077	15905
698.118	15836
698.160	15743
698.160	15699
698.201	16033
698.243	16252
698.279	16428
698.284	16497
698.325	16736
698.367	16980
698.399	17086
698.408	17038
698.449	16642
698.491	16243
698.518	15933
698.532	16089
698.573	16398
698.614	16760
698.638	16892
698.656	16904
698.697	16847
698.738	16798
698.757	16726
698.779	16898
698.820	17130
698.862	17380
698.877	17425
698.903	17747
698.944	18184
698.985	18617
698.996	18688
699.026	18298
699.067	17690
699.116	16918
699.235	17034
699.354	16555
699.474	17357
699.593	18217
699.713	18411
699.832	17203
699.951	18602
700.070	16682
700.190	17100
700.309	16854
700.428	18790
700.547	17397
700.667	16915
700.786	17700
700.905	15582
701.024	17307
701.143	16724
701.262	14615
701.381	15366
701.500	15871
701.619	17407
701.738	14940
701.857	14557
701.976	14431
702.095	15508
702.214	16313
702.333	17043
702.452	16174
702.571	14936
702.690	15139
702.809	14394
702.928	14286
703.047	15241
703.165	14153
703.284	13378
703.403	14238
703.522	16312
703.640	15342
703.759	18761
703.878	22841
703.997	14878
704.115	13659
704.234	13659
704.353	13640
704.471	13265
704.590	12838
704.708	12595
704.827	12188
704.946	14109
705.064	14548
705.183	13920
705.301	15896
705.420	21949
705.538	18722
705.656	15229
705.775	15955
705.893	16731
706.012	17869
706.130	17282
706.249	17730
706.367	18042
706.485	17619
706.604	16323
706.722	17914
706.840	20403
706.958	20302
707.077	16291
707.195	15323
707.313	14940
707.431	14847
707.549	15138
707.668	15639
707.786	15141
707.904	14261
708.022	14594
708.140	14248
708.258	14708
708.376	15528
708.494	14836
708.612	15764
708.730	23544
708.848	20993
708.966	19372
709.084	18831
709.202	17508
709.320	18238
709.438	18371
709.556	19207
709.674	18400
709.791	17266
709.909	16897
710.027	17444
710.145	17904
710.263	18627
710.380	17401
710.498	16469
710.616	16956
710.733	16885
710.851	18364
710.969	18076
711.086	16873
711.204	16684
711.322	16809
711.439	17073
711.557	16741
711.674	16199
711.792	15430
711.909	14996
712.027	15139
712.144	15185
712.262	15285
712.379	17089
712.497	24553
712.614	23226
712.732	20215
712.849	19242
712.966	22238
713.084	26607
713.201	21076
713.318	20588
713.436	19192
713.553	19734
713.670	20287
713.787	23560
713.905	22234
714.022	19690
714.139	19668
714.256	22818
714.373	28550
714.490	44729
714.608	108889
714.725	456673
714.842	422720
714.959	36414
715.076	21615
715.193	19119
715.310	19801
715.427	17143
715.544	17483
715.661	17334
715.778	16829
715.895	18542
716.011	18518
716.128	17148
716.245	17610
716.362	20018
716.479	20337
716.596	15959
716.713	16837
716.829	16448
716.946	17045
717.063	15381
717.180	15186
717.296	14763
717.413	15550
717.530	14861
717.646	14763
717.763	14113
717.880	13720
717.996	14570
718.113	14627
718.229	14831
718.346	14335
718.462	15309
718.579	19459
718.695	32771
718.812	23467
718.928	19730
719.045	15042
719.161	13947
719.277	13596
719.394	13025
719.510	14715
719.626	13496
719.743	18195
719.859	20684
719.975	34654
720.092	124557
720.208	262841
720.324	32423
720.440	16344
720.557	17545
720.673	26777
720.789	32189
720.905	63426
721.021	22030
721.137	13683
721.253	12910
721.369	13337
721.486	14987
721.602	20348
721.718	13010
721.834	10945
721.950	12821
722.066	11061
722.181	11686
722.297	12119
722.413	11269
722.529	11741
722.645	10906
722.761	10914
722.877	10227
722.993	10620
723.108	12180
723.224	11409
723.340	10759
723.456	10362
723.571	11291
723.687	9451
723.803	10364
723.918	9778
724.034	11042
724.150	10219
724.265	12521
724.381	23499
724.497	29035
724.612	10336
724.728	10135
724.843	9383
724.959	12344
725.074	22978
725.190	26369
725.305	10540
725.421	9624
725.536	8603
725.651	9178
725.767	9303
725.882	8545
725.997	9719
726.113	9958
726.228	7961
726.343	8250
726.459	9062
726.574	8913
726.689	8242
726.804	8153
726.920	8432
727.035	8882
727.150	8432
727.265	8230
727.380	9293
727.495	8478
727.610	7874
727.725	7644
727.841	8557
727.956	8992
728.071	10157
728.186	8418
728.301	7794
728.416	8756
728.531	7980
728.645	7809
728.760	9025
728.875	10293
728.990	9907
729.105	8372
729.220	9123
729.335	8965
729.449	6836
729.564	6934
729.679	7180
729.794	7306
729.908	7998
730.023	8318
730.138	7025
730.253	7319
730.367	6460
730.482	7474
730.596	6432
730.711	8531
730.826	8171
730.940	7339
731.055	7999
731.169	6745
731.284	6888
731.398	6913
731.513	8327
731.627	8589
731.742	9585
731.856	9812
731.970	8727
732.085	9693
732.199	12548
732.313	18882
732.428	45065
732.542	139762
732.656	75032
732.771	13517
732.885	9967
732.999	9933
733.113	9238
733.227	9167
733.342	8298
733.456	7989
733.570	7577
733.684	7276
733.798	7880
733.912	7350
734.026	7411
734.140	7009
734.254	8835
734.368	14131
734.482	16921
734.596	7152
734.710	7077
734.824	7445
734.938	6939
735.052	7016
735.166	9073
735.280	7584
735.393	7222
735.507	7243
735.621	9774
735.735	16696
735.849	8578
735.962	6089
736.076	8633
736.190	7456
736.303	11206
736.417	12881
736.531	7040
736.644	6867
736.758	6218
736.872	6412
736.985	6941
737.099	5691
737.212	6199
737.326	6774
737.439	7084
737.553	6535
737.666	7361
737.780	5929
737.893	6599
738.007	5474
738.120	6537
738.233	5546
738.347	6094
738.460	5891
738.573	6638
738.687	6778
738.800	7654
738.913	9548
739.026	6803
739.140	5895
739.253	4936
739.366	5170
739.479	5999
739.592	4951
739.705	5440
739.818	6655
739.932	5596
740.045	5108
740.158	5672
740.271	6281
740.384	5327
740.497	5799
740.610	7181
740.723	6401
740.836	6087
740.949	7438
741.062	10423
741.174	7612
741.287	4822
741.400	5974
741.513	6368
741.626	7689
741.739	7415
741.851	5837
741.964	6555
742.077	5303
742.189	6025
742.302	7532
742.415	7116
742.527	6102
742.640	4594
742.753	4429
742.865	4300
742.978	4647
743.090	4923
743.203	5428
743.316	4231
743.428	3869
743.541	4997
743.653	3903
743.766	4899
743.878	4299
743.990	7003
744.103	7339
744.215	5266
744.327	5157
744.440	6803
744.552	11720
744.664	5113
744.777	4305
744.889	4052
745.001	4597
745.113	4211
745.226	3351
745.338	4681
745.450	4729
745.562	3695
745.674	3562
745.786	4929
745.898	3860
746.010	4136
746.122	3914
746.234	4185
746.347	4232
746.459	5113
746.570	4624
746.682	4294
746.794	5256
746.906	4443
747.018	3880
747.130	3889
747.242	4032
747.354	4251
747.466	4274
747.577	3325
747.689	3973
747.801	3917
747.913	3158
748.024	3381
748.136	3483
748.248	3905
748.359	3719
748.471	3815
748.583	3305
748.694	3628
748.806	3890
748.918	5302
749.029	4645
749.141	5187
749.252	6375
749.364	5796
749.475	12580
749.587	8056
749.698	4043
749.809	4760
749.921	3815
750.032	3596
750.144	2980
750.255	3176
750.366	2683
750.478	3409
750.589	3716
750.700	4378
750.811	4202
750.923	5947
751.034	14404
751.145	12982
751.256	4077
751.367	3704
751.479	3523
751.590	2786
751.701	3049
751.812	3056
751.923	2887
752.034	3710
752.145	2761
752.256	3231
752.367	2981
752.478	3220
752.589	3406
752.700	2542
752.811	2739
752.922	3578
753.032	4044
753.143	4732
753.254	2961
753.365	3804
753.476	3400
753.586	3105
753.697	2772
753.808	3579
753.919	3053
754.029	2520
754.140	2683
754.251	3140
754.361	2953
754.472	3272
754.582	3319
754.693	3297
754.804	3297
754.914	2672
755.025	3441
755.135	2842
755.246	3327
755.356	2805
755.466	3072
755.577	3494
755.687	2841
755.798	2507
755.908	3026
756.018	2401
756.129	3030
756.239	2878
756.349	2660
756.460	2979
756.570	3490
756.680	2260
756.790	3507
756.900	4322
757.011	3281
757.121	3091
757.231	2577
757.341	3670
757.451	2800
757.561	2236
757.671	2661
757.781	2591
757.891	3158
758.001	3158
758.111	2796
758.221	2748
758.331	4064
758.441	4267
758.551	5777
758.661	4617
758.771	3411
758.880	3940
758.990	3562
759.100	3447
759.210	2946
759.320	3237
759.429	2915
759.539	3999
759.649	3153
759.758	3186
759.868	3757
759.978	3420
760.087	3839
760.197	4050
760.307	3206
760.416	3512
760.526	2715
760.635	3823
760.745	4586
760.854	4336
760.964	3733
761.073	5232
761.182	3568
761.292	4068
761.401	4939
761.511	3511
761.620	2886
761.729	3360
761.839	3278
761.948	4244
762.057	2598
762.166	3150
762.276	2202
762.385	3608
762.494	3333
762.603	2970
762.712	4044
762.822	3390
762.931	3657
763.040	2362
763.149	2686
763.258	3486
763.367	3086
763.476	3121
763.585	3684
763.694	3624
763.803	3161
763.912	4116
764.021	2938
764.130	2940
764.238	3311
764.347	3215
764.456	2968
764.565	3593
764.674	3630
764.783	2831
764.891	3195
765.000	3941
765.109	3390
765.217	4066
765.326	5077
765.435	6221
765.543	5008
765.652	4900
765.761	6538
765.869	8330
765.978	12076
766.086	22005
766.195	43474
766.303	128117
766.412	425072
766.520	331902
766.629	54569
766.737	19788
766.846	12408
766.954	9551
767.062	8265
767.171	6446
767.279	6028
767.387	5242
767.496	4705
767.604	5728
767.712	4720
767.820	4182
767.928	4186
768.037	3344
768.145	4555
768.253	5093
768.361	3472
768.469	3970
768.577	2994
768.685	4232
768.793	4551
768.901	4163
769.009	4336
769.117	3967
769.225	4700
769.333	7429
769.441	9947
769.549	17943
769.657	43887
769.765	162122
769.873	366883
769.981	88071
770.088	16380
770.196	9468
770.304	7854
770.412	6375
770.519	5807
770.627	5292
770.735	4654
770.842	5006
770.950	4207
771.058	4117
771.165	4269
771.273	4096
771.380	4416
771.488	4655
771.595	4611
771.703	4288
771.810	3856
771.918	4236
772.025	4596
772.133	4778
772.240	4236
772.348	5039
772.455	4740
772.562	3652
772.670	3769
772.777	5340
772.884	4595
772.991	3933
773.099	4259
773.206	4470
773.313	4249
773.420	4864
773.528	3109
773.635	4052
773.742	4145
773.849	4481
773.956	4309
774.063	5191
774.170	4011
774.277	3956
774.384	3932
774.491	3687
774.598	3728
774.705	4954
774.812	6518
774.919	5333
775.026	3900
775.133	3779
775.239	4081
775.346	3903
775.453	3647
775.560	3710
775.667	3688
775.773	3102
775.880	4019
775.987	3190
776.093	3781
776.200	3813
776.307	3321
776.413	3285
776.520	4854
776.627	3632
776.733	3367
776.840	3341
776.946	4672
777.053	4757
777.159	6653
777.266	3968
777.372	6618
777.478	6046
777.585	5190
777.691	2636
777.798	3290
777.904	4294
778.010	6291
778.117	5324
778.223	3277
778.329	3759
778.435	2947
778.542	4253
778.648	3971
778.754	2527
778.860	3627
778.966	3648
779.072	3642
779.178	3234
779.284	2718
779.391	2321
779.497	2916
779.603	4613
779.708	2051
779.815	4006
779.920	6498
780.026	10619
780.132	4390
780.238	2415
780.344	3377
780.450	3961
780.556	2887
780.661	2895
780.767	2671
780.873	2737
780.979	3502
781.085	2607
781.190	3096
781.296	2490
781.402	2839
781.507	2270
781.613	2084
781.719	2784
781.824	2754
781.930	3226
782.035	2506
782.141	3149
782.246	2953
782.352	2025
782.457	2344
782.563	2872
782.668	2540
782.773	3324
782.879	2418
782.984	2757
783.090	4264
783.195	6583
783.300	4611
783.405	3535
783.511	3519
783.616	3053
783.721	3962
783.826	3159
783.932	3056
784.037	2994
784.142	2506
784.247	2527
784.352	3090
784.457	2136
784.562	3453
784.667	2284
784.772	1755
784.877	2058
784.982	3587
785.087	3043
785.192	3506
785.297	2200
785.402	2688
785.507	2968
785.611	2102
785.716	3298
785.821	2420
785.926	2479
786.031	2459
786.135	3201
786.240	3187
786.345	1727
786.450	2457
786.554	1928
786.659	1876
786.763	1445
786.868	2182
786.973	3781
787.077	2291
787.182	2218
787.286	3151
787.391	2371
787.495	1938
787.600	2038
787.704	2291
787.809	2337
787.913	856
788.017	2513
788.122	2460
788.226	2138
788.330	1759
788.435	2746
788.539	1912
788.643	1115
788.747	1558
788.852	1856
788.956	1099
789.060	2393
789.164	2108
789.268	1950
789.372	1796
789.476	1923
789.580	2008
789.684	1569
789.788	2006
789.892	2438
789.996	2634
790.100	1272
790.204	2216
790.308	2045
790.412	1781
790.516	1755
790.620	1532
790.724	2633
790.828	2104
790.931	1381
791.035	2590
791.139	677
791.242	1492
791.346	2230
791.450	1650
791.554	1736
791.657	1519
791.761	2736
791.864	2578
791.968	2800
792.072	2297
792.175	1867
792.279	1599
792.382	2373
792.486	1884
792.589	1982
792.693	2085
792.796	996
792.899	2553
793.003	2557
793.106	1113
793.209	2526
793.313	3509
793.416	1104
793.519	3879
793.623	4331
793.726	6157
793.829	3149
793.932	2371
794.035	1547
794.138	2998
794.242	2670
794.345	3097
794.448	2810
794.551	4689
794.654	5901
794.757	5675
794.860	2642
794.963	2282
795.066	1263
795.169	2189
795.272	1683
795.375	1863
795.477	462
795.580	1832
795.683	-66
795.786	1233
795.889	155
795.991	2215
796.094	2609
796.197	988
796.300	2617
796.402	531
796.505	792
796.608	710
796.710	2359
796.813	1609
796.915	889
797.018	2273
797.120	2288
797.223	451
797.326	2759
797.428	963
797.530	1516
797.633	1950
797.735	3122
797.838	4003
797.940	3880
798.042	591
798.145	828
798.247	1927
798.349	349
798.452	1791
798.554	963
798.656	456
798.758	2353
798.860	1091
798.962	1663
799.065	803
799.167	540
799.269	1788
799.371	2760
799.473	1776
799.575	2711
799.677	2329
799.779	4348
799.881	3685
799.983	2392
800.085	995
800.187	1605
800.289	741
800.390	1514
800.492	1605
800.594	1165
800.696	861
800.798	679
800.899	1049
801.001	1463
801.103	390
801.205	1236
801.306	1306
801.408	30
801.509	1157
801.611	1466
801.713	1766
801.814	386
801.916	355
802.017	783
802.119	606
802.220	1644
802.322	-75
802.423	3427
802.525	1409
802.626	1328
802.727	1134
802.829	1721
802.930	-1087
803.031	1773
803.133	1122
803.234	1201
803.335	891
803.436	412
803.538	413
803.639	-725
803.740	2121
803.841	525
803.942	2374
804.043	1296
804.144	501
804.245	1448
804.346	1064
804.447	1944
804.548	2382
804.649	4066
804.750	255
804.851	566
804.952	55
805.053	1183
805.154	-87
805.255	1526
805.355	443
805.456	715
805.557	-136
805.658	-127
805.758	1852
805.859	511
805.960	1011
806.061	621
806.161	433
806.262	772
806.362	426
806.463	449
806.564	1210
806.664	1024
806.765	1358
806.865	1851
806.966	1891
807.066	1037
807.166	1615
807.267	1825
807.367	943
807.468	1186
807.568	-750
807.668	1119
807.769	2036
807.869	1221
807.969	809
808.069	902
808.170	608
808.270	758
808.370	1484
808.470	3098
808.570	531
808.670	897
808.770	392
808.870	417
808.970	939
809.070	476
809.170	981
809.271	2352
809.370	1822
809.470	1145
809.570	832
809.670	-70
809.770	369
809.870	1313
809.970	758
810.070	674
810.169	968
810.269	-519
810.369	1259
810.469	552
810.568	270
810.668	373
810.768	945
810.867	1540
810.967	344
811.066	53
811.166	-316
811.265	951
811.365	158
811.464	126
811.564	676
811.663	1281
811.763	-18
811.862	1109
811.962	2008
812.061	882
812.160	884
812.260	1360
812.359	1907
812.458	2676
812.557	7857
812.657	11597
812.756	3169
812.855	799
812.954	633
813.053	773
813.153	793
813.252	11
813.351	1062
813.450	1298
813.549	385
813.648	833
813.747	-157
813.846	1094
813.945	634
814.044	446
814.143	719
814.242	1135
814.341	-295
814.439	1003
814.538	1199
814.637	639
814.736	1421
814.835	1589
814.933	1271
815.032	1145
815.131	1116
815.229	1813
815.328	2360
815.427	1753
815.525	2269
815.624	1970
815.722	1880
815.821	2054
815.919	2325
816.018	1316
816.116	2415
816.215	2374
816.313	2463
816.412	2240
816.510	2627
816.609	4427
816.707	2500
816.805	2993
816.904	2714
817.002	3469
817.100	4602
817.198	4471
817.296	4119
817.395	4767
817.493	6269
817.591	6910
817.689	9314
817.787	12379
817.885	19253
817.983	37910
818.081	81167
818.179	200205
818.277	495845
818.375	395140
818.473	99763
818.571	38056
818.669	26287
818.767	22251
818.865	22050
818.963	27637
819.061	41519
819.158	71162
819.256	155697
819.354	366304
819.452	733124
819.549	459202
819.647	132438
819.745	52676
819.842	32153
819.940	22027
820.038	15611
820.135	12505
820.233	11140
820.330	7741
820.428	6235
820.525	7512
820.623	5566
820.720	4604
820.818	4121
820.915	4069
821.012	4014
821.110	2993
821.207	4990
821.304	3281
821.402	3252
821.499	3480
821.596	3564
821.693	3958
821.791	4116
821.888	4283
821.985	8285
822.082	5538
822.179	2823
822.276	2085
822.373	2565
822.470	1865
822.567	2560
822.664	1807
822.761	2099
822.858	782
822.955	1159
823.052	2028
823.149	2086
823.246	1755
823.343	1209
823.440	1928
823.536	1803
823.633	621
823.730	1323
823.827	1509
823.923	1218
824.020	1742
824.117	1753
824.213	1073
824.310	1210
824.407	1003
824.503	1785
824.600	1125
824.696	1153
824.793	1671
824.889	372
824.986	985
825.082	452
825.179	2014
825.275	662
825.371	1277
825.468	1935
825.564	59
825.660	1272
825.757	1729
825.853	1717
825.949	-9
826.045	1713
826.142	1832
826.238	654
826.334	772
826.430	70
826.526	1055
826.622	1168
826.718	1772
826.814	176
826.910	2143
827.006	401
827.102	163
827.198	1449
827.294	851
827.390	775
827.486	1150
827.582	-451
827.678	460
827.774	1809
827.869	-335
827.965	1610
828.061	414
828.157	892
828.252	390
828.348	341
828.444	1018
828.539	102
828.635	948
828.731	1354
828.826	539
828.922	591
829.017	10
829.113	1025
829.208	122
829.304	-60
829.399	1509
829.495	102
829.590	1330
829.685	444
829.781	1102
829.876	641
829.971	887
830.066	542
830.162	924
830.257	637
830.352	359
830.447	1571
830.543	783
830.638	-64
830.733	1220
830.828	-348
830.923	1402
831.018	565
831.113	491
831.208	318
831.303	1036
831.398	-212
831.493	105
831.588	1016
831.683	-335
831.778	105
831.873	-23
831.967	1379
832.062	-42
832.157	-492
832.252	1720
832.346	598
832.441	1252
832.536	2099
832.631	6719
832.725	4229
832.820	1012
832.914	777
833.009	761
833.104	1427
833.198	1668
833.293	386
833.387	1288
833.482	427
833.576	-486
833.670	888
833.765	-162
833.859	914
833.954	1784
834.048	720
834.142	-74
834.237	-351
834.331	496
834.425	544
834.519	-583
834.613	935
834.708	-94
834.802	329
834.896	440
834.990	278
835.084	403
835.178	667
835.272	-28
835.366	379
835.460	1210
835.554	-33
835.648	55
835.742	-914
835.836	1078
835.930	-1272
836.024	517
836.117	1140
836.211	-479
836.305	2363
836.399	2659
836.493	-498
836.586	1045
836.680	-31
836.774	-73
836.867	1064
836.961	-240
837.055	-292
837.148	-93
837.242	359
837.335	-99
837.429	620
837.522	-492
837.616	613
837.709	3877
837.803	1288
837.896	1572
837.989	785
838.083	2484
838.176	3464
838.269	3186
838.363	608
838.456	762
838.549	1301
838.642	3653
838.735	7864
838.829	3762
838.922	-241
839.015	-280
839.108	-475
839.201	1716
839.294	231
839.387	-296
839.480	555
839.573	1610
839.666	2540
839.759	248
839.852	-386
839.945	30
840.038	1050
840.131	257
840.223	-568
840.316	572
840.409	-40
840.502	-255
840.594	973
840.687	-622
840.780	920
840.873	330
840.965	1050
841.058	1125
841.150	2831
841.243	1752
841.336	1627
841.428	524
841.521	-359
841.613	214
841.706	312
841.798	676
841.890	-176
841.983	481
842.075	624
842.167	196
842.260	860
842.352	1275
842.444	1357
842.537	4960
842.629	5735
842.721	457
842.813	955
842.905	-870
842.997	1098
843.090	246
843.182	1945
843.274	3801
843.366	8596
843.458	18778
843.550	11875
843.642	1820
843.734	144
843.826	1222
843.918	1224
844.009	974
844.101	16
844.193	-211
844.285	-163
844.377	46
844.469	623
844.560	775
844.652	1404
844.744	621
844.835	-325
844.927	1184
845.019	179
845.110	504
845.202	153
845.293	-120
845.385	-264
845.476	208
845.568	488
845.659	-349
845.751	712
845.842	-528
845.934	-326
846.025	-327
846.116	868
846.208	-382
846.299	-479
846.390	941
846.482	806
846.573	651
846.664	2030
846.755	2603
846.846	1448
846.937	-793
847.029	86
847.120	-680
847.211	-71
847.302	1316
847.393	-1728
847.484	608
847.575	-462
847.666	-878
847.757	-448
847.847	125
847.938	33
848.029	498
848.120	-848
848.211	-71
848.302	-1032
848.392	-128
848.483	-722
848.574	-607
848.664	-1125
848.755	-410
848.846	333
848.936	84
849.027	-373
849.118	697
849.208	-222
849.299	1341
849.389	2778
849.480	6346
849.570	12430
849.661	26005
849.751	44442
849.841	14124
849.932	785
850.022	-121
850.112	173
850.203	209
850.293	76
850.383	777
850.474	-209
850.564	170
850.654	-697
850.744	-517
850.834	194
850.924	-660
851.014	-205
851.104	-393
851.194	598
851.284	1253
851.374	1219
851.464	505
851.554	-215
851.644	402
851.734	1288
851.824	377
851.914	-430
852.004	120
852.094	-511
852.183	235
852.273	335
852.363	555
852.452	288
852.542	233
852.632	-140
852.721	-115
852.811	484
852.901	494
852.990	-624
853.080	582
853.169	466
853.259	265
853.348	760
853.438	1494
853.527	2610
853.617	3734
853.706	8545
853.795	16349
853.885	41156
853.974	79753
854.063	148704
854.152	239896
854.242	82061
854.331	11617
854.420	4143
854.509	2497
854.598	2835
854.687	2482
854.777	2295
854.866	535
854.955	877
855.044	17
855.133	-806
855.222	110
855.311	122
855.400	1451
855.488	463
855.577	187
855.666	623
855.755	744
855.844	284
855.933	-95
856.021	349
856.110	-269
856.199	-486
856.288	-44
856.376	-1
856.465	285
856.554	736
856.642	476
856.731	-442
856.819	1109
856.908	-549
856.996	279
857.085	-135
857.173	122
857.262	303
857.350	560
857.438	-579
857.527	126
857.615	-472
857.703	456
857.792	115
857.880	-365
857.968	-837
858.056	-240
858.145	845
858.233	572
858.321	-360
858.409	-88
858.497	-428
858.585	-400
858.673	1425
858.761	-380
858.849	-265
858.937	-26
859.025	-752
859.113	-158
859.201	-1156
859.289	686
859.377	-289
859.465	278
859.552	-256
859.640	-32
859.728	9
859.816	-332
859.903	639
859.991	-1356
860.079	100
860.166	372
860.254	-66
860.342	320
860.429	-342
860.517	95
860.604	135
860.692	-293
860.779	-843
860.867	-266
860.954	424
861.042	-146
861.129	134
861.216	439
861.304	113
861.391	-515
861.478	-170
861.565	-104
861.653	657
861.740	-421
861.827	-397
861.914	-184
862.001	-382
862.089	-444
862.176	830
862.263	-733
862.350	-38
862.437	-78
862.524	-1351
862.611	522
862.698	-292
862.785	-528
862.871	-275
862.958	-804
863.045	-322
863.132	-42
863.219	-1019
863.306	-1116
863.392	-99
863.479	-236
863.566	98
863.652	60
863.739	-335
863.826	416
863.912	37
863.999	-524
864.086	576
864.172	-112
864.259	-334
864.345	475
864.432	526
864.518	-295
864.604	220
864.691	76
864.777	361
864.863	1173
864.950	844
865.036	262
865.122	1649
865.209	2071
865.295	1957
865.381	1872
865.467	1866
865.553	3436
865.639	4905
865.726	8705
865.812	19419
865.898	40010
865.984	60666
866.070	115470
866.156	125482
866.242	28386
866.328	5978
866.414	2134
866.499	2867
866.585	2065
866.671	1840
866.757	2180
866.843	674
866.928	1428
867.014	1102
867.100	1470
867.186	1503
867.271	1484
867.357	1863
867.442	2084
867.528	1039
867.614	84
867.699	423
867.785	2024
867.870	1507
867.956	1188
868.041	2552
868.127	1623
868.212	2870
868.297	2149
868.383	1679
868.468	2324
868.553	3096
868.639	4388
868.724	8359
868.809	8281
868.894	2352
868.979	311
869.065	1435
869.150	15
869.235	205
869.320	844
869.405	409
869.490	788
869.575	-557
869.660	876
869.745	1137
869.830	536
869.915	592
870.000	501
870.085	302
870.169	1016
870.254	912
870.339	-115
870.424	223
870.509	38
870.593	13
870.678	484
870.763	1120
870.847	541
870.932	402
871.016	540
871.101	664
871.186	448
871.270	612
871.355	42
871.439	559
871.523	376
871.608	123
871.692	-282
871.777	20
871.861	513
871.945	-354
872.030	525
872.114	-541
872.198	-210
872.282	-217
872.367	311
872.451	360
872.535	226
872.619	462
872.703	519
872.787	-60
872.871	1189
872.955	-63
873.039	-201
873.123	-708
873.207	765
873.291	-489
873.375	807
873.459	157
873.543	-486
873.627	56
873.711	135
873.794	472
873.878	-10
873.962	-580
874.045	-585
874.129	-8
874.137	60
874.213	738
874.245	432
874.296	-58
874.352	-207
874.380	-285
874.460	54
874.464	69
874.547	503
874.568	446
874.631	268
874.676	490
874.714	671
874.784	796
874.798	826
874.881	1243
874.892	1110
874.965	160
874.999	508
875.048	1006
875.107	405
875.131	149
875.215	80
875.215	80
875.298	13
875.323	-109
875.381	-383
875.430	322
875.465	817
875.538	261
875.548	174
875.631	393
875.646	265
875.714	-279
875.753	147
875.798	643
875.861	201
875.881	67
875.964	-70
875.968	-50
876.047	208
876.076	149
876.130	57
876.183	279
876.213	459
876.291	698
876.296	698
876.379	516
876.398	265
876.462	-451
876.506	-179
876.545	88
876.613	109
876.628	87
876.711	-42
876.721	61
876.794	937
876.828	664
876.877	318
876.935	117
876.960	18
877.043	728
877.043	728
877.125	741
877.150	781
877.208	898
877.258	753
877.291	637
877.365	634
877.374	656
877.456	1012
877.472	1001
877.539	872
877.579	861
877.622	852
877.687	755
877.704	710
877.787	610
877.794	574
877.869	326
877.901	434
877.952	520
878.008	560
878.034	547
878.115	413
878.117	417
878.199	25
878.222	107
878.282	250
878.329	390
878.364	483
878.437	337
878.447	299
878.529	185
878.544	211
878.611	439
878.651	486
878.694	554
878.758	659
878.776	679
878.858	14
878.865	49
878.941	360
878.972	147
879.023	-10
879.078	186
879.105	319
879.185	1107
879.187	1111
879.269	429
879.292	204
879.351	93
879.399	149
879.433	14
879.506	279
879.516	302
879.598	-175
879.613	-233
879.680	-138
879.720	133
879.762	421
879.827	111
879.844	-36
879.926	617
879.933	635
880.007	1002
880.040	792
880.089	499
880.147	1265
880.171	1604
880.253	3971
880.254	3987
880.335	6123
880.360	6573
880.417	8363
880.467	13223
880.499	16190
880.574	17682
880.580	17554
880.662	5316
880.680	4169
880.744	1062
880.787	414
880.825	215
880.893	458
880.907	499
880.989	557
881.000	571
881.070	824
881.106	840
881.152	572
881.213	50
881.233	-11
881.315	529
881.319	540
881.396	761
881.426	711
881.478	575
881.532	738
881.559	812
881.639	66
881.641	46
881.722	458
881.745	361
881.803	269
881.852	42
881.885	-127
881.958	300
881.966	348
882.047	323
882.064	329
882.129	698
882.171	873
882.210	916
882.277	2206
882.291	2472
882.372	1179
882.383	1135
882.454	587
882.489	361
882.535	198
882.596	253
882.616	253
882.697	-87
882.702	-98
882.778	-52
882.808	203
882.859	505
882.914	119
882.940	114
883.020	666
883.021	673
883.102	1159
883.127	1116
883.183	457
883.233	108
883.264	197
883.339	512
883.345	533
883.426	533
883.445	631
883.507	518
883.551	148
883.587	166
883.657	610
883.668	698
883.749	927
883.763	958
883.830	621
883.869	492
883.910	441
883.975	465
883.991	464
884.072	388
884.081	352
884.152	638
884.187	758
884.233	832
884.292	1330
884.314	1167
884.394	-124
884.398	-182
884.475	342
884.504	535
884.555	253
884.610	15
884.636	-14
884.716	245
884.716	248
884.797	117
884.821	137
884.877	618
884.927	819
884.958	582
885.033	317
885.038	329
885.118	338
885.139	334
885.199	100
885.244	-46
885.279	22
885.350	255
885.359	312
885.439	729
885.456	724
885.520	628
885.561	753
885.600	373
885.667	-384
885.680	-364
885.760	-81
885.773	-55
885.840	215
885.878	481
885.920	425
885.984	-112
886.000	-40
886.080	653
886.089	711
886.160	499
886.195	505
886.240	699
886.300	715
886.320	707
886.400	805
886.406	808
886.480	522
886.511	431
886.560	575
886.616	532
886.640	552
886.720	806
886.722	806
886.800	419
886.827	378
886.879	401
886.932	216
886.959	385
887.038	1025
887.039	1019
887.119	159
887.143	-68
887.198	587
887.248	1178
887.278	987
887.354	393
887.358	421
887.437	1023
887.459	1141
887.517	1176
887.564	1325
887.596	1041
887.669	131
887.676	159
887.755	654
887.774	772
887.835	624
887.880	524
887.914	514
887.985	216
887.994	224
888.073	635
888.090	658
888.153	959
888.195	1248
888.232	1362
888.300	1454
888.311	1357
888.391	696
888.405	559
888.470	669
888.510	739
888.549	725
888.615	758
888.628	738
888.708	508
888.720	470
888.787	15
888.825	-219
888.866	186
888.930	761
888.945	665
889.024	141
889.035	81
889.103	728
889.140	1024
889.182	708
889.245	265
889.261	482
889.340	1524
889.349	1637
889.419	1179
889.454	945
889.498	624
889.559	187
889.577	225
889.656	382
889.664	400
889.735	88
889.768	-60
889.814	237
889.873	636
889.978	820
890.083	637
890.187	-84
890.292	265
890.397	561
890.501	756
890.606	386
890.710	1158
890.815	774
890.919	1144
891.024	641
891.128	1277
891.233	1174
891.337	629
891.442	499
891.546	569
891.650	919
891.755	1200
891.859	2658
891.963	1211
892.068	1413
892.172	261
892.276	-616
892.380	627
892.484	1197
892.589	815
892.693	863
892.797	626
892.901	332
893.005	913
893.109	895
893.213	466
893.317	438
893.421	1117
893.525	353
893.629	210
893.733	797
893.837	447
893.941	669
894.045	767
894.148	490
894.252	480
894.356	750
894.460	627
894.564	826
894.667	34
894.771	391
894.875	1317
894.978	1045
895.082	-223
895.186	978
895.289	1236
895.393	1164
895.496	596
895.600	790
895.703	282
895.807	702
895.910	650
896.014	531
896.117	718
896.221	1250
896.324	-114
896.427	292
896.531	525
896.634	-20
896.737	331
896.840	915
896.944	100
897.047	1131
897.150	999
897.253	482
897.356	638
897.460	512
897.563	313
897.666	690
897.769	436
897.872	5
897.975	342
898.078	485
898.181	302
898.284	748
898.387	396
898.490	1049
898.593	177
898.695	739
898.798	699
898.901	289
899.004	863
899.107	-215
899.209	862
899.312	301
899.415	580
899.518	863
899.620	-327
899.723	666
899.826	553
899.928	889
900.031	-56
900.133	461
900.236	254
900.338	372
900.441	743
900.543	323
900.646	521
900.748	740
900.851	829
900.953	986
901.055	674
901.158	827
901.260	496
901.362	15
901.465	113
901.567	335
901.669	1035
901.771	734
901.873	46
901.976	159
902.078	286
902.180	429
902.282	76
902.384	193
902.486	89
902.588	375
902.690	748
902.792	428
902.894	565
902.996	882
903.098	-590
903.200	360
903.302	472
903.404	605
903.505	-462
903.607	1180
903.709	766
903.811	970
903.913	160
904.014	480
904.116	-401
904.218	13
904.319	342
904.421	48
904.523	37
904.624	930
904.726	932
904.827	290
904.929	-43
905.030	462
905.132	838
905.233	481
905.335	-514
905.436	326
905.537	-106
905.639	404
905.740	150
905.841	471
905.943	101
906.044	-285
906.145	-294
906.247	-85
906.348	249
906.449	580
906.550	274
906.651	304
906.752	382
906.854	-635
906.955	438
907.056	288
907.157	-19
907.258	979
907.359	770
907.460	343
907.561	-150
907.662	181
907.762	-221
907.863	47
907.964	932
908.065	438
908.166	69
908.267	346
908.367	285
908.468	637
908.569	616
908.670	75
908.770	419
908.871	340
908.971	1096
909.072	320
909.173	616
909.273	81
909.374	302
909.474	68
909.575	766
909.675	-297
909.776	407
909.876	-218
909.977	-170
910.077	562
910.177	381
910.278	-28
910.378	142
910.478	255
910.579	189
910.679	321
910.779	-126
910.879	967
910.980	-718
911.080	413
911.180	595
911.280	28
911.380	142
911.480	226
911.580	-120
911.680	673
911.780	637
911.880	350
911.980	-187
912.080	463
912.180	563
912.280	24
912.380	-91
912.480	-1221
912.580	78
912.679	-75
912.779	-147
912.879	152
912.979	219
913.078	305
913.178	129
913.278	492
913.377	-582
913.477	553
913.577	137
913.676	440
913.776	-164
913.875	-104
913.975	107
914.074	367
914.174	-30
914.273	-187
914.373	1117
914.472	580
914.572	6
914.671	-265
914.770	-18
914.870	79
914.969	-288
915.068	253
915.167	540
915.267	-267
915.366	-115
915.465	110
915.564	89
915.663	327
915.763	-175
915.862	755
915.961	267
916.060	-430
916.159	-833
916.258	144
916.357	-668
916.456	-273
916.555	422
916.654	15
916.752	467
916.851	575
916.950	-326
917.049	-574
917.148	-769
917.247	-1080
917.345	-121
917.444	-360
917.543	240
917.642	363
917.740	-90
917.839	469
917.937	683
918.036	-189
918.135	-406
918.233	164
918.332	-730
918.430	-62
918.529	688
918.627	-159
918.726	418
918.824	550
918.923	-124
919.021	48
919.119	463
919.218	182
919.316	172
919.414	-293
919.512	369
919.611	292
919.709	54
919.807	617
919.905	1208
920.003	442
920.102	-28
920.200	68
920.298	-69
920.396	824
920.494	-7
920.592	377
920.690	272
920.788	-774
920.886	288
920.984	555
921.082	-447
921.180	797
921.277	445
921.375	-195
921.473	-36
921.571	91
921.669	-123
921.766	795
921.864	287
921.962	491
922.060	796
922.157	749
922.255	453
922.352	299
922.450	973
922.548	705
922.645	59
922.743	867
922.840	944
922.938	2658
923.035	1709
923.133	1410
923.230	1867
923.327	2412
923.425	1718
923.522	2457
923.619	1649
923.717	1111
923.814	1052
923.911	1802
924.008	1586
924.106	1029
924.203	1605
924.300	2225
924.397	1190
924.494	1338
924.591	1410
924.688	1047
924.786	1964
924.883	1681
924.979	1179
925.077	1542
925.173	1112
925.270	743
925.367	1875
925.464	1660
925.561	1616
925.658	1489
925.755	1997
925.852	1246
925.948	899
926.045	1310
926.142	941
926.239	1072
926.335	1381
926.432	1494
926.529	1513
926.625	754
926.722	947
926.818	820
926.915	1328
927.011	676
927.108	1584
927.204	771
927.301	1155
927.397	871
927.494	987
927.590	1203
927.687	2091
927.783	1655
927.879	595
927.976	953
928.072	1106
928.168	1248
928.264	1297
928.361	896
928.457	1003
928.553	1150
928.649	771
928.745	1334
928.841	1037
928.937	1346
929.033	1134
929.129	1430
929.225	1016
929.321	616
929.417	1253
929.513	560
929.609	-26
929.705	1005
929.801	878
929.897	869
929.993	620
930.089	591
930.184	593
930.280	682
930.376	864
930.471	115
930.567	215
930.663	804
930.758	547
930.854	210
930.950	321
931.045	1064
931.141	902
931.236	522
931.332	1324
931.427	723
931.523	533
931.618	621
931.714	234
931.809	1123
931.905	928
932.000	826
932.095	101
932.191	1018
932.286	1196
932.381	511
932.476	-217
932.572	705
932.667	41
932.762	59
932.857	824
932.952	1100
933.047	761
933.142	950
933.237	244
933.332	574
933.427	682
933.522	-6
933.617	83
933.712	364
933.807	823
933.902	107
933.997	1527
934.092	317
934.187	896
934.282	871
934.376	942
934.471	185
934.566	427
934.661	50
934.755	174
934.850	1231
934.945	1053
935.039	402
935.134	108
935.228	535
935.323	686
935.417	386
935.512	558
935.606	679
935.701	661
935.795	347
935.890	131
935.984	1277
936.079	-811
936.173	733
936.267	623
936.362	-297
936.456	445
936.550	796
936.644	194
936.738	217
936.833	551
936.927	721
937.021	437
937.115	705
937.209	-235
937.303	815
937.397	878
937.491	1187
937.585	903
937.679	638
937.773	5
937.867	410
937.961	530
938.055	541
938.149	242
938.243	641
938.337	-162
938.430	-533
938.524	568
938.618	16
938.712	-153
938.805	511
938.899	377
938.993	200
939.086	-384
939.180	-353
939.274	614
939.367	271
939.461	-391
939.554	721
939.648	-474
939.741	245
939.835	-38
939.928	576
940.022	-200
940.115	293
940.208	598
940.302	262
940.395	781
940.488	-370
940.582	559
940.675	-223
940.768	-240
940.861	336
940.954	729
941.048	-332
941.141	-427
941.234	495
941.327	884
941.420	526
941.513	-122
941.606	-292
941.699	551
941.792	-315
941.885	259
941.978	183
942.071	173
942.164	-726
942.257	-200
942.349	507
942.442	-148
942.535	-619
942.628	-577
942.721	263
942.813	-1016
942.906	1158
942.999	-972
943.091	125
943.184	-575
943.277	-757
943.369	546
943.462	212
943.554	391
943.647	309
943.739	399
943.832	-32
943.924	-711
944.017	3
944.109	-646
944.201	-594
944.294	-231
944.386	303
944.478	-80
944.571	30
944.663	-184
944.755	-156
944.847	59
944.940	288
945.032	-205
945.124	-44
945.216	693
945.308	340
945.400	499
945.492	-672
945.584	-310
945.676	-604
945.768	163
945.860	1074
945.952	-322
946.044	127
946.136	-530
946.228	-58
946.320	-336
946.412	362
946.503	100
946.595	1328
946.687	-345
946.779	-807
946.870	381
946.962	-721
947.054	-619
947.145	470
947.237	-147
947.329	322
947.420	-801
947.512	226
947.603	-492
947.695	-366
947.786	-341
947.878	-763
947.969	390
948.061	-539
948.152	-974
948.243	231
948.335	127
948.426	-301
948.517	-568
948.609	-505
948.700	-17
948.791	-796
948.882	305
948.973	-695
949.065	-910
949.156	304
949.247	-550
949.338	-56
949.429	-519
949.520	-90
949.611	-522
949.702	86
949.793	-671
949.884	-152
949.975	632
950.066	95
950.157	-375
950.247	260
950.338	-136
950.429	-916
950.520	-137
950.611	-759
950.701	-56
950.792	-217
950.883	-80
950.973	-155
951.064	-488
951.155	-306
951.245	413
951.336	623
951.427	-421
951.517	455
951.608	148
951.698	-378
951.788	-1229
951.879	-245
951.969	-62
952.060	-545
952.150	-201
952.240	-425
952.331	-1443
952.421	484
952.511	-549
952.602	-368
952.692	-586
952.782	-539
952.872	-1091
952.962	-1076
953.052	-197
953.143	-195
953.233	-84
953.323	-312
953.413	-733
953.503	-313
953.593	-559
953.683	-416
953.773	-1138
953.863	-552
953.953	-1098
954.042	-987
954.132	-1030
954.222	-812
954.312	-318
954.402	-34
954.492	-840
954.581	-150
954.671	-1066
954.761	-813
954.850	47
954.940	-539
955.030	-1288
955.119	-949
955.209	-1236
955.298	-1060
955.388	-804
955.477	156
955.567	-949
955.656	150
955.746	-525
955.835	-1084
955.925	-1532
956.014	-262
956.103	-820
956.193	-275
956.282	-401
956.371	-767
956.461	-1058
956.550	-733
956.639	-570
956.728	-1218
956.817	-401
956.906	-856
956.995	-783
957.085	-23
957.174	-451
957.263	-1093
957.352	-841
957.441	-179
957.530	-493
957.619	-799
957.708	-869
957.796	-372
957.885	90
957.974	-562
958.063	-700
958.152	-1458
958.241	-1105
958.329	-1540
958.418	-1023
958.507	-1895
958.596	-323
958.684	-1183
958.773	-712
958.861	-795
958.950	-77
959.039	657
959.127	-443
959.216	-443
959.304	-1120
959.393	-871
959.481	-1286
959.570	97
959.658	-1310
959.746	-1132
959.835	-409
959.923	-386
960.011	-440
960.100	-119
960.188	-507
960.276	-635
960.365	-299
960.453	-783
960.541	-1235
960.629	-1047
960.717	-1153
960.805	-1809
960.893	-982
960.981	-658
961.069	68
961.158	-1541
961.245	-377
961.333	-523
961.421	-1211
961.509	-80
961.597	-1609
961.685	-1309
961.773	-1118
961.861	-1265
961.949	-498
962.036	-1375
962.124	-985
962.212	-654
962.299	-1000
962.387	-889
962.475	-260
962.562	-1683
962.650	-628
962.738	-1061
962.825	-911
962.913	-710
963.000	-749
963.088	-352
963.175	-863
963.263	-382
963.350	-870
963.438	-1490
963.525	-1020
963.612	127
963.700	880
963.787	2011
963.874	-93
963.962	-902
964.049	-456
964.136	-907
964.223	-875
964.310	-981
964.398	-1030
964.485	-1494
964.572	-741
964.659	-242
964.746	-1052
964.833	-1109
964.920	-1582
965.007	-826
965.094	-1391
965.181	-1260
965.268	-450
965.355	-1556
965.441	-444
965.528	-2352
965.615	-216
965.702	-374
965.789	-1736
965.875	-1185
965.962	-825
966.049	-1271
966.136	-1117
966.222	-1352
966.309	-23
966.395	-1870
966.482	-1032
966.569	-1279
966.655	-1402
966.742	-1551
966.828	-1246
966.915	-1107
967.001	-1170
967.087	-1769
967.174	-528
967.260	-510
967.347	-782
967.433	-515
967.519	262
967.605	-511
967.692	-1374
967.778	-1176
967.864	-1323
967.950	-1322
968.036	-1476
968.123	-622
968.209	-1068
968.295	-1614
968.381	-238
968.467	-1339
968.553	-2946
968.639	-18
968.725	-2025
968.811	-770
968.897	-1659
968.983	158
969.069	-2789
969.154	-735
969.240	-933
969.326	-1728
969.412	-1460
969.497	-2404
969.583	-1501
969.669	-925
969.755	-1146
969.840	-1161
969.926	-150
970.012	-952
970.097	-466
970.183	-2419
970.268	-1606
970.354	-1670
970.439	-1804
970.525	-47
970.610	-1258
970.696	-489
970.781	-483
970.866	-2116
970.952	-215
971.037	-1223
971.122	-459
971.208	-938
971.293	-1561
971.378	-2244
971.463	-1375
971.549	-1166
971.634	-1216
971.719	-987
971.804	-1583
971.889	-795
971.974	-1491
972.059	-1498
972.144	-760
972.229	-2045
972.314	-1505
972.399	-1362
972.484	-1530
972.569	-184
972.654	-2058
972.739	113
972.824	-1218
972.908	-1191
972.993	-1167
973.078	-1048
973.163	-1488
973.247	-1382
973.332	-2287
973.417	174
973.501	-1912
973.586	-2121
973.671	-1333
973.755	-1486
973.840	-778
973.924	-1194
974.009	-451
974.093	-1451
974.178	-83
974.262	-781
974.346	-659
974.431	-1352
974.515	-1834
974.600	-1526
974.684	-1658
974.768	-1734
974.852	-740
974.937	-2497
975.021	-899
975.105	-1772
975.189	-1397
975.273	-505
975.358	-2082
975.442	-1631
975.526	-423
975.610	-2047
975.694	-2153
975.778	-614
975.862	-773
975.946	-3530
976.030	-299
976.114	-1615
976.198	-1776
976.281	-1598
976.365	-723
976.449	-1152
976.533	-1554
976.617	-2231
976.700	-912
976.784	-1554
976.868	-2017
976.951	-1317
977.035	-2022
977.119	-721
977.202	-1366
977.286	-1061
977.369	-1722
977.453	-632
977.536	-1688
977.620	-1728
977.703	-1162
977.787	-2548
977.870	-805
977.953	-1711
978.037	-2210
978.120	-546
978.203	-1584
978.287	-555
978.370	-1440
978.453	-1185
978.536	-1502
978.620	-291
978.703	-1390
978.786	-792
978.869	-2240
978.952	-2525
979.035	-71
979.118	-1224
979.201	-1879
979.284	-1267
979.367	-1567
979.450	-1885
979.533	-2028
979.616	-1047
979.699	-1803
979.782	-1140
979.865	-1064
979.948	-1184
980.030	-1883
980.113	-650
980.196	-1252
980.279	-1798
980.361	-893
980.444	-1294
980.526	-663
980.609	-677
980.692	-1797
980.774	-1102
980.857	-1995
980.939	-517
981.022	-1352
981.104	-967
981.187	-2531
981.269	-1109
981.352	-1583
981.434	-1393
981.516	-1836
981.599	-183
981.681	-917
981.763	-1086
981.846	-875
981.928	-1783
982.010	-1318
982.092	-2398
982.174	-1281
982.256	-1485
982.339	-1923
982.421	-1887
982.503	-1283
982.585	-2886
982.667	-1010
982.749	-1001
982.831	-984
982.913	-2805
982.995	-1396
983.077	-1962
983.158	-360
983.240	-2337
983.322	-1591
983.404	-1241
983.486	-2302
983.568	-665
983.649	-1756
983.731	-245
983.813	-1278
983.894	-986
983.976	-1386
984.058	-2036
984.139	-571
984.221	-2569
984.302	-734
984.384	-2414
984.465	-2277
984.547	-369
984.628	-2050
984.710	-920
984.791	-1359
984.872	-1813
984.954	-1003
985.035	-1312
985.116	-2237
985.198	-1962
985.279	147
985.360	-1441
985.441	-1335
985.522	-792
985.604	-1653
985.685	-2217
985.766	-23
985.847	-323
985.928	-2225
986.009	-1526
986.090	-1444
986.171	-738
986.252	-994
986.333	-1078
986.414	-1286
986.495	-1318
986.576	-904
986.656	-1420
986.737	-1159
986.818	-1198
986.899	-2478
986.980	-1776
987.060	-1139
987.141	-1189
987.222	-1317
987.302	-1092
987.383	-984
987.464	-1065
987.544	-993
987.625	-1485
987.705	-1018
987.786	-1162
987.866	-1627
987.947	-1180
988.027	-1458
988.108	-1147
988.188	-586
988.268	-1267
988.349	-756
988.429	-1413
988.509	-1077
988.589	-1487
988.670	-2984
988.750	-306
988.830	-1063
988.910	-1298
988.990	-1129
989.070	-1586
989.151	-1195
989.231	-2031
989.311	-417
989.391	-1496
989.471	-1857
989.551	-1406
989.631	-1864
989.711	-905
989.791	-2672
989.870	-1779
989.950	-746
990.030	-1960
990.110	-1605
990.190	-1674
990.269	-2806
990.349	-1874
990.429	-1365
990.509	-1406
990.588	-2184
990.668	-1557
990.747	-1595
990.827	-1610
990.907	-591
990.986	-1763
991.066	-1491
991.145	-2102
991.225	-1106
991.304	-1980
991.383	-1190
991.463	-1533
991.542	-1484
991.622	-1952
991.701	-1727
991.780	-1767
991.859	-834
991.939	-2215
992.018	-1898
992.097	-1446
992.176	-1183
992.256	-1243
992.335	-1228
992.414	-963
992.493	-1857
992.572	-2521
992.651	-958
992.730	-1621
992.809	-1011
992.888	-1884
992.967	-2111
993.046	-902
993.125	-1912
993.203	-1202
993.282	-1088
993.361	-1509
993.440	-836
993.519	-2246
993.597	-1610
993.676	-2019
993.755	-1189
993.834	-1599
993.912	-2022
993.991	-206
994.069	-2894
994.148	-1443
994.226	-1516
994.305	-1252
994.384	-1331
994.462	-901
994.540	-2536
994.619	-1721
994.697	-1210
994.776	-1842
994.854	-1250
994.932	-1808
995.011	-1370
995.089	-1060
995.167	-1886
995.245	-1213
995.324	-1719
995.402	-1572
995.480	-1981
995.558	-1578
995.636	-1983
995.714	-1278
995.792	-463
995.870	-1920
995.948	-1800
996.026	-1441
996.104	-2450
996.182	-710
996.260	-1740
996.338	-1415
996.416	-2105
996.494	-1847
996.572	-845
996.649	-1859
996.727	-2532
996.805	-1439
996.883	-1676
996.960	-2310
997.038	-491
997.116	-1767
997.193	-2024
997.271	-1092
997.348	-2145
997.426	-1792
997.504	-1737
997.581	-724
997.658	-1164
997.736	-2023
997.813	-1826
997.891	-759
997.968	-1917
998.046	-1712
998.123	-1833
998.200	-1410
998.277	-2402
998.355	-1693
998.432	-3013
998.509	-2529
998.586	-1901
998.663	-1357
998.741	-600
998.818	-2240
998.895	-1458
998.972	-1758
999.049	-2134
999.126	-1347
999.203	-1095
999.280	-1054
999.357	-2414
999.434	-1481
999.511	-1300
999.587	-1458
999.664	-2458
999.741	-2181
999.818	-1356
999.895	-2044
999.971	-2044
1000.048	-1785
1000.125	-1419
1000.202	-2092
1000.278	-1552
1000.355	-1261
1000.431	-2097
1000.508	-2114
1000.584	-1567
1000.661	-1161
1000.738	-2366
1000.814	-1762
1000.890	-1201
1000.967	-2829
1001.043	-1583
1001.120	-2283
1001.196	-1266
1001.272	-2605
1001.349	-1535
1001.425	-1448
1001.501	-894
1001.577	-2507
1001.654	-1511
1001.730	-2826
1001.806	-2141
1001.882	-2145
1001.958	-1475
1002.034	-953
1002.110	-2197
1002.186	-1805
1002.262	-2234
1002.338	-2201
1002.414	-1544
1002.490	-1744
1002.566	-2370
1002.642	-2440
1002.718	-681
1002.794	-1787
1002.870	-2277
1002.945	-2229
1003.021	-1838
1003.097	-2003
1003.173	-1601
1003.248	-1795
1003.324	-2299
1003.400	-1413
1003.475	-1758
1003.551	-1761
1003.626	-2557
1003.702	-2433
1003.777	-1498
1003.853	-1493
1003.928	-2775
1004.004	-2633
1004.079	-1583
1004.155	-1281
1004.230	-3009
1004.305	-1177
1004.381	-2597
1004.456	-1476
1004.531	-1271
1004.607	-1855
1004.682	-2561
1004.757	-1391
1004.832	-2486
1004.907	-1936
1004.982	-1750
1005.057	-1065
1005.133	-2877
1005.208	-2119
1005.283	-1754
1005.358	-1570
1005.433	-2647
1005.508	-1151
1005.583	-3008
1005.657	-1774
1005.732	-1372
1005.807	-679
1005.882	-2298
1005.957	-1397
1006.032	-1534
1006.106	-1082
1006.181	-1904
1006.256	-1577
1006.331	-2097
1006.405	-2087
1006.480	-1325
1006.554	-1536
1006.629	-1681
1006.704	-1656
1006.778	-2051
1006.853	-810
1006.927	-1787
1007.002	-2708
1007.076	-2818
1007.150	-2156
1007.225	-1620
1007.299	-1378
1007.373	-2723
1007.448	-1292
1007.522	-1264
1007.596	-2602
1007.671	-1581
1007.745	-1733
1007.819	-1957
1007.893	-1958
1007.967	-1311
1008.041	-2598
1008.115	-1354
1008.190	-2324
1008.264	-1262
1008.338	-2958
1008.412	-1491
1008.486	-1324
1008.560	-1989
1008.633	-1952
1008.707	-2234
1008.781	-1678
1008.855	-2188
1008.929	-2735
1009.003	-2443
1009.076	-2243
1009.150	-2096
1009.224	-2528
1009.298	-1597
1009.371	-2362
1009.445	-1689
1009.519	-2104
1009.592	-2500
1009.666	-1636
1009.739	-1512
1009.813	-2386
1009.886	-1364
1009.960	-3069
1010.033	-1589
1010.107	-2171
1010.180	-2147
1010.253	-2820
1010.327	-2064
1010.400	-1756
1010.473	-2182
1010.547	-340
1010.620	-2017
1010.693	-1548
1010.766	-2583
1010.840	-1704
1010.913	-2108
1010.986	-1499
1011.059	-1775
1011.132	-1672
1011.205	-1320
1011.278	-2498
1011.351	-2150
1011.424	-2175
1011.497	-2492
1011.570	-1410
1011.643	-2299
1011.716	-996
1011.789	-2294
1011.862	-1678
1011.934	-1347
1012.007	-2910
1012.080	-2110
1012.153	-1749
1012.225	-1305
1012.298	-1995
1012.371	-2647
1012.443	-2638
1012.516	-2380
1012.588	-1669
1012.661	-2191
1012.733	-2201
1012.806	-1455
1012.879	-2098
1012.951	-1978
1013.023	-2182
1013.096	-2042
1013.168	-2183
1013.241	-1480
1013.313	-1541
1013.385	-2268
1013.458	-2250
1013.530	-1891
1013.602	-2859
1013.674	-1078
1013.746	-2433
1013.819	-2789
1013.891	-1626
1013.963	-3070
1014.035	-2086
1014.107	-1809
1014.179	-1941
1014.251	-2311
1014.323	-1562
1014.395	-2140
1014.467	-1592
1014.539	-1205
1014.611	-2752
1014.683	-2272
1014.754	-1866
1014.826	-2476
1014.898	-2792
1014.970	-2241
1015.042	-2173
1015.113	-1786
1015.185	-2756
1015.257	-2736
1015.328	-2445
1015.400	-2010
1015.471	-2021
1015.543	-3053
1015.615	-2554
1015.686	-1987
1015.757	-2330
1015.829	-2095
1015.901	-2150
1015.972	-2153
1016.043	-2174
1016.115	-2049
1016.186	-1483
1016.257	-3088
1016.328	-1608
1016.400	-1634
1016.471	-1775
1016.542	-1789
1016.613	-2444
1016.685	-2320
1016.756	-1676
1016.827	-2567
1016.898	-2740
1016.969	-1986
1017.040	-2810
1017.111	-2518
1017.182	-2153
1017.253	-2004
1017.324	-2496
1017.395	-1895
1017.466	-1804
1017.537	-1395
1017.608	-2936
1017.678	-1971
1017.749	-2039
1017.820	-1974
1017.891	-2726
1017.961	-2965
1018.032	-2392
1018.103	-2827
1018.173	-1609
1018.244	-1909
1018.315	-2964
1018.385	-1567
1018.456	-2977
1018.526	-2534
1018.597	-3002
1018.667	-2836
1018.738	-2514
1018.808	-2848
1018.878	-2533
1018.949	-2958
1019.019	-1649
1019.089	-2525
1019.160	-2426
1019.230	-2351
1019.300	-2851
1019.371	-2620
1019.441	-1668
1019.511	-2196
1019.581	-2237
1019.651	-1981
1019.721	-1919
1019.791	-2747
1019.861	-2684
1019.931	-2544
1020.001	-2135
1020.071	-2618
1020.141	-2486
1020.211	-2099
1020.281	-2877
1020.351	-2686
1020.421	-1982
1020.491	-1928
1020.560	-1864
1020.630	-2170
1020.700	-1943
1020.770	-2884
1020.839	-1891
1020.909	-1910
1020.979	-2142
1021.048	-1745
1021.118	-2268
1021.187	-2849
1021.257	-2304
1021.326	-3032
1021.396	-2760
1021.465	-2287
1021.535	-1857
1021.604	-3108
1021.674	-2901
1021.743	-2014
1021.812	-2254
1021.882	-2876
1021.951	-2076
1022.020	-3041
1022.089	-2663
1022.159	-3162
1022.228	-2544
1022.297	-2346
1022.366	-2376
1022.435	-2119
1022.504	-1357
1022.573	-2660
1022.642	-2583
1022.711	-2223
1022.781	-2320
1022.849	-2106
1022.918	-3172
1022.987	-2391
1023.056	-2810
1023.125	-2650
1023.194	-2329
1023.263	-2627
1023.331	-2459
1023.400	-2635
1023.469	-2755
1023.538	-1763
1023.606	-2904
1023.675	-2468
1023.744	-2264
1023.812	-2197
1023.881	-2177
1023.949	-2299
1024.018	-2762
1024.086	-1938
1024.155	-2537
1024.223	-2252
1024.292	-1935
1024.360	-2517
1024.429	-2854
1024.497	-2437
1024.565	-2067
1024.634	-2616
1024.702	-2001
1024.770	-1795
1024.838	-2034
1024.907	-2056
1024.975	-3239
1025.043	-1986
1025.111	-1936
1025.179	-2443
1025.247	-2224
1025.315	-1755
1025.383	-1934
1025.451	-3013
1025.519	-2064
1025.587	-3113
1025.655	-2169
1025.723	-2210
1025.791	-2478
1025.859	-1484
1025.927	-2379
1025.995	-1778
1026.062	-2657
1026.130	-1996
1026.198	-2921
1026.266	-2468
1026.333	-1947
1026.401	-1893
1026.469	-2409
1026.536	-2456
1026.604	-1797
1026.671	-2436
1026.739	-2827
1026.806	-2813
1026.874	-2930
1026.941	-2195
1027.009	-2528
1027.076	-2961
1027.144	-1857
1027.211	-2414
1027.278	-3382
1027.345	-2575
1027.413	-2400
1027.480	-2728
1027.547	-2616
1027.614	-3139
1027.682	-2208
1027.749	-2147
1027.816	-2728
1027.883	-2330
1027.950	-2454
1028.017	-2581
1028.084	-1749
1028.151	-2227
1028.218	-2754
1028.285	-1874
1028.352	-2315
1028.419	-2620
1028.486	-2290
1028.553	-2309
1028.619	-2717
1028.686	-2996
1028.753	-2754
1028.820	-2672
1028.886	-3153
1028.953	-1888
1029.020	-2628
1029.086	-1813
1029.153	-2427
1029.220	-3133
1029.286	-1940
1029.353	-3084
1029.419	-2680
1029.486	-2879
1029.552	-2680
1029.619	-2621
1029.685	-2050
1029.751	-2821
1029.818	-2379
1029.884	-3132
1029.951	-1573
1030.017	-2506
1030.083	-2342
1030.149	-2498
1030.216	-2540
1030.282	-2449
1030.348	-1784
1030.414	-3498
1030.480	-3047
1030.546	-2664
1030.612	-1998
1030.678	-2651
1030.744	-2094
1030.810	-2611
1030.876	-2098
1030.942	-3337
1031.008	-2577
1031.074	-2631
1031.140	-2090
1031.206	-1773
1031.272	-2571
1031.337	-2724
1031.403	-1771
1031.469	-1981
1031.534	-3165
1031.600	-1885
1031.666	-3157
1031.731	-2721
1031.797	-2781
1031.863	-2982
1031.928	-2737
1031.994	-2838
1032.059	-1905
1032.125	-2460
1032.190	-1983
1032.256	-2785
1032.321	-2484
1032.386	-2851
1032.452	-2253
1032.517	-2361
1032.582	-3100
1032.647	-2264
1032.713	-2375
1032.778	-3106
1032.843	-3083
1032.908	-2324
1032.974	-2174
1033.039	-2982
1033.104	-1927
1033.169	-3158
1033.234	-2603
1033.299	-2069
1033.364	-1791
1033.429	-1971
1033.494	-2164
1033.559	-2493
1033.624	-2694
1033.688	-2248
1033.753	-2185
1033.818	-2788
1033.883	-2095
1033.948	-2737
1034.013	-1658
1034.077	-2543
1034.142	-1679
1034.207	-2506
1034.271	-2144
1034.336	-1545
1034.400	-2701
1034.465	-2365
1034.530	-1722
1034.594	-2010
1034.658	-2214
1034.723	-3184
1034.787	-2206
1034.852	-1784
1034.916	-2436
1034.981	-2236
1035.045	-2488
1035.109	-2632
1035.173	-2247
1035.238	-2168
1035.302	-3162
1035.366	-2624
1035.430	-1415
1035.495	-2418
1035.559	-1979
1035.623	-2896
1035.687	-2092
1035.751	-2734
1035.815	-2194
1035.879	-3003
1035.943	-2394
1036.007	-2849
1036.071	-2034
1036.135	-2306
1036.198	-2169
1036.262	-2922
1036.326	-2299
1036.390	-1892
1036.454	-2457
1036.517	-2574
1036.581	-2094
1036.645	-2220
1036.709	-1653
1036.772	-2403
1036.836	-2208
1036.900	-2752
1036.963	-2796
1037.026	-2805
1037.090	-3127
1037.154	-2901
1037.217	-2369
1037.280	-1967
1037.344	-2389
1037.407	-2913
1037.471	-2854
1037.534	-2298
1037.597	-1757
1037.661	-3076
1037.724	-2656
1037.787	-3813
1037.850	-2726
1037.913	-2161
1037.977	-2173
1038.040	-2625
1038.103	-2246
1038.166	-2829
1038.229	-2251
1038.292	-2641
1038.355	-2328
1038.418	-2527
1038.481	-1290
1038.544	-2227
1038.607	-2233
1038.670	-2676
1038.732	-2195
1038.795	-2914
1038.858	-3312
1038.921	-2857
1038.984	-2045
1039.046	-2228
1039.109	-2227
1039.172	-2940
1039.234	-3177
1039.297	-1793
1039.360	-2373
1039.422	-2537
1039.485	-3002
1039.547	-2128
1039.610	-2771
1039.672	-2511
1039.734	-3042
1039.797	-1926
1039.859	-1928
1039.922	-2817
1039.984	-2951
1040.046	-2688
1040.109	-2437
1040.171	-2491
1040.233	-3243
1040.295	-2048
1040.358	-2340
1040.420	-2864
1040.482	-2221
1040.544	-3243
1040.606	-2434
1040.668	-2602
1040.730	-2384
1040.792	-2530
1040.854	-2476
1040.916	-2201
1040.978	-2149
1041.040	-2763
1041.102	-3489
1041.164	-2263
1041.225	-2726
1041.287	-2599
1041.349	-2614
1041.411	-2432
1041.472	-1965
1041.534	-2678
1041.596	-3032
1041.657	-2213
1041.719	-2108
1041.781	-2983
1041.842	-3038
1041.904	-2395
1041.965	-2179
1042.027	-2509
1042.088	-1704
1042.150	-2390
1042.211	-3011
1042.272	-2955
1042.334	-2312
1042.395	-2513
1042.456	-2561
1042.518	-2480
1042.579	-2178
1042.640	-2802
1042.701	-2724
1042.763	-2666
1042.824	-2285
1042.885	-3550
1042.946	-3281
1043.007	-2330
1043.068	-2475
1043.129	-2461
1043.190	-2482
1043.251	-2643
1043.312	-2113
1043.373	-2559
1043.434	-1930
1043.495	-2485
1043.556	-2215
1043.616	-2667
1043.677	-2379
1043.738	-2344
1043.799	-2937
1043.859	-3074
1043.920	-2822
1043.981	-2117
1044.041	-1615
1044.102	-2598
1044.162	-2438
1044.223	-3524
1044.284	-2408
1044.344	-2353
1044.405	-2714
1044.465	-2500
1044.525	-2393
1044.586	-2412
1044.646	-2617
1044.707	-3073
1044.767	-2538
1044.827	-2174
1044.887	-2287
1044.948	-2445
1045.008	-1251
1045.068	-2567
1045.128	-2603
1045.188	-2399
1045.249	-1571
1045.309	-2784
1045.369	-1934
1045.429	-3064
1045.489	-2350
1045.549	-2201
1045.609	-2561
1045.669	-2251
1045.729	-1839
1045.789	-2260
1045.848	-2013
1045.908	-1814
1045.968	-2294
1046.028	-2390
1046.088	-2205
1046.147	-1053
1046.207	-2167
1046.267	-2441
1046.326	-1776
1046.386	-1410
1046.446	-1229
1046.505	-1860
1046.565	-1321
1046.624	-1617
1046.684	-1210
1046.743	-1481
1046.803	-1225
1046.862	-1491
1046.922	0
