'Start Wavelength	183.907
'End Wavelength	1046.922
'Gate Delay	5.000
'Gate Width (ms)	1.050
'Laser Output Level	0.000
'X Position	0.000
'Y Position	0.000
'Z Position	0.000
'Grid Point Number	1.000
'Shot Number	100.000
183.907	1214.000
183.977	492.000
184.047	839
184.116	-125
184.186	458
184.256	638
184.325	652
184.395	114
184.465	1800
184.534	1276
184.604	434
184.674	35
184.743	19
184.813	1716
184.883	792
184.952	859
185.022	400
185.092	862
185.161	868
185.231	846
185.301	1315
185.370	1063
185.440	933
185.509	504
185.579	1187
185.649	1351
185.718	750
185.788	843
185.857	71
185.927	796
185.996	974
186.066	968
186.136	910
186.205	1205
186.275	1087
186.344	676
186.414	691
186.483	1582
186.553	3162
186.622	5710
186.692	2119
186.761	1320
186.831	1361
186.900	413
186.970	1095
187.039	1487
187.109	2534
187.178	1660
187.248	1590
187.317	2278
187.387	1562
187.456	1810
187.526	3281
187.595	2371
187.664	1110
187.734	2129
187.803	2913
187.873	2382
187.942	3552
188.012	1121
188.081	672
188.150	1767
188.220	3377
188.289	4514
188.358	2319
188.428	1806
188.497	1519
188.567	2486
188.636	1475
188.705	487
188.775	1239
188.844	1436
188.913	2828
188.983	1858
189.052	1707
189.121	1787
189.191	1602
189.260	2402
189.329	2876
189.399	3114
189.468	2651
189.537	1286
189.606	2030
189.676	1661
189.745	2000
189.814	2650
189.883	1702
189.953	2515
190.022	3723
190.091	10807
190.161	15241
190.230	6908
190.299	3087
190.368	1515
190.437	1189
190.507	2065
190.576	1719
190.645	1749
190.714	1844
190.783	1739
190.853	1905
190.922	1514
190.991	2719
191.060	1276
191.129	1352
191.198	2080
191.268	1134
191.337	1376
191.406	2121
191.475	1663
191.544	2115
191.613	1751
191.682	1672
191.752	1123
191.821	2296
191.890	2656
191.959	2031
192.028	1496
192.097	1572
192.166	1606
192.235	1553
192.304	1840
192.373	1926
192.442	1132
192.511	1444
192.580	1839
192.650	1056
192.719	1923
192.788	2122
192.857	1736
192.926	1333
192.995	1823
193.064	2735
193.133	3040
193.202	4121
193.271	4368
193.340	3951
193.409	4314
193.478	4504
193.547	5696
193.615	7274
193.684	7621
193.753	5173
193.822	3500
193.891	2844
193.960	2439
194.029	1526
194.098	3569
194.167	1248
194.236	1999
194.305	1629
194.374	2438
194.443	2388
194.512	2677
194.580	3209
194.649	2955
194.718	4066
194.787	2415
194.856	2465
194.925	3049
194.994	2416
195.062	3383
195.131	3340
195.200	3253
195.269	5783
195.338	3346
195.407	3689
195.475	2464
195.544	3736
195.613	4323
195.682	2491
195.751	4149
195.819	4370
195.888	4046
195.957	5131
196.026	5424
196.094	4069
196.163	4475
196.232	4485
196.301	3402
196.369	3642
196.438	3459
196.507	2875
196.576	3134
196.644	2401
196.713	2307
196.782	3010
196.850	2834
196.919	2530
196.988	2811
197.056	1956
197.125	3218
197.194	3449
197.262	2375
197.331	2491
197.400	2357
197.468	2898
197.537	2544
197.606	3333
197.674	6674
197.743	15045
197.812	7491
197.880	13343
197.949	10894
198.017	11723
198.086	9528
198.155	4880
198.223	5496
198.292	15792
198.360	8293
198.429	5297
198.497	4291
198.566	8882
198.635	16630
198.703	6378
198.772	5733
198.840	16819
198.909	21244
198.977	5823
199.046	4965
199.114	3774
199.183	4468
199.251	3143
199.320	3246
199.388	2671
199.457	3497
199.525	3176
199.594	4157
199.662	2618
199.731	2789
199.799	3612
199.867	4571
199.936	3851
200.004	3213
200.073	3333
200.141	2727
200.210	2747
200.278	3119
200.346	2797
200.415	5726
200.483	6746
200.552	5308
200.620	3684
200.688	4299
200.757	2814
200.825	3794
200.893	3209
200.962	3784
201.030	2588
201.098	2774
201.167	3841
201.235	3941
201.303	4205
201.372	4489
201.440	4308
201.508	6067
201.577	5372
201.645	5510
201.713	4118
201.781	5292
201.850	7840
201.918	4387
201.986	3917
202.055	3681
202.123	4428
202.191	3641
202.259	3072
202.327	3882
202.396	3460
202.464	4778
202.532	9226
202.600	31107
202.669	22165
202.737	7101
202.805	5813
202.873	4668
202.941	4413
203.009	4428
203.078	4065
203.146	4722
203.214	3509
203.282	3928
203.350	3940
203.418	3467
203.487	3877
203.555	3395
203.623	3289
203.691	3886
203.759	2885
203.827	3408
203.895	4685
203.963	4210
204.031	4186
204.099	5297
204.168	3533
204.236	3655
204.304	5146
204.372	4753
204.440	4156
204.508	3537
204.576	2833
204.644	2937
204.712	3033
204.780	4113
204.848	4170
204.916	3762
204.984	3905
205.052	3639
205.120	4474
205.188	5257
205.256	3604
205.324	4087
205.392	4097
205.460	4987
205.528	6346
205.596	6706
205.664	4557
205.732	5785
205.799	16637
205.867	34304
205.935	8983
206.003	6477
206.071	5038
206.139	6021
206.207	6418
206.275	4768
206.343	4001
206.411	4293
206.478	4272
206.546	5601
206.614	4536
206.682	4540
206.750	5011
206.818	8311
206.885	8584
206.953	4361
207.021	4957
207.089	4361
207.157	3638
207.225	5153
207.292	4175
207.360	5457
207.428	5500
207.496	4076
207.563	4760
207.631	4196
207.699	4063
207.767	5056
207.834	4792
207.902	6085
207.970	4674
208.038	5184
208.105	4241
208.173	4990
208.241	9072
208.309	7227
208.376	6822
208.444	15150
208.512	9002
208.579	4727
208.647	7019
208.715	9858
208.782	5730
208.850	5541
208.918	4651
208.985	4947
209.053	5541
209.120	5922
209.188	4127
209.256	4958
209.323	5184
209.391	9364
209.459	7594
209.526	5696
209.594	5326
209.661	5590
209.729	5220
209.796	5880
209.864	6614
209.932	5754
209.999	6523
210.067	7245
210.134	6757
210.202	8352
210.269	9863
210.337	12002
210.404	8411
210.472	6205
210.539	5172
210.607	6255
210.674	8740
210.742	7317
210.809	5782
210.877	7917
210.944	8798
211.012	7062
211.079	8702
211.146	6236
211.214	7438
211.281	13444
211.349	12380
211.416	7674
211.484	8939
211.551	6985
211.618	6435
211.686	6885
211.753	6224
211.821	6601
211.888	6737
211.955	8316
212.023	6666
212.090	7028
212.157	8237
212.225	9547
212.292	17539
212.359	34853
212.427	95541
212.494	48272
212.561	16975
212.629	11268
212.696	9412
212.763	8662
212.831	8596
212.898	8242
212.965	7373
213.032	7425
213.100	8833
213.167	8692
213.234	10581
213.301	7802
213.369	7222
213.436	7236
213.503	7243
213.570	8381
213.638	6997
213.705	6307
213.772	5543
213.839	8068
213.906	9562
213.973	9797
214.041	7610
214.108	7519
214.175	7422
214.242	7387
214.309	6732
214.376	7684
214.444	7211
214.511	8897
214.578	8055
214.645	8201
214.712	9436
214.779	9419
214.846	8144
214.913	9229
214.980	9945
215.048	11473
215.115	13775
215.182	12258
215.249	9174
215.316	8531
215.383	8047
215.450	8252
215.517	6924
215.584	7163
215.651	7063
215.718	6901
215.785	10709
215.852	9938
215.919	10612
215.986	9937
216.053	7115
216.120	6136
216.187	9451
216.254	8696
216.321	8287
216.388	9109
216.455	10528
216.522	9571
216.589	10854
216.656	20631
216.722	22959
216.789	12738
216.856	11635
216.923	9836
216.990	10101
217.057	9970
217.124	12259
217.191	11845
217.258	12920
217.324	15935
217.391	15003
217.458	12824
217.525	11337
217.592	10032
217.659	9370
217.725	12583
217.792	17677
217.859	18992
217.926	9328
217.993	8280
218.059	8117
218.126	8315
218.193	7546
218.260	7646
218.327	7310
218.393	7817
218.460	7269
218.527	7359
218.594	8927
218.660	19858
218.727	21458
218.794	9774
218.860	7824
218.927	7036
218.994	7130
219.061	7633
219.127	10946
219.194	18988
219.261	9615
219.327	6728
219.394	7765
219.461	6053
219.527	6525
219.594	14255
219.661	11658
219.727	6059
219.794	8415
219.860	7335
219.927	8729
219.994	14053
220.060	29938
220.127	23119
220.193	12881
220.260	11019
220.326	14120
220.393	19054
220.460	24068
220.526	17791
220.593	14046
220.659	13696
220.726	15612
220.792	41264
220.859	36895
220.925	33410
220.992	39687
221.058	48782
221.125	61139
221.191	47276
221.258	20522
221.324	13197
221.391	12302
221.457	9602
221.524	10223
221.590	16078
221.657	55842
221.723	44581
221.789	35297
221.856	34499
221.922	19153
221.989	12525
222.055	9826
222.121	9306
222.188	13607
222.254	12202
222.321	9109
222.387	7274
222.453	7889
222.520	7005
222.586	6917
222.652	7833
222.719	6654
222.785	8008
222.851	6734
222.918	6478
222.984	6500
223.050	6578
223.116	5762
223.183	7620
223.249	5505
223.315	5355
223.382	6868
223.448	7096
223.514	6299
223.580	5045
223.647	5786
223.713	6440
223.779	6927
223.845	6583
223.911	6473
223.978	6014
224.044	6921
224.110	6270
224.176	6395
224.242	6511
224.309	5179
224.375	6238
224.441	5372
224.507	5112
224.573	5492
224.639	7172
224.705	5043
224.772	6993
224.838	5576
224.904	8041
224.970	6708
225.036	6729
225.102	6792
225.168	7447
225.234	7152
225.300	6715
225.366	6767
225.432	6461
225.499	6912
225.565	7911
225.631	9237
225.697	8154
225.763	8959
225.829	10491
225.895	11441
225.961	20833
226.027	17050
226.093	14494
226.159	14775
226.225	21257
226.291	41786
226.357	69236
226.423	37213
226.489	24457
226.554	17051
226.620	15847
226.686	19647
226.752	28393
226.818	40286
226.884	95499
226.950	88475
227.016	35516
227.082	22604
227.148	17438
227.214	18726
227.279	14770
227.345	13293
227.411	14560
227.477	18463
227.543	45031
227.609	49152
227.674	23005
227.740	14140
227.806	13027
227.872	13192
227.938	11177
228.003	14921
228.069	10686
228.135	7616
228.201	8532
228.267	7267
228.332	10694
228.398	16582
228.464	12768
228.530	7449
228.595	8343
228.661	8442
228.727	16794
228.792	13885
228.858	9332
228.924	9523
228.990	14550
229.055	10972
229.121	14434
229.187	9931
229.252	10965
229.318	8011
229.384	8897
229.449	13024
229.515	7052
229.581	5783
229.646	8933
229.712	11207
229.777	27124
229.843	32622
229.909	18865
229.974	18073
230.040	18583
230.105	14226
230.171	16183
230.236	19320
230.302	29732
230.368	24597
230.433	13749
230.499	12530
230.564	12301
230.630	10077
230.695	9903
230.761	9691
230.826	8578
230.892	17365
230.957	13107
231.023	8936
231.088	10547
231.154	10497
231.219	10889
231.284	16277
231.350	19492
231.415	11205
231.481	9537
231.546	8745
231.612	8358
231.677	7771
231.742	7586
231.808	10024
231.873	8051
231.939	7412
232.004	19066
232.069	20886
232.135	11847
232.200	10154
232.265	8651
232.331	8154
232.396	7380
232.461	6466
232.527	7598
232.592	9754
232.657	9723
232.723	19404
232.788	16723
232.853	8958
232.918	7684
232.984	8653
233.049	8693
233.114	16490
233.179	18797
233.245	23080
233.310	33592
233.375	11036
233.440	10338
233.506	7727
233.571	7867
233.636	8134
233.701	8593
233.766	18269
233.832	27238
233.897	12165
233.962	11222
234.027	13752
234.092	12571
234.157	11196
234.222	12993
234.288	19367
234.353	58502
234.418	53518
234.483	29395
234.548	21322
234.613	16466
234.678	15813
234.743	18758
234.808	57435
234.873	42776
234.938	17379
235.004	13857
235.069	13554
235.134	12618
235.199	12332
235.264	11078
235.329	10156
235.394	11519
235.459	15530
235.524	15762
235.589	12780
235.654	10283
235.719	10128
235.784	11622
235.849	13353
235.913	32498
235.978	34110
236.043	41508
236.108	18066
236.173	15826
236.238	18077
236.303	13475
236.368	12367
236.433	20576
236.498	40900
236.563	24309
236.627	37099
236.692	131670
236.757	116878
236.822	45939
236.887	38054
236.952	27650
237.017	22823
237.081	25187
237.146	29066
237.211	52092
237.276	129208
237.341	253222
237.405	120726
237.470	45695
237.535	37064
237.600	23804
237.664	19149
237.729	16649
237.794	19467
237.859	32619
237.923	31539
237.988	20908
238.053	26947
238.118	31974
238.182	73793
238.247	74496
238.312	36096
238.376	26290
238.441	21584
238.506	18817
238.570	12888
238.635	13725
238.700	11859
238.764	13172
238.829	32958
238.893	48975
238.958	21480
239.023	20676
239.087	14790
239.152	16217
239.216	12503
239.281	13394
239.346	11298
239.410	11771
239.475	16474
239.539	69989
239.604	68193
239.668	21897
239.733	17232
239.797	29089
239.862	80776
239.926	87983
239.991	35808
240.055	18647
240.120	15014
240.184	14924
240.249	13079
240.313	12180
240.378	14274
240.442	41736
240.507	77221
240.571	26143
240.635	35037
240.700	49758
240.764	18521
240.829	14268
240.893	11410
240.957	13609
241.022	38962
241.086	76267
241.151	40923
241.215	16212
241.279	19711
241.344	42077
241.408	22477
241.472	16515
241.537	17763
241.601	15784
241.665	12948
241.730	14196
241.794	16254
241.858	14207
241.922	14779
241.987	14571
242.051	12571
242.115	11655
242.179	13030
242.244	12081
242.308	14480
242.372	14810
242.436	18886
242.501	15593
242.565	12676
242.629	12922
242.693	12618
242.757	11648
242.822	13339
242.886	15066
242.950	14508
243.014	17131
243.078	17135
243.142	17545
243.206	16050
243.271	18447
243.335	19387
243.399	30829
243.463	105066
243.527	299684
243.591	101715
243.655	39186
243.719	24713
243.783	23464
243.847	37643
243.911	50787
243.975	52692
244.040	38534
244.104	20381
244.168	15786
244.232	24789
244.296	36880
244.360	44026
244.424	25794
244.488	21293
244.552	18611
244.615	13679
244.679	14892
244.743	18998
244.807	22743
244.871	13929
244.935	13133
244.999	12576
245.063	14858
245.127	17001
245.191	29651
245.255	31955
245.319	22456
245.383	22514
245.446	16595
245.510	13658
245.574	15432
245.638	16879
245.702	16659
245.766	44544
245.829	28233
245.893	20679
245.957	16277
246.021	17365
246.085	19431
246.149	23967
246.212	54928
246.276	98293
246.340	42723
246.404	26655
246.467	26381
246.531	46614
246.595	26577
246.659	22035
246.722	22507
246.786	27525
246.850	28972
246.913	41098
246.977	20684
247.041	18874
247.104	22283
247.168	21534
247.232	50474
247.295	126490
247.359	63205
247.423	27430
247.486	47702
247.550	30378
247.614	22913
247.677	29702
247.741	20980
247.804	18435
247.868	22300
247.932	45817
247.995	116094
248.059	44458
248.122	23197
248.186	27224
248.249	47279
248.313	186113
248.376	204355
248.440	132000
248.503	48665
248.567	35300
248.630	50652
248.694	67251
248.757	81681
248.821	209106
248.884	115836
248.948	99967
249.011	153101
249.075	237040
249.138	210622
249.202	74432
249.265	48596
249.328	62019
249.392	44229
249.455	34246
249.519	28502
249.582	34116
249.645	55135
249.709	43212
249.772	29561
249.835	28427
249.899	35924
249.962	30519
250.025	28566
250.089	68894
250.152	102807
250.215	46990
250.279	37499
250.342	35468
250.405	34569
250.468	33888
250.532	43263
250.595	69703
250.658	252052
250.721	456303
250.785	161883
250.848	77794
250.911	50203
250.974	45053
251.038	59115
251.101	127944
251.164	67385
251.227	62346
251.290	59704
251.354	89366
251.417	351781
251.480	391100
251.543	248246
251.606	654222
251.669	543301
251.732	199343
251.795	183513
251.859	192565
251.922	417583
251.985	265746
252.048	92062
252.111	66926
252.174	62266
252.237	101108
252.300	250400
252.363	254404
252.426	543693
252.489	247503
252.552	112744
252.615	77289
252.678	78886
252.741	182705
252.804	245389
252.867	554716
252.930	337056
252.993	169201
253.056	94319
253.119	69203
253.182	55601
253.245	99200
253.308	73390
253.371	65053
253.434	58497
253.497	52619
253.559	105128
253.622	76424
253.685	82186
253.748	85728
253.811	44499
253.874	56865
253.937	57486
254.000	40468
254.062	69997
254.125	124429
254.188	84382
254.251	83064
254.314	42211
254.376	71238
254.439	79863
254.502	63767
254.565	73578
254.628	136493
254.690	74495
254.753	44134
254.816	36053
254.878	40663
254.941	82415
255.004	97421
255.067	38951
255.129	37246
255.192	24245
255.255	22783
255.317	25278
255.380	20065
255.443	16792
255.505	17421
255.568	17222
255.631	18589
255.693	20184
255.756	17362
255.819	16755
255.881	17058
255.944	16270
256.006	16106
256.069	18106
256.132	16282
256.194	23386
256.257	65578
256.319	51629
256.382	49642
256.444	28888
256.507	22263
256.569	20694
256.632	20186
256.694	35702
256.757	65916
256.819	201601
256.882	90597
256.944	38687
257.007	29707
257.069	36109
257.132	24678
257.194	21954
257.257	20758
257.319	23006
257.381	24901
257.444	54294
257.506	234796
257.569	276438
257.631	179268
257.693	88621
257.756	45140
257.818	42470
257.880	27172
257.943	23264
258.005	20982
258.067	19561
258.130	17982
258.192	23583
258.254	50331
258.317	35061
258.379	24458
258.441	67040
258.503	66581
258.566	75771
258.628	110135
258.690	31380
258.753	26347
258.815	44140
258.877	30138
258.939	20603
259.001	19102
259.064	19589
259.126	25652
259.188	38412
259.250	25947
259.312	36218
259.375	101702
259.437	67159
259.499	25286
259.561	23557
259.623	24308
259.685	20075
259.747	23933
259.809	69089
259.872	143804
259.934	190589
259.996	175963
260.058	47437
260.120	28406
260.182	24221
260.244	20806
260.306	18664
260.368	19870
260.430	19653
260.492	30259
260.554	74828
260.616	83558
260.678	101620
260.740	156038
260.802	43318
260.864	30414
260.926	26167
260.988	25949
261.050	24441
261.112	38820
261.174	114465
261.236	120171
261.298	38724
261.359	60424
261.421	95741
261.483	31205
261.545	23576
261.607	18621
261.669	19636
261.731	39677
261.793	98827
261.854	46427
261.916	28096
261.978	22345
262.040	24459
262.102	22506
262.164	38780
262.225	34444
262.287	22251
262.349	50857
262.411	44989
262.472	23507
262.534	41490
262.596	99562
262.658	34596
262.719	22297
262.781	30210
262.843	90053
262.904	44828
262.966	31746
263.028	42835
263.090	163421
263.151	450406
263.213	143181
263.275	64987
263.336	36316
263.398	27124
263.459	21880
263.521	22187
263.583	45513
263.644	36489
263.706	17749
263.767	14979
263.829	14736
263.891	12843
263.952	13171
264.014	12557
264.075	16015
264.137	28768
264.198	22351
264.260	13245
264.321	13200
264.383	28586
264.444	53895
264.506	20564
264.567	17150
264.629	20406
264.690	34876
264.752	21393
264.813	16865
264.875	13685
264.936	14091
264.998	13017
265.059	14784
265.120	15756
265.182	22021
265.243	81644
265.305	91022
265.366	27881
265.427	17896
265.489	15831
265.550	12928
265.611	17208
265.673	18004
265.734	14113
265.795	13052
265.857	13662
265.918	15618
265.979	29603
266.040	147554
266.102	134215
266.163	39321
266.224	32361
266.286	22582
266.347	19224
266.408	19637
266.469	21875
266.530	17794
266.592	18888
266.653	32800
266.714	53424
266.775	22210
266.836	17011
266.898	17219
266.959	21602
267.020	18633
267.081	17841
267.142	16686
267.203	18630
267.264	17461
267.326	21777
267.387	17408
267.448	16417
267.509	15440
267.570	16749
267.631	15901
267.692	19357
267.753	30254
267.814	18133
267.875	31590
267.936	69541
267.997	29427
268.058	24330
268.119	18568
268.180	17765
268.241	14533
268.302	14396
268.363	13364
268.424	14860
268.485	17290
268.546	13293
268.607	11040
268.668	11597
268.729	13086
268.790	15428
268.851	17251
268.912	36345
268.972	47036
269.033	25879
269.094	16163
269.155	14896
269.216	13669
269.277	16461
269.338	14294
269.398	13544
269.459	17167
269.520	21106
269.581	27289
269.642	31980
269.702	24141
269.763	19443
269.824	16690
269.885	24171
269.945	33138
270.006	16201
270.067	12345
270.128	14524
270.188	14576
270.249	15425
270.310	11810
270.370	14556
270.431	16080
270.492	13178
270.553	15250
270.613	30278
270.674	60058
270.734	31369
270.795	17550
270.856	24748
270.916	23709
270.977	15401
271.038	18107
271.098	19992
271.159	28704
271.219	33618
271.280	16887
271.340	15877
271.401	20656
271.462	51768
271.522	30319
271.583	19308
271.643	20462
271.704	19582
271.764	22461
271.825	46506
271.885	151708
271.946	237424
272.006	75938
272.066	94057
272.127	188998
272.187	64842
272.248	37516
272.308	38717
272.369	126635
272.429	78467
272.489	47385
272.550	49481
272.610	48285
272.671	44897
272.731	39262
272.791	66485
272.852	39064
272.912	32178
272.972	23816
273.033	23271
273.093	35851
273.153	35090
273.214	28640
273.274	32301
273.334	78326
273.394	180065
273.455	76054
273.515	67496
273.575	150365
273.635	72369
273.696	90677
273.756	188879
273.816	83420
273.876	51696
273.936	91022
273.997	162852
274.057	53387
274.117	40316
274.177	50805
274.237	189776
274.297	187317
274.358	129709
274.418	140471
274.478	104784
274.538	45483
274.598	41560
274.658	122386
274.718	168833
274.778	69765
274.838	41192
274.898	75408
274.958	231961
275.018	192675
275.078	125934
275.138	50633
275.198	34323
275.258	27507
275.318	32548
275.378	49777
275.438	50314
275.498	38455
275.558	94795
275.618	207961
275.678	132206
275.738	67557
275.798	51311
275.858	29668
275.918	21625
275.978	26424
276.038	25134
276.098	21623
276.157	38440
276.217	100823
276.277	56662
276.337	39165
276.397	25746
276.457	30482
276.517	23638
276.576	20583
276.636	24665
276.696	41936
276.756	66045
276.815	56091
276.875	30552
276.935	33505
276.995	32461
277.055	24036
277.114	25064
277.174	31120
277.234	85474
277.293	44693
277.353	28330
277.413	23304
277.472	25390
277.532	28661
277.592	38129
277.651	126185
277.711	265207
277.771	96790
277.830	258717
277.890	236965
277.950	162425
278.009	455832
278.069	199902
278.128	180094
278.188	272644
278.248	122192
278.307	286606
278.367	188628
278.426	62385
278.486	43403
278.545	36514
278.605	33019
278.664	32592
278.724	35178
278.783	71437
278.843	184993
278.902	69419
278.962	47251
279.021	57052
279.081	119791
279.140	129378
279.199	66914
279.259	65097
279.318	75483
279.378	104479
279.437	183713
279.496	532374
279.556	1259470
279.615	1182568
279.675	426740
279.734	235697
279.793	299585
279.853	454906
279.912	177456
279.971	102719
280.031	94958
280.090	140878
280.149	256515
280.208	262017
280.268	847492
280.327	995287
280.386	319354
280.445	176843
280.505	138950
280.564	83220
280.623	65683
280.682	73333
280.742	93902
280.801	44921
280.860	37013
280.919	33503
280.978	34744
281.037	33989
281.097	29669
281.156	33186
281.215	31165
281.274	36380
281.333	107926
281.392	95314
281.451	33022
281.510	27529
281.569	26810
281.628	25050
281.688	24121
281.747	25429
281.806	24769
281.865	21608
281.924	20140
281.983	21095
282.042	18124
282.101	18938
282.160	19312
282.219	19927
282.278	24455
282.337	55154
282.396	45614
282.454	25012
282.513	27842
282.572	77751
282.631	53500
282.690	25265
282.749	21268
282.808	24189
282.867	24676
282.926	25640
282.985	19664
283.043	19677
283.102	22269
283.161	26107
283.220	45105
283.279	101414
283.338	40278
283.396	27938
283.455	27085
283.514	28803
283.573	53785
283.631	44586
283.690	27589
283.749	26365
283.808	41044
283.866	50045
283.925	28538
283.984	27261
284.043	34687
284.101	37997
284.160	32255
284.219	35398
284.277	38097
284.336	63195
284.395	125939
284.453	115925
284.512	57536
284.570	65515
284.629	67655
284.688	71653
284.746	82333
284.805	97463
284.863	124203
284.922	157095
284.981	197164
285.039	283562
285.098	466748
285.156	940188
285.215	1435931
285.273	1479791
285.332	1059210
285.390	589813
285.449	372758
285.507	257791
285.566	195274
285.624	148692
285.683	112203
285.741	91188
285.799	75871
285.858	66658
285.916	62472
285.975	51047
286.033	43406
286.091	41892
286.150	37988
286.208	36306
286.267	40251
286.325	39369
286.383	43907
286.442	40056
286.500	32591
286.558	32761
286.616	26840
286.675	35474
286.733	34583
286.791	32207
286.850	31019
286.908	34462
286.966	48622
287.024	29946
287.083	25623
287.141	21731
287.199	23046
287.257	29988
287.315	25644
287.374	28242
287.432	48347
287.490	37506
287.548	27757
287.606	25715
287.664	25493
287.723	28395
287.781	33920
287.839	27488
287.897	31314
287.955	41521
288.013	64830
288.071	140475
288.129	457813
288.187	1243293
288.245	641135
288.303	206113
288.361	116317
288.419	85011
288.477	61330
288.535	47531
288.593	36723
288.651	29794
288.709	25409
288.767	23974
288.825	22855
288.883	19630
288.941	23933
288.999	22924
289.057	18115
289.115	16411
289.173	18429
289.231	19579
289.289	21762
289.346	22871
289.404	23006
289.462	29433
289.520	28650
289.578	18770
289.636	14398
289.694	14844
289.751	13977
289.809	14278
289.867	14950
289.925	16588
289.983	20234
290.040	13723
290.098	12657
290.156	15783
290.214	17861
290.271	14433
290.329	12965
290.387	12628
290.444	11919
290.502	10580
290.560	11767
290.617	12880
290.675	14417
290.733	13237
290.790	15571
290.848	13374
290.906	18285
290.963	16800
291.021	15055
291.078	15956
291.136	19460
291.194	34241
291.251	74336
291.309	26343
291.366	14219
291.424	14673
291.481	17138
291.539	20602
291.596	23712
291.654	13625
291.711	11612
291.769	15145
291.826	27809
291.884	20059
291.941	13337
291.999	13004
292.056	15437
292.114	16519
292.171	12390
292.228	15077
292.286	18347
292.343	28861
292.401	38546
292.458	28694
292.515	20440
292.573	22707
292.630	20788
292.687	23841
292.745	17879
292.802	22085
292.859	47953
292.917	107187
292.974	63522
293.031	23941
293.089	18924
293.146	16165
293.203	14974
293.260	14329
293.318	24496
293.375	24116
293.432	15056
293.489	15188
293.546	19620
293.604	33003
293.661	95415
293.718	212245
293.775	93523
293.832	47083
293.889	47382
293.947	53323
294.004	37496
294.061	30465
294.118	43236
294.175	78374
294.232	73229
294.289	40600
294.346	24725
294.403	22003
294.460	23643
294.517	21301
294.574	17331
294.631	16404
294.688	21999
294.745	48750
294.802	165212
294.859	142197
294.916	67559
294.973	57255
295.030	34284
295.087	28550
295.144	20965
295.201	18644
295.258	19269
295.315	25627
295.372	65995
295.429	144212
295.486	60260
295.542	29058
295.599	40433
295.656	64300
295.713	61261
295.770	117870
295.827	48330
295.883	24405
295.940	22542
295.997	32363
296.054	33818
296.111	19284
296.167	14551
296.224	13295
296.281	12771
296.338	13641
296.394	14436
296.451	20148
296.508	49085
296.564	97500
296.621	63233
296.678	132613
296.734	216985
296.791	78105
296.848	40507
296.904	41206
296.961	75311
297.018	133807
297.074	108222
297.131	46430
297.187	36022
297.244	50763
297.301	143105
297.357	289882
297.414	102542
297.470	41013
297.527	29813
297.583	28256
297.640	25087
297.696	20161
297.753	16552
297.809	14052
297.866	12335
297.922	13548
297.979	14301
298.035	18834
298.092	30006
298.148	78351
298.204	81310
298.261	41522
298.317	59368
298.374	176613
298.430	116415
298.486	53219
298.543	45851
298.599	49160
298.656	64945
298.712	70224
298.768	143157
298.824	120568
298.881	45688
298.937	28122
298.993	22590
299.050	25833
299.106	22832
299.162	20036
299.218	24169
299.275	21001
299.331	25226
299.387	44870
299.443	155512
299.500	197150
299.556	88339
299.612	42055
299.668	43213
299.724	60875
299.780	69316
299.837	38529
299.893	46272
299.949	130053
300.005	171185
300.061	129975
300.117	240904
300.173	124839
300.229	55290
300.285	56083
300.341	60634
300.397	36126
300.453	27142
300.510	27715
300.566	31174
300.622	39217
300.678	106863
300.734	180052
300.790	134123
300.845	171969
300.901	113351
300.957	146922
301.013	106383
301.069	44590
301.125	32719
301.181	34755
301.237	27870
301.293	22879
301.349	22543
301.405	26320
301.461	32091
301.516	56075
301.572	41169
301.628	41574
301.684	40885
301.740	61511
301.796	108164
301.851	68453
301.907	94512
301.963	104446
302.019	156532
302.074	444842
302.130	463481
302.186	230489
302.242	95028
302.297	58341
302.353	54737
302.409	92612
302.464	93728
302.520	68320
302.576	143436
302.631	174920
302.687	90660
302.743	40642
302.798	26953
302.854	22665
302.910	22310
302.965	27712
303.021	48736
303.076	48250
303.132	51395
303.187	58878
303.243	32655
303.299	20536
303.354	17401
303.410	17851
303.465	17700
303.521	15456
303.576	17854
303.632	25782
303.687	46475
303.743	140723
303.798	129358
303.853	49500
303.909	27356
303.964	24456
304.020	30807
304.075	48873
304.130	42386
304.186	67631
304.241	66961
304.297	54488
304.352	33109
304.358	31995
304.407	22966
304.449	23416
304.463	23580
304.518	23474
304.539	22918
304.573	22037
304.629	24340
304.630	24631
304.684	39816
304.720	78905
304.739	98097
304.794	169062
304.811	143699
304.850	82352
304.902	37046
304.905	34219
304.960	24538
304.992	24130
305.015	23902
305.071	24760
305.083	23969
305.126	20821
305.173	15966
305.181	15235
305.236	13324
305.264	14806
305.292	16662
305.347	22568
305.354	23620
305.402	29509
305.445	28089
305.457	27656
305.512	26983
305.535	27668
305.567	28798
305.622	30791
305.626	31668
305.678	57416
305.716	112174
305.733	130076
305.788	163090
305.807	139739
305.843	103503
305.897	140161
305.898	140419
305.953	150119
305.988	97221
306.008	69722
306.063	40898
306.078	37026
306.118	28831
306.168	21474
306.173	20919
306.228	17713
306.259	16412
306.283	15521
306.338	14220
306.349	14366
306.393	15611
306.440	18423
306.448	18786
306.503	19062
306.530	20275
306.558	25812
306.613	48428
306.620	52393
306.668	84709
306.711	123765
306.723	126918
306.778	104205
306.801	78021
306.833	49442
306.888	26171
306.892	25209
306.943	19672
306.982	17901
306.997	17406
307.052	17024
307.072	16668
307.107	16964
307.162	18965
307.163	19018
307.217	26031
307.253	30479
307.272	31602
307.327	34997
307.343	33874
307.381	31650
307.434	31807
307.436	32747
307.491	59052
307.524	85440
307.546	92477
307.600	104685
307.614	95584
307.655	60819
307.704	31839
307.710	30684
307.765	32792
307.795	37717
307.819	42965
307.874	61053
307.885	61693
307.929	54385
307.975	46183
307.984	47915
308.038	69015
308.065	86249
308.093	162459
308.148	344300
308.156	385164
308.202	597262
308.246	757252
308.257	735265
308.312	372309
308.336	242305
308.366	180704
308.421	119511
308.426	113408
308.475	76471
308.517	56241
308.530	53330
308.585	47276
308.607	45666
308.639	45972
308.694	49009
308.697	49288
308.748	69135
308.787	90895
308.803	91192
308.857	79805
308.877	72864
308.912	71113
308.967	77440
308.967	77550
309.021	115730
309.058	148058
309.076	182763
309.130	308089
309.148	352493
309.185	619825
309.238	1056521
309.239	1059937
309.293	1183856
309.328	1109109
309.348	962098
309.402	485093
309.418	367135
309.457	272660
309.508	185013
309.511	184368
309.566	196459
309.598	210400
309.620	256245
309.674	392047
309.688	428263
309.729	417160
309.778	355375
309.783	346927
309.837	235723
309.868	179089
309.892	179638
309.946	195317
309.959	203076
310.001	232524
310.049	257489
310.055	248792
310.109	150940
310.139	96319
310.163	80333
310.218	56592
310.229	52550
310.272	42859
310.319	32934
310.326	32081
310.381	27466
310.409	25387
310.435	24548
310.489	23082
310.499	22970
310.543	22492
310.589	21517
310.598	21292
310.652	20589
310.679	20054
310.706	18899
310.760	16553
310.769	16193
310.814	15372
310.859	14884
310.868	15044
310.923	15792
310.948	16273
310.977	18528
311.031	23107
311.038	23712
311.085	22409
311.128	20617
311.139	20109
311.193	17497
311.218	16287
311.247	15400
311.301	13933
311.308	13741
311.356	13654
311.398	13657
311.410	13604
311.464	13282
311.488	13099
311.518	13578
311.572	14589
311.578	14694
311.626	20549
311.668	25851
311.680	25239
311.734	21792
311.758	20287
311.788	21248
311.842	23109
311.847	23263
311.896	25519
311.937	27460
311.950	27485
312.004	27375
312.027	27274
312.058	24139
312.112	18465
312.117	17877
312.165	15961
312.207	14310
312.297	17334
312.386	15812
312.476	24008
312.566	44283
312.656	20295
312.745	13158
312.835	13803
312.925	16875
313.015	15104
313.104	15681
313.194	20925
313.284	18265
313.374	23938
313.463	21128
313.553	16088
313.643	15801
313.732	14558
313.822	14510
313.912	16182
314.001	19973
314.091	19504
314.180	23019
314.270	24966
314.360	26712
314.449	24895
314.539	17584
314.628	15836
314.718	18979
314.808	22081
314.897	18351
314.987	20159
315.076	26831
315.166	30415
315.255	26922
315.345	27746
315.434	27174
315.524	28034
315.613	38726
315.703	60897
315.792	146797
315.881	588766
315.971	186858
316.060	63123
316.150	55380
316.239	48862
316.328	25325
316.418	20383
316.507	21765
316.597	29729
316.686	26677
316.775	32216
316.865	50330
316.954	20141
317.043	17809
317.133	21139
317.222	19090
317.311	19506
317.400	21770
317.490	34827
317.579	43665
317.668	49800
317.757	89874
317.847	264579
317.936	951610
318.025	295685
318.114	201071
318.203	94017
318.293	64499
318.382	116792
318.471	81574
318.560	89039
318.649	102477
318.738	31792
318.828	31302
318.917	29889
319.006	30396
319.095	61768
319.184	135198
319.273	95814
319.362	63436
319.451	26458
319.540	25034
319.629	56669
319.718	88578
319.807	37847
319.896	58691
319.985	181546
320.074	74605
320.163	24656
320.252	35869
320.341	25788
320.430	25384
320.519	46309
320.608	27502
320.697	24537
320.786	27026
320.875	36555
320.964	49279
321.053	70271
321.142	98088
321.230	100967
321.319	76427
321.408	152743
321.497	65717
321.586	67748
321.675	63215
321.764	60286
321.852	44827
321.941	92631
322.030	65419
322.119	67804
322.207	160594
322.296	84602
322.385	59333
322.474	79969
322.562	212285
322.651	98440
322.740	85532
322.829	106284
322.917	74903
323.006	57104
323.095	54622
323.183	35171
323.272	53029
323.361	83860
323.449	201293
323.538	68928
323.626	140807
323.715	87222
323.804	40184
323.892	123965
323.981	76670
324.069	28534
324.158	63406
324.246	58912
324.335	37722
324.424	57924
324.512	23476
324.601	28254
324.689	39456
324.778	56574
324.866	58452
324.954	20561
325.043	22143
325.131	36441
325.220	49338
325.308	57227
325.397	48113
325.485	31046
325.574	18618
325.662	17846
325.750	20575
325.839	17847
325.927	14209
326.015	20981
326.104	25532
326.192	31921
326.280	14069
326.369	16277
326.457	27081
326.545	47919
326.634	22819
326.722	13453
326.810	17595
326.898	16696
326.987	23860
327.075	46860
327.163	40252
327.251	19787
327.340	27903
327.428	29743
327.516	19476
327.604	20422
327.692	17664
327.781	17144
327.869	24750
327.957	19609
328.045	23152
328.133	12049
328.221	15985
328.309	15462
328.397	15667
328.485	22213
328.574	35249
328.662	109573
328.750	52633
328.838	19998
328.926	14828
329.014	13612
329.102	21155
329.190	41072
329.278	31650
329.366	12012
329.454	11210
329.542	11480
329.630	12398
329.718	13011
329.806	18941
329.893	16014
329.981	19105
330.069	36672
330.157	131907
330.245	370745
330.333	170567
330.421	34045
330.509	36716
330.597	127393
330.684	74631
330.772	22352
330.860	22046
330.948	25152
331.036	16982
331.123	10763
331.211	11565
331.299	14378
331.387	25353
331.475	42161
331.562	19391
331.650	12766
331.738	14542
331.825	15939
331.913	11799
332.001	12020
332.089	15728
332.176	26127
332.264	56588
332.352	44131
332.439	20720
332.527	15631
332.614	13923
332.702	17333
332.790	18088
332.877	38762
332.965	82837
333.052	51768
333.140	57658
333.228	150917
333.315	45839
333.403	23583
333.490	45932
333.578	72504
333.665	214102
333.753	93751
333.840	27244
333.928	25029
334.015	45390
334.103	66919
334.190	180381
334.278	59162
334.365	45532
334.452	40774
334.540	29949
334.627	32800
334.715	44726
334.802	77186
334.889	261417
334.977	265477
335.064	69847
335.151	36933
335.239	30836
335.326	35250
335.413	98266
335.501	114396
335.588	32076
335.675	28976
335.762	34349
335.850	49566
335.937	61514
336.024	113684
336.111	301549
336.199	162991
336.286	57230
336.373	33366
336.460	24530
336.547	21141
336.635	24125
336.722	23168
336.809	22656
336.896	32826
336.983	62078
337.070	124875
337.157	180152
337.245	144404
337.332	94748
337.419	20735
337.506	15551
337.593	17843
337.680	38608
337.767	90463
337.854	37685
337.941	40238
338.028	54782
338.115	23608
338.202	23237
338.289	43734
338.376	138076
338.463	44124
338.550	58038
338.637	56129
338.724	28736
338.811	38806
338.898	14907
338.984	12736
339.071	15031
339.158	22777
339.245	57934
339.332	34218
339.419	33716
339.506	29636
339.593	12330
339.679	14359
339.766	13997
339.853	19491
339.940	45980
340.027	16684
340.113	18306
340.200	25147
340.287	19651
340.374	24830
340.460	40507
340.547	20528
340.634	36453
340.720	125269
340.807	70571
340.894	17309
340.980	15596
341.067	15509
341.154	17867
341.240	31042
341.327	62956
341.414	25763
341.500	30355
341.587	16518
341.674	16156
341.760	40848
341.847	48842
341.933	17720
342.020	10046
342.106	11750
342.193	20116
342.279	34337
342.366	28181
342.452	43194
342.539	25330
342.625	57419
342.712	135066
342.798	54823
342.885	22978
342.971	11453
343.058	10719
343.144	14145
343.230	14518
343.317	19141
343.403	17452
343.490	12131
343.576	13834
343.662	15610
343.749	18929
343.835	26149
343.921	55829
344.008	315911
344.094	665391
344.180	136738
344.267	53298
344.353	164345
344.439	148390
344.525	64087
344.612	30097
344.698	25314
344.784	18208
344.870	14238
344.957	16337
345.043	24352
345.129	20758
345.215	37717
345.301	26302
345.387	17710
345.474	10268
345.560	12369
345.646	13317
345.732	13774
345.818	21226
345.904	18295
345.990	21643
346.076	19834
346.162	30296
346.249	17437
346.335	13373
346.421	19796
346.507	77449
346.593	244531
346.679	52086
346.765	18382
346.851	21520
346.937	20529
347.023	15855
347.108	18909
347.194	17829
347.280	17697
347.366	28730
347.452	91332
347.538	323756
347.624	198845
347.710	140480
347.796	23585
347.882	15438
347.967	12913
348.053	14260
348.139	13493
348.225	14122
348.311	16621
348.397	13775
348.482	18319
348.568	21425
348.654	17222
348.740	36306
348.825	40906
348.911	41554
348.997	149032
349.083	263667
349.168	40495
349.254	21292
349.340	20240
349.425	14020
349.511	21678
349.597	24243
349.682	49952
349.768	152010
349.854	66428
349.939	14852
350.025	13490
350.110	12728
350.196	12204
350.282	10929
350.367	10842
350.453	19595
350.538	18984
350.624	20598
350.709	17742
350.795	13361
350.880	14289
350.966	16424
351.051	22504
351.137	16853
351.222	18082
351.308	51010
351.393	125213
351.479	37136
351.564	17759
351.649	15439
351.735	12570
351.820	12217
351.906	13951
351.991	21651
352.076	86513
352.162	117724
352.247	26727
352.332	20418
352.418	44412
352.503	52309
352.588	179492
352.673	137350
352.759	35726
352.844	20309
352.929	22858
353.014	29639
353.100	24905
353.185	51229
353.270	59779
353.355	48039
353.441	17892
353.526	19775
353.611	45815
353.696	50983
353.781	29631
353.866	17184
353.952	18697
354.037	46178
354.122	94879
354.207	85998
354.292	32739
354.377	17137
354.462	15559
354.547	23043
354.632	20820
354.717	33904
354.802	57923
354.887	23652
354.972	13009
355.057	12694
355.142	12351
355.227	19693
355.312	32596
355.397	70199
355.482	153895
355.567	73020
355.652	54135
355.737	61958
355.822	189059
355.907	140698
355.991	26078
356.076	16768
356.161	15024
356.246	14859
356.331	19672
356.416	54019
356.501	333430
356.585	315728
356.670	50347
356.755	34099
356.840	55590
356.924	258258
357.009	792970
357.094	261855
357.179	63277
357.263	46807
357.348	40951
357.433	38997
357.517	38317
357.602	35060
357.687	34628
357.771	89598
357.856	318185
357.941	155534
358.025	192797
358.110	775804
358.195	319199
358.279	52226
358.364	41308
358.448	131809
358.533	326151
358.617	230990
358.702	233573
358.787	80936
358.871	49404
358.956	42366
359.040	20670
359.125	18322
359.209	31991
359.294	165927
359.378	261931
359.462	67986
359.547	27440
359.631	18538
359.716	15694
359.800	15587
359.885	21946
359.969	18960
360.053	17072
360.138	18632
360.222	29595
360.306	52711
360.391	48728
360.475	158853
360.559	294023
360.644	152676
360.728	100303
360.812	189288
360.896	480817
360.981	171195
361.065	79040
361.149	28432
361.233	27708
361.318	29160
361.402	38458
361.486	25612
361.570	22301
361.654	31408
361.739	76941
361.823	330001
361.907	474466
361.991	87607
362.075	55274
362.159	110984
362.243	88671
362.327	120283
362.411	145911
362.495	68979
362.580	38893
362.664	33196
362.748	36866
362.832	55343
362.916	106165
363.000	288120
363.084	594804
363.168	622569
363.252	144717
363.336	56259
363.420	59916
363.503	133171
363.587	136772
363.671	46217
363.755	40513
363.839	54927
363.923	39334
364.007	73777
364.091	78393
364.175	102646
364.258	285444
364.342	376493
364.426	550883
364.510	285210
364.594	108446
364.677	114313
364.761	444762
364.845	284719
364.929	95344
365.013	71619
365.096	61178
365.180	69860
365.264	64628
365.347	191663
365.431	76686
365.515	28754
365.598	23665
365.682	21498
365.766	23972
365.849	25063
365.933	23751
366.017	24945
366.100	17602
366.184	14545
366.267	17220
366.351	18061
366.435	15310
366.518	14813
366.602	14565
366.685	18114
366.769	20926
366.852	26968
366.936	47876
367.019	34435
367.103	20768
367.186	27068
367.270	16197
367.353	15271
367.436	18291
367.520	18811
367.603	25379
367.687	37481
367.770	61580
367.853	39312
367.937	120238
368.020	185585
368.104	47338
368.187	48172
368.270	57874
368.353	49512
368.437	58113
368.520	94375
368.603	75178
368.687	137812
368.770	235659
368.853	59540
368.936	49269
369.020	40967
369.103	23703
369.186	18784
369.269	21536
369.352	41445
369.436	51199
369.519	35501
369.602	21548
369.685	21998
369.768	22856
369.851	19422
369.934	15079
370.018	23271
370.101	50744
370.184	35777
370.267	27536
370.350	53880
370.433	80865
370.516	261172
370.599	414427
370.682	157329
370.765	130946
370.848	161747
370.931	302160
371.014	97600
371.097	27252
371.180	22441
371.263	17304
371.346	14698
371.429	17698
371.511	19382
371.594	34620
371.677	43097
371.760	39246
371.843	56510
371.926	287273
372.009	619707
372.091	172838
372.174	128533
372.257	297017
372.340	108171
372.423	62660
372.505	55821
372.588	36443
372.671	99227
372.754	305792
372.836	138855
372.919	64868
373.002	99476
373.085	49877
373.167	55945
373.250	138444
373.332	294329
373.415	413905
373.498	832320
373.580	312503
373.663	638029
373.746	723429
373.828	141572
373.911	52741
373.993	47415
374.076	105339
374.159	92692
374.241	81024
374.324	251249
374.406	163913
374.489	263934
374.571	683502
374.654	250821
374.736	138992
374.819	431247
374.901	598347
374.983	586972
375.066	100067
375.148	38949
375.231	93963
375.313	152825
375.395	65171
375.478	28891
375.560	25448
375.643	37884
375.725	132203
375.807	533113
375.890	329334
375.972	100688
376.054	63828
376.136	75491
376.219	47054
376.301	158397
376.383	441582
376.465	154363
376.548	101327
376.630	129222
376.712	367107
376.794	154315
376.877	25355
376.959	18187
377.041	20446
377.123	24597
377.205	23925
377.287	13105
377.369	14782
377.452	17866
377.534	16769
377.616	18112
377.698	17255
377.780	16088
377.862	19764
377.944	18260
378.026	13861
378.108	15284
378.190	15370
378.272	14586
378.354	13173
378.436	13075
378.518	21607
378.600	55479
378.682	62950
378.764	170341
378.846	120468
378.928	36799
379.010	52295
379.091	30732
379.173	19726
379.255	18334
379.337	27855
379.419	90461
379.501	239260
379.583	88142
379.664	29587
379.746	69782
379.828	160960
379.910	223253
379.991	186737
380.073	37952
380.155	28158
380.237	22268
380.318	18430
380.400	22491
380.482	46004
380.564	66585
380.645	74212
380.727	65528
380.809	36133
380.890	30871
380.972	27160
381.053	25106
381.135	29468
381.217	67702
381.298	172431
381.380	86124
381.461	86035
381.543	388345
381.624	432893
381.706	84943
381.787	49800
381.869	58687
381.951	190124
382.032	656380
382.113	366159
382.195	91640
382.276	76549
382.358	161054
382.439	371940
382.521	414459
382.602	625651
382.684	317636
382.765	587853
382.846	925090
382.928	1584198
383.009	897931
383.090	768318
383.172	2208503
383.253	2702980
383.334	975833
383.416	712764
383.497	411131
383.578	338722
383.659	671153
383.741	2013760
383.822	3624953
383.903	1924097
383.984	691513
384.066	726908
384.147	421340
384.228	130185
384.309	103677
384.390	84786
384.471	66379
384.553	65399
384.634	73628
384.715	73567
384.796	51297
384.877	66949
384.958	181580
385.039	197786
385.120	79294
385.201	46386
385.282	50696
385.363	54186
385.444	66670
385.525	105848
385.606	292082
385.687	229045
385.768	62430
385.849	76746
385.930	315166
386.011	509705
386.092	131474
386.173	41629
386.254	32519
386.335	32997
386.416	39225
386.496	111019
386.577	159791
386.658	56814
386.739	40930
386.820	33802
386.901	30070
386.981	31229
387.062	30553
387.143	54897
387.224	173637
387.304	146043
387.385	61497
387.466	44770
387.547	48429
387.627	45707
387.708	82838
387.789	308254
387.869	365321
387.950	98404
388.031	30903
388.111	25284
388.192	37269
388.273	46025
388.353	38831
388.434	34634
388.514	77914
388.595	324982
388.676	376967
388.756	158124
388.837	152366
388.917	90784
388.998	29239
389.078	28203
389.159	27519
389.239	28384
389.320	39385
389.400	36937
389.480	70401
389.561	176934
389.641	85431
389.722	38127
389.802	54946
389.883	83020
389.963	213760
390.043	117813
390.124	39356
390.204	71488
390.284	193026
390.365	119500
390.445	131396
390.525	476269
390.605	426385
390.686	116022
390.766	54464
390.846	35390
390.927	29736
391.007	27994
391.087	33357
391.167	45525
391.247	35878
391.328	34866
391.408	39943
391.488	33583
391.568	28731
391.648	40098
391.728	48970
391.808	50258
391.888	63699
391.969	116813
392.049	164708
392.129	77207
392.209	103165
392.289	220636
392.369	121018
392.449	80889
392.529	78838
392.609	86848
392.689	116691
392.769	265827
392.849	242078
392.929	206016
393.009	400907
393.089	444066
393.169	659071
393.248	1754600
393.328	3608739
393.408	3543556
393.488	1610638
393.568	599304
393.648	305618
393.728	190992
393.807	135019
393.887	107787
393.967	90147
394.047	84153
394.127	84602
394.206	105197
394.286	292151
394.366	1229047
394.446	1230329
394.525	266792
394.605	84441
394.685	66124
394.764	87059
394.844	136253
394.924	114954
395.003	61154
395.083	49379
395.163	44436
395.242	43797
395.322	43483
395.402	37315
395.481	44601
395.561	75884
395.640	176840
395.720	198214
395.799	179721
395.879	129812
395.958	119765
396.038	399087
396.117	1599738
396.197	1644001
396.276	425934
396.356	171485
396.435	146144
396.515	158700
396.594	243961
396.673	511711
396.753	1613484
396.832	3315541
396.912	2534859
396.991	796400
397.070	281859
397.150	157202
397.229	112153
397.308	144792
397.388	214534
397.467	113962
397.546	57208
397.625	50737
397.705	54270
397.784	48525
397.863	33993
397.942	29157
398.022	28566
398.101	52012
398.180	106392
398.259	57587
398.338	33007
398.417	33944
398.497	23927
398.576	24227
398.655	21171
398.734	19785
398.813	19865
398.892	44798
398.971	113792
399.050	59304
399.129	22263
399.208	17638
399.287	17219
399.366	14374
399.445	14639
399.524	15638
399.603	16551
399.682	31244
399.761	62064
399.840	133968
399.919	89816
399.998	19236
400.077	13066
400.156	13191
400.235	16387
400.313	13369
400.392	20826
400.471	89117
400.550	130983
400.629	37036
400.708	19038
400.786	15532
400.865	25070
400.944	29359
401.023	21306
401.102	10548
401.180	10938
401.259	10884
401.338	13036
401.416	18636
401.495	17687
401.574	13090
401.652	12869
401.731	19453
401.810	21525
401.888	13424
401.967	13378
402.046	21360
402.124	19392
402.203	22571
402.281	18157
402.360	28573
402.438	35666
402.517	23750
402.596	13521
402.674	12992
402.753	10663
402.831	10571
402.910	19184
402.988	87645
403.066	281761
403.145	143855
403.223	89952
403.302	232465
403.380	163164
403.459	164561
403.537	62496
403.615	25800
403.694	13034
403.772	12732
403.850	10851
403.929	11478
404.007	14094
404.085	37356
404.164	45238
404.242	17906
404.320	15447
404.398	29719
404.477	102134
404.555	466017
404.633	362891
404.711	52469
404.789	19895
404.868	22038
404.946	14206
405.024	10297
405.102	9916
405.180	10648
405.258	10208
405.336	10229
405.415	12630
405.493	24881
405.571	28910
405.649	12893
405.727	12265
405.805	17154
405.883	21025
405.961	18621
406.039	14970
406.117	12158
406.195	25431
406.273	111699
406.351	376587
406.429	191822
406.507	27075
406.585	13826
406.663	16554
406.740	20727
406.818	18903
406.896	11579
406.974	13942
407.052	38980
407.130	221373
407.208	286510
407.285	52066
407.363	13972
407.441	12687
407.519	12677
407.596	14951
407.674	29041
407.752	60371
407.830	54016
407.907	28977
407.985	18376
408.063	11002
408.141	8924
408.218	16217
408.296	22020
408.373	21129
408.451	19119
408.529	16902
408.606	10192
408.684	9064
408.762	8752
408.839	8245
408.917	9781
408.994	11863
409.072	13544
409.149	16634
409.227	27488
409.304	37350
409.382	34189
409.459	39379
409.537	51956
409.614	46097
409.692	34954
409.769	37109
409.846	56326
409.924	64674
410.001	51867
410.079	35424
410.156	27279
410.233	24369
410.311	23168
410.388	18510
410.465	21115
410.543	20170
410.620	15008
410.697	17324
410.775	19460
410.852	14302
410.929	21168
411.006	25495
411.083	18834
411.161	37104
411.238	30499
411.315	16045
411.392	14064
411.469	20858
411.547	21640
411.624	13471
411.701	13077
411.778	16907
411.855	33014
411.932	18157
412.009	11071
412.086	8828
412.163	12227
412.240	12207
412.317	14661
412.394	13784
412.471	8779
412.548	7713
412.625	10179
412.702	13430
412.779	24603
412.856	16073
412.933	8261
413.010	9000
413.087	16981
413.164	81176
413.241	103086
413.318	27812
413.395	19974
413.471	28310
413.548	12582
413.625	9507
413.702	11375
413.779	9179
413.855	6243
413.932	5719
414.009	5788
414.086	5720
414.162	7951
414.239	15543
414.316	77974
414.393	164396
414.469	54907
414.546	9493
414.623	6936
414.699	8130
414.776	10745
414.853	7556
414.929	9003
415.006	7312
415.082	8841
415.159	7775
415.236	7407
415.312	9652
415.389	20984
415.465	27484
415.542	14127
415.618	10343
415.695	18040
415.771	12950
415.848	11247
415.924	9578
416.000	7401
416.077	6902
416.153	4989
416.230	5050
416.306	5157
416.383	6642
416.459	7265
416.535	6651
416.612	7112
416.688	7532
416.764	9774
416.841	9333
416.917	9366
416.993	8960
417.069	11116
417.146	13364
417.222	15536
417.298	11592
417.374	8291
417.451	9750
417.527	14651
417.603	15239
417.679	11398
417.755	9502
417.831	6430
417.908	6202
417.984	6850
418.060	6994
418.136	24722
418.212	30251
418.288	11775
418.364	7028
418.440	9112
418.516	13936
418.592	14465
418.668	31555
418.744	53058
418.820	36571
418.896	11017
418.972	6917
419.048	9982
419.124	25007
419.200	19060
419.276	7607
419.352	5739
419.428	6718
419.504	10192
419.579	13243
419.655	10943
419.731	12997
419.807	37829
419.883	66156
419.959	43528
420.034	14503
420.110	29492
420.186	107218
420.262	74622
420.337	16266
420.413	15029
420.489	9383
420.565	10299
420.640	9784
420.716	11216
420.792	9591
420.867	11330
420.943	12544
421.019	21837
421.094	17457
421.170	12600
421.245	10899
421.321	14294
421.397	14652
421.472	21405
421.548	39374
421.623	33690
421.699	23577
421.774	25317
421.850	26237
421.925	39528
422.001	38861
422.076	38916
422.152	47990
422.227	69960
422.302	89580
422.378	137212
422.453	256593
422.529	597469
422.604	1407481
422.679	1860421
422.755	1349446
422.830	574375
422.905	246635
422.981	140578
423.056	92119
423.131	66747
423.207	51679
423.282	48003
423.357	58893
423.432	42410
423.508	44244
423.583	69954
423.658	50697
423.733	24716
423.808	25419
423.883	30342
423.959	30189
424.034	30027
424.109	23940
424.184	16854
424.259	14224
424.334	13089
424.409	11296
424.484	11809
424.559	14267
424.634	14431
424.709	21261
424.784	20157
424.859	14352
424.934	21911
425.009	76675
425.084	117456
425.159	40204
425.234	11634
425.309	19890
425.384	105805
425.459	167082
425.534	38678
425.609	10402
425.683	8577
425.758	8111
425.833	9246
425.908	13164
425.983	50656
426.058	124651
426.132	50640
426.207	11493
426.282	12424
426.357	9999
426.431	7645
426.506	7882
426.581	8527
426.655	8283
426.730	8091
426.805	8880
426.879	10574
426.954	9459
427.029	25268
427.103	130311
427.178	301239
427.253	116590
427.327	20254
427.402	50476
427.476	152415
427.551	70860
427.625	13868
427.700	10048
427.774	7915
427.849	8070
427.923	8356
427.998	9564
428.072	13677
428.147	33579
428.221	171457
428.296	482641
428.370	226214
428.444	31060
428.519	19508
428.593	24461
428.667	21143
428.742	29682
428.816	59447
428.890	308469
428.965	508218
429.039	144972
429.113	34624
429.188	16275
429.262	10581
429.336	20984
429.410	55612
429.485	31921
429.559	21665
429.633	17920
429.707	16538
429.781	51620
429.855	284832
429.930	389093
430.004	122228
430.078	111012
430.152	194412
430.226	644972
430.300	572448
430.374	96047
430.448	29897
430.522	45939
430.596	102709
430.670	119924
430.744	486418
430.818	566456
430.892	100500
430.966	20729
431.040	11690
431.114	7695
431.188	7042
431.262	7831
431.336	8152
431.410	15094
431.484	35249
431.557	25418
431.631	11435
431.705	21063
431.779	115430
431.853	440703
431.927	263249
432.000	33018
432.074	12606
432.148	9680
432.222	7083
432.295	6036
432.369	7318
432.443	19814
432.516	124595
432.590	290740
432.664	89841
432.737	12672
432.811	5186
432.885	3968
432.958	4668
433.032	5193
433.106	3463
433.179	4215
433.253	4980
433.326	4187
433.400	3581
433.473	2675
433.547	3559
433.620	5021
433.694	15104
433.767	15252
433.841	7178
433.914	9011
433.988	10797
434.061	6526
434.134	5630
434.208	3503
434.281	3622
434.355	5762
434.428	12833
434.501	10730
434.575	4575
434.648	4252
434.721	4710
434.795	3926
434.868	3818
434.941	4803
435.014	6589
435.088	11264
435.161	25281
435.234	33123
435.307	28192
435.381	17872
435.454	20118
435.527	27036
435.600	27386
435.673	21175
435.746	15818
435.819	12719
435.892	11221
435.966	10105
436.039	8521
436.112	6931
436.185	4460
436.258	4560
436.331	4375
436.404	3656
436.477	3655
436.550	2964
436.623	3586
436.696	3891
436.769	5851
436.842	5647
436.915	5525
436.987	7366
437.060	5482
437.133	5089
437.206	4007
437.279	3846
437.352	4211
437.425	4746
437.498	5877
437.570	13542
437.643	10723
437.716	4661
437.789	4824
437.861	17886
437.934	40895
438.007	16083
438.080	5432
438.152	8862
438.225	25117
438.298	175575
438.370	423346
438.443	152182
438.516	37551
438.588	9068
438.661	4840
438.734	4731
438.806	5922
438.879	8159
438.951	13139
439.024	21120
439.096	8114
439.169	4002
439.241	3412
439.314	3633
439.386	5083
439.459	9488
439.531	17849
439.604	7162
439.676	4175
439.749	2056
439.821	2881
439.893	3016
439.966	3957
440.038	8228
440.110	8453
440.183	4949
440.255	5213
440.327	11049
440.400	63773
440.472	250580
440.544	137683
440.617	19231
440.689	15352
440.761	22254
440.833	32939
440.905	17906
440.978	4784
441.050	3383
441.122	4015
441.194	3580
441.266	3810
441.338	4450
441.411	14658
441.483	78802
441.555	97978
441.627	19384
441.699	9736
441.771	7295
441.843	5058
441.915	4315
441.987	4935
442.059	5670
442.131	8807
442.203	11949
442.275	16515
442.347	21708
442.419	50463
442.491	253019
442.563	508519
442.635	170831
442.706	51624
442.778	30775
442.850	13104
442.922	10286
442.994	12451
443.066	15953
443.137	15455
443.209	18943
443.281	32679
443.353	75660
443.425	309315
443.496	944706
443.568	818155
443.640	277279
443.711	56973
443.783	24825
443.855	15710
443.926	11294
443.998	9967
444.070	9659
444.141	10946
444.213	16703
444.285	18610
444.356	15235
444.428	12032
444.499	7111
444.571	6831
444.642	6950
444.714	10336
444.785	16019
444.857	15273
444.928	20994
445.000	16563
445.071	21350
445.143	30044
445.214	35883
445.285	59120
445.357	160149
445.428	643594
445.500	1216972
445.571	737271
445.642	390948
445.714	115739
445.785	54019
445.856	28022
445.928	24806
445.999	21234
446.070	16982
446.141	16269
446.213	19375
446.284	10904
446.355	7749
446.426	6706
446.497	8771
446.569	9167
446.640	15614
446.711	13991
446.782	5223
446.853	7391
446.924	9124
446.995	7596
447.066	5417
447.138	5919
447.209	4875
447.280	3730
447.351	2441
447.422	3647
447.493	4880
447.564	8104
447.635	12533
447.706	5228
447.777	2244
447.847	1769
447.918	2233
447.989	5644
448.060	7274
448.131	14141
448.202	14309
448.273	10963
448.344	4935
448.414	4554
448.485	4028
448.556	3128
448.627	1631
448.698	2456
448.768	1876
448.839	2690
448.910	5759
448.981	6889
449.051	5233
449.122	3552
449.193	2033
449.263	2107
449.334	2815
449.405	6563
449.475	16230
449.546	8573
449.616	8830
449.687	8615
449.758	5200
449.828	3798
449.899	3453
449.969	3114
450.040	2484
450.110	4378
450.181	4438
450.251	4115
450.322	3041
450.392	2828
450.463	2454
450.533	2090
450.604	2024
450.674	2244
450.744	2873
450.815	3583
450.885	3978
450.955	3891
451.026	3158
451.096	2941
451.166	3468
451.237	8858
451.307	15376
451.377	5561
451.447	3593
451.518	2847
451.588	1587
451.658	3042
451.728	4551
451.799	15414
451.869	14330
451.939	4103
452.009	2084
452.079	2108
452.149	3461
452.219	4993
452.289	17614
452.360	10812
452.430	4973
452.500	7467
452.570	11760
452.640	22604
452.710	53172
452.780	55047
452.850	42082
452.920	33234
452.990	11078
453.060	8614
453.129	10357
453.199	9050
453.269	25591
453.339	40602
453.409	55657
453.479	64895
453.549	83155
453.619	82093
453.688	24417
453.758	5928
453.828	3787
453.898	3516
453.968	2445
454.037	3794
454.087	3661
454.107	3596
454.168	2281
454.177	2073
454.247	2168
454.249	2194
454.316	2458
454.330	2414
454.386	2176
454.411	4676
454.456	8680
454.492	9729
454.525	10663
454.574	7510
454.595	6136
454.655	3950
454.665	3599
454.734	3541
454.736	3666
454.804	7418
454.817	9210
454.873	16278
454.898	15946
454.943	14911
454.979	11199
455.013	7898
455.060	4553
455.082	3234
455.141	4318
455.152	4410
455.221	10800
455.222	10922
455.291	16989
455.303	15645
455.360	9362
455.384	11279
455.430	14888
455.465	12288
455.499	9582
455.546	12075
455.569	13048
455.627	9212
455.638	8508
455.707	3275
455.708	3284
455.777	2086
455.789	2207
455.846	2720
455.869	2521
455.916	2133
455.950	2595
455.985	2934
456.031	3118
456.054	3208
456.112	2977
456.124	2921
456.193	2069
456.193	2051
456.262	2727
456.274	3086
456.332	4610
456.355	4820
456.401	4695
456.436	4135
456.470	3632
456.516	3127
456.540	2917
456.597	2596
456.609	2496
456.678	2572
456.678	2559
456.747	2825
456.759	2598
456.817	1790
456.840	2034
456.886	2082
456.920	2507
456.955	3381
457.001	3660
457.024	3853
457.082	5619
457.093	5901
457.162	7689
457.163	7728
457.232	8105
457.243	7662
457.301	4984
457.324	4329
457.370	3891
457.405	3996
457.439	4304
457.485	4587
457.508	4732
457.566	5797
457.577	6148
457.646	9104
457.647	9171
457.715	20909
457.727	23654
457.784	39796
457.808	54142
457.853	74279
457.889	84851
457.922	84950
457.969	55499
457.991	52735
458.050	66832
458.060	69014
458.129	121049
458.130	122289
458.198	130862
458.211	117720
458.267	59616
458.292	41792
458.336	25932
458.372	23324
458.405	30978
458.453	47788
458.474	60572
458.533	114308
458.543	119377
458.611	205285
458.614	205632
458.680	127455
458.694	102460
458.749	42198
458.775	29164
458.818	16790
458.855	13155
458.887	10982
458.936	8790
458.955	8122
459.016	7023
459.024	6976
459.093	7375
459.097	7436
459.162	7589
459.177	7524
459.230	7771
459.257	8271
459.299	8554
459.338	7985
459.368	8073
459.418	9999
459.437	9680
459.499	6090
459.505	5966
459.574	5776
459.579	5765
459.643	4994
459.659	4906
459.711	5380
459.740	5477
459.780	5544
459.820	6264
459.849	6484
459.900	6266
459.917	6483
459.981	7659
459.986	7642
460.054	7461
460.061	7505
460.123	7646
460.141	7353
460.191	7924
460.222	8720
460.260	9431
460.302	10880
460.328	10255
460.382	6624
460.397	6278
460.462	5589
460.465	5596
460.534	7376
460.543	7455
460.602	12597
460.623	15226
460.671	21441
460.703	28514
460.739	29838
460.783	25101
460.808	21022
460.864	7178
460.876	5946
460.944	5150
460.945	5140
461.013	5939
461.024	5993
461.081	6520
461.104	7034
461.150	6802
461.184	6263
461.218	6131
461.264	5942
461.286	6097
461.345	6953
461.355	6853
461.423	5707
461.425	5667
461.491	6282
461.505	6540
461.559	9734
461.585	11836
461.628	15551
461.665	18388
461.696	19498
461.745	23241
461.764	21454
461.825	8867
461.832	8463
461.901	7192
461.905	7248
461.969	6797
461.985	6532
462.037	6305
462.065	6018
462.105	6016
462.145	6282
462.173	7763
462.225	11008
462.241	11622
462.305	14899
462.310	14700
462.378	10431
462.385	9742
462.446	8385
462.465	8345
462.514	8441
462.545	8711
462.582	8907
462.625	9397
462.650	8572
462.705	5883
462.718	5814
462.785	5587
462.786	5610
462.854	6912
462.865	7194
462.922	8746
462.945	9514
462.990	7941
463.025	5968
463.058	5552
463.104	5293
463.126	5256
463.184	5288
463.194	5361
463.262	5820
463.264	5846
463.330	5618
463.344	5507
463.398	6387
463.424	6733
463.466	6210
463.504	5985
463.533	6551
463.583	7095
463.601	7321
463.663	8273
463.669	8394
463.737	9984
463.743	10148
463.805	12808
463.823	13392
463.873	16862
463.903	19365
463.940	20099
463.982	21186
464.008	18411
464.062	10372
464.076	9589
464.142	6119
464.144	6120
464.211	7100
464.221	7230
464.279	7287
464.301	7327
464.347	8112
464.381	8646
464.414	9562
464.461	10985
464.482	13045
464.540	18491
464.550	19005
464.617	23013
464.620	23117
464.685	16097
464.699	14220
464.753	12789
464.779	12420
464.820	11576
464.859	10763
464.888	10467
464.938	9911
464.956	10284
465.018	11739
465.023	11835
465.091	12736
465.098	12853
465.158	15252
465.177	15993
465.226	15141
465.257	14359
465.293	13008
465.336	11017
465.361	11638
465.416	13694
465.428	14222
465.495	17164
465.496	17199
465.563	18666
465.575	18989
465.631	22823
465.654	24617
465.698	17253
465.734	10245
465.765	9295
465.813	8212
465.833	8191
465.893	8451
465.900	8435
465.968	8262
465.972	8228
466.035	9000
466.052	9206
466.102	10033
466.131	10485
466.170	10228
466.210	9887
466.237	10457
466.290	11583
466.304	11830
466.369	12757
466.372	12784
466.439	13157
466.449	13156
466.506	14090
466.528	14444
466.573	18661
466.607	21785
466.641	26639
466.687	33362
466.708	36458
466.766	45161
466.775	42686
466.842	23125
466.845	22161
466.909	17804
466.925	16805
466.977	15986
467.004	15547
467.044	15241
467.083	14898
467.111	15201
467.163	15693
467.178	16052
467.242	17451
467.245	17479
467.312	17487
467.321	17461
467.379	15868
467.400	15245
467.446	15372
467.480	15418
467.559	14330
467.638	13253
467.717	14421
467.796	18959
467.875	20981
467.955	17920
468.034	20585
468.113	35913
468.192	47737
468.271	24261
468.350	24760
468.429	34477
468.508	37303
468.588	25250
468.667	18218
468.746	15413
468.825	14673
468.904	14090
468.983	14045
469.062	18314
469.141	22153
469.220	12659
469.299	12099
469.378	12399
469.456	15052
469.535	13633
469.614	13271
469.693	14353
469.772	17951
469.851	22108
469.930	20306
470.009	18838
470.088	22972
470.166	39282
470.245	79655
470.324	106488
470.403	65776
470.482	34972
470.560	25116
470.639	23088
470.718	25499
470.797	19831
470.875	18528
470.954	22388
471.033	21074
471.111	11398
471.190	10982
471.269	9888
471.347	10929
471.426	11603
471.505	11511
471.583	12849
471.662	11854
471.740	12523
471.819	12205
471.898	11952
471.976	10676
472.055	9824
472.133	11629
472.212	14317
472.290	13883
472.369	10610
472.447	10540
472.526	9237
472.604	11115
472.683	13835
472.761	17558
472.839	14050
472.918	13795
472.996	12478
473.075	14708
473.153	12599
473.231	10852
473.310	12748
473.388	14098
473.466	11722
473.545	15251
473.623	24440
473.701	26642
473.780	15029
473.858	11224
473.936	14943
474.014	12238
474.093	14289
474.171	17432
474.249	19304
474.327	16392
474.405	13141
474.484	11698
474.562	12391
474.640	13073
474.718	11366
474.796	12393
474.874	11948
474.952	10227
475.030	10612
475.108	13326
475.187	14402
475.265	19870
475.343	36224
475.421	43335
475.499	16170
475.577	14533
475.655	16333
475.733	22538
475.811	33401
475.889	30512
475.966	23856
476.044	13198
476.122	24277
476.200	36419
476.278	27213
476.356	11261
476.434	12412
476.512	21537
476.590	33143
476.667	27064
476.745	11233
476.823	11679
476.901	10337
476.979	9829
477.056	10618
477.134	10310
477.212	11304
477.290	11434
477.367	8822
477.445	8663
477.523	8126
477.601	9594
477.678	10140
477.756	10908
477.834	11651
477.911	9880
477.989	9831
478.066	9901
478.144	11759
478.222	22129
478.299	47172
478.377	45373
478.454	10138
478.532	9431
478.609	11201
478.687	13009
478.764	8243
478.842	12124
478.919	15807
478.997	13519
479.074	8958
479.152	10908
479.229	12086
479.307	9967
479.384	8167
479.461	8529
479.539	8999
479.616	10801
479.694	10229
479.771	10615
479.848	10093
479.926	11621
480.003	16459
480.080	12033
480.157	9339
480.235	9628
480.312	10076
480.389	11124
480.467	13416
480.544	18032
480.621	11508
480.698	13165
480.775	13450
480.853	12490
480.930	10051
481.007	10758
481.084	9759
481.161	9970
481.238	10902
481.315	9343
481.392	8774
481.470	10325
481.547	10490
481.624	10647
481.701	9998
481.778	10387
481.855	10948
481.932	15654
482.009	23195
482.086	21690
482.163	17306
482.240	36239
482.317	70484
482.393	56826
482.470	16870
482.547	14365
482.624	13724
482.701	14069
482.778	14327
482.855	12972
482.932	13876
483.009	13147
483.085	16284
483.162	20156
483.239	21097
483.316	17088
483.393	17701
483.469	15896
483.546	14909
483.623	15081
483.699	11852
483.776	11651
483.853	13566
483.930	16969
484.006	30296
484.083	47365
484.160	30019
484.236	37868
484.313	32178
484.389	25456
484.466	24210
484.543	24711
484.619	28483
484.696	33247
484.772	28046
484.849	24945
484.925	21624
485.002	21003
485.078	24099
485.155	24944
485.231	19887
485.308	19223
485.384	19672
485.461	22961
485.537	34611
485.614	40342
485.690	22059
485.766	20304
485.843	23848
485.919	40511
485.995	46969
486.072	22412
486.148	20248
486.224	19260
486.301	20251
486.377	23440
486.453	25861
486.530	23765
486.606	25149
486.682	27750
486.758	32900
486.835	37549
486.911	31972
486.987	51649
487.063	88480
487.139	132039
487.215	88964
487.292	39589
487.368	30176
487.444	37032
487.520	54296
487.596	65745
487.672	125341
487.748	410707
487.824	676183
487.900	275388
487.976	73957
488.052	46775
488.128	48403
488.204	36977
488.280	25593
488.356	26252
488.432	41055
488.508	61491
488.584	32622
488.660	28050
488.736	26459
488.812	26448
488.888	33681
488.964	47612
489.039	122095
489.115	205079
489.191	127165
489.267	25534
489.343	19365
489.418	17434
489.494	16358
489.570	15376
489.646	18466
489.722	17407
489.797	17249
489.873	22421
489.949	42320
490.024	42504
490.100	17672
490.176	17599
490.251	26996
490.327	39992
490.403	23530
490.478	17897
490.554	14307
490.629	14418
490.705	15535
490.781	17709
490.856	16457
490.932	21342
491.007	24024
491.083	20292
491.158	16964
491.234	19348
491.309	31722
491.385	36774
491.460	17079
491.536	18398
491.611	18239
491.686	22326
491.762	32139
491.837	79840
491.913	138004
491.988	194013
492.063	269019
492.139	62930
492.214	31095
492.289	20091
492.365	18708
492.440	20089
492.515	17835
492.590	16854
492.666	13949
492.741	17632
492.816	22772
492.891	15421
492.967	14362
493.042	14551
493.117	12741
493.192	13855
493.267	17271
493.342	33130
493.418	37457
493.493	16352
493.568	13488
493.643	14123
493.718	16921
493.793	26173
493.868	36960
493.943	26407
494.018	16058
494.093	12689
494.168	14204
494.243	14049
494.318	12890
494.393	12000
494.468	11808
494.543	13529
494.618	17692
494.693	14676
494.768	12988
494.842	13238
494.917	12940
494.992	13958
495.067	13688
495.142	14096
495.217	16398
495.292	15621
495.366	19099
495.441	24330
495.516	29445
495.591	43427
495.665	180133
495.740	462906
495.815	227525
495.890	25544
495.964	15905
496.039	18593
496.114	15373
496.188	16980
496.263	17146
496.338	15219
496.412	15979
496.487	19831
496.561	24506
496.636	28105
496.710	18916
496.785	19263
496.860	20716
496.934	18136
497.009	20311
497.083	19501
497.158	18526
497.232	21997
497.307	27561
497.381	25584
497.455	25764
497.530	30746
497.604	24567
497.679	26311
497.753	35509
497.827	48306
497.902	48785
497.976	51005
498.050	90319
498.125	315624
498.199	388299
498.273	98927
498.348	75199
498.422	59336
498.496	54443
498.570	51163
498.645	33604
498.719	27562
498.793	30974
498.867	40745
498.941	47900
499.016	120249
499.090	326423
499.164	162094
499.238	25365
499.312	22142
499.386	27937
499.460	25312
499.534	21722
499.609	26599
499.683	30075
499.757	27780
499.831	48806
499.905	194733
499.979	224781
500.053	39540
500.127	45334
500.201	48569
500.275	26868
500.349	21828
500.422	24077
500.496	40812
500.570	89268
500.644	148978
500.718	221700
500.792	71445
500.866	18630
500.940	19534
501.013	19489
501.087	19074
501.161	36038
501.235	45983
501.309	59765
501.382	161511
501.456	181493
501.530	48413
501.603	53683
501.677	30973
501.751	15143
501.825	23889
501.898	26990
501.972	63897
502.046	54184
502.119	17933
502.193	37220
502.266	72970
502.340	44930
502.413	31172
502.487	61258
502.561	41169
502.634	21102
502.708	22207
502.781	19420
502.855	16029
502.928	9961
503.002	11118
503.075	11186
503.149	13199
503.222	11392
503.295	12819
503.369	14376
503.442	17917
503.516	48577
503.589	124151
503.662	97403
503.736	37408
503.809	63811
503.882	71155
503.956	88015
504.029	129693
504.102	239372
504.175	381728
504.249	165018
504.322	59664
504.395	34631
504.468	24394
504.542	17058
504.615	14333
504.688	14155
504.761	11225
504.834	17268
504.907	23812
504.980	41489
505.053	20102
505.127	20320
505.200	25458
505.273	15850
505.346	11812
505.419	9006
505.492	10407
505.565	9609
505.638	10461
505.711	8369
505.784	7362
505.857	7301
505.930	9519
506.003	6877
506.076	10527
506.149	11352
506.221	12501
506.294	13117
506.367	25202
506.440	86667
506.513	68352
506.586	17662
506.659	10993
506.731	12046
506.804	15036
506.877	24400
506.950	15939
507.022	11258
507.095	11054
507.168	15753
507.241	13972
507.313	10544
507.386	13078
507.459	24662
507.531	15593
507.604	10621
507.677	10961
507.749	6801
507.822	13975
507.894	27116
507.967	30291
508.040	15040
508.112	15894
508.185	15586
508.257	11473
508.330	23786
508.402	15299
508.475	9605
508.547	13008
508.620	11872
508.692	18493
508.765	12994
508.837	9189
508.909	9026
508.982	10764
509.054	14106
509.127	11792
509.199	8635
509.271	7968
509.344	8322
509.416	8705
509.488	8763
509.560	10439
509.633	12369
509.705	16095
509.777	13783
509.849	22936
509.922	16086
509.994	9794
510.066	9380
510.138	8825
510.210	16705
510.283	16307
510.355	13560
510.427	13252
510.499	11995
510.571	12481
510.643	12261
510.715	25343
510.787	24847
510.859	14413
510.931	16456
511.003	23793
511.076	22899
511.148	10206
511.219	8932
511.291	14313
511.363	17894
511.435	10240
511.507	9045
511.579	10568
511.651	11132
511.723	10544
511.795	9793
511.867	9886
511.939	11583
512.010	21304
512.082	21206
512.154	13468
512.226	12537
512.298	18247
512.369	26578
512.441	23023
512.513	26413
512.585	18743
512.656	17566
512.728	19191
512.800	14471
512.871	14411
512.943	14818
513.015	12259
513.086	15656
513.158	17561
513.230	18394
513.301	31082
513.373	42341
513.444	21145
513.516	13895
513.588	14838
513.659	19002
513.731	25232
513.802	21469
513.874	49124
513.945	99610
514.016	37653
514.088	14942
514.159	17494
514.231	25447
514.302	28671
514.374	18378
514.445	15724
514.516	26883
514.588	22629
514.659	16759
514.730	24684
514.802	28739
514.873	25039
514.944	24146
515.016	20452
515.087	23701
515.158	23944
515.229	29717
515.301	22702
515.372	30001
515.443	23821
515.514	19112
515.585	16153
515.656	19392
515.728	18407
515.799	16752
515.870	21064
515.941	22416
516.012	22354
516.083	29232
516.154	37482
516.225	54679
516.296	58568
516.367	59138
516.438	74555
516.509	99358
516.580	145758
516.651	513626
516.722	1996117
516.793	1084379
516.864	167474
516.935	139917
517.006	156977
517.077	209934
517.148	474115
517.219	2173551
517.289	3711473
517.360	771141
517.431	164137
517.502	70725
517.573	56325
517.643	50654
517.714	52859
517.785	60587
517.856	71577
517.926	95612
517.997	126857
518.068	172124
518.138	234145
518.209	365277
518.280	1401216
518.350	4425224
518.421	2618447
518.492	337136
518.562	143619
518.633	108878
518.703	113563
518.774	189984
518.845	476899
518.915	538056
518.986	178713
519.056	86761
519.127	99851
519.197	120941
519.268	157123
519.338	98882
519.408	37850
519.479	53119
519.549	44199
519.620	29917
519.690	22248
519.760	19810
519.831	21945
519.901	23018
519.971	19143
520.042	20214
520.112	23905
520.182	30817
520.253	41328
520.323	34571
520.393	88134
520.463	205079
520.534	122332
520.604	301796
520.674	112304
520.744	65850
520.814	294443
520.885	284503
520.955	50420
521.025	117112
521.095	68036
521.165	17623
521.235	15014
521.305	13925
521.375	15785
521.445	18078
521.515	27880
521.585	31607
521.655	31052
521.725	24544
521.795	20693
521.865	12358
521.935	17492
522.005	16539
522.075	13520
522.145	15480
522.215	15556
522.285	20674
522.355	23724
522.424	41439
522.494	43087
522.564	30725
522.634	65044
522.704	216717
522.774	103503
522.843	20633
522.913	19107
522.983	28498
523.053	21220
523.122	20692
523.192	29551
523.262	118622
523.331	142249
523.401	27338
523.471	15197
523.540	16364
523.610	12607
523.680	12622
523.749	12456
523.819	13458
523.888	15623
523.958	11905
524.027	12774
524.097	14485
524.166	13022
524.236	16678
524.305	18023
524.375	13441
524.444	11199
524.514	14153
524.583	12500
524.653	14229
524.722	19920
524.791	16740
524.861	13754
524.930	12025
524.999	13520
525.069	22047
525.138	16190
525.207	16397
525.277	16051
525.346	16837
525.415	17698
525.484	20963
525.554	24127
525.623	24972
525.692	27952
525.761	35060
525.830	44157
525.900	57381
525.969	86274
526.038	154176
526.107	315130
526.176	1015102
526.245	992912
526.314	287792
526.383	481334
526.452	785821
526.522	1069715
526.591	1313521
526.660	297096
526.729	143935
526.797	132535
526.867	218553
526.935	845118
527.004	2172728
527.073	1638261
527.142	189498
527.211	62776
527.280	44759
527.349	41724
527.418	23787
527.487	24309
527.555	22513
527.624	18928
527.693	13180
527.762	15461
527.831	12942
527.899	14173
527.968	13607
528.037	12652
528.106	18523
528.174	36010
528.243	27094
528.312	32997
528.380	55737
528.449	19112
528.518	12673
528.586	9873
528.655	10674
528.723	10129
528.792	8758
528.861	10447
528.929	8747
528.998	10717
529.066	8513
529.135	9020
529.203	8619
529.272	7585
529.340	10428
529.409	11806
529.477	9786
529.545	12019
529.614	19620
529.682	25204
529.751	24904
529.819	36863
529.887	22819
529.956	11223
530.024	11522
530.092	11523
530.161	14370
530.229	28033
530.297	14963
530.365	9530
530.434	9900
530.502	8034
530.570	9066
530.638	7932
530.707	11308
530.775	12391
530.843	8150
530.911	9100
530.979	9571
531.047	9584
531.115	8892
531.183	9477
531.252	9475
531.320	9228
531.388	8619
531.456	9780
531.524	8691
531.592	10371
531.660	13167
531.728	9150
531.796	8750
531.864	9603
531.932	10357
532.000	10638
532.067	12180
532.135	13453
532.203	16594
532.271	17746
532.339	33838
532.407	101399
532.475	70314
532.542	25561
532.610	26094
532.678	33645
532.746	139143
532.814	432485
532.881	137266
532.949	25628
533.017	17705
533.084	13281
533.152	11601
533.220	12546
533.287	14109
533.355	11737
533.423	9619
533.490	9853
533.558	10461
533.625	12299
533.693	12616
533.761	12945
533.828	13915
533.896	13626
533.963	31332
534.031	41944
534.098	58407
534.166	31956
534.233	16128
534.300	18418
534.368	19015
534.435	19924
534.503	26192
534.570	49842
534.637	42811
534.705	37498
534.772	48344
534.840	95847
534.907	430237
534.974	730487
535.041	100992
535.109	30961
535.176	20029
535.243	16805
535.310	18164
535.378	16461
535.445	14571
535.512	13068
535.579	14927
535.646	14195
535.714	14094
535.781	17760
535.848	16973
535.915	14899
535.982	13766
536.049	15042
536.116	16213
536.183	15997
536.250	16634
536.317	17957
536.384	22275
536.451	34558
536.518	38639
536.585	25883
536.652	30722
536.719	47488
536.786	39641
536.853	28357
536.920	37346
536.987	64113
537.053	57730
537.120	191057
537.187	208176
537.254	28246
537.321	19392
537.388	20356
537.454	16122
537.521	16518
537.588	16714
537.654	17614
537.721	20208
537.788	23195
537.855	17726
537.921	18839
537.988	18520
538.055	17963
538.121	17956
538.188	21184
538.254	32628
538.321	74376
538.388	48674
538.454	21549
538.521	19007
538.587	17586
538.654	16945
538.720	18147
538.787	16971
538.853	18481
538.920	21618
538.986	20873
539.053	17936
539.119	19557
539.185	21290
539.252	23658
539.318	40728
539.385	30712
539.451	22825
539.517	24322
539.583	25133
539.650	49967
539.716	153199
539.782	56037
539.849	22488
539.915	21278
539.981	23163
540.047	29375
540.114	25310
540.180	25161
540.246	24845
540.312	34939
540.378	70245
540.444	72497
540.510	61071
540.576	176078
540.643	71399
540.709	22645
540.775	21699
540.841	21095
540.907	30587
540.973	75531
541.039	57611
541.105	45629
541.171	25283
541.237	21451
541.303	22733
541.369	26700
541.435	35552
541.500	65648
541.566	44700
541.632	21891
541.698	18534
541.764	19078
541.830	17644
541.896	17265
541.961	19368
542.027	21150
542.093	22370
542.159	22697
542.224	23825
542.290	34093
542.356	61128
542.421	77555
542.487	33394
542.553	22269
542.618	22248
542.684	21449
542.750	21840
542.815	24608
542.881	36517
542.947	142498
543.012	129426
543.078	24060
543.143	18206
543.209	21177
543.274	20369
543.340	23490
543.405	51946
543.471	98989
543.536	27483
543.602	19274
543.667	17605
543.732	18138
543.798	17089
543.863	19285
543.928	17383
543.994	16486
544.059	17115
544.124	19448
544.190	19819
544.255	20697
544.320	21440
544.386	23319
544.451	33066
544.516	39572
544.581	34918
544.646	87534
544.712	162277
544.777	38813
544.842	21991
544.907	22217
544.972	21187
545.037	20865
545.102	21784
545.168	24172
545.233	24487
545.298	25445
545.363	27809
545.428	32916
545.493	56444
545.558	131374
545.623	62389
545.688	26689
545.753	25350
545.818	24519
545.883	25429
545.947	25949
546.012	26995
546.077	27777
546.142	29681
546.207	32312
546.272	42527
546.337	45637
546.401	35990
546.466	34133
546.531	33405
546.596	36736
546.661	38584
546.725	38206
546.790	37865
546.855	40872
546.919	43071
546.984	50192
547.049	53785
547.113	61336
547.178	64502
547.243	74397
547.307	85604
547.372	99166
547.436	100424
547.501	99829
547.565	107836
547.630	109470
547.695	106390
547.759	99289
547.823	97994
547.888	96831
547.952	98314
548.017	103441
548.081	108995
548.146	112518
548.210	113461
548.274	115317
548.339	114675
548.403	104058
548.468	99177
548.532	95674
548.596	97688
548.660	97551
548.725	108676
548.789	120641
548.853	119113
548.917	109794
548.982	109574
549.046	102487
549.110	87131
549.174	86980
549.238	100358
549.303	113076
549.367	117587
549.431	111948
549.495	105360
549.559	103385
549.623	117824
549.687	135763
549.751	143745
549.815	157350
549.879	157238
549.943	147994
550.007	155700
550.071	157589
550.135	151542
550.199	138202
550.263	131766
550.327	125595
550.391	130433
550.455	141165
550.519	149715
550.582	158889
550.646	189501
550.710	200480
550.774	185775
550.838	186673
550.901	193558
550.965	205279
551.029	217922
551.093	239152
551.156	272292
551.220	342301
551.284	428223
551.347	304088
551.411	241560
551.475	231478
551.538	202542
551.602	187149
551.666	171927
551.729	162770
551.793	155105
551.856	152248
551.920	150090
551.983	149787
552.047	149666
552.110	149226
552.174	150092
552.237	156105
552.301	146034
552.364	139209
552.428	136879
552.491	143829
552.554	150285
552.618	151174
552.681	162175
552.745	173261
552.808	255075
552.871	366926
552.934	252686
552.998	174696
553.061	151439
553.124	140331
553.187	135162
553.251	138670
553.314	137510
553.377	136277
553.440	146910
553.503	154647
553.567	161247
553.630	147122
553.693	143416
553.756	146346
553.819	142336
553.882	135510
553.945	134320
554.008	133668
554.071	135080
554.134	138883
554.197	130493
554.260	125260
554.323	130871
554.386	131142
554.449	136079
554.512	138282
554.575	131262
554.638	130638
554.701	130829
554.764	128468
554.827	122660
554.889	118926
554.952	111098
555.015	109329
555.078	110975
555.141	113926
555.203	111494
555.266	111007
555.329	112210
555.391	107947
555.454	106996
555.517	106154
555.580	100705
555.642	96413
555.705	93714
555.768	93792
555.830	91985
555.893	87584
555.955	84280
556.018	83880
556.080	84769
556.143	86075
556.206	86652
556.268	85050
556.330	84046
556.393	83480
556.455	79073
556.518	83947
556.580	85759
556.643	74801
556.705	72216
556.767	72656
556.830	71003
556.892	74093
556.955	93880
557.017	81162
557.079	67396
557.142	67332
557.204	73508
557.266	107919
557.328	100358
557.391	62384
557.453	58887
557.515	58422
557.577	66490
557.639	72960
557.701	63179
557.764	63223
557.826	67453
557.888	74362
557.950	78729
558.012	88971
558.074	116087
558.136	279962
558.198	854788
558.260	358126
558.322	106270
558.384	102222
558.446	114605
558.508	133417
558.570	160650
558.632	220180
558.694	308302
558.756	394341
558.818	1204922
558.880	3291019
558.942	1304204
559.003	921766
559.065	523131
559.127	169356
559.189	154915
559.251	166748
559.312	231914
559.374	574765
559.436	2172565
559.498	1317172
559.559	218709
559.621	157834
559.683	166288
559.744	268143
559.806	947977
559.868	1748822
559.929	374148
559.991	161058
560.052	237519
560.114	777638
560.176	577642
560.237	407694
560.299	812763
560.360	197069
560.422	58424
560.483	43739
560.545	36897
560.606	34374
560.667	32242
560.729	30401
560.790	29087
560.852	28263
560.913	28228
560.974	27260
561.036	27370
561.097	27449
561.158	27417
561.220	29277
561.281	28347
561.342	29106
561.403	31735
561.465	39353
561.526	93382
561.587	138094
561.648	41731
561.709	26612
561.771	25520
561.832	24441
561.893	23238
561.954	22741
562.015	23041
562.076	23147
562.137	22301
562.198	23070
562.259	22269
562.320	23344
562.381	25853
562.442	40178
562.503	32909
562.564	23024
562.625	22306
562.686	22428
562.747	25864
562.808	24105
562.869	20910
562.930	21660
562.991	21576
563.051	20921
563.112	20234
563.173	21213
563.234	19516
563.294	19884
563.355	19670
563.416	21568
563.477	21558
563.537	20530
563.598	19740
563.659	20852
563.720	20307
563.780	22524
563.841	23373
563.901	21386
563.962	18950
564.023	18896
564.083	19530
564.144	20736
564.204	19482
564.265	18871
564.325	20199
564.386	29798
564.446	28764
564.507	19372
564.567	18801
564.628	19143
564.688	17753
564.749	17807
564.809	19462
564.869	22059
564.930	19202
564.990	18515
565.050	18359
565.111	18891
565.171	17523
565.231	18748
565.292	18800
565.352	18646
565.412	18946
565.472	19727
565.532	21822
565.593	20092
565.653	18703
565.713	20525
565.773	23085
565.833	28012
565.893	37233
565.953	22778
566.013	19213
566.074	19585
566.134	22545
566.194	29595
566.254	36599
566.314	26914
566.374	20942
566.434	22162
566.494	21082
566.554	22326
566.614	22217
566.673	23760
566.733	24574
566.793	25338
566.853	25942
566.913	25969
566.973	25562
567.033	27688
567.092	30509
567.152	31420
567.212	29910
567.272	26838
567.331	27325
567.391	27951
567.451	31331
567.511	33201
567.570	34312
567.630	27324
567.690	26133
567.749	27890
567.809	29012
567.868	32421
567.928	35663
567.988	39105
568.047	44122
568.107	52766
568.166	72016
568.226	110410
568.285	157126
568.345	136533
568.404	111974
568.464	94619
568.523	86326
568.582	87204
568.642	96885
568.701	116744
568.761	160835
568.820	260043
568.879	257195
568.939	190320
568.998	140520
569.057	110557
569.116	88840
569.176	72519
569.235	59209
569.294	52696
569.353	46655
569.413	41582
569.472	36775
569.531	32601
569.590	32124
569.649	29642
569.708	28056
569.767	30400
569.827	36473
569.886	32393
569.945	24246
570.004	27063
570.063	24589
570.122	25453
570.181	25643
570.240	25074
570.299	26507
570.358	30835
570.417	22794
570.475	22026
570.534	22748
570.593	24159
570.652	25168
570.711	27458
570.770	22509
570.829	25917
570.887	26322
570.946	29652
571.005	21455
571.064	24455
571.122	32421
571.181	30896
571.240	22356
571.299	18817
571.357	18126
571.416	19136
571.475	20102
571.533	21222
571.592	18616
571.650	19775
571.709	19446
571.768	23310
571.826	23927
571.885	20646
571.943	18300
572.002	16905
572.060	17626
572.119	15590
572.177	16320
572.236	15796
572.294	15002
572.352	17290
572.411	17571
572.469	17638
572.528	17139
572.586	17513
572.644	21084
572.703	29035
572.761	20181
572.819	15971
572.877	15192
572.936	14322
572.994	14588
573.052	15515
573.110	17534
573.169	18759
573.227	16406
573.285	14743
573.343	15484
573.401	15103
573.459	15411
573.517	16337
573.576	17968
573.634	17709
573.692	18823
573.750	18167
573.808	15859
573.866	15391
573.924	16528
573.982	16989
574.040	15610
574.098	15632
574.155	14919
574.213	15172
574.271	15995
574.329	19050
574.387	16710
574.445	14100
574.503	13847
574.560	14018
574.618	13603
574.676	14356
574.734	14672
574.792	14256
574.849	13611
574.907	13053
574.965	11742
575.022	11412
575.080	11356
575.138	12801
575.195	13419
575.253	13355
575.311	14925
575.368	13587
575.426	10872
575.483	12565
575.541	12547
575.598	11982
575.656	12960
575.713	13862
575.771	14705
575.828	14125
575.886	13321
575.943	12228
576.001	13226
576.058	11622
576.115	12489
576.173	14836
576.230	17242
576.287	21770
576.345	18327
576.402	14194
576.459	14795
576.517	13304
576.574	13046
576.631	13257
576.688	12015
576.746	10809
576.803	11900
576.860	10983
576.917	11463
576.974	11720
577.031	11627
577.089	12130
577.146	11215
577.203	11912
577.260	13075
577.317	12536
577.374	12987
577.431	12465
577.488	12994
577.545	11440
577.602	11669
577.659	11361
577.716	10631
577.773	10676
577.830	10308
577.886	11631
577.943	9829
578.000	11332
578.057	12549
578.114	12983
578.171	11696
578.227	10741
578.284	12206
578.341	12810
578.398	13469
578.454	13378
578.511	14189
578.568	14960
578.625	13555
578.681	12463
578.738	11786
578.794	12198
578.851	12110
578.908	12228
578.964	11775
579.021	12774
579.077	14785
579.134	13885
579.190	12097
579.247	11849
579.303	11802
579.360	11521
579.416	11700
579.473	10731
579.529	10555
579.586	10965
579.642	11340
579.698	11253
579.755	12613
579.811	12224
579.867	11625
579.924	10669
579.980	10888
580.036	12180
580.093	11713
580.149	12449
580.205	12141
580.261	12215
580.317	11861
580.374	14171
580.430	14955
580.486	14261
580.542	12879
580.598	13011
580.619	13001
580.654	12993
580.692	12859
580.710	12808
580.765	12157
580.767	12145
580.823	13077
580.838	13055
580.879	13029
580.911	13392
580.935	13666
580.984	12141
580.991	11940
581.047	12979
581.057	13037
581.103	13330
581.130	12942
581.159	12559
581.203	12707
581.215	12745
581.270	11894
581.276	11965
581.326	12653
581.349	12552
581.382	12439
581.422	12391
581.438	12374
581.494	12905
581.494	12898
581.550	12613
581.567	13122
581.606	14200
581.640	13729
581.661	13445
581.713	13483
581.717	13482
581.773	13212
581.786	12880
581.829	11877
581.859	12165
581.885	12407
581.932	12550
581.940	12586
581.996	12699
582.004	12825
582.052	13530
582.077	13173
582.107	12691
582.150	12493
582.163	12452
582.219	12718
582.223	12755
582.274	13132
582.296	13221
582.330	13466
582.368	13265
582.386	13173
582.441	13026
582.441	13025
582.497	13004
582.514	12891
582.552	12851
582.587	13327
582.608	13529
582.659	13443
582.663	13441
582.719	13951
582.732	13669
582.774	12771
582.805	13788
582.830	14668
582.877	14391
582.885	14321
582.941	14228
582.950	14177
582.996	13957
583.023	14024
583.052	14312
583.095	15084
583.107	15155
583.162	14737
583.168	14712
583.218	14765
583.240	14513
583.273	14051
583.313	14656
583.328	14977
583.384	15560
583.385	15548
583.439	14994
583.458	15218
583.494	15571
583.531	14906
583.549	14654
583.603	15795
583.605	15824
583.660	15703
583.676	15636
583.715	15531
583.748	15628
583.770	15830
583.820	16740
583.825	16777
583.881	16113
583.893	16183
583.936	16738
583.965	16415
583.991	16159
584.038	16791
584.046	16862
584.101	16508
584.110	16586
584.156	17276
584.183	17291
584.211	17178
584.255	17874
584.266	18144
584.321	17486
584.328	17631
584.376	18405
584.400	18461
584.431	18902
584.472	19150
584.486	18993
584.541	18715
584.545	18756
584.596	20165
584.617	20330
584.651	20835
584.689	22102
584.706	22561
584.761	22466
584.762	22462
584.816	22997
584.834	23300
584.871	23822
584.906	24667
584.926	25246
584.978	26511
584.980	26581
585.035	29474
585.051	30118
585.090	32229
585.123	34707
585.145	36419
585.195	40600
585.200	41124
585.254	48790
585.267	50572
585.309	56511
585.340	62415
585.364	67975
585.412	77819
585.419	79468
585.473	94539
585.484	98849
585.528	124521
585.556	152617
585.583	210513
585.628	348559
585.637	401090
585.692	865575
585.700	953251
585.747	1262063
585.772	1085936
585.801	702539
585.845	251880
585.856	192407
585.910	97497
585.917	88816
585.965	67375
585.989	59801
586.019	53887
586.061	48004
586.074	46579
586.128	44323
586.133	44114
586.183	44276
586.205	44467
586.237	43893
586.277	42164
586.292	41887
586.346	41337
586.349	41325
586.401	41788
586.421	41715
586.455	42215
586.493	43584
586.509	44997
586.564	49166
586.565	49309
586.618	59463
586.637	60921
586.672	60154
586.709	59720
586.727	60343
586.781	63559
586.781	63610
586.835	54545
586.853	52391
586.889	50285
586.925	48885
586.944	48827
586.996	49598
586.998	49701
587.052	50596
587.068	50974
587.106	53208
587.140	54996
587.161	55659
587.212	57231
587.215	57454
587.269	60187
587.284	60760
587.323	62188
587.356	63420
587.377	64721
587.427	68231
587.431	68635
587.485	71261
587.499	72249
587.539	76036
587.571	78747
587.593	81132
587.643	86311
587.648	86977
587.702	92194
587.715	93558
587.755	99164
587.786	102941
587.810	106524
587.858	113531
587.864	114799
587.917	126646
587.930	129127
587.971	139852
588.001	147813
588.025	155805
588.073	170985
588.079	173730
588.133	196739
588.145	201810
588.187	225188
588.217	241838
588.241	259523
588.288	294591
588.295	300878
588.348	352890
588.360	363802
588.402	416409
588.431	453584
588.456	492657
588.503	570067
588.510	584890
588.564	701714
588.575	726915
588.617	866268
588.646	964894
588.671	1101083
588.718	1379488
588.725	1454939
588.778	2068663
588.789	2207013
588.832	2975725
588.861	3556154
588.886	3925954
588.932	4623424
588.939	4663017
588.993	4563984
589.004	4513825
589.047	4104636
589.075	3698229
589.100	3125008
589.147	2175135
589.154	2095612
589.207	1559650
589.218	1456200
589.261	1343680
589.290	1280507
589.314	1341384
589.361	1480781
589.368	1552632
589.421	2176040
589.433	2321643
589.475	3146963
589.504	3785264
589.528	4067594
589.576	4439723
589.582	4407034
589.635	3731166
589.647	3551453
589.689	2384447
589.718	1642534
589.742	1348719
589.790	824847
589.795	800972
589.849	585982
589.861	537634
589.902	454508
589.932	394137
589.955	364905
590.004	303736
590.009	300518
590.062	260578
590.075	250469
590.115	228654
590.146	211165
590.168	203479
590.218	185470
590.222	184761
590.275	170521
590.289	166393
590.328	158694
590.360	151572
590.381	148174
590.431	139195
590.435	139034
590.488	130673
590.503	127985
590.541	124380
590.574	120855
590.594	118429
590.645	111361
590.647	111511
590.700	107715
590.716	106290
590.753	104601
590.787	102798
590.806	102146
590.859	99349
590.859	99574
590.912	96888
590.930	95922
590.965	94824
591.001	93111
591.018	92718
591.071	90544
591.072	90276
591.124	89592
591.143	89014
591.177	88060
591.214	86534
591.230	86819
591.283	87119
591.285	86886
591.336	86529
591.356	86138
591.389	85906
591.427	84860
591.442	84035
591.495	80184
591.498	79677
591.547	78505
591.569	77734
591.600	77774
591.640	77324
591.653	77534
591.706	77446
591.711	77226
591.759	77839
591.782	77843
591.811	78304
591.853	78449
591.864	78348
591.917	76539
591.924	76083
591.969	76435
591.995	76287
592.022	76230
592.066	75583
592.075	76160
592.127	78393
592.137	78595
592.180	79730
592.208	80053
592.233	79054
592.279	76500
592.285	76687
592.338	76484
592.350	76221
592.390	75531
592.421	74647
592.443	75660
592.491	77222
592.495	77418
592.548	77103
592.562	76797
592.600	75518
592.633	74029
592.653	74783
592.704	75784
592.705	76247
592.775	77589
592.846	78569
592.916	79882
592.987	82929
593.058	79374
593.128	76447
593.199	75790
593.270	75943
593.341	76974
593.411	78236
593.482	80219
593.553	80386
593.623	78697
593.694	81061
593.764	83057
593.835	81918
593.906	81286
593.976	83391
594.047	84944
594.117	89901
594.188	90762
594.258	86187
594.329	86123
594.399	88052
594.470	90046
594.540	91913
594.611	91970
594.681	94790
594.751	93362
594.822	99122
594.892	102648
594.963	104041
595.033	104409
595.103	106021
595.174	106380
595.244	116201
595.314	120418
595.384	111204
595.455	113028
595.525	116877
595.595	119551
595.665	118814
595.736	116658
595.806	118630
595.876	118441
595.946	120675
596.016	124878
596.087	127905
596.157	129173
596.227	128067
596.297	134458
596.367	143875
596.437	151053
596.507	154908
596.577	157736
596.647	154356
596.717	158606
596.787	163219
596.857	162794
596.927	164705
596.997	162218
597.067	164650
597.137	167144
597.207	168181
597.277	168104
597.347	161656
597.417	157220
597.487	158004
597.557	162821
597.626	166049
597.696	168511
597.766	168332
597.836	162524
597.906	150773
597.975	146549
598.045	149485
598.115	155986
598.185	166520
598.254	186163
598.324	200440
598.394	203675
598.464	196890
598.533	189976
598.603	179685
598.672	174406
598.742	178370
598.812	178325
598.881	182329
598.951	179132
599.020	183771
599.090	190080
599.159	191472
599.229	182288
599.299	178994
599.368	185312
599.437	183543
599.507	166436
599.576	162844
599.646	158642
599.715	158840
599.785	156065
599.854	153427
599.924	152450
599.993	151132
600.062	151577
600.132	157603
600.201	169099
600.270	194393
600.340	201565
600.409	194694
600.478	193635
600.547	197483
600.617	177664
600.686	144825
600.755	133472
600.824	129019
600.894	124169
600.963	122148
601.032	119711
601.101	115679
601.170	110776
601.239	110619
601.308	112634
601.378	111948
601.447	109215
601.516	109444
601.585	114403
601.654	121694
601.723	113826
601.792	115159
601.861	118581
601.930	125892
601.999	129137
602.068	125757
602.137	134011
602.206	133543
602.275	131102
602.343	136924
602.412	137713
602.481	130751
602.550	131477
602.619	135019
602.688	136583
602.756	137075
602.825	137366
602.894	140769
602.963	143991
603.032	145121
603.100	146898
603.169	144704
603.238	146521
603.307	147941
603.375	149008
603.444	152633
603.513	153259
603.581	156413
603.650	159442
603.719	156691
603.787	161264
603.856	166152
603.924	172671
603.993	177636
604.061	181128
604.130	189991
604.198	192637
604.267	197775
604.335	198512
604.404	202159
604.472	204701
604.541	206212
604.609	206762
604.678	209246
604.746	209419
604.815	214782
604.883	219205
604.951	218095
605.020	221641
605.088	226650
605.156	234294
605.225	235865
605.293	235034
605.361	237175
605.429	240879
605.498	249009
605.566	254961
605.634	265053
605.702	275688
605.771	282980
605.839	281338
605.907	272705
605.975	262481
606.043	259791
606.111	259294
606.180	257306
606.248	255904
606.316	255021
606.384	255092
606.452	262727
606.520	277204
606.588	277570
606.656	273676
606.724	265747
606.792	249105
606.860	222850
606.928	206571
606.996	199082
607.064	196181
607.132	201121
607.200	213126
607.267	221452
607.335	224710
607.403	231130
607.471	219512
607.539	213330
607.607	214416
607.674	192006
607.742	194294
607.810	193382
607.878	191637
607.946	196196
608.013	205664
608.081	210353
608.149	213040
608.216	219594
608.284	224120
608.352	223051
608.419	220629
608.487	220054
608.555	213200
608.622	220389
608.690	234169
608.757	258142
608.825	262044
608.893	256733
608.960	249345
609.028	238587
609.095	235041
609.163	230375
609.230	203917
609.298	190063
609.365	202948
609.432	218083
609.500	238017
609.567	272649
609.635	308777
609.702	321813
609.769	307322
609.837	242478
609.904	218390
609.971	238493
610.039	282242
610.106	399391
610.173	795030
610.241	1789445
610.308	996248
610.375	376889
610.442	250782
610.509	224550
610.577	219725
610.644	222147
610.711	227271
610.778	232145
610.845	241114
610.912	254057
610.980	262809
611.047	265788
611.114	262903
611.181	250855
611.248	251144
611.315	265732
611.382	270558
611.449	280554
611.516	286867
611.583	282794
611.650	287334
611.717	296522
611.784	307330
611.851	336412
611.918	380846
611.984	468625
612.051	709869
612.118	1481470
612.185	3411175
612.252	1988865
612.319	527254
612.386	403243
612.452	358449
612.519	333341
612.586	325407
612.653	328375
612.719	336011
612.786	320906
612.853	296586
612.919	290265
612.986	292392
613.053	273809
613.120	258519
613.186	251972
613.253	251539
613.319	254555
613.386	253671
613.453	262316
613.519	267080
613.586	271017
613.652	286816
613.719	273507
613.785	271711
613.852	265464
613.918	257953
613.985	265342
614.051	275675
614.118	277807
614.184	267049
614.250	262182
614.317	264456
614.383	262559
614.449	265039
614.516	265366
614.582	265323
614.648	261143
614.715	260203
614.781	252307
614.847	254366
614.914	253512
614.980	247694
615.046	249559
615.112	258277
615.179	260030
615.245	267093
615.311	279687
615.377	316743
615.443	326908
615.509	292504
615.575	289667
615.642	284946
615.708	298578
615.774	323128
615.840	359719
615.906	424134
615.972	577873
616.038	959361
616.104	1907399
616.170	3969231
616.236	3158691
616.302	808966
616.368	571554
616.434	407930
616.500	367576
616.565	414782
616.631	523107
616.697	430839
616.763	455119
616.829	709658
616.895	1247336
616.961	1125522
617.026	475987
617.092	315875
617.158	287189
617.224	271402
617.289	252016
617.355	238047
617.421	235780
617.487	232325
617.552	219628
617.618	219186
617.684	219721
617.749	218454
617.815	211471
617.880	207764
617.946	207947
618.012	212505
618.077	213722
618.143	204782
618.208	206534
618.274	222046
618.339	219164
618.405	182796
618.470	184984
618.536	183034
618.601	181964
618.667	168164
618.732	160766
618.798	161231
618.863	159383
618.928	159572
618.994	163590
619.059	166275
619.124	182447
619.190	164989
619.255	158252
619.320	158072
619.386	159936
619.451	157633
619.516	152995
619.581	154060
619.647	157446
619.712	158127
619.777	151499
619.842	153665
619.907	158269
619.972	159245
620.038	157089
620.103	149891
620.168	151809
620.233	155376
620.298	155458
620.363	157501
620.428	161542
620.493	164507
620.558	167244
620.623	169412
620.688	166528
620.753	165536
620.818	169070
620.883	169116
620.948	171134
621.013	167927
621.078	165992
621.143	166697
621.207	171864
621.272	168502
621.337	164443
621.402	160345
621.467	162625
621.532	162715
621.596	163043
621.661	158172
621.726	154088
621.791	154201
621.855	157711
621.920	156862
621.985	158274
622.049	162253
622.114	162016
622.179	161171
622.243	166603
622.308	170317
622.373	177973
622.437	172792
622.502	163663
622.566	162300
622.631	160642
622.695	165251
622.760	161947
622.824	163348
622.889	164712
622.953	169619
623.018	197909
623.082	193758
623.147	173784
623.211	169051
623.276	170268
623.340	160213
623.404	155842
623.469	156961
623.533	158195
623.597	154862
623.662	152463
623.726	141968
623.790	135855
623.854	132032
623.919	135589
623.983	138342
624.047	139931
624.111	140257
624.176	145320
624.240	148755
624.304	156868
624.368	144443
624.432	143290
624.496	147255
624.560	156618
624.625	160203
624.689	153535
624.753	158874
624.817	149066
624.881	146446
624.945	133879
625.009	128571
625.073	133847
625.137	142988
625.201	154904
625.265	151564
625.329	137614
625.393	141724
625.456	141858
625.520	145667
625.584	148393
625.648	153387
625.712	163252
625.776	187530
625.839	183614
625.903	132250
625.967	117736
626.031	133414
626.095	161457
626.158	131825
626.222	103870
626.286	97958
626.349	95278
626.413	89870
626.477	92336
626.540	90662
626.604	88636
626.668	87098
626.731	86071
626.795	87281
626.858	86759
626.922	84092
626.986	85502
627.049	83878
627.113	87290
627.176	84550
627.240	83304
627.303	83157
627.366	81403
627.430	84399
627.493	82214
627.557	79788
627.620	83341
627.684	85612
627.747	87180
627.810	78135
627.874	73329
627.937	69209
628.000	74039
628.064	70615
628.127	61932
628.190	62412
628.253	62158
628.317	58292
628.380	57102
628.443	55768
628.506	56437
628.569	53569
628.632	50725
628.696	50638
628.759	49800
628.822	48022
628.885	48136
628.948	46644
629.011	47795
629.074	47139
629.137	45057
629.200	43653
629.263	46936
629.326	42342
629.389	42393
629.452	41509
629.515	41890
629.578	41280
629.641	43326
629.704	42949
629.767	42975
629.830	40999
629.892	39566
629.955	39388
630.018	43764
630.081	45966
630.144	51058
630.207	42256
630.269	43441
630.332	38897
630.395	39642
630.458	38454
630.520	37790
630.583	38237
630.646	37092
630.708	36438
630.771	37705
630.834	39826
630.896	39275
630.959	38900
631.021	37338
631.084	38798
631.146	40460
631.209	41120
631.272	38968
631.334	40018
631.397	41926
631.459	42421
631.522	46799
631.584	47773
631.646	51776
631.709	54946
631.771	59849
631.834	53090
631.896	47510
631.958	44194
632.021	43009
632.083	39363
632.145	39093
632.208	39185
632.270	39904
632.332	37280
632.395	36285
632.457	37436
632.519	36473
632.581	37107
632.643	35849
632.706	35419
632.768	35013
632.830	36732
632.892	36922
632.954	36014
633.016	38802
633.078	36696
633.141	36103
633.203	36091
633.265	37169
633.327	37026
633.389	37868
633.451	40590
633.513	42976
633.575	42527
633.637	43208
633.698	42620
633.760	42237
633.822	41919
633.884	44306
633.946	46637
634.008	47892
634.070	50581
634.132	55269
634.193	61340
634.255	67116
634.317	68098
634.379	67203
634.441	58929
634.502	51830
634.564	48480
634.626	43340
634.687	42264
634.749	39456
634.811	38408
634.873	37873
634.934	37430
634.996	37567
635.057	37211
635.119	38291
635.181	38978
635.242	40931
635.304	38591
635.365	41628
635.427	39620
635.488	41175
635.550	39927
635.611	41274
635.673	40026
635.734	46880
635.796	48930
635.857	55443
635.918	57940
635.980	66634
636.041	70531
636.102	76899
636.164	78353
636.225	73136
636.286	61433
636.348	55146
636.409	47631
636.470	42630
636.531	41624
636.593	39391
636.654	37033
636.715	34627
636.776	34124
636.838	33851
636.899	33828
636.960	32569
637.021	30954
637.082	31636
637.143	31079
637.204	29816
637.265	30833
637.326	31689
637.387	30907
637.448	30882
637.509	30840
637.570	30720
637.631	29651
637.692	28586
637.753	27382
637.814	28438
637.875	28461
637.936	29089
637.997	27674
638.058	28928
638.119	29212
638.179	27849
638.240	27782
638.301	27320
638.362	26468
638.423	25899
638.483	27005
638.544	24339
638.605	25780
638.666	24355
638.726	24870
638.787	26974
638.848	26254
638.908	24156
638.969	24676
639.030	25385
639.090	24719
639.151	25292
639.211	28434
639.272	32240
639.332	42949
639.393	31426
639.453	30338
639.514	32080
639.574	26531
639.635	24177
639.695	25994
639.756	25122
639.816	26518
639.877	29790
639.937	41154
639.997	46563
640.058	26024
640.118	24417
640.178	24924
640.239	24407
640.299	23881
640.359	24718
640.420	27354
640.480	31861
640.540	37690
640.600	36734
640.661	33114
640.721	30921
640.781	34443
640.841	26298
640.901	26630
640.961	26424
641.021	29287
641.082	34060
641.142	35912
641.202	28855
641.262	22819
641.322	23670
641.382	22325
641.442	22888
641.502	21752
641.562	23984
641.622	23919
641.682	27381
641.742	30780
641.802	28749
641.861	26181
641.921	25333
641.981	26060
642.041	26780
642.101	28296
642.161	22911
642.221	21622
642.280	21678
642.340	22046
642.400	20715
642.460	22787
642.519	22439
642.579	22334
642.639	23351
642.698	21115
642.758	26098
642.818	23347
642.877	23426
642.937	25706
642.997	27124
643.056	32457
643.116	24707
643.175	25605
643.235	26076
643.294	28856
643.354	32472
643.414	37632
643.473	48520
643.532	65027
643.592	96969
643.651	154916
643.711	271720
643.770	530880
643.830	1272058
643.889	2425678
643.948	559691
644.008	105263
644.067	63585
644.126	46453
644.186	39200
644.245	32547
644.304	28814
644.363	30364
644.423	27748
644.482	28068
644.541	31042
644.600	34058
644.659	45644
644.719	60131
644.778	91081
644.837	155056
644.896	324246
644.955	708447
645.014	219248
645.073	48764
645.132	35301
645.191	32395
645.250	30768
645.309	32574
645.368	36026
645.427	48379
645.486	83964
645.545	136717
645.604	43988
645.663	29917
645.722	30478
645.781	36149
645.840	43933
645.898	61217
645.957	92265
646.016	146448
646.075	259568
646.134	496025
646.192	1327084
646.251	1767077
646.310	263497
646.369	74423
646.427	58171
646.486	41120
646.545	33055
646.603	29010
646.662	28034
646.721	27608
646.779	27031
646.838	31042
646.896	41860
646.955	56882
647.014	90488
647.072	174032
647.131	459489
647.189	209444
647.248	33507
647.306	24312
647.365	22758
647.423	18483
647.481	20355
647.540	17126
647.598	18723
647.657	17162
647.715	17489
647.773	15772
647.832	17339
647.890	14202
647.948	15277
648.007	15670
648.065	14568
648.123	14221
648.181	16549
648.240	15480
648.298	14513
648.356	14405
648.414	15212
648.472	13907
648.531	14806
648.589	13982
648.647	14877
648.705	14921
648.763	16228
648.821	18031
648.879	19919
648.937	25004
648.995	33920
649.053	46952
649.111	72666
649.169	118750
649.227	206492
649.285	436804
649.343	1181735
649.401	528253
649.459	92000
649.516	49937
649.574	33037
649.632	35807
649.690	39113
649.748	44701
649.806	64092
649.863	117989
649.921	322683
649.979	206108
650.037	29645
650.094	17569
650.152	16511
650.210	14243
650.268	13796
650.325	12358
650.383	12301
650.440	10717
650.498	11413
650.556	11577
650.613	11698
650.671	11750
650.728	12201
650.786	12923
650.843	17371
650.901	13108
650.958	10993
651.016	9633
651.073	11152
651.131	9293
651.188	9747
651.246	10087
651.303	8443
651.360	9475
651.418	8544
651.475	10019
651.532	8424
651.590	9544
651.647	9079
651.704	9140
651.762	9330
651.819	9471
651.876	9774
651.933	8756
651.990	8817
652.048	7930
652.105	8374
652.162	8460
652.219	8473
652.276	9207
652.333	9073
652.390	7793
652.448	9085
652.505	8114
652.562	7617
652.619	7855
652.676	8146
652.733	8877
652.790	8336
652.847	6839
652.904	7149
652.961	6723
653.017	7845
653.074	8579
653.131	8983
653.188	6915
653.245	7541
653.302	7361
653.359	8323
653.415	8594
653.472	7284
653.529	8076
653.586	6520
653.642	7603
653.699	8187
653.756	7158
653.813	7635
653.869	9025
653.926	7633
653.983	6995
654.039	8306
654.096	6794
654.152	9115
654.209	5956
654.266	7575
654.322	6845
654.379	8603
654.435	8803
654.492	7871
654.548	10571
654.605	14187
654.661	9174
654.717	7342
654.774	8184
654.830	7389
654.887	6650
654.943	7718
655.000	7449
655.056	8429
655.112	7773
655.168	7608
655.225	7625
655.281	8066
655.337	8758
655.394	10973
655.450	9217
655.506	8948
655.562	10145
655.618	10106
655.675	6763
655.731	7985
655.787	6559
655.843	9437
655.899	7222
655.955	7952
656.011	7930
656.067	7106
656.123	8201
656.179	8665
656.235	9243
656.291	8002
656.347	9628
656.403	8330
656.459	8449
656.515	8322
656.571	8109
656.627	7979
656.683	7516
656.739	8051
656.795	7629
656.850	7868
656.906	9682
656.962	8655
657.018	8026
657.074	10509
657.129	12482
657.185	17996
657.241	36030
657.297	21861
657.352	8536
657.408	7072
657.464	8096
657.519	7056
657.575	5708
657.630	6760
657.686	6262
657.742	6449
657.797	6622
657.853	5853
657.908	7367
657.964	5853
658.019	6907
658.075	6831
658.130	6270
658.186	6099
658.241	6423
658.297	5828
658.352	5928
658.407	6095
658.463	5192
658.518	6742
658.573	6823
658.629	5933
658.684	5746
658.739	6471
658.795	5729
658.850	6509
658.905	5417
658.960	6036
659.016	5837
659.071	5922
659.126	6207
659.181	7638
659.236	11491
659.291	12999
659.346	8134
659.401	7395
659.457	6497
659.512	5747
659.567	6350
659.622	6281
659.677	4873
659.732	5131
659.787	5965
659.842	6198
659.897	6455
659.952	5705
660.007	5463
660.061	6526
660.116	5317
660.171	4870
660.226	5099
660.281	5798
660.336	5430
660.391	6616
660.445	4948
660.500	5201
660.555	6143
660.610	5293
660.664	5917
660.719	5504
660.774	6640
660.828	6435
660.883	5961
660.938	5640
660.992	4911
661.047	4970
661.101	5583
661.156	5177
661.211	4832
661.265	5350
661.320	5055
661.374	5422
661.429	4962
661.483	6384
661.538	5041
661.592	5996
661.647	5619
661.701	5886
661.755	5708
661.810	5790
661.864	4969
661.919	5148
661.973	6594
662.027	4939
662.081	3712
662.136	5477
662.190	5429
662.244	5914
662.299	4324
662.353	5975
662.407	5003
662.461	5450
662.515	5283
662.569	5223
662.624	5575
662.678	4992
662.732	4652
662.786	5347
662.840	4212
662.894	4760
662.948	5339
663.002	5434
663.056	5632
663.110	5733
663.164	4831
663.218	6101
663.272	6237
663.326	6130
663.380	5601
663.434	6997
663.488	5070
663.542	5815
663.595	5926
663.649	6049
663.703	5695
663.757	5875
663.811	6124
663.864	5714
663.918	5202
663.972	5865
664.026	4615
664.079	4951
664.133	5125
664.187	5509
664.240	4301
664.294	5605
664.348	5224
664.401	5588
664.455	5803
664.508	4884
664.562	5673
664.615	5699
664.669	4811
664.722	5647
664.776	4606
664.829	4974
664.883	5567
664.936	3902
664.990	4910
665.043	5592
665.097	5328
665.150	7230
665.203	6034
665.257	5684
665.310	5337
665.363	5851
665.417	5151
665.470	6041
665.523	5138
665.576	5982
665.630	6021
665.683	6957
665.736	5572
665.789	6125
665.842	5346
665.895	5709
665.949	5154
666.002	5036
666.055	5181
666.108	6211
666.161	5237
666.214	6764
666.267	6733
666.320	8191
666.373	6879
666.426	5805
666.479	5324
666.532	6582
666.585	6668
666.638	6241
666.691	6408
666.744	6830
666.796	6695
666.849	5924
666.902	6479
666.955	6269
667.008	5108
667.060	5122
667.113	5104
667.166	5359
667.219	5327
667.271	6030
667.324	5416
667.377	6482
667.430	5425
667.482	5945
667.535	5744
667.587	6921
667.640	6686
667.693	7356
667.745	12018
667.798	13456
667.850	6521
667.903	5839
667.955	5479
668.008	6449
668.060	5836
668.113	6935
668.165	6891
668.218	6362
668.270	5244
668.322	5900
668.375	5392
668.427	5905
668.479	5284
668.532	6202
668.584	4618
668.636	5442
668.689	5225
668.741	5293
668.793	5372
668.845	5957
668.898	5640
668.950	5515
669.002	6020
669.054	5222
669.106	5310
669.158	5895
669.211	5534
669.263	5441
669.315	5941
669.367	6173
669.419	5950
669.471	7658
669.523	8379
669.575	8964
669.627	7833
669.679	6911
669.731	7202
669.783	6479
669.835	7488
669.886	7850
669.938	7041
669.990	7827
670.042	7232
670.094	7950
670.146	9618
670.197	11535
670.249	14002
670.301	18310
670.353	25647
670.404	37914
670.456	54823
670.508	86938
670.560	140482
670.611	230178
670.663	396929
670.715	963001
670.766	1411804
670.818	399193
670.869	67555
670.921	36041
670.972	26048
671.024	20089
671.075	16267
671.127	12906
671.178	12681
671.230	13610
671.281	12566
671.333	12484
671.384	14795
671.436	18717
671.487	24487
671.538	31207
671.590	43624
671.641	67024
671.692	117523
671.744	216362
671.795	151468
671.846	53490
671.897	25883
671.949	17857
672.000	13445
672.051	10994
672.102	9342
672.153	7795
672.204	7923
672.256	6419
672.307	6731
672.358	7500
672.409	6671
672.460	6782
672.511	5274
672.562	5424
672.613	4498
672.664	4899
672.715	5414
672.766	4772
672.817	4613
672.868	4767
672.919	4605
672.970	4382
673.021	4794
673.071	4104
673.122	4506
673.173	4822
673.224	3814
673.275	5085
673.326	4472
673.376	4766
673.427	4371
673.478	4564
673.528	4477
673.579	4706
673.630	4459
673.680	5296
673.731	4055
673.782	4902
673.832	4093
673.883	4263
673.934	3695
673.984	3748
674.035	4082
674.085	4620
674.136	4728
674.186	4824
674.237	5807
674.287	6577
674.338	5023
674.388	5066
674.438	4551
674.489	5801
674.539	5991
674.589	5031
674.640	4652
674.690	4844
674.740	5050
674.791	4970
674.841	5110
674.891	4774
674.942	4384
674.992	4519
675.042	4208
675.092	3808
675.142	3410
675.193	4034
675.243	3451
675.293	4189
675.343	3058
675.393	4354
675.443	3670
675.493	4240
675.543	3451
675.593	3967
675.643	4004
675.693	4187
675.743	3328
675.793	4674
675.843	3112
675.893	4143
675.943	3279
675.993	3547
676.043	3033
676.093	3852
676.142	3213
676.192	4243
676.242	3442
676.292	3291
676.341	3256
676.391	3754
676.441	2753
676.491	3768
676.540	2348
676.590	3925
676.640	3454
676.689	3274
676.739	1881
676.789	3737
676.838	2222
676.888	2801
676.937	3108
676.987	2812
677.037	2686
677.086	3102
677.136	2389
677.185	3204
677.235	2095
677.284	2755
677.333	2173
677.383	2833
677.432	1990
677.482	2477
677.531	3171
677.580	3105
677.630	2147
677.679	3171
677.728	2029
677.778	3171
677.827	2149
677.876	2330
677.925	3159
677.975	2531
678.024	3568
678.073	2513
678.122	3090
678.171	3779
678.220	3588
678.269	4443
678.319	4606
678.368	5437
678.417	3940
678.466	4297
678.515	3040
678.564	3039
678.613	2359
678.662	2742
678.711	2905
678.760	2821
678.809	2737
678.857	2647
678.906	2691
678.955	2458
679.004	1907
679.053	1907
679.102	2513
679.151	2871
679.199	2168
679.248	4304
679.297	2502
679.346	2386
679.394	2390
679.443	3008
679.492	2762
679.540	2860
679.589	2776
679.638	2800
679.686	2839
679.735	4159
679.784	3417
679.832	4897
679.881	3068
679.929	2651
679.978	1809
680.026	2442
680.075	2013
680.123	1735
680.172	2052
680.220	1877
680.268	1884
680.317	2194
680.365	2960
680.414	2293
680.462	2101
680.510	2909
680.559	1645
680.607	2303
680.655	3145
680.703	2757
680.752	2502
680.800	2684
680.848	2110
680.896	2011
680.945	2090
680.993	1803
681.041	2011
681.089	2043
681.137	1881
681.185	2139
681.233	2445
681.258	2089
681.281	1738
681.329	1635
681.377	1879
681.380	1933
681.425	2653
681.473	2205
681.502	2166
681.521	2104
681.569	3625
681.617	2871
681.624	2808
681.665	2300
681.713	2630
681.745	2512
681.761	2431
681.809	1619
681.857	2835
681.867	2702
681.904	2188
681.952	2299
681.989	2286
682.000	2259
682.048	2889
682.096	2058
682.111	2203
682.143	2472
682.191	2700
682.233	2871
682.239	2877
682.286	2633
682.334	3250
682.354	2780
682.382	2107
682.430	3244
682.476	2000
682.477	1960
682.525	2742
682.572	2155
682.598	2696
682.620	3134
682.667	2629
682.715	3524
682.720	3460
682.763	2733
682.810	3726
682.841	3507
682.857	3368
682.905	3238
682.952	2518
682.963	2720
683.000	3353
683.047	3254
683.085	3417
683.095	3442
683.142	2428
683.190	2718
683.206	2783
683.237	2882
683.284	2974
683.328	3265
683.332	3275
683.379	3205
683.426	2867
683.449	3237
683.473	3650
683.521	2941
683.568	3807
683.571	3810
683.615	3487
683.662	4158
683.693	3535
683.709	3210
683.757	3295
683.804	3080
683.814	3086
683.851	3113
683.898	3746
683.936	3911
683.945	3930
683.992	4130
684.039	4287
684.057	4275
684.086	4263
684.133	4433
684.179	4041
684.180	4011
684.227	4515
684.274	4515
684.300	4606
684.321	4707
684.368	3451
684.415	4316
684.422	4214
684.462	3466
684.509	3761
684.543	3614
684.556	3580
684.603	4700
684.649	3360
684.665	3708
684.696	4369
684.743	3971
684.786	4535
684.790	4577
684.837	4115
684.883	4360
684.908	4388
684.930	4326
684.977	4607
685.023	4164
685.029	4188
685.070	4426
685.117	4502
685.150	4327
685.164	4231
685.210	3776
685.257	4767
685.272	4759
685.303	4807
685.350	5320
685.393	5005
685.396	4978
685.443	6084
685.490	5995
685.514	5939
685.536	5693
685.583	5542
685.629	5198
685.636	5145
685.675	4951
685.722	5244
685.757	5424
685.768	5468
685.815	5288
685.861	5285
685.878	5311
685.908	5407
685.954	4818
686.000	5277
686.000	5280
686.047	4888
686.093	5816
686.121	5761
686.139	5653
686.185	5348
686.232	4838
686.242	4927
686.278	5314
686.324	5155
686.363	5326
686.370	5339
686.416	4946
686.463	6381
686.484	5781
686.509	5157
686.555	5762
686.601	5076
686.606	5111
686.647	5243
686.693	5267
686.727	5030
686.739	5013
686.785	4597
686.831	5167
686.848	5376
686.877	5694
686.923	5391
686.969	5718
686.969	5719
687.015	5566
687.061	5707
687.090	6240
687.107	6475
687.153	6072
687.199	6020
687.211	5719
687.245	5094
687.291	5526
687.332	5745
687.336	5758
687.382	6070
687.428	5579
687.453	5757
687.474	5866
687.520	5606
687.565	5853
687.574	5694
687.611	5189
687.657	6300
687.695	5943
687.702	5912
687.748	6591
687.794	6992
687.816	7101
687.839	6924
687.885	6482
687.931	5838
687.937	5867
687.976	6426
688.022	6353
688.058	6652
688.067	6693
688.113	6707
688.158	6258
688.179	6331
688.204	6516
688.249	7238
688.295	7273
688.300	7236
688.340	6573
688.386	7002
688.421	6159
688.431	6050
688.477	6613
688.522	7004
688.542	7182
688.567	7286
688.613	7144
688.658	7077
688.663	7066
688.703	6931
688.749	6080
688.784	6791
688.794	7042
688.839	6526
688.884	7149
688.905	7013
688.930	6796
688.975	6426
689.020	7080
689.026	7026
689.065	6572
689.110	6646
689.146	5839
689.155	5718
689.201	6641
689.246	6767
689.267	6865
689.291	6872
689.336	7212
689.381	6767
689.388	6779
689.426	6928
689.471	7027
689.509	6864
689.516	6829
689.561	7211
689.606	6868
689.630	6830
689.651	6924
689.696	7039
689.741	7779
689.750	7695
689.785	7193
689.830	6891
689.871	7170
689.875	7215
689.920	7150
689.965	6809
689.992	7069
690.010	7313
690.054	6957
690.099	7054
690.112	7064
690.144	7062
690.189	7134
690.233	7297
690.233	7307
690.278	7483
690.323	7064
690.354	7010
690.367	7083
690.412	7169
690.457	7454
690.474	7607
690.501	7627
690.546	7128
690.590	6532
690.595	6533
690.635	7072
690.680	7230
690.716	7477
690.724	7460
690.769	7429
690.813	7516
690.836	7039
690.857	6954
690.902	7744
690.946	8026
690.957	8240
690.991	8899
691.035	8958
691.077	9859
691.080	9885
691.124	8991
691.168	8827
691.198	8279
691.213	8112
691.257	8439
691.301	8073
691.318	8084
691.346	8204
691.390	8118
691.434	8004
691.439	7999
691.478	8209
691.522	8717
691.559	8703
691.567	8717
691.611	9433
691.655	9215
691.680	8962
691.699	8556
691.743	8576
691.787	8431
691.800	8120
691.831	7826
691.875	8446
691.919	8387
691.921	8376
691.964	8219
692.008	7922
692.041	7832
692.052	7956
692.096	8645
692.139	8769
692.162	8996
692.183	8972
692.227	9140
692.271	8513
692.282	8525
692.315	8720
692.359	8781
692.402	9063
692.403	9083
692.447	8685
692.490	9383
692.523	9317
692.534	9231
692.578	9350
692.622	8951
692.643	8986
692.666	8957
692.709	8456
692.753	8308
692.763	8200
692.797	8282
692.840	8419
692.884	8830
692.884	8848
692.928	8496
692.971	8507
693.004	8398
693.015	8469
693.059	8568
693.102	8910
693.124	8973
693.146	8935
693.189	8766
693.233	8880
693.245	8863
693.276	8955
693.320	8963
693.363	8653
693.365	8636
693.407	8605
693.450	8688
693.485	8549
693.493	8623
693.537	9255
693.580	9266
693.605	9471
693.624	9566
693.667	9695
693.710	10046
693.725	10004
693.753	10513
693.797	11226
693.840	12555
693.845	12652
693.883	12344
693.926	11768
693.966	11310
693.970	11260
694.013	10371
694.056	9636
694.086	9076
694.099	9124
694.142	9422
694.185	9449
694.206	9610
694.229	9875
694.272	9775
694.315	10045
694.326	10084
694.358	10386
694.401	10824
694.444	11331
694.446	11322
694.487	11303
694.530	11037
694.566	11211
694.573	11169
694.616	9955
694.659	9684
694.686	9166
694.702	9250
694.745	9754
694.787	9700
694.806	9871
694.830	9902
694.873	9792
694.916	9588
694.926	9535
694.959	9842
695.002	10226
695.044	10428
695.046	10425
695.087	10470
695.130	10200
695.166	10049
695.172	10081
695.215	10003
695.258	9995
695.286	10094
695.301	10215
695.343	10450
695.386	10510
695.406	10541
695.428	10702
695.471	10862
695.514	11422
695.526	11414
695.556	11690
695.599	12421
695.641	12873
695.646	12916
695.684	12761
695.726	12437
695.766	11998
695.769	12003
695.811	11766
695.854	11572
695.886	11406
695.896	11428
695.938	11362
695.981	11117
696.005	11217
696.023	11575
696.065	11717
696.108	12511
696.125	12691
696.150	12613
696.192	12491
696.235	12266
696.245	12167
696.277	12271
696.319	12580
696.361	12910
696.365	12874
696.404	12712
696.446	12978
696.485	12995
696.488	13006
696.530	12716
696.572	12536
696.604	12211
696.614	12186
696.656	12143
696.698	12142
696.724	11951
696.740	11983
696.783	12178
696.825	12401
696.844	12451
696.867	12585
696.909	12735
696.951	12997
696.964	13000
696.992	13084
697.034	13193
697.076	13287
697.083	13292
697.118	13721
697.160	14090
697.202	14528
697.203	14502
697.244	14089
697.286	13729
697.323	13362
697.327	13444
697.369	13829
697.411	14306
697.442	14590
697.453	14642
697.494	14695
697.536	14828
697.562	14846
697.578	15091
697.620	15605
697.661	16085
697.682	16344
697.703	16748
697.744	17417
697.786	18137
697.801	18306
697.828	18162
697.869	17895
697.911	17630
697.921	17530
697.952	17059
697.994	16402
698.035	15663
698.040	15536
698.077	15563
698.118	15593
698.160	15613
698.160	15573
698.201	15686
698.243	15775
698.279	15888
698.284	15951
698.325	16084
698.367	16263
698.399	16293
698.408	16319
698.449	16331
698.491	16308
698.518	16269
698.532	16355
698.573	16473
698.614	16594
698.638	16619
698.656	16593
698.697	16453
698.738	16277
698.757	16178
698.779	16421
698.820	16755
698.862	17121
698.877	17215
698.903	17170
698.944	17017
698.985	16870
698.996	16790
699.026	16776
699.067	16696
699.116	16564
699.235	16372
699.354	15988
699.474	15624
699.593	17081
699.713	17151
699.832	16789
699.951	19280
700.070	17388
700.190	16324
700.309	16715
700.428	16345
700.547	15684
700.667	15941
700.786	16237
700.905	15607
701.024	15576
701.143	14388
701.262	15568
701.381	15196
701.500	16600
701.619	16932
701.738	14994
701.857	15737
701.976	15316
702.095	15824
702.214	17152
702.333	16817
702.452	16138
702.571	15187
702.690	15518
702.809	13947
702.928	14804
703.047	14633
703.165	14839
703.284	14304
703.403	14711
703.522	14885
703.640	15328
703.759	17591
703.878	16372
703.997	13700
704.115	14039
704.234	14122
704.353	13991
704.471	12705
704.590	12401
704.708	12632
704.827	13758
704.946	12521
705.064	13021
705.183	12527
705.301	13282
705.420	13331
705.538	13686
705.656	13099
705.775	12491
705.893	13710
706.012	14809
706.130	12284
706.249	13107
706.367	12112
706.485	13486
706.604	11910
706.722	13953
706.840	14712
706.958	14306
707.077	12978
707.195	11798
707.313	12309
707.431	11916
707.549	12160
707.668	11574
707.786	11477
707.904	11438
708.022	11772
708.140	11152
708.258	12221
708.376	12283
708.494	10556
708.612	13745
708.730	14799
708.848	14276
708.966	13511
709.084	13869
709.202	13251
709.320	12558
709.438	12372
709.556	13269
709.674	11027
709.791	11773
709.909	11449
710.027	12027
710.145	11822
710.263	12492
710.380	11749
710.498	11647
710.616	12618
710.733	11748
710.851	11837
710.969	11064
711.086	10782
711.204	11079
711.322	11284
711.439	11059
711.557	10800
711.674	10903
711.792	11697
711.909	11200
712.027	11361
712.144	11601
712.262	10983
712.379	11868
712.497	12950
712.614	13153
712.732	12509
712.849	11964
712.966	13828
713.084	17342
713.201	12712
713.318	13270
713.436	12724
713.553	13311
713.670	13876
713.787	15131
713.905	14576
714.022	14130
714.139	15087
714.256	23444
714.373	39382
714.490	85247
714.608	282004
714.725	1199369
714.842	702895
714.959	47784
715.076	22909
715.193	18775
715.310	17729
715.427	14319
715.544	14023
715.661	14472
715.778	12896
715.895	13827
716.011	12614
716.128	12602
716.245	13400
716.362	17036
716.479	14265
716.596	11645
716.713	12548
716.829	11305
716.946	10886
717.063	10445
717.180	9380
717.296	10220
717.413	10216
717.530	11161
717.646	10662
717.763	9995
717.880	9789
717.996	9551
718.113	11496
718.229	10490
718.346	10165
718.462	12381
718.579	16374
718.695	26181
718.812	14325
718.928	12085
719.045	10019
719.161	10502
719.277	10684
719.394	10385
719.510	11897
719.626	13430
719.743	18227
719.859	33455
719.975	83755
720.092	384654
720.208	539026
720.324	43172
720.440	15568
720.557	16512
720.673	22829
720.789	20874
720.905	23946
721.021	11814
721.137	8822
721.253	9865
721.369	9570
721.486	10836
721.602	11122
721.718	9456
721.834	9687
721.950	9439
722.066	8919
722.181	8723
722.297	9276
722.413	9097
722.529	8757
722.645	8934
722.761	8393
722.877	8736
722.993	10138
723.108	11773
723.224	9229
723.340	9053
723.456	8298
723.571	8828
723.687	7872
723.803	8096
723.918	7304
724.034	7829
724.150	7991
724.265	8953
724.381	12225
724.497	12904
724.612	7589
724.728	6989
724.843	6599
724.959	8903
725.074	13308
725.190	12435
725.305	8028
725.421	6716
725.536	7114
725.651	7319
725.767	7237
725.882	7748
725.997	6877
726.113	7144
726.228	7261
726.343	6575
726.459	6848
726.574	7038
726.689	6287
726.804	7152
726.920	6284
727.035	7702
727.150	6730
727.265	7309
727.380	7285
727.495	7961
727.610	7219
727.725	7159
727.841	6851
727.956	7827
728.071	6615
728.186	7182
728.301	6167
728.416	8019
728.531	7000
728.645	8266
728.760	8765
728.875	11611
728.990	10616
729.105	9298
729.220	8650
729.335	8823
729.449	7312
729.564	6748
729.679	6218
729.794	6584
729.908	6591
730.023	6648
730.138	7302
730.253	7417
730.367	5734
730.482	6657
730.596	5882
730.711	7624
730.826	8084
730.940	8205
731.055	7422
731.169	7250
731.284	7662
731.398	8360
731.513	8840
731.627	9008
731.742	11133
731.856	11544
731.970	12798
732.085	17419
732.199	26359
732.313	52523
732.428	161521
732.542	427957
732.656	149028
732.771	27667
732.885	17134
732.999	15878
733.113	15107
733.227	14255
733.342	13069
733.456	12442
733.570	11760
733.684	11967
733.798	11361
733.912	11741
734.026	10608
734.140	11465
734.254	10923
734.368	13529
734.482	13370
734.596	10847
734.710	10171
734.824	9960
734.938	9968
735.052	11381
735.166	11089
735.280	11705
735.393	10627
735.507	11693
735.621	12070
735.735	12828
735.849	9525
735.962	9956
736.076	10147
736.190	9977
736.303	10421
736.417	11312
736.531	9409
736.644	9385
736.758	9772
736.872	10128
736.985	10133
737.099	9935
737.212	9008
737.326	9187
737.439	9663
737.553	8547
737.666	9117
737.780	8888
737.893	8120
738.007	8689
738.120	7465
738.233	8840
738.347	9074
738.460	8439
738.573	10401
738.687	10043
738.800	10593
738.913	13022
739.026	9420
739.140	8807
739.253	8092
739.366	8826
739.479	8374
739.592	8100
739.705	8182
739.818	9287
739.932	10666
740.045	11292
740.158	9034
740.271	9462
740.384	8865
740.497	10657
740.610	11999
740.723	10729
740.836	9729
740.949	11667
741.062	13555
741.174	10016
741.287	9194
741.400	9976
741.513	10279
741.626	11991
741.739	9406
741.851	9367
741.964	9039
742.077	9069
742.189	10510
742.302	15822
742.415	12874
742.527	9905
742.640	8133
742.753	7969
742.865	7125
742.978	7058
743.090	7629
743.203	7913
743.316	6438
743.428	7703
743.541	6964
743.653	7098
743.766	6279
743.878	7764
743.990	7603
744.103	10912
744.215	13970
744.327	8933
744.440	10842
744.552	13240
744.664	8117
744.777	7170
744.889	5893
745.001	7794
745.113	6377
745.226	6120
745.338	6508
745.450	6526
745.562	5474
745.674	6531
745.786	6836
745.898	6499
746.010	5905
746.122	8179
746.234	8718
746.347	7565
746.459	6483
746.570	6894
746.682	10018
746.794	17139
746.906	8466
747.018	6481
747.130	6204
747.242	6439
747.354	5851
747.466	6786
747.577	5311
747.689	6234
747.801	5860
747.913	5858
748.024	5358
748.136	6024
748.248	4558
748.359	5120
748.471	6398
748.583	4900
748.694	5263
748.806	6611
748.918	5652
749.029	6069
749.141	6953
749.252	6765
749.364	7748
749.475	14304
749.587	6959
749.698	5760
749.809	5836
749.921	5451
750.032	4892
750.144	5068
750.255	5078
750.366	5004
750.478	5058
750.589	5757
750.700	5492
750.811	6189
750.923	8732
751.034	19283
751.145	11503
751.256	5446
751.367	4752
751.479	4755
751.590	4434
751.701	4660
751.812	4373
751.923	5268
752.034	4950
752.145	5643
752.256	4536
752.367	5155
752.478	4032
752.589	5153
752.700	4699
752.811	4783
752.922	5166
753.032	6114
753.143	6300
753.254	4838
753.365	6647
753.476	5222
753.586	4428
753.697	4415
753.808	4653
753.919	4845
754.029	4278
754.140	4029
754.251	4414
754.361	4567
754.472	5236
754.582	4843
754.693	4536
754.804	4620
754.914	3923
755.025	4018
755.135	3912
755.246	5042
755.356	4351
755.466	4740
755.577	5087
755.687	4151
755.798	3533
755.908	4309
756.018	4040
756.129	5127
756.239	4647
756.349	4744
756.460	5429
756.570	5877
756.680	3863
756.790	5240
756.900	4933
757.011	4878
757.121	3935
757.231	4853
757.341	3820
757.451	3883
757.561	4272
757.671	3980
757.781	3777
757.891	4115
758.001	3837
758.111	5083
758.221	5789
758.331	6943
758.441	5383
758.551	9081
758.661	6496
758.771	5923
758.880	4630
758.990	5273
759.100	3981
759.210	5030
759.320	4980
759.429	5958
759.539	5951
759.649	6125
759.758	7402
759.868	8091
759.978	6891
760.087	8743
760.197	7826
760.307	7754
760.416	6521
760.526	5903
760.635	6724
760.745	7493
760.854	9304
760.964	10111
761.073	9343
761.182	9259
761.292	7223
761.401	7086
761.511	5918
761.620	5193
761.729	4141
761.839	4920
761.948	5125
762.057	5262
762.166	4366
762.276	3905
762.385	5280
762.494	4696
762.603	3389
762.712	3920
762.822	3702
762.931	4084
763.040	2844
763.149	3433
763.258	3057
763.367	4680
763.476	3712
763.585	3660
763.694	3498
763.803	4328
763.912	3839
764.021	4253
764.130	4485
764.238	4829
764.347	4350
764.456	5200
764.565	4598
764.674	4129
764.783	4078
764.891	4229
765.000	4778
765.109	5059
765.217	5268
765.326	6534
765.435	7604
765.543	8432
765.652	7153
765.761	8869
765.869	13209
765.978	19400
766.086	35308
766.195	75343
766.303	243847
766.412	824784
766.520	488545
766.629	65219
766.737	25353
766.846	16264
766.954	12073
767.062	11060
767.171	7762
767.279	7924
767.387	6565
767.496	6230
767.604	5069
767.712	5383
767.820	5459
767.928	5859
768.037	5279
768.145	5558
768.253	6499
768.361	4168
768.469	4849
768.577	5053
768.685	5085
768.793	5339
768.901	5376
769.009	6203
769.117	5965
769.225	7240
769.333	10160
769.441	15908
769.549	31888
769.657	80916
769.765	320293
769.873	604363
769.981	104997
770.088	20659
770.196	12211
770.304	9475
770.412	9106
770.519	7050
770.627	5416
770.735	4854
770.842	5957
770.950	5553
771.058	5255
771.165	6231
771.273	6259
771.380	6741
771.488	8108
771.595	7169
771.703	6827
771.810	7100
771.918	7376
772.025	8739
772.133	9061
772.240	8848
772.348	10101
772.455	9077
772.562	8536
772.670	7353
772.777	8245
772.884	7964
772.991	7605
773.099	7913
773.206	7599
773.313	7934
773.420	8059
773.528	6739
773.635	7052
773.742	8199
773.849	7863
773.956	8157
774.063	7466
774.170	7501
774.277	6849
774.384	6557
774.491	6817
774.598	8149
774.705	8614
774.812	8259
774.919	7168
775.026	7363
775.133	7070
775.239	6883
775.346	6168
775.453	6883
775.560	7061
775.667	6856
775.773	5190
775.880	8241
775.987	5976
776.093	6955
776.200	6462
776.307	6316
776.413	6559
776.520	7575
776.627	6544
776.733	6082
776.840	6356
776.946	10249
777.053	12621
777.159	27201
777.266	16339
777.372	24330
777.478	19977
777.585	11276
777.691	6541
777.798	7710
777.904	5798
778.010	9527
778.117	7743
778.223	5615
778.329	5618
778.435	5570
778.542	6485
778.648	4775
778.754	4944
778.860	5828
778.966	4574
779.072	5002
779.178	5485
779.284	4352
779.391	5611
779.497	5364
779.603	6758
779.708	5260
779.815	6616
779.920	11870
780.026	11925
780.132	5558
780.238	4354
780.344	5613
780.450	5763
780.556	3954
780.661	4935
780.767	5536
780.873	4480
780.979	6148
781.085	4260
781.190	5512
781.296	4831
781.402	4313
781.507	4767
781.613	4073
781.719	4111
781.824	5548
781.930	4272
782.035	5514
782.141	5040
782.246	3505
782.352	4793
782.457	4263
782.563	4252
782.668	4767
782.773	4059
782.879	3581
782.984	4888
783.090	6438
783.195	7724
783.300	5462
783.405	4542
783.511	4289
783.616	4555
783.721	4824
783.826	4399
783.932	5047
784.037	3772
784.142	4816
784.247	3539
784.352	4420
784.457	4506
784.562	5658
784.667	4111
784.772	4030
784.877	2923
784.982	4411
785.087	4040
785.192	4186
785.297	3051
785.402	4132
785.507	3935
785.611	3975
785.716	3000
785.821	4060
785.926	4101
786.031	3699
786.135	3418
786.240	3713
786.345	2626
786.450	3914
786.554	2968
786.659	2921
786.763	2292
786.868	4036
786.973	3749
787.077	2647
787.182	2423
787.286	4063
787.391	3822
787.495	2500
787.600	2710
787.704	3679
787.809	3369
787.913	3613
788.017	3588
788.122	3416
788.226	2490
788.330	1922
788.435	2998
788.539	3965
788.643	2065
788.747	2369
788.852	2947
788.956	2524
789.060	3492
789.164	3365
789.268	3408
789.372	3870
789.476	2649
789.580	2411
789.684	2649
789.788	4404
789.892	1901
789.996	2986
790.100	1625
790.204	3608
790.308	2419
790.412	1938
790.516	2295
790.620	2653
790.724	3816
790.828	2820
790.931	1615
791.035	4698
791.139	2818
791.242	2706
791.346	4061
791.450	3403
791.554	2086
791.657	2085
791.761	3714
791.864	4498
791.968	2763
792.072	3242
792.175	2172
792.279	3282
792.382	3007
792.486	3726
792.589	3073
792.693	3360
792.796	2445
792.899	3345
793.003	3592
793.106	1978
793.209	3268
793.313	3885
793.416	1902
793.519	4866
793.623	7421
793.726	7376
793.829	2814
793.932	3019
794.035	2411
794.138	4113
794.242	4062
794.345	3855
794.448	4352
794.551	5276
794.654	8481
794.757	7703
794.860	3453
794.963	3458
795.066	2577
795.169	3469
795.272	2470
795.375	2612
795.477	1795
795.580	2352
795.683	1534
795.786	2463
795.889	1008
795.991	3255
796.094	3296
796.197	1871
796.300	3569
796.402	2156
796.505	1531
796.608	1731
796.710	2493
796.813	2631
796.915	2122
797.018	3632
797.120	2555
797.223	1668
797.326	2410
797.428	1421
797.530	2166
797.633	2328
797.735	3492
797.838	2583
797.940	3426
798.042	1601
798.145	898
798.247	2812
798.349	807
798.452	2910
798.554	1884
798.656	2819
798.758	3498
798.860	1813
798.962	2381
799.065	1873
799.167	887
799.269	3604
799.371	3444
799.473	4647
799.575	2928
799.677	2803
799.779	4790
799.881	4727
799.983	3713
800.085	1868
800.187	2108
800.289	1428
800.390	1605
800.492	2427
800.594	2974
800.696	2037
800.798	1648
800.899	1989
801.001	1242
801.103	2090
801.205	1500
801.306	2380
801.408	780
801.509	2072
801.611	1717
801.713	1921
801.814	566
801.916	1418
802.017	547
802.119	1348
802.220	2162
802.322	445
802.423	3163
802.525	356
802.626	2225
802.727	2896
802.829	2056
802.930	-323
803.031	2507
803.133	1796
803.234	1351
803.335	2617
803.436	723
803.538	2543
803.639	434
803.740	2057
803.841	1547
803.942	2236
804.043	1496
804.144	530
804.245	1944
804.346	1201
804.447	1936
804.548	4351
804.649	4547
804.750	1641
804.851	846
804.952	720
805.053	1650
805.154	555
805.255	1651
805.355	1427
805.456	282
805.557	701
805.658	575
805.758	2229
805.859	1381
805.960	1209
806.061	702
806.161	1145
806.262	2151
806.362	602
806.463	402
806.564	2476
806.664	438
806.765	1866
806.865	1002
806.966	844
807.066	23
807.166	1942
807.267	1993
807.367	1824
807.468	1431
807.568	138
807.668	1483
807.769	1731
807.869	422
807.969	1870
808.069	1476
808.170	1977
808.270	1325
808.370	2023
808.470	3100
808.570	991
808.670	469
808.770	1464
808.870	1126
808.970	1855
809.070	886
809.170	1521
809.271	2003
809.370	1605
809.470	2149
809.570	1290
809.670	1081
809.770	1986
809.870	1813
809.970	2023
810.070	894
810.169	2262
810.269	-463
810.369	2380
810.469	969
810.568	1454
810.668	163
810.768	1617
810.867	1104
810.967	673
811.066	1109
811.166	1537
811.265	2134
811.365	642
811.464	1084
811.564	1632
811.663	1880
811.763	236
811.862	1378
811.962	1556
812.061	1481
812.160	753
812.260	752
812.359	2272
812.458	2316
812.557	6607
812.657	5901
812.756	2418
812.855	1037
812.954	1401
813.053	2070
813.153	1657
813.252	208
813.351	1850
813.450	701
813.549	930
813.648	1365
813.747	1265
813.846	1814
813.945	1345
814.044	1278
814.143	2093
814.242	1725
814.341	1922
814.439	2152
814.538	2208
814.637	1705
814.736	1848
814.835	3057
814.933	1947
815.032	3096
815.131	3033
815.229	5372
815.328	6301
815.427	4593
815.525	4223
815.624	5270
815.722	4665
815.821	3937
815.919	5221
816.018	3734
816.116	5231
816.215	4745
816.313	5558
816.412	6182
816.510	6683
816.609	8411
816.707	7312
816.805	6805
816.904	7517
817.002	7971
817.100	9023
817.198	8880
817.296	8381
817.395	9463
817.493	11270
817.591	12050
817.689	15472
817.787	20343
817.885	32701
817.983	58962
818.081	128906
818.179	314423
818.277	699493
818.375	448852
818.473	122721
818.571	52295
818.669	38147
818.767	36049
818.865	35379
818.963	40652
819.061	64599
819.158	117243
819.256	256295
819.354	611921
819.452	1106553
819.549	559574
819.647	160713
819.745	70311
819.842	46128
819.940	31713
820.038	25298
820.135	19908
820.233	17598
820.330	12254
820.428	10536
820.525	10884
820.623	10153
820.720	7466
820.818	8384
820.915	7980
821.012	8397
821.110	6259
821.207	7541
821.304	5380
821.402	7634
821.499	8914
821.596	13959
821.693	8647
821.791	6841
821.888	7076
821.985	12515
822.082	7060
822.179	7214
822.276	7174
822.373	5442
822.470	4454
822.567	4565
822.664	3174
822.761	4906
822.858	4240
822.955	4339
823.052	4039
823.149	4338
823.246	3749
823.343	2890
823.440	3629
823.536	4370
823.633	3781
823.730	3562
823.827	2959
823.923	3834
824.020	4681
824.117	4379
824.213	5381
824.310	4141
824.407	2003
824.503	4327
824.600	3336
824.696	3214
824.793	4774
824.889	4309
824.986	3697
825.082	2004
825.179	3029
825.275	3089
825.371	2508
825.468	3304
825.564	1437
825.660	3656
825.757	3469
825.853	3254
825.949	1787
826.045	2372
826.142	2681
826.238	2931
826.334	2663
826.430	1349
826.526	2086
826.622	2405
826.718	2555
826.814	2566
826.910	2767
827.006	1640
827.102	947
827.198	2901
827.294	2836
827.390	3055
827.486	1774
827.582	1444
827.678	1518
827.774	3177
827.869	1595
827.965	3044
828.061	1479
828.157	2704
828.252	1605
828.348	1275
828.444	1651
828.539	2105
828.635	2225
828.731	3265
828.826	1044
828.922	2539
829.017	2316
829.113	3178
829.208	1457
829.304	1861
829.399	3302
829.495	2383
829.590	3029
829.685	1887
829.781	2479
829.876	2250
829.971	135
830.066	1985
830.162	2352
830.257	2170
830.352	1145
830.447	2413
830.543	1411
830.638	1243
830.733	3080
830.828	1931
830.923	1999
831.018	2415
831.113	2085
831.208	1601
831.303	1162
831.398	1412
831.493	2852
831.588	2759
831.683	778
831.778	1664
831.873	2420
831.967	2740
832.062	1404
832.157	631
832.252	2762
832.346	1820
832.441	2524
832.536	3674
832.631	7499
832.725	4145
832.820	1387
832.914	1381
833.009	1050
833.104	2690
833.198	2592
833.293	1675
833.387	2001
833.482	1372
833.576	1243
833.670	2480
833.765	2180
833.859	2067
833.954	2111
834.048	1429
834.142	1794
834.237	610
834.331	1372
834.425	1071
834.519	181
834.613	1273
834.708	605
834.802	1790
834.896	1143
834.990	2013
835.084	1121
835.178	1076
835.272	1219
835.366	1276
835.460	1785
835.554	659
835.648	834
835.742	276
835.836	1074
835.930	733
836.024	1241
836.117	2264
836.211	193
836.305	1298
836.399	2593
836.493	246
836.586	2149
836.680	170
836.774	34
836.867	1220
836.961	-110
837.055	711
837.148	895
837.242	1490
837.335	610
837.429	1158
837.522	1209
837.616	831
837.709	1566
837.803	922
837.896	1321
837.989	70
838.083	663
838.176	1609
838.269	372
838.363	1700
838.456	1149
838.549	2580
838.642	2923
838.735	6726
838.829	2500
838.922	214
839.015	550
839.108	558
839.201	585
839.294	1243
839.387	793
839.480	-186
839.573	545
839.666	868
839.759	288
839.852	-732
839.945	1228
840.038	1043
840.131	833
840.223	363
840.316	652
840.409	836
840.502	1136
840.594	1335
840.687	-125
840.780	182
840.873	546
840.965	864
841.058	1030
841.150	2143
841.243	-17
841.336	1146
841.428	183
841.521	1342
841.613	430
841.706	594
841.798	380
841.890	6
841.983	1186
842.075	1454
842.167	849
842.260	1008
842.352	1719
842.444	1472
842.537	1641
842.629	2548
842.721	-333
842.813	891
842.905	-399
842.997	1638
843.090	554
843.182	800
843.274	1449
843.366	3739
843.458	5230
843.550	3370
843.642	956
843.734	144
843.826	396
843.918	653
844.009	1404
844.101	497
844.193	903
844.285	1301
844.377	2083
844.469	4208
844.560	6337
844.652	5732
844.744	2419
844.835	667
844.927	1043
845.019	794
845.110	441
845.202	904
845.293	-15
845.385	382
845.476	-102
845.568	1010
845.659	-131
845.751	875
845.842	630
845.934	478
846.025	1038
846.116	1264
846.208	692
846.299	482
846.390	488
846.482	1030
846.573	1188
846.664	1788
846.755	1471
846.846	1933
846.937	-1005
847.029	818
847.120	462
847.211	906
847.302	1727
847.393	-320
847.484	760
847.575	368
847.666	-433
847.757	266
847.847	776
847.938	1584
848.029	501
848.120	293
848.211	230
848.302	-179
848.392	-64
848.483	259
848.574	-72
848.664	-77
848.755	987
848.846	1238
848.936	1173
849.027	1692
849.118	1485
849.208	1764
849.299	5353
849.389	11171
849.480	26984
849.570	51438
849.661	104551
849.751	138549
849.841	36172
849.932	4710
850.022	2559
850.112	2774
850.203	1130
850.293	973
850.383	1085
850.474	710
850.564	1155
850.654	592
850.744	654
850.834	1373
850.924	352
851.014	1676
851.104	-329
851.194	914
851.284	1301
851.374	1467
851.464	244
851.554	1584
851.644	240
851.734	728
851.824	526
851.914	624
852.004	824
852.094	677
852.183	348
852.273	1693
852.363	1013
852.452	1701
852.542	1210
852.632	206
852.721	1334
852.811	1219
852.901	1010
852.990	1385
853.080	1904
853.169	2673
853.259	3049
853.348	3567
853.438	6144
853.527	10436
853.617	16277
853.706	32363
853.795	62572
853.885	140007
853.974	251384
854.063	472798
854.152	586710
854.242	175238
854.331	33684
854.420	15010
854.509	10475
854.598	8714
854.687	5637
854.777	5824
854.866	3510
854.955	2918
855.044	1295
855.133	3262
855.222	1742
855.311	1506
855.400	2433
855.488	2340
855.577	498
855.666	1890
855.755	1950
855.844	1095
855.933	457
856.021	1341
856.110	1221
856.199	135
856.288	-348
856.376	519
856.465	-569
856.554	813
856.642	571
856.731	1400
856.819	984
856.908	-536
856.996	147
857.085	1275
857.173	-40
857.262	-72
857.350	609
857.438	-63
857.527	664
857.615	436
857.703	722
857.792	516
857.880	-859
857.968	-104
858.056	346
858.145	27
858.233	947
858.321	593
858.409	252
858.497	216
858.585	-818
858.673	536
858.761	-333
858.849	-258
858.937	-293
859.025	512
859.113	938
859.201	696
859.289	2386
859.377	802
859.465	542
859.552	884
859.640	-123
859.728	1093
859.816	139
859.903	145
859.991	44
860.079	-97
860.166	-443
860.254	430
860.342	681
860.429	430
860.517	-815
860.604	-383
860.692	677
860.779	317
860.867	515
860.954	1440
861.042	332
861.129	1002
861.216	384
861.304	241
861.391	-156
861.478	593
861.565	53
861.653	1024
861.740	-9
861.827	-525
861.914	441
862.001	111
862.089	360
862.176	43
862.263	168
862.350	228
862.437	-281
862.524	125
862.611	75
862.698	1671
862.785	2160
862.871	3420
862.958	1303
863.045	1048
863.132	-54
863.219	282
863.306	100
863.392	1090
863.479	0
863.566	521
863.652	674
863.739	793
863.826	381
863.912	277
863.999	-5
864.086	835
864.172	1259
864.259	693
864.345	-26
864.432	1058
864.518	157
864.604	1887
864.691	395
864.777	1912
864.863	2326
864.950	2841
865.036	2718
865.122	6114
865.209	5646
865.295	6317
865.381	5142
865.467	7614
865.553	11256
865.639	18848
865.726	33170
865.812	69966
865.898	128520
865.984	189191
866.070	364922
866.156	300655
866.242	66203
866.328	16936
866.414	9048
866.499	7976
866.585	6541
866.671	5194
866.757	5203
866.843	5149
866.928	3406
867.014	3789
867.100	4027
867.186	4080
867.271	3638
867.357	4853
867.442	3009
867.528	3901
867.614	3562
867.699	5397
867.785	6318
867.870	7334
867.956	8142
868.041	6506
868.127	5660
868.212	6605
868.297	6115
868.383	5530
868.468	5525
868.553	7131
868.639	6037
868.724	9613
868.809	7134
868.894	2563
868.979	1992
869.065	1863
869.150	1251
869.235	2837
869.320	2495
869.405	2496
869.490	2747
869.575	1707
869.660	1481
869.745	3585
869.830	3083
869.915	1967
870.000	1846
870.085	2526
870.169	3515
870.254	3767
870.339	1324
870.424	1967
870.509	2371
870.593	2689
870.678	2707
870.763	2049
870.847	1725
870.932	2852
871.016	3084
871.101	2498
871.186	2422
871.270	2588
871.355	1414
871.439	1995
871.523	1745
871.608	2199
871.692	1992
871.777	4315
871.861	1979
871.945	986
872.030	2464
872.114	1330
872.198	982
872.282	1865
872.367	868
872.451	1756
872.535	1576
872.619	2623
872.703	1492
872.787	2678
872.871	1653
872.955	756
873.039	198
873.123	1303
873.207	1852
873.291	1388
873.375	1205
873.459	2224
873.543	1289
873.627	1233
873.711	1402
873.794	2283
873.878	987
873.962	1144
874.045	1802
874.129	1672
874.137	1654
874.213	1473
874.245	1334
874.296	1101
874.352	1344
874.380	1462
874.460	1444
874.464	1445
874.547	1146
874.568	1359
874.631	1973
874.676	1669
874.714	1415
874.784	1813
874.798	1896
874.881	2340
874.892	2276
874.965	1804
874.999	1915
875.048	2082
875.107	1561
875.131	1334
875.215	1691
875.215	1691
875.298	1446
875.323	1447
875.381	1366
875.430	2262
875.465	2927
875.538	1482
875.548	1266
875.631	1620
875.646	1357
875.714	197
875.753	645
875.798	1164
875.861	1561
875.881	1676
875.964	1126
875.968	1115
876.047	929
876.076	1167
876.130	1716
876.183	1604
876.213	1476
876.291	1077
876.296	1049
876.379	727
876.398	923
876.462	1580
876.506	1223
876.545	884
876.613	1224
876.628	1360
876.711	854
876.721	917
876.794	1161
876.828	1463
876.877	1816
876.935	932
876.960	661
877.043	1609
877.043	1611
877.125	2051
877.150	2043
877.208	2031
877.258	1972
877.291	2041
877.365	1606
877.374	1526
877.456	2711
877.472	2450
877.539	1482
877.579	2007
877.622	2585
877.687	1927
877.704	1663
877.787	1420
877.794	1401
877.869	1666
877.901	1591
877.952	1147
878.008	1018
878.034	1159
878.115	1640
878.117	1645
878.199	901
878.222	1288
878.282	2357
878.329	2116
878.364	1882
878.437	1524
878.447	1464
878.529	644
878.544	797
878.611	1757
878.651	1650
878.694	1510
878.758	1589
878.776	1652
878.858	2115
878.865	2082
878.941	1229
878.972	1200
879.023	1421
879.078	1423
879.105	1502
879.185	2445
879.187	2458
879.269	2220
879.292	1951
879.351	1217
879.399	1391
879.433	1591
879.506	1808
879.516	1885
879.598	1676
879.613	1741
879.680	1664
879.720	1726
879.762	1852
879.827	2009
879.844	1953
879.926	1816
879.933	1834
880.007	3281
880.040	3691
880.089	3707
880.147	5508
880.171	6571
880.253	11126
880.254	11150
880.335	15091
880.360	16574
880.417	24377
880.467	37342
880.499	44484
880.574	45310
880.580	43914
880.662	13941
880.680	10250
880.744	4802
880.787	2385
880.825	1949
880.893	1752
880.907	1668
880.989	1301
881.000	1333
881.070	2104
881.106	2193
881.152	1899
881.213	1228
881.233	1116
881.315	1566
881.319	1564
881.396	1704
881.426	1647
881.478	1603
881.532	1863
881.559	1931
881.639	1836
881.641	1823
881.722	1634
881.745	1330
881.803	1494
881.852	1709
881.885	1498
881.958	1232
881.966	1249
882.047	2104
882.064	2107
882.129	2035
882.171	2193
882.210	2626
882.277	3573
882.291	3675
882.372	2839
882.383	2786
882.454	2191
882.489	1904
882.535	1775
882.596	2160
882.616	2195
882.697	1860
882.702	1813
882.778	1646
882.808	1590
882.859	1417
882.914	1599
882.940	1604
883.020	1024
883.021	1029
883.102	1624
883.127	1687
883.183	2121
883.233	2301
883.264	1890
883.339	1136
883.345	1134
883.426	813
883.445	913
883.507	1510
883.551	1431
883.587	1564
883.657	2306
883.668	2375
883.749	2610
883.763	2625
883.830	1944
883.869	1601
883.910	1346
883.975	1017
883.991	1222
884.072	1926
884.081	2041
884.152	2146
884.187	1921
884.233	2031
884.292	2375
884.314	2115
884.394	905
884.398	868
884.475	1224
884.504	1205
884.555	1027
884.610	1042
884.636	1322
884.716	1689
884.716	1701
884.797	3044
884.821	3141
884.877	2522
884.927	2234
884.958	1903
885.033	876
885.038	868
885.118	1004
885.139	1006
885.199	1054
885.244	1097
885.279	1556
885.350	2494
885.359	2566
885.439	2917
885.456	2959
885.520	1929
885.561	1352
885.600	1653
885.667	2388
885.680	2382
885.760	1812
885.773	1741
885.840	1443
885.878	1308
885.920	1666
885.984	2060
886.000	1956
886.080	1714
886.089	1645
886.160	2042
886.195	2316
886.240	2382
886.300	2492
886.320	2573
886.400	2745
886.406	2737
886.480	2076
886.511	1883
886.560	2464
886.616	2921
886.640	2634
886.720	1951
886.722	1919
886.800	2100
886.827	2326
886.879	2316
886.932	1986
886.959	2273
887.038	3363
887.039	3364
887.119	2390
887.143	2088
887.198	2340
887.248	2600
887.278	2481
887.354	2089
887.358	2113
887.437	2305
887.459	2418
887.517	2449
887.564	2358
887.596	2054
887.669	1345
887.676	1322
887.755	1026
887.774	923
887.835	1367
887.880	1749
887.914	1786
887.985	1819
887.994	1980
888.073	3319
888.090	3591
888.153	3259
888.195	2942
888.232	2622
888.300	2191
888.311	2156
888.391	1657
888.405	1582
888.470	1509
888.510	1426
888.549	1412
888.615	1469
888.628	1767
888.708	3402
888.720	3663
888.787	2691
888.825	2030
888.866	1722
888.930	1373
888.945	1438
889.024	1715
889.035	1741
889.103	2310
889.140	2609
889.182	2464
889.245	2235
889.261	2267
889.340	2371
889.349	2378
889.419	2088
889.454	1915
889.498	2105
889.559	2368
889.577	2420
889.656	2622
889.664	2636
889.735	3374
889.768	3708
889.814	3392
889.873	2950
889.978	3564
890.083	1820
890.187	3015
890.292	1711
890.397	2315
890.501	1844
890.606	2433
890.710	2999
890.815	3614
890.919	3155
891.024	3184
891.128	3827
891.233	2255
891.337	3654
891.442	2950
891.546	2425
891.650	1667
891.755	1320
891.859	3691
891.963	3305
892.068	2846
892.172	2065
892.276	2376
892.380	2124
892.484	4002
892.589	4887
892.693	5254
892.797	2635
892.901	2035
893.005	2174
893.109	3773
893.213	3344
893.317	2260
893.421	1169
893.525	1459
893.629	1628
893.733	2694
893.837	2636
893.941	2432
894.045	1100
894.148	1675
894.252	1114
894.356	2895
894.460	3334
894.564	2820
894.667	1348
894.771	1724
894.875	1233
894.978	1967
895.082	2049
895.186	3041
895.289	2270
895.393	1849
895.496	2529
895.600	2069
895.703	1262
895.807	3120
895.910	2078
896.014	2242
896.117	1261
896.221	2347
896.324	2182
896.427	2086
896.531	1218
896.634	2226
896.737	2369
896.840	2407
896.944	1409
897.047	2587
897.150	1287
897.253	1266
897.356	1099
897.460	1375
897.563	1383
897.666	3639
897.769	2316
897.872	1580
897.975	1417
898.078	1916
898.181	1017
898.284	1867
898.387	2527
898.490	2750
898.593	1912
898.695	1230
898.798	1723
898.901	1483
899.004	1973
899.107	2326
899.209	2011
899.312	2673
899.415	1532
899.518	1304
899.620	856
899.723	2593
899.826	4535
899.928	3261
900.031	2425
900.133	3080
900.236	1324
900.338	1071
900.441	1527
900.543	1181
900.646	875
900.748	2150
900.851	2343
900.953	1402
901.055	1527
901.158	2380
901.260	1175
901.362	1868
901.465	1408
901.567	2467
901.669	1808
901.771	2068
901.873	1325
901.976	2686
902.078	1377
902.180	1378
902.282	748
902.384	1118
902.486	2709
902.588	1957
902.690	933
902.792	1252
902.894	2188
902.996	2608
903.098	2320
903.200	1072
903.302	1331
903.404	1708
903.505	643
903.607	1298
903.709	1700
903.811	2011
903.913	1446
904.014	1487
904.116	434
904.218	921
904.319	2583
904.421	4626
904.523	2210
904.624	2364
904.726	1197
904.827	1492
904.929	2231
905.030	1750
905.132	2023
905.233	2098
905.335	728
905.436	1319
905.537	727
905.639	1231
905.740	1393
905.841	2956
905.943	1488
906.044	2439
906.145	2116
906.247	1006
906.348	1305
906.449	2508
906.550	1732
906.651	1501
906.752	1335
906.854	1176
906.955	829
907.056	935
907.157	1935
907.258	2478
907.359	643
907.460	1358
907.561	1222
907.662	1095
907.762	1065
907.863	2076
907.964	1814
908.065	2520
908.166	785
908.267	1413
908.367	422
908.468	1135
908.569	1308
908.670	2375
908.770	1994
908.871	2389
908.971	1857
909.072	1385
909.173	1582
909.273	1749
909.374	1245
909.474	1590
909.575	1350
909.675	1044
909.776	1002
909.876	2191
909.977	1049
910.077	1669
910.177	2841
910.278	1814
910.378	795
910.478	1286
910.579	1236
910.679	1345
910.779	1769
910.879	2006
910.980	1663
911.080	1532
911.180	340
911.280	1278
911.380	1237
911.480	1217
911.580	1636
911.680	2145
911.780	1869
911.880	1840
911.980	892
912.080	1206
912.180	883
912.280	1470
912.380	1102
912.480	1438
912.580	1140
912.679	880
912.779	1566
912.879	1043
912.979	1109
913.078	949
913.178	336
913.278	908
913.377	72
913.477	1542
913.577	825
913.676	2250
913.776	1616
913.875	1731
913.975	1080
914.074	1243
914.174	1297
914.273	1490
914.373	1385
914.472	1703
914.572	1054
914.671	1278
914.770	580
914.870	935
914.969	1320
915.068	1528
915.167	1013
915.267	1012
915.366	1471
915.465	1556
915.564	1509
915.663	1447
915.763	1735
915.862	1777
915.961	1204
916.060	1123
916.159	258
916.258	634
916.357	1122
916.456	1379
916.555	1492
916.654	1061
916.752	1600
916.851	884
916.950	933
917.049	1468
917.148	900
917.247	2165
917.345	1240
917.444	1063
917.543	1093
917.642	2030
917.740	879
917.839	1815
917.937	2245
918.036	1701
918.135	877
918.233	1357
918.332	693
918.430	695
918.529	1103
918.627	1346
918.726	1362
918.824	1396
918.923	747
919.021	1603
919.119	1122
919.218	663
919.316	1810
919.414	991
919.512	2068
919.611	1746
919.709	856
919.807	1847
919.905	1866
920.003	2263
920.102	1279
920.200	1825
920.298	2306
920.396	1433
920.494	1182
920.592	1705
920.690	2018
920.788	2380
920.886	2511
920.984	2060
921.082	1447
921.180	2868
921.277	1550
921.375	2903
921.473	4079
921.571	4032
921.669	3039
921.766	4267
921.864	3855
921.962	4070
922.060	2724
922.157	4216
922.255	3502
922.352	3604
922.450	3327
922.548	3091
922.645	4091
922.743	6448
922.840	8821
922.938	9225
923.035	8940
923.133	8655
923.230	10629
923.327	11696
923.425	10002
923.522	10855
923.619	8649
923.717	8329
923.814	8318
923.911	8187
924.008	8965
924.106	8170
924.203	7869
924.300	9288
924.397	8540
924.494	7981
924.591	8203
924.688	6902
924.786	8069
924.883	8532
924.979	8528
925.077	7047
925.173	7472
925.270	8637
925.367	8308
925.464	9933
925.561	9063
925.658	9323
925.755	8845
925.852	10588
925.948	8879
926.045	9341
926.142	8868
926.239	9553
926.335	8370
926.432	9996
926.529	9620
926.625	9645
926.722	7615
926.818	8899
926.915	8094
927.011	7956
927.108	8130
927.204	7825
927.301	6202
927.397	8856
927.494	7499
927.590	5616
927.687	7662
927.783	8370
927.879	7708
927.976	6562
928.072	6916
928.168	7489
928.264	7062
928.361	7855
928.457	7069
928.553	6205
928.649	6771
928.745	7300
928.841	6495
928.937	7310
929.033	7079
929.129	7198
929.225	7257
929.321	5876
929.417	5954
929.513	6553
929.609	5222
929.705	6793
929.801	6936
929.897	6128
929.993	6066
930.089	5961
930.184	5624
930.280	7638
930.376	6854
930.471	5146
930.567	5062
930.663	6304
930.758	4864
930.854	5194
930.950	5838
931.045	5912
931.141	5257
931.236	7344
931.332	5445
931.427	5112
931.523	7366
931.618	5917
931.714	3710
931.809	5560
931.905	6281
932.000	4183
932.095	5501
932.191	7208
932.286	7032
932.381	4909
932.476	4377
932.572	5831
932.667	5322
932.762	5047
932.857	5874
932.952	6947
933.047	4808
933.142	5305
933.237	6343
933.332	5697
933.427	6327
933.522	4384
933.617	4398
933.712	4497
933.807	6532
933.902	6821
933.997	5960
934.092	4314
934.187	5659
934.282	5596
934.376	6353
934.471	5483
934.566	4003
934.661	5064
934.755	5393
934.850	5053
934.945	5505
935.039	4156
935.134	3961
935.228	5996
935.323	6520
935.417	3750
935.512	2314
935.606	4074
935.701	5337
935.795	4679
935.890	4412
935.984	3942
936.079	4165
936.173	5039
936.267	3806
936.362	3967
936.456	4657
936.550	5679
936.644	4707
936.738	3448
936.833	2988
936.927	3635
937.021	3589
937.115	4844
937.209	3826
937.303	3996
937.397	2618
937.491	4730
937.585	4738
937.679	4077
937.773	4101
937.867	3438
937.961	4008
938.055	6130
938.149	4496
938.243	2386
938.337	2914
938.430	4037
938.524	5424
938.618	4734
938.712	5698
938.805	5098
938.899	5265
938.993	5315
939.086	3577
939.180	4395
939.274	6067
939.367	6870
939.461	4784
939.554	3979
939.648	2758
939.741	3646
939.835	4527
939.928	5831
940.022	4433
940.115	4358
940.208	5562
940.302	5093
940.395	5400
940.488	3190
940.582	3896
940.675	3365
940.768	3493
940.861	5229
940.954	3609
941.048	2530
941.141	3035
941.234	4001
941.327	6538
941.420	7680
941.513	4479
941.606	2765
941.699	3938
941.792	5215
941.885	3774
941.978	4708
942.071	3341
942.164	2094
942.257	3067
942.349	3461
942.442	3674
942.535	2711
942.628	3053
942.721	4070
942.813	2123
942.906	4738
942.999	2264
943.091	2586
943.184	2934
943.277	2815
943.369	2200
943.462	2326
943.554	2938
943.647	2340
943.739	4106
943.832	2991
943.924	1497
944.017	2569
944.109	2310
944.201	3487
944.294	3057
944.386	2993
944.478	2226
944.571	2879
944.663	2912
944.755	3461
944.847	3226
944.940	2316
945.032	1648
945.124	1618
945.216	3018
945.308	3210
945.400	1902
945.492	3095
945.584	2999
945.676	3309
945.768	2794
945.860	4086
945.952	3263
946.044	3706
946.136	2737
946.228	2293
946.320	1788
946.412	2752
946.503	2413
946.595	4055
946.687	1667
946.779	1556
946.870	2203
946.962	1805
947.054	3139
947.145	3395
947.237	2368
947.329	2893
947.420	2046
947.512	2190
947.603	1251
947.695	2210
947.786	1457
947.878	2252
947.969	3188
948.061	3149
948.152	1253
948.243	2113
948.335	1594
948.426	1198
948.517	1984
948.609	3184
948.700	2025
948.791	1762
948.882	1814
948.973	1991
949.065	2335
949.156	2331
949.247	1339
949.338	1935
949.429	1447
949.520	1279
949.611	1662
949.702	2423
949.793	1609
949.884	1648
949.975	1590
950.066	1269
950.157	1623
950.247	2496
950.338	1505
950.429	1888
950.520	1839
950.611	1451
950.701	1937
950.792	2919
950.883	1698
950.973	1897
951.064	2587
951.155	2108
951.245	2416
951.336	2301
951.427	2100
951.517	3635
951.608	1365
951.698	1675
951.788	558
951.879	503
951.969	1199
952.060	1515
952.150	1947
952.240	3073
952.331	774
952.421	2920
952.511	509
952.602	961
952.692	671
952.782	1641
952.872	2029
952.962	1885
953.052	1176
953.143	1811
953.233	1581
953.323	2549
953.413	1760
953.503	2038
953.593	1698
953.683	1510
953.773	601
953.863	1145
953.953	766
954.042	2762
954.132	2512
954.222	2015
954.312	585
954.402	1088
954.492	1262
954.581	2708
954.671	155
954.761	1407
954.850	2114
954.940	363
955.030	239
955.119	1429
955.209	990
955.298	2028
955.388	1159
955.477	1702
955.567	319
955.656	1851
955.746	1869
955.835	1212
955.925	154
956.014	1174
956.103	1781
956.193	2656
956.282	1297
956.371	1763
956.461	1113
956.550	1894
956.639	1425
956.728	866
956.817	1356
956.906	2211
956.995	2074
957.085	1024
957.174	2145
957.263	1070
957.352	1244
957.441	1357
957.530	1303
957.619	1213
957.708	967
957.796	1072
957.885	1545
957.974	1418
958.063	1559
958.152	-115
958.241	337
958.329	1003
958.418	849
958.507	1090
958.596	1860
958.684	856
958.773	1548
958.861	1123
958.950	560
959.039	1135
959.127	1444
959.216	2121
959.304	462
959.393	547
959.481	409
959.570	910
959.658	4
959.746	866
959.835	1022
959.923	970
960.011	-29
960.100	1361
960.188	889
960.276	633
960.365	-266
960.453	742
960.541	-625
960.629	896
960.717	818
960.805	-366
960.893	530
960.981	676
961.069	2589
961.158	1620
961.245	1717
961.333	1114
961.421	574
961.509	975
961.597	1061
961.685	920
961.773	766
961.861	1773
961.949	849
962.036	280
962.124	1447
962.212	-165
962.299	917
962.387	328
962.475	1146
962.562	183
962.650	1676
962.738	1072
962.825	254
962.913	803
963.000	677
963.088	1691
963.175	199
963.263	1264
963.350	458
963.438	1603
963.525	353
963.612	1699
963.700	2915
963.787	3969
963.874	917
963.962	1029
964.049	-96
964.136	687
964.223	-105
964.310	470
964.398	9
964.485	353
964.572	1200
964.659	985
964.746	235
964.833	568
964.920	87
965.007	286
965.094	848
965.181	1052
965.268	335
965.355	1265
965.441	545
965.528	14
965.615	1676
965.702	1011
965.789	330
965.875	859
965.962	1313
966.049	545
966.136	1506
966.222	1261
966.309	1812
966.395	1189
966.482	586
966.569	1537
966.655	546
966.742	1641
966.828	-262
966.915	1040
967.001	228
967.087	-16
967.174	-57
967.260	1792
967.347	577
967.433	2390
967.519	3183
967.605	1939
967.692	828
967.778	880
967.864	276
967.950	482
968.036	301
968.123	481
968.209	27
968.295	-264
968.381	1445
968.467	510
968.553	-171
968.639	2112
968.725	865
968.811	2583
968.897	1871
968.983	1045
969.069	-713
969.154	853
969.240	841
969.326	320
969.412	757
969.497	-727
969.583	404
969.669	1110
969.755	997
969.840	841
969.926	2701
970.012	2414
970.097	4385
970.183	3724
970.268	1102
970.354	1360
970.439	741
970.525	2280
970.610	-291
970.696	1869
970.781	201
970.866	97
970.952	800
971.037	1203
971.122	-68
971.208	832
971.293	214
971.378	573
971.463	526
971.549	986
971.634	-26
971.719	738
971.804	547
971.889	1632
971.974	-214
972.059	44
972.144	488
972.229	1234
972.314	305
972.399	1331
972.484	295
972.569	783
972.654	43
972.739	2247
972.824	341
972.908	141
972.993	563
973.078	837
973.163	365
973.247	1234
973.332	-204
973.417	1563
973.501	-279
973.586	85
973.671	-199
973.755	993
973.840	1748
973.924	1294
974.009	566
974.093	1263
974.178	1189
974.262	1018
974.346	705
974.431	939
974.515	844
974.600	635
974.684	540
974.768	-443
974.852	1628
974.937	31
975.021	930
975.105	746
975.189	639
975.273	1079
975.358	-683
975.442	-40
975.526	1050
975.610	281
975.694	127
975.778	1326
975.862	1105
975.946	-1112
976.030	1339
976.114	1289
976.198	460
976.281	285
976.365	822
976.449	-639
976.533	89
976.617	-402
976.700	-91
976.784	244
976.868	-53
976.951	-487
977.035	-54
977.119	834
977.202	695
977.286	790
977.369	1273
977.453	2793
977.536	591
977.620	1409
977.703	1402
977.787	484
977.870	1613
977.953	1779
978.037	-564
978.120	2029
978.203	1015
978.287	1702
978.370	688
978.453	-159
978.536	52
978.620	1652
978.703	885
978.786	361
978.869	-144
978.952	-44
979.035	1682
979.118	1625
979.201	-475
979.284	1591
979.367	211
979.450	1479
979.533	-7
979.616	902
979.699	278
979.782	1126
979.865	758
979.948	97
980.030	538
980.113	865
980.196	-449
980.279	741
980.361	452
980.444	963
980.526	906
980.609	2068
980.692	1174
980.774	1220
980.857	203
980.939	2294
981.022	389
981.104	590
981.187	-240
981.269	1085
981.352	468
981.434	1186
981.516	245
981.599	1880
981.681	1048
981.763	72
981.846	-294
981.928	506
982.010	838
982.092	678
982.174	1591
982.256	983
982.339	-75
982.421	1325
982.503	415
982.585	127
982.667	621
982.749	867
982.831	189
982.913	-732
982.995	552
983.077	147
983.158	1794
983.240	-287
983.322	2388
983.404	2049
983.486	368
983.568	1950
983.649	1400
983.731	1195
983.813	446
983.894	1259
983.976	235
984.058	1258
984.139	887
984.221	-179
984.302	1714
984.384	533
984.465	698
984.547	765
984.628	546
984.710	2756
984.791	1653
984.872	961
984.954	140
985.035	1324
985.116	-239
985.198	240
985.279	1299
985.360	1681
985.441	165
985.522	2056
985.604	550
985.685	-688
985.766	1208
985.847	1963
985.928	-932
986.009	547
986.090	-204
986.171	1303
986.252	725
986.333	430
986.414	859
986.495	1311
986.576	572
986.656	1092
986.737	1648
986.818	1396
986.899	672
986.980	869
987.060	561
987.141	1649
987.222	1241
987.302	1858
987.383	2607
987.464	1222
987.544	1792
987.625	1054
987.705	1290
987.786	1914
987.866	1245
987.947	1612
988.027	1476
988.108	1807
988.188	984
988.268	2495
988.349	1742
988.429	1766
988.509	789
988.589	1583
988.670	-32
988.750	1578
988.830	1839
988.910	1764
988.990	1156
989.070	848
989.151	578
989.231	472
989.311	1136
989.391	1528
989.471	596
989.551	1759
989.631	595
989.711	1649
989.791	258
989.870	875
989.950	1718
990.030	1444
990.110	615
990.190	1135
990.269	784
990.349	1104
990.429	1288
990.509	1776
990.588	-514
990.668	717
990.747	276
990.827	258
990.907	612
990.986	685
991.066	660
991.145	825
991.225	778
991.304	700
991.383	179
991.463	1450
991.542	391
991.622	261
991.701	119
991.780	149
991.859	264
991.939	404
992.018	282
992.097	174
992.176	-65
992.256	333
992.335	558
992.414	592
992.493	-70
992.572	363
992.651	987
992.730	234
992.809	510
992.888	-116
992.967	355
993.046	61
993.125	-648
993.203	609
993.282	-45
993.361	109
993.440	-689
993.519	515
993.597	795
993.676	-16
993.755	729
993.834	833
993.912	-711
993.991	1410
994.069	-600
994.148	284
994.226	-637
994.305	-684
994.384	247
994.462	1097
994.540	-741
994.619	-48
994.697	141
994.776	-532
994.854	-238
994.932	-715
995.011	-222
995.089	-274
995.167	164
995.245	173
995.324	-706
995.402	1154
995.480	-592
995.558	263
995.636	-1197
995.714	200
995.792	209
995.870	-450
995.948	-239
996.026	-175
996.104	-637
996.182	911
996.260	-1065
996.338	434
996.416	-894
996.494	-178
996.572	906
996.649	13
996.727	-1404
996.805	329
996.883	-417
996.960	-768
997.038	-332
997.116	389
997.193	-1511
997.271	8
997.348	-1361
997.426	567
997.504	-1040
997.581	-410
997.658	-105
997.736	-711
997.813	-723
997.891	627
997.968	-1514
998.046	-32
998.123	-1229
998.200	584
998.277	-1686
998.355	36
998.432	-1938
998.509	374
998.586	-864
998.663	473
998.741	-679
998.818	231
998.895	-951
998.972	-417
999.049	-44
999.126	-1115
999.203	-448
999.280	-258
999.357	-768
999.434	-202
999.511	-829
999.587	263
999.664	-999
999.741	-30
999.818	-268
999.895	-379
999.971	-554
1000.048	-474
1000.125	-122
1000.202	-1259
1000.278	-994
1000.355	20
1000.431	-839
1000.508	-396
1000.584	-370
1000.661	-517
1000.738	-1399
1000.814	-485
1000.890	-377
1000.967	-1191
1001.043	-793
1001.120	-1805
1001.196	-385
1001.272	-1090
1001.349	-761
1001.425	-448
1001.501	-1105
1001.577	-1151
1001.654	-372
1001.730	-305
1001.806	-1101
1001.882	-278
1001.958	-830
1002.034	-765
1002.110	-152
1002.186	-343
1002.262	-1586
1002.338	-855
1002.414	-539
1002.490	-174
1002.566	-940
1002.642	-771
1002.718	-118
1002.794	-1075
1002.870	-874
1002.945	-336
1003.021	-968
1003.097	-686
1003.173	-899
1003.248	-931
1003.324	-1152
1003.400	-967
1003.475	-1218
1003.551	-1535
1003.626	-1585
1003.702	-873
1003.777	-1360
1003.853	-714
1003.928	-1075
1004.004	-768
1004.079	-72
1004.155	-1189
1004.230	-1491
1004.305	355
1004.381	-2030
1004.456	-912
1004.531	-1253
1004.607	-695
1004.682	-623
1004.757	-307
1004.832	-833
1004.907	-1152
1004.982	-424
1005.057	-865
1005.133	-1261
1005.208	-770
1005.283	-956
1005.358	-226
1005.433	-1899
1005.508	-172
1005.583	-1420
1005.657	-937
1005.732	-1074
1005.807	-1347
1005.882	-785
1005.957	-1128
1006.032	-1745
1006.106	-300
1006.181	-924
1006.256	-764
1006.331	-1669
1006.405	-663
1006.480	-684
1006.554	-876
1006.629	-917
1006.704	-385
1006.778	-1401
1006.853	141
1006.927	-1333
1007.002	-900
1007.076	-1127
1007.150	-887
1007.225	-1230
1007.299	-309
1007.373	-1312
1007.448	-796
1007.522	-950
1007.596	-1279
1007.671	-1708
1007.745	460
1007.819	-1636
1007.893	-1198
1007.967	-655
1008.041	-1504
1008.115	-834
1008.190	-1264
1008.264	-1100
1008.338	-2376
1008.412	-1657
1008.486	-1179
1008.560	-1674
1008.633	-1544
1008.707	-1484
1008.781	-811
1008.855	-1478
1008.929	-789
1009.003	-1747
1009.076	-595
1009.150	-1037
1009.224	-1026
1009.298	-770
1009.371	-1903
1009.445	-947
1009.519	-1361
1009.592	-1753
1009.666	-1071
1009.739	-626
1009.813	-2392
1009.886	-338
1009.960	-1991
1010.033	-723
1010.107	-1028
1010.180	-2400
1010.253	-1016
1010.327	-2241
1010.400	-1484
1010.473	-2242
1010.547	-268
1010.620	-1112
1010.693	-922
1010.766	-1466
1010.840	-564
1010.913	-935
1010.986	-1615
1011.059	-1243
1011.132	-918
1011.205	4
1011.278	-461
1011.351	-1971
1011.424	54
1011.497	-2749
1011.570	-1772
1011.643	-1495
1011.716	-1069
1011.789	-1655
1011.862	-1014
1011.934	-533
1012.007	-2141
1012.080	-1504
1012.153	-762
1012.225	-1124
1012.298	-1011
1012.371	-2074
1012.443	-1021
1012.516	-1951
1012.588	-268
1012.661	-1251
1012.733	-1960
1012.806	-687
1012.879	-1685
1012.951	-1617
1013.023	-1509
1013.096	-1540
1013.168	-918
1013.241	-1103
1013.313	-1605
1013.385	-1437
1013.458	-1368
1013.530	-1590
1013.602	-1459
1013.674	-1514
1013.746	-2108
1013.819	-2275
1013.891	-800
1013.963	-1680
1014.035	-694
1014.107	-1574
1014.179	-823
1014.251	-2016
1014.323	-1802
1014.395	-1391
1014.467	-1437
1014.539	-1475
1014.611	-2003
1014.683	-1623
1014.754	-1394
1014.826	-1822
1014.898	-854
1014.970	-3017
1015.042	-748
1015.113	-1717
1015.185	-1777
1015.257	-2682
1015.328	-1383
1015.400	-1698
1015.471	-1133
1015.543	-2076
1015.615	-944
1015.686	-1828
1015.757	-838
1015.829	-1784
1015.901	-669
1015.972	-1916
1016.043	-1748
1016.115	-1179
1016.186	-1137
1016.257	-2392
1016.328	-590
1016.400	-1485
1016.471	-2462
1016.542	-983
1016.613	-1285
1016.685	-1743
1016.756	-705
1016.827	-1466
1016.898	-2369
1016.969	-1087
1017.040	-1548
1017.111	-1623
1017.182	-1603
1017.253	-1531
1017.324	-1879
1017.395	-2158
1017.466	-1084
1017.537	-1500
1017.608	-1447
1017.678	-1892
1017.749	-1684
1017.820	-1956
1017.891	-1774
1017.961	-1776
1018.032	-1315
1018.103	-1183
1018.173	-1015
1018.244	-2333
1018.315	-1941
1018.385	-1681
1018.456	-2049
1018.526	-2392
1018.597	-1187
1018.667	-1414
1018.738	-1181
1018.808	-2391
1018.878	-1405
1018.949	-2357
1019.019	-1598
1019.089	-1961
1019.160	-2056
1019.230	-2546
1019.300	-1117
1019.371	-2397
1019.441	-1243
1019.511	-1358
1019.581	-914
1019.651	-1581
1019.721	-1522
1019.791	-1464
1019.861	-1625
1019.931	-1782
1020.001	-935
1020.071	-971
1020.141	-1245
1020.211	-1883
1020.281	-2406
1020.351	-1736
1020.421	-1584
1020.491	-1700
1020.560	-2530
1020.630	-2150
1020.700	-1566
1020.770	-2386
1020.839	-1755
1020.909	-1439
1020.979	-1712
1021.048	-2195
1021.118	-1274
1021.187	-1632
1021.257	-1149
1021.326	-1812
1021.396	-2249
1021.465	-1610
1021.535	-1380
1021.604	-2180
1021.674	-1300
1021.743	-1580
1021.812	-1678
1021.882	-1533
1021.951	-1584
1022.020	-1932
1022.089	-1015
1022.159	-2562
1022.228	-1821
1022.297	-2028
1022.366	-1346
1022.435	-2011
1022.504	-1653
1022.573	-1854
1022.642	-1160
1022.711	-1502
1022.781	-1585
1022.849	-2004
1022.918	-1524
1022.987	-1951
1023.056	-1673
1023.125	-1837
1023.194	-1981
1023.263	-1374
1023.331	-1297
1023.400	-2043
1023.469	-2025
1023.538	-1802
1023.606	-2179
1023.675	-1100
1023.744	-1402
1023.812	-2055
1023.881	-1525
1023.949	-2062
1024.018	-1818
1024.086	-2642
1024.155	-1980
1024.223	-1803
1024.292	-1192
1024.360	-1150
1024.429	-1829
1024.497	-2182
1024.565	-1462
1024.634	-2179
1024.702	-1395
1024.770	-2277
1024.838	-2287
1024.907	-2568
1024.975	-1460
1025.043	-1595
1025.111	-2081
1025.179	-1875
1025.247	-2235
1025.315	-2350
1025.383	-686
1025.451	-2634
1025.519	-2024
1025.587	-2005
1025.655	-1969
1025.723	-2345
1025.791	-1203
1025.859	-1706
1025.927	-1655
1025.995	-2594
1026.062	-1273
1026.130	-1670
1026.198	-2130
1026.266	-2097
1026.333	-753
1026.401	-903
1026.469	-842
1026.536	-1724
1026.604	-1868
1026.671	-2527
1026.739	-1587
1026.806	-2441
1026.874	-1770
1026.941	-2769
1027.009	-1713
1027.076	-1871
1027.144	-1386
1027.211	-2191
1027.278	-1913
1027.345	-2041
1027.413	-1155
1027.480	-2043
1027.547	-1626
1027.614	-2033
1027.682	-1183
1027.749	-2012
1027.816	-1624
1027.883	-1917
1027.950	-1366
1028.017	-2571
1028.084	-1432
1028.151	-2535
1028.218	-1634
1028.285	-2009
1028.352	-1828
1028.419	-2632
1028.486	-1701
1028.553	-1325
1028.619	-2446
1028.686	-2262
1028.753	-2643
1028.820	-1867
1028.886	-1187
1028.953	-1820
1029.020	-1666
1029.086	-1938
1029.153	-1861
1029.220	-1832
1029.286	-1590
1029.353	-1600
1029.419	-1673
1029.486	-2049
1029.552	-1448
1029.619	-2421
1029.685	-1904
1029.751	-1863
1029.818	-616
1029.884	-2316
1029.951	-189
1030.017	-2341
1030.083	-2119
1030.149	-2031
1030.216	-1709
1030.282	-1429
1030.348	-2460
1030.414	-1789
1030.480	-1750
1030.546	-2343
1030.612	-1798
1030.678	-1998
1030.744	-2027
1030.810	-1759
1030.876	-1666
1030.942	-1929
1031.008	-1035
1031.074	-1988
1031.140	-1294
1031.206	-2529
1031.272	-2100
1031.337	-2322
1031.403	-1355
1031.469	-2195
1031.534	-2084
1031.600	-1530
1031.666	-2473
1031.731	-2066
1031.797	-1400
1031.863	-2698
1031.928	-1458
1031.994	-2079
1032.059	-1888
1032.125	-1942
1032.190	-2013
1032.256	-2741
1032.321	-1439
1032.386	-2200
1032.452	-1237
1032.517	-2058
1032.582	-1720
1032.647	-2196
1032.713	-1161
1032.778	-2288
1032.843	-1693
1032.908	-2273
1032.974	-1547
1033.039	-2335
1033.104	-1623
1033.169	-1992
1033.234	-1131
1033.299	-811
1033.364	-29
1033.429	-1289
1033.494	-1117
1033.559	-2050
1033.624	-1689
1033.688	-2173
1033.753	-1700
1033.818	-1561
1033.883	-1087
1033.948	-861
1034.013	-541
1034.077	-73
1034.142	362
1034.207	1336
1034.271	3774
1034.336	3332
1034.400	692
1034.465	646
1034.530	461
1034.594	-1645
1034.658	-1055
1034.723	-2366
1034.787	-1834
1034.852	-3008
1034.916	-1327
1034.981	-2203
1035.045	-2031
1035.109	-2248
1035.173	-1307
1035.238	-2496
1035.302	-1151
1035.366	-2187
1035.430	-2617
1035.495	-2414
1035.559	-1632
1035.623	-1871
1035.687	-2142
1035.751	-2034
1035.815	-1585
1035.879	-2264
1035.943	-1666
1036.007	-2355
1036.071	-1318
1036.135	-1479
1036.198	-1344
1036.262	-1955
1036.326	-1242
1036.390	-1289
1036.454	-1202
1036.517	-1437
1036.581	-81
1036.645	471
1036.709	856
1036.772	-1536
1036.836	-1568
1036.900	-1797
1036.963	-1684
1037.026	-1310
1037.090	-2087
1037.154	-2494
1037.217	-2217
1037.280	-2058
1037.344	-2319
1037.407	-1824
1037.471	-1481
1037.534	-2427
1037.597	-1746
1037.661	-1867
1037.724	-594
1037.787	-2771
1037.850	-2162
1037.913	-1601
1037.977	-1079
1038.040	-2519
1038.103	-1462
1038.166	-2891
1038.229	-1526
1038.292	-2639
1038.355	-753
1038.418	-1822
1038.481	-1501
1038.544	-2206
1038.607	-1860
1038.670	-1467
1038.732	-1900
1038.795	-2355
1038.858	-1952
1038.921	-1848
1038.984	-2121
1039.046	-2360
1039.109	-2126
1039.172	-1985
1039.234	-2326
1039.297	-2423
1039.360	-1677
1039.422	-2213
1039.485	-1502
1039.547	-2296
1039.610	-2028
1039.672	-1853
1039.734	-2159
1039.797	-1370
1039.859	-2529
1039.922	-1781
1039.984	-2167
1040.046	-2458
1040.109	-1799
1040.171	-2163
1040.233	-1484
1040.295	-2770
1040.358	-1231
1040.420	-2308
1040.482	-1359
1040.544	-2896
1040.606	-1427
1040.668	-2337
1040.730	-2173
1040.792	-1559
1040.854	-2366
1040.916	-2423
1040.978	-1928
1041.040	-1251
1041.102	-838
1041.164	-1902
1041.225	-2651
1041.287	-2112
1041.349	-2166
1041.411	-2587
1041.472	-2277
1041.534	-2430
1041.596	-1875
1041.657	-1779
1041.719	-1653
1041.781	-2804
1041.842	-2046
1041.904	-2223
1041.965	-3034
1042.027	-2720
1042.088	-1562
1042.150	-2472
1042.211	-1690
1042.272	-2196
1042.334	-1426
1042.395	-2241
1042.456	-1566
1042.518	-1880
1042.579	-1121
1042.640	-2556
1042.701	-1991
1042.763	-1782
1042.824	-2550
1042.885	-2188
1042.946	-1613
1043.007	-2148
1043.068	-1748
1043.129	-3055
1043.190	-1378
1043.251	-2688
1043.312	-2343
1043.373	-2184
1043.434	-2242
1043.495	-1714
1043.556	-1851
1043.616	-1722
1043.677	-2141
1043.738	-2217
1043.799	-1275
1043.859	-1430
1043.920	-1739
1043.981	-2644
1044.041	-1750
1044.102	-2459
1044.162	-939
1044.223	-2393
1044.284	-1822
1044.344	-2250
1044.405	-2169
1044.465	-2732
1044.525	-1743
1044.586	-1986
1044.646	-2395
1044.707	-1964
1044.767	-2581
1044.827	-2599
1044.887	-1860
1044.948	-1900
1045.008	-1972
1045.068	-1878
1045.128	-1122
1045.188	-2085
1045.249	-971
1045.309	-2049
1045.369	-1651
1045.429	-1736
1045.489	-1214
1045.549	-2029
1045.609	-1792
1045.669	-2431
1045.729	-2161
1045.789	-1582
1045.848	-1864
1045.908	-1269
1045.968	-1130
1046.028	-959
1046.088	-1496
1046.147	-1344
1046.207	-2119
1046.267	-1475
1046.326	-770
1046.386	-1276
1046.446	-1293
1046.505	-1837
1046.565	-722
1046.624	-2399
1046.684	-185
1046.743	-1065
1046.803	-542
1046.862	-560
1046.922	0
