'Start Wavelength	183.907
'End Wavelength	1046.922
'Gate Delay	5.000
'Gate Width (ms)	1.050
'Laser Output Level	0.000
'X Position	0.000
'Y Position	0.000
'Z Position	0.000
'Grid Point Number	1.000
'Shot Number	100.000
183.907	45.000
183.977	118.000
184.047	-331
184.116	201
184.186	-234
184.256	-430
184.325	-656
184.395	-1848
184.465	200
184.534	-263
184.604	-545
184.674	-173
184.743	-115
184.813	-79
184.883	-306
184.952	-32
185.022	-325
185.092	-442
185.161	-166
185.231	-852
185.301	-446
185.370	-601
185.440	-1003
185.509	78
185.579	-736
185.649	311
185.718	-185
185.788	-514
185.857	-624
185.927	-807
185.996	319
186.066	18
186.136	-348
186.205	-494
186.275	-445
186.344	53
186.414	-180
186.483	-938
186.553	-183
186.622	995
186.692	-505
186.761	-806
186.831	203
186.900	-238
186.970	312
187.039	13
187.109	214
187.178	-121
187.248	-314
187.317	579
187.387	-650
187.456	-39
187.526	194
187.595	13
187.664	-136
187.734	-538
187.803	382
187.873	-568
187.942	323
188.012	-432
188.081	-59
188.150	-338
188.220	-478
188.289	286
188.358	-231
188.428	-56
188.497	-603
188.567	-107
188.636	-841
188.705	-374
188.775	164
188.844	-688
188.913	526
188.983	-746
189.052	-528
189.121	-626
189.191	-628
189.260	37
189.329	-190
189.399	157
189.468	-254
189.537	-605
189.606	238
189.676	-830
189.745	-129
189.814	64
189.883	-256
189.953	177
190.022	-448
190.091	323
190.161	1310
190.230	-14
190.299	160
190.368	-1254
190.437	-233
190.507	-153
190.576	45
190.645	-441
190.714	-317
190.783	-614
190.853	-677
190.922	944
190.991	-860
191.060	-194
191.129	-1668
191.198	-189
191.268	-219
191.337	197
191.406	613
191.475	-449
191.544	-167
191.613	-646
191.682	88
191.752	-385
191.821	-318
191.890	-213
191.959	-282
192.028	-548
192.097	-448
192.166	61
192.235	-189
192.304	-200
192.373	-483
192.442	-70
192.511	-113
192.580	-726
192.650	-333
192.719	-654
192.788	508
192.857	-302
192.926	-735
192.995	-749
193.064	-619
193.133	158
193.202	-346
193.271	607
193.340	-153
193.409	422
193.478	112
193.547	-49
193.615	-714
193.684	-444
193.753	444
193.822	479
193.891	-1703
193.960	-66
194.029	-476
194.098	-542
194.167	-460
194.236	122
194.305	135
194.374	202
194.443	-290
194.512	-962
194.580	-622
194.649	-292
194.718	462
194.787	-873
194.856	-566
194.925	185
194.994	-482
195.062	-259
195.131	-9
195.200	-151
195.269	234
195.338	0
195.407	-130
195.475	-55
195.544	156
195.613	144
195.682	199
195.751	575
195.819	-346
195.888	-145
195.957	609
196.026	114
196.094	-381
196.163	71
196.232	341
196.301	-46
196.369	-461
196.438	-230
196.507	930
196.576	-720
196.644	91
196.713	22
196.782	170
196.850	-182
196.919	-76
196.988	-402
197.056	-99
197.125	69
197.194	225
197.262	-154
197.331	-423
197.400	-183
197.468	-387
197.537	-39
197.606	-107
197.674	489
197.743	1524
197.812	24
197.880	1113
197.949	-174
198.017	975
198.086	530
198.155	466
198.223	563
198.292	1345
198.360	232
198.429	395
198.497	-105
198.566	932
198.635	1210
198.703	1140
198.772	272
198.840	1811
198.909	739
198.977	498
199.046	-359
199.114	-379
199.183	395
199.251	664
199.320	216
199.388	-459
199.457	-681
199.525	-248
199.594	516
199.662	-1163
199.731	1223
199.799	72
199.867	-421
199.936	-281
200.004	349
200.073	727
200.141	-122
200.210	-1342
200.278	-59
200.346	380
200.415	0
200.483	-443
200.552	-205
200.620	-269
200.688	554
200.757	-438
200.825	-464
200.893	-153
200.962	-286
201.030	-513
201.098	-218
201.167	13
201.235	104
201.303	397
201.372	103
201.440	-55
201.508	262
201.577	-49
201.645	-118
201.713	560
201.781	-683
201.850	505
201.918	-297
201.986	-579
202.055	310
202.123	-166
202.191	-528
202.259	-10
202.327	-358
202.396	34
202.464	-1059
202.532	602
202.600	1360
202.669	192
202.737	-336
202.805	-506
202.873	31
202.941	134
203.009	494
203.078	753
203.146	-922
203.214	-105
203.282	-985
203.350	-134
203.418	-732
203.487	945
203.555	-466
203.623	270
203.691	-114
203.759	-403
203.827	-329
203.895	-347
203.963	0
204.031	-767
204.099	-571
204.168	-216
204.236	411
204.304	233
204.372	-754
204.440	-253
204.508	-357
204.576	-237
204.644	-49
204.712	-68
204.780	-267
204.848	1197
204.916	-434
204.984	-663
205.052	273
205.120	163
205.188	-246
205.256	-346
205.324	322
205.392	322
205.460	112
205.528	-207
205.596	419
205.664	163
205.732	-661
205.799	1365
205.867	3117
205.935	151
206.003	751
206.071	396
206.139	347
206.207	474
206.275	-111
206.343	195
206.411	-77
206.478	73
206.546	-265
206.614	-176
206.682	-832
206.750	76
206.818	-108
206.885	-459
206.953	-1439
207.021	712
207.089	140
207.157	-298
207.225	175
207.292	41
207.360	-429
207.428	-67
207.496	-227
207.563	76
207.631	-71
207.699	-214
207.767	-314
207.834	-513
207.902	-122
207.970	-627
208.038	-349
208.105	810
208.173	-84
208.241	686
208.309	635
208.376	-166
208.444	1232
208.512	209
208.579	-950
208.647	216
208.715	362
208.782	-36
208.850	244
208.918	-269
208.985	111
209.053	-268
209.120	-99
209.188	-334
209.256	-15
209.323	-397
209.391	213
209.459	1888
209.526	-283
209.594	-205
209.661	-140
209.729	486
209.796	-240
209.864	463
209.932	-549
209.999	1569
210.067	579
210.134	-503
210.202	-264
210.269	701
210.337	859
210.404	-546
210.472	-170
210.539	331
210.607	169
210.674	956
210.742	328
210.809	81
210.877	-490
210.944	668
211.012	-911
211.079	1567
211.146	-95
211.214	-594
211.281	-176
211.349	294
211.416	1034
211.484	798
211.551	-773
211.618	99
211.686	888
211.753	-629
211.821	457
211.888	385
211.955	378
212.023	-5
212.090	0
212.157	15
212.225	464
212.292	2075
212.359	3413
212.427	10835
212.494	4343
212.561	1746
212.629	754
212.696	-54
212.763	1358
212.831	-220
212.898	585
212.965	423
213.032	646
213.100	-166
213.167	-915
213.234	1407
213.301	53
213.369	536
213.436	368
213.503	23
213.570	1074
213.638	300
213.705	-244
213.772	-582
213.839	71
213.906	1458
213.973	813
214.041	-800
214.108	908
214.175	-66
214.242	93
214.309	-697
214.376	-172
214.444	74
214.511	255
214.578	-318
214.645	21
214.712	324
214.779	480
214.846	344
214.913	602
214.980	735
215.048	791
215.115	1593
215.182	678
215.249	367
215.316	-90
215.383	177
215.450	508
215.517	100
215.584	-67
215.651	598
215.718	40
215.785	1264
215.852	-483
215.919	830
215.986	899
216.053	45
216.120	-130
216.187	538
216.254	647
216.321	802
216.388	-101
216.455	808
216.522	710
216.589	468
216.656	2076
216.722	1493
216.789	554
216.856	618
216.923	586
216.990	1305
217.057	-691
217.124	933
217.191	209
217.258	1242
217.324	706
217.391	1837
217.458	758
217.525	455
217.592	-85
217.659	-286
217.725	935
217.792	991
217.859	1526
217.926	70
217.993	-85
218.059	978
218.126	787
218.193	476
218.260	283
218.327	487
218.393	-336
218.460	-610
218.527	-994
218.594	334
218.660	1141
218.727	2076
218.794	122
218.860	801
218.927	191
218.994	218
219.061	315
219.127	807
219.194	591
219.261	519
219.327	-45
219.394	224
219.461	-221
219.527	705
219.594	1374
219.661	696
219.727	-1258
219.794	711
219.860	339
219.927	648
219.994	788
220.060	1013
220.127	1160
220.193	979
220.260	363
220.326	1177
220.393	1246
220.460	2245
220.526	1485
220.593	483
220.659	2016
220.726	833
220.792	4075
220.859	2904
220.925	2415
220.992	4707
221.058	5405
221.125	6576
221.191	4802
221.258	916
221.324	1512
221.391	271
221.457	428
221.524	1391
221.590	1297
221.657	6410
221.723	3661
221.789	3950
221.856	3912
221.922	2021
221.989	1557
222.055	1532
222.121	-478
222.188	1751
222.254	343
222.321	697
222.387	11
222.453	645
222.520	-128
222.586	22
222.652	398
222.719	-228
222.785	-321
222.851	890
222.918	385
222.984	406
223.050	125
223.116	-947
223.183	727
223.249	340
223.315	-893
223.382	97
223.448	-442
223.514	69
223.580	482
223.647	-443
223.713	-532
223.779	266
223.845	527
223.911	927
223.978	28
224.044	592
224.110	-464
224.176	297
224.242	-398
224.309	-21
224.375	372
224.441	34
224.507	-502
224.573	395
224.639	162
224.705	-496
224.772	619
224.838	-637
224.904	483
224.970	-201
225.036	-84
225.102	8
225.168	276
225.234	711
225.300	199
225.366	300
225.432	161
225.499	-682
225.565	254
225.631	-38
225.697	189
225.763	630
225.829	448
225.895	1155
225.961	1194
226.027	358
226.093	817
226.159	1797
226.225	1637
226.291	3146
226.357	6998
226.423	2465
226.489	1078
226.554	1170
226.620	340
226.686	686
226.752	2824
226.818	2321
226.884	8375
226.950	8634
227.016	2773
227.082	1740
227.148	746
227.214	1171
227.279	1067
227.345	301
227.411	539
227.477	459
227.543	451
227.609	1018
227.674	1102
227.740	708
227.806	906
227.872	111
227.938	765
228.003	1627
228.069	434
228.135	223
228.201	61
228.267	154
228.332	64
228.398	-103
228.464	455
228.530	-28
228.595	923
228.661	-27
228.727	672
228.792	2088
228.858	-181
228.924	-1089
228.990	2005
229.055	-690
229.121	1030
229.187	152
229.252	-27
229.318	-500
229.384	854
229.449	998
229.515	-1166
229.581	-451
229.646	1339
229.712	667
229.777	1668
229.843	2181
229.909	1914
229.974	1801
230.040	1377
230.105	1123
230.171	627
230.236	2352
230.302	3103
230.368	2596
230.433	1638
230.499	1446
230.564	1292
230.630	778
230.695	546
230.761	1395
230.826	-773
230.892	1992
230.957	835
231.023	574
231.088	546
231.154	336
231.219	1204
231.284	93
231.350	1092
231.415	-44
231.481	1581
231.546	86
231.612	189
231.677	130
231.742	-709
231.808	2462
231.873	-493
231.939	-1486
232.004	1877
232.069	2117
232.135	461
232.200	-152
232.265	1070
232.331	485
232.396	843
232.461	-184
232.527	587
232.592	-268
232.657	341
232.723	608
232.788	757
232.853	951
232.918	323
232.984	-269
233.049	514
233.114	278
233.179	1798
233.245	2070
233.310	3354
233.375	-192
233.440	1166
233.506	1095
233.571	630
233.636	778
233.701	386
233.766	961
233.832	1966
233.897	505
233.962	-303
234.027	1388
234.092	698
234.157	580
234.222	40
234.288	1649
234.353	5438
234.418	5159
234.483	3098
234.548	1136
234.613	1260
234.678	1313
234.743	685
234.808	6075
234.873	2785
234.938	2328
235.004	1155
235.069	221
235.134	488
235.199	1286
235.264	755
235.329	260
235.394	763
235.459	2163
235.524	1116
235.589	1064
235.654	1005
235.719	250
235.784	923
235.849	1270
235.913	2214
235.978	2395
236.043	3448
236.108	1162
236.173	48
236.238	1240
236.303	523
236.368	494
236.433	1589
236.498	3499
236.563	1747
236.627	3254
236.692	11947
236.757	9661
236.822	3296
236.887	2803
236.952	2195
237.017	1010
237.081	2189
237.146	1617
237.211	3698
237.276	11226
237.341	22957
237.405	9777
237.470	3491
237.535	3919
237.600	1602
237.664	1535
237.729	20
237.794	793
237.859	2974
237.923	1917
237.988	1784
238.053	3094
238.118	2579
238.182	6967
238.247	8399
238.312	2661
238.376	2049
238.441	565
238.506	2619
238.570	21
238.635	1611
238.700	884
238.764	535
238.829	3674
238.893	3988
238.958	2333
239.023	1336
239.087	911
239.152	1266
239.216	314
239.281	882
239.346	720
239.410	428
239.475	-21
239.539	7895
239.604	6346
239.668	1982
239.733	1279
239.797	937
239.862	1713
239.926	5311
239.991	2441
240.055	297
240.120	704
240.184	1131
240.249	500
240.313	47
240.378	499
240.442	3863
240.507	7962
240.571	1772
240.635	2859
240.700	4516
240.764	929
240.829	895
240.893	-982
240.957	1106
241.022	4047
241.086	7964
241.151	2739
241.215	544
241.279	2478
241.344	3439
241.408	1785
241.472	1177
241.537	2000
241.601	2935
241.665	540
241.730	792
241.794	2493
241.858	1448
241.922	1340
241.987	784
242.051	515
242.115	209
242.179	1716
242.244	373
242.308	1175
242.372	956
242.436	1727
242.501	1213
242.565	272
242.629	426
242.693	2003
242.757	643
242.822	642
242.886	1956
242.950	1986
243.014	947
243.078	1628
243.142	1423
243.206	405
243.271	2061
243.335	899
243.399	2690
243.463	9644
243.527	34168
243.591	10715
243.655	4057
243.719	2011
243.783	2623
243.847	4213
243.911	4965
243.975	4745
244.040	1468
244.104	3097
244.168	1072
244.232	1429
244.296	3292
244.360	4954
244.424	1576
244.488	1583
244.552	1360
244.615	-257
244.679	1490
244.743	1167
244.807	1288
244.871	652
244.935	842
244.999	-32
245.063	-208
245.127	2252
245.191	2491
245.255	3247
245.319	2053
245.383	1249
245.446	1490
245.510	315
245.574	842
245.638	1160
245.702	-366
245.766	4437
245.829	2898
245.893	1394
245.957	845
246.021	1102
246.085	1164
246.149	1188
246.212	5560
246.276	8943
246.340	3446
246.404	2147
246.467	2847
246.531	2397
246.595	3074
246.659	2530
246.722	614
246.786	2249
246.850	2370
246.913	2743
246.977	540
247.041	1479
247.104	1504
247.168	2176
247.232	4905
247.295	13541
247.359	6385
247.423	1633
247.486	4641
247.550	3266
247.614	803
247.677	2540
247.741	1739
247.804	1010
247.868	1965
247.932	3994
247.995	11902
248.059	4256
248.122	782
248.186	2738
248.249	3711
248.313	18752
248.376	20368
248.440	12174
248.503	3474
248.567	4299
248.630	3403
248.694	6258
248.757	9224
248.821	20725
248.884	12235
248.948	9632
249.011	15027
249.075	25010
249.138	21152
249.202	7654
249.265	4108
249.328	6526
249.392	3355
249.455	3720
249.519	2231
249.582	2857
249.645	5780
249.709	3577
249.772	1475
249.835	3582
249.899	3265
249.962	2546
250.025	1824
250.089	7719
250.152	11554
250.215	5601
250.279	2412
250.342	3425
250.405	3817
250.468	2912
250.532	4283
250.595	7670
250.658	28761
250.721	55225
250.785	16492
250.848	9289
250.911	5032
250.974	5711
251.038	5665
251.101	14063
251.164	6067
251.227	6411
251.290	5805
251.354	9014
251.417	42959
251.480	46259
251.543	26639
251.606	84432
251.669	64566
251.732	21372
251.795	19875
251.859	20583
251.922	51149
251.985	30818
252.048	10772
252.111	6903
252.174	5993
252.237	10523
252.300	26190
252.363	28254
252.426	68521
252.489	27588
252.552	12553
252.615	7805
252.678	7785
252.741	19660
252.804	27149
252.867	68343
252.930	37770
252.993	18140
253.056	9812
253.119	7520
253.182	5816
253.245	11056
253.308	8516
253.371	5860
253.434	5858
253.497	6153
253.559	12130
253.622	7766
253.685	7508
253.748	8328
253.811	3581
253.874	5131
253.937	4264
254.000	3419
254.062	6196
254.125	12662
254.188	9709
254.251	8947
254.314	3603
254.376	5878
254.439	7996
254.502	6251
254.565	6489
254.628	13575
254.690	6869
254.753	3591
254.816	1811
254.878	3146
254.941	6917
255.004	8835
255.067	3090
255.129	3139
255.192	1460
255.255	702
255.317	1379
255.380	1387
255.443	574
255.505	171
255.568	377
255.631	852
255.693	1154
255.756	1032
255.819	1830
255.881	-39
255.944	1438
256.006	490
256.069	1157
256.132	851
256.194	1687
256.257	5894
256.319	4205
256.382	2547
256.444	1809
256.507	2039
256.569	1474
256.632	2141
256.694	2803
256.757	6058
256.819	18405
256.882	6095
256.944	2507
257.007	2779
257.069	2642
257.132	1962
257.194	2561
257.257	694
257.319	1237
257.381	1235
257.444	4733
257.506	21534
257.569	21928
257.631	8876
257.693	6475
257.756	3627
257.818	1936
257.880	921
257.943	1534
258.005	1373
258.067	543
258.130	2199
258.192	769
258.254	4081
258.317	2338
258.379	1793
258.441	4838
258.503	6410
258.566	7069
258.628	11541
258.690	2000
258.753	1941
258.815	3860
258.877	1688
258.939	2132
259.001	2068
259.064	728
259.126	834
259.188	2427
259.250	1259
259.312	1794
259.375	4386
259.437	2503
259.499	1636
259.561	1143
259.623	2191
259.685	1534
259.747	1199
259.809	6804
259.872	16215
259.934	22497
259.996	22092
260.058	5677
260.120	1767
260.182	2208
260.244	725
260.306	740
260.368	1245
260.430	533
260.492	3481
260.554	6624
260.616	3566
260.678	9641
260.740	16408
260.802	3251
260.864	2651
260.926	562
260.988	2459
261.050	1303
261.112	4155
261.174	17112
261.236	13082
261.298	3307
261.359	5505
261.421	10327
261.483	1899
261.545	2707
261.607	-29
261.669	1700
261.731	3316
261.793	10075
261.854	2434
261.916	2210
261.978	974
262.040	1987
262.102	1641
262.164	2574
262.225	2475
262.287	1427
262.349	4235
262.411	3407
262.472	2654
262.534	2972
262.596	9310
262.658	2421
262.719	214
262.781	2496
262.843	7387
262.904	4415
262.966	1849
263.028	3256
263.090	16966
263.151	54231
263.213	16107
263.275	6603
263.336	2564
263.398	2126
263.459	1146
263.521	539
263.583	3571
263.644	2401
263.706	962
263.767	263
263.829	1094
263.891	236
263.952	450
264.014	28
264.075	1619
264.137	6429
264.198	3137
264.260	434
264.321	402
264.383	3190
264.444	10432
264.506	3035
264.567	1484
264.629	3386
264.690	6986
264.752	2748
264.813	1318
264.875	552
264.936	1024
264.998	-134
265.059	-436
265.120	397
265.182	210
265.243	6343
265.305	6902
265.366	641
265.427	68
265.489	912
265.550	-464
265.611	560
265.673	826
265.734	-520
265.795	-3
265.857	-482
265.918	379
265.979	2063
266.040	13486
266.102	10913
266.163	3005
266.224	2345
266.286	865
266.347	-169
266.408	861
266.469	1404
266.530	959
266.592	-106
266.653	2226
266.714	3988
266.775	1494
266.836	261
266.898	-418
266.959	1511
267.020	847
267.081	2055
267.142	510
267.203	209
267.264	-304
267.326	999
267.387	-409
267.448	-977
267.509	505
267.570	360
267.631	45
267.692	-1187
267.753	147
267.814	-292
267.875	2185
267.936	5474
267.997	2263
268.058	2032
268.119	851
268.180	1272
268.241	-177
268.302	-248
268.363	39
268.424	88
268.485	164
268.546	417
268.607	-190
268.668	-168
268.729	-101
268.790	-280
268.851	-75
268.912	2616
268.972	4729
269.033	1797
269.094	544
269.155	82
269.216	425
269.277	-170
269.338	-166
269.398	300
269.459	-76
269.520	988
269.581	1322
269.642	2574
269.702	788
269.763	710
269.824	101
269.885	1661
269.945	2229
270.006	703
270.067	-499
270.128	179
270.188	-326
270.249	-126
270.310	190
270.370	-23
270.431	525
270.492	12
270.553	513
270.613	1803
270.674	5815
270.734	1184
270.795	441
270.856	1439
270.916	1259
270.977	261
271.038	805
271.098	-7
271.159	1828
271.219	1640
271.280	688
271.340	915
271.401	179
271.462	3851
271.522	1884
271.583	1044
271.643	436
271.704	296
271.764	1474
271.825	3127
271.885	16827
271.946	25907
272.006	6950
272.066	9142
272.127	21953
272.187	5537
272.248	2582
272.308	2735
272.369	13895
272.429	8071
272.489	3744
272.550	3660
272.610	3624
272.671	2758
272.731	2854
272.791	4906
272.852	1996
272.912	1366
272.972	808
273.033	907
273.093	1905
273.153	2690
273.214	984
273.274	1252
273.334	8416
273.394	20794
273.455	6849
273.515	6132
273.575	16053
273.635	6581
273.696	8531
273.756	20126
273.816	6930
273.876	3722
273.936	6982
273.997	16165
274.057	3405
274.117	1811
274.177	4653
274.237	21659
274.297	22373
274.358	12490
274.418	14986
274.478	11209
274.538	3440
274.598	2238
274.658	11519
274.718	16075
274.778	5990
274.838	1879
274.898	5546
274.958	21459
275.018	20442
275.078	13204
275.138	4266
275.198	1820
275.258	1225
275.318	1484
275.378	3326
275.438	3868
275.498	3277
275.558	8847
275.618	22029
275.678	14308
275.738	6862
275.798	5129
275.858	1913
275.918	977
275.978	1585
276.038	1328
276.098	853
276.157	2921
276.217	10786
276.277	4456
276.337	2042
276.397	1481
276.457	1814
276.517	665
276.576	384
276.636	-329
276.696	1431
276.756	5878
276.815	4200
276.875	1484
276.935	1226
276.995	1106
277.055	-358
277.114	1343
277.174	1440
277.234	9306
277.293	3237
277.353	2380
277.413	821
277.472	1229
277.532	645
277.592	1632
277.651	6612
277.711	15700
277.771	4685
277.830	16652
277.890	15476
277.950	9574
278.009	36591
278.069	13029
278.128	10522
278.188	15750
278.248	6505
278.307	15477
278.367	10599
278.426	2530
278.486	1507
278.545	1153
278.605	589
278.664	579
278.724	1050
278.783	6845
278.843	21810
278.902	4760
278.962	2630
279.021	2432
279.081	3228
279.140	1913
279.199	1899
279.259	1682
279.318	2760
279.378	3576
279.437	5961
279.496	26472
279.556	88613
279.615	80994
279.675	18414
279.734	9512
279.793	11955
279.853	19445
279.912	7696
279.971	4579
280.031	3408
280.090	6441
280.149	12166
280.208	10901
280.268	61030
280.327	73579
280.386	14523
280.445	10702
280.505	9808
280.564	4841
280.623	3498
280.682	4432
280.742	8460
280.801	2469
280.860	1938
280.919	594
280.978	1639
281.037	1358
281.097	898
281.156	1220
281.215	1437
281.274	2591
281.333	12272
281.392	10640
281.451	1710
281.510	550
281.569	1444
281.628	144
281.688	401
281.747	1127
281.806	340
281.865	913
281.924	449
281.983	65
282.042	-164
282.101	414
282.160	-201
282.219	-35
282.278	589
282.337	5885
282.396	3393
282.454	908
282.513	1500
282.572	8512
282.631	5417
282.690	806
282.749	774
282.808	759
282.867	765
282.926	1027
282.985	1034
283.043	-800
283.102	-131
283.161	783
283.220	3755
283.279	12154
283.338	2488
283.396	652
283.455	1563
283.514	1054
283.573	2504
283.631	1025
283.690	1033
283.749	86
283.808	2900
283.866	4136
283.925	270
283.984	375
284.043	1377
284.101	1581
284.160	394
284.219	2160
284.277	1158
284.336	2224
284.395	11811
284.453	11876
284.512	2286
284.570	4224
284.629	3726
284.688	1922
284.746	3492
284.805	3139
284.863	5545
284.922	5355
284.981	6334
285.039	9443
285.098	18000
285.156	49882
285.215	142379
285.273	141884
285.332	62766
285.390	28968
285.449	17288
285.507	11290
285.566	8494
285.624	6077
285.683	4346
285.741	3305
285.799	2431
285.858	2620
285.916	2119
285.975	1289
286.033	1435
286.091	822
286.150	-102
286.208	1294
286.267	1136
286.325	1357
286.383	3298
286.442	1963
286.500	671
286.558	521
286.616	49
286.675	1282
286.733	1197
286.791	865
286.850	1613
286.908	2084
286.966	4429
287.024	1444
287.083	439
287.141	551
287.199	141
287.257	1615
287.315	1910
287.374	980
287.432	4892
287.490	4020
287.548	981
287.606	612
287.664	329
287.723	1668
287.781	3485
287.839	1572
287.897	2133
287.955	2604
288.013	5567
288.071	15821
288.129	62252
288.187	194562
288.245	90801
288.303	25936
288.361	14370
288.419	10021
288.477	7432
288.535	4199
288.593	2282
288.651	2388
288.709	610
288.767	1047
288.825	926
288.883	627
288.941	522
288.999	74
289.057	586
289.115	36
289.173	316
289.231	494
289.289	390
289.346	757
289.404	943
289.462	1866
289.520	2703
289.578	-289
289.636	-1193
289.694	-293
289.751	87
289.809	108
289.867	84
289.925	865
289.983	770
290.040	370
290.098	-803
290.156	504
290.214	750
290.271	293
290.329	-208
290.387	-633
290.444	-493
290.502	-757
290.560	509
290.617	404
290.675	-778
290.733	-123
290.790	-847
290.848	653
290.906	544
290.963	379
291.021	-377
291.078	-82
291.136	-114
291.194	4215
291.251	13951
291.309	3587
291.366	-195
291.424	-97
291.481	125
291.539	65
291.596	-371
291.654	-748
291.711	-97
291.769	-430
291.826	1959
291.884	1526
291.941	-372
291.999	-467
292.056	636
292.114	374
292.171	-584
292.228	-411
292.286	205
292.343	1591
292.401	2792
292.458	2087
292.515	366
292.573	748
292.630	1141
292.687	623
292.745	1009
292.802	893
292.859	6909
292.917	13122
292.974	8059
293.031	2216
293.089	1300
293.146	948
293.203	417
293.260	1
293.318	7
293.375	2671
293.432	760
293.489	-138
293.546	30
293.604	478
293.661	6984
293.718	24391
293.775	12110
293.832	4411
293.889	1947
293.947	2612
294.004	1148
294.061	1465
294.118	4259
294.175	13166
294.232	17515
294.289	7552
294.346	2713
294.403	1712
294.460	1506
294.517	1054
294.574	128
294.631	349
294.688	2036
294.745	6528
294.802	26534
294.859	31823
294.916	11063
294.973	4368
295.030	3315
295.087	2494
295.144	1225
295.201	2313
295.258	1484
295.315	1647
295.372	8848
295.429	21039
295.486	9505
295.542	4202
295.599	11556
295.656	22242
295.713	13929
295.770	19344
295.827	8023
295.883	2816
295.940	2483
295.997	3901
296.054	4904
296.111	2326
296.167	552
296.224	469
296.281	-247
296.338	-724
296.394	1362
296.451	2145
296.508	6611
296.564	15827
296.621	11228
296.678	19468
296.734	33625
296.791	11965
296.848	4952
296.904	5008
296.961	11260
297.018	20847
297.074	17804
297.131	6044
297.187	2810
297.244	6409
297.301	20491
297.357	44456
297.414	15296
297.470	5194
297.527	2858
297.583	2771
297.640	2386
297.696	1717
297.753	890
297.809	598
297.866	364
297.922	442
297.979	351
298.035	26
298.092	2337
298.148	10428
298.204	11396
298.261	5934
298.317	9205
298.374	27377
298.430	17362
298.486	5914
298.543	3652
298.599	2697
298.656	3126
298.712	7266
298.768	22225
298.824	19364
298.881	4859
298.937	2548
298.993	2156
299.050	1945
299.106	2420
299.162	573
299.218	1494
299.275	775
299.331	1636
299.387	4304
299.443	21341
299.500	24664
299.556	7800
299.612	3338
299.668	2407
299.724	1358
299.780	1064
299.837	1480
299.893	3807
299.949	15477
300.005	21251
300.061	16271
300.117	32318
300.173	17468
300.229	5741
300.285	5753
300.341	7647
300.397	3970
300.453	1234
300.510	802
300.566	1616
300.622	1393
300.678	3313
300.734	10721
300.790	15985
300.845	23884
300.901	13612
300.957	14195
301.013	14203
301.069	5156
301.125	2666
301.181	2358
301.237	1904
301.293	413
301.349	1522
301.405	-472
301.461	1193
301.516	804
301.572	1274
301.628	3638
301.684	3870
301.740	6196
301.796	12939
301.851	8504
301.907	11834
301.963	15296
302.019	23577
302.074	67916
302.130	72320
302.186	33701
302.242	11800
302.297	7371
302.353	6702
302.409	12660
302.464	11403
302.520	9584
302.576	21955
302.631	28569
302.687	15385
302.743	6147
302.798	2819
302.854	2168
302.910	1797
302.965	1927
303.021	5776
303.076	5627
303.132	6633
303.187	9460
303.243	5024
303.299	2123
303.354	945
303.410	865
303.465	839
303.521	1122
303.576	780
303.632	2381
303.687	5971
303.743	20715
303.798	20032
303.853	7287
303.909	2920
303.964	1767
304.020	3561
304.075	6110
304.130	5073
304.186	9887
304.241	12123
304.297	8171
304.352	3835
304.358	3653
304.407	2169
304.449	1843
304.463	1739
304.518	1723
304.539	1451
304.573	1006
304.629	2559
304.630	2615
304.684	5392
304.720	10997
304.739	13775
304.794	26705
304.811	22977
304.850	13877
304.902	5155
304.905	4603
304.960	2501
304.992	2472
305.015	2467
305.071	1916
305.083	1972
305.126	2197
305.173	502
305.181	219
305.236	300
305.264	577
305.292	846
305.347	1605
305.354	1506
305.402	930
305.445	1749
305.457	1978
305.512	2102
305.535	2540
305.567	3204
305.622	3441
305.626	3625
305.678	7854
305.716	16772
305.733	19979
305.788	27015
305.807	23829
305.843	18651
305.897	21987
305.898	21997
305.953	25086
305.988	16146
306.008	11279
306.063	5802
306.078	5008
306.118	3356
306.168	2234
306.173	2146
306.228	1995
306.259	1937
306.283	1846
306.338	1150
306.349	1183
306.393	1437
306.440	1226
306.448	1204
306.503	1924
306.530	2995
306.558	4842
306.613	10267
306.620	11273
306.668	17619
306.711	21623
306.723	21819
306.778	18029
306.801	13516
306.833	8412
306.888	3910
306.892	3757
306.943	2581
306.982	1885
306.997	1674
307.052	1882
307.072	1977
307.107	2514
307.162	4674
307.163	4708
307.217	8139
307.253	9960
307.272	10350
307.327	11305
307.343	10245
307.381	8021
307.434	5961
307.436	6067
307.491	13515
307.524	20308
307.546	22186
307.600	21817
307.614	19312
307.655	11746
307.704	5458
307.710	5145
307.765	5962
307.795	7867
307.819	9820
307.874	18691
307.885	18808
307.929	14901
307.975	8692
307.984	8167
308.038	7975
308.065	9672
308.093	17334
308.148	37011
308.156	42023
308.202	69341
308.246	92235
308.257	91467
308.312	47630
308.336	32304
308.366	23620
308.421	15738
308.426	14968
308.475	9205
308.517	6312
308.530	5684
308.585	4488
308.607	4183
308.639	4631
308.694	5737
308.697	5918
308.748	13636
308.787	22240
308.803	22509
308.857	17749
308.877	14127
308.912	10209
308.967	6772
308.967	6764
309.021	8893
309.058	10981
309.076	13802
309.130	24886
309.148	29743
309.185	61459
309.238	114318
309.239	114593
309.293	133099
309.328	119661
309.348	102383
309.402	44004
309.418	30416
309.457	19256
309.508	11437
309.511	11200
309.566	10205
309.598	10611
309.620	12767
309.674	19616
309.688	21687
309.729	21053
309.778	16252
309.783	15835
309.837	10744
309.868	8844
309.892	10948
309.946	16858
309.959	19002
310.001	25230
310.049	30881
310.055	29950
310.109	18278
310.139	10922
310.163	8182
310.218	4392
310.229	3832
310.272	3385
310.319	3121
310.326	3104
310.381	3216
310.409	3306
310.435	2967
310.489	2264
310.499	2170
310.543	2775
310.589	3449
310.598	3420
310.652	3183
310.679	2890
310.706	2489
310.760	1874
310.769	1785
310.814	1511
310.859	1150
310.868	1211
310.923	1766
310.948	2027
310.977	2095
311.031	2161
311.038	2199
311.085	2168
311.128	1785
311.139	1756
311.193	1881
311.218	1870
311.247	2011
311.301	2322
311.308	2355
311.356	2132
311.398	1983
311.410	2099
311.464	2586
311.488	2747
311.518	2206
311.572	1331
311.578	1232
311.626	2230
311.668	3107
311.680	3166
311.734	3374
311.758	3486
311.788	3695
311.842	3996
311.847	4024
311.896	4146
311.937	4334
311.950	4302
312.004	4126
312.027	4037
312.058	3217
312.112	1786
312.117	1652
312.165	1380
312.207	1169
312.297	3594
312.386	2987
312.476	2850
312.566	5773
312.656	2091
312.745	1805
312.835	2624
312.925	2757
313.015	2586
313.104	3074
313.194	1709
313.284	1394
313.374	2376
313.463	1565
313.553	2011
313.643	981
313.732	1548
313.822	1305
313.912	2091
314.001	1745
314.091	2003
314.180	3048
314.270	2705
314.360	3716
314.449	2958
314.539	1755
314.628	1651
314.718	2135
314.808	3412
314.897	1428
314.987	2040
315.076	2294
315.166	3323
315.255	2712
315.345	2829
315.434	3296
315.524	3702
315.613	2145
315.703	2762
315.792	3748
315.881	3563
315.971	2117
316.060	6229
316.150	11871
316.239	12089
316.328	4653
316.418	2451
316.507	1974
316.597	2082
316.686	2239
316.775	5026
316.865	14061
316.954	2288
317.043	1262
317.133	2294
317.222	1376
317.311	1484
317.400	783
317.490	3431
317.579	2390
317.668	1865
317.757	2912
317.847	3661
317.936	6381
318.025	6512
318.114	3262
318.203	3355
318.293	5000
318.382	10543
318.471	7501
318.560	12560
318.649	28690
318.738	5915
318.828	3439
318.917	4344
319.006	5582
319.095	14584
319.184	36494
319.273	17759
319.362	7941
319.451	3462
319.540	2620
319.629	6347
319.718	10547
319.807	6290
319.896	10936
319.985	45237
320.074	14359
320.163	4745
320.252	7668
320.341	5746
320.430	3814
320.519	5383
320.608	3229
320.697	2491
320.786	2363
320.875	3709
320.964	4245
321.053	6644
321.142	8796
321.230	10334
321.319	7461
321.408	18227
321.497	7957
321.586	8103
321.675	11593
321.764	10595
321.852	6097
321.941	10229
322.030	6825
322.119	8012
322.207	19625
322.296	17154
322.385	6689
322.474	8230
322.562	22253
322.651	11692
322.740	7842
322.829	12623
322.917	16972
323.006	8004
323.095	6095
323.183	5322
323.272	8741
323.361	16230
323.449	56777
323.538	18195
323.626	37426
323.715	22457
323.804	9180
323.892	34509
323.981	16424
324.069	5586
324.158	18378
324.246	17204
324.335	4401
324.424	6870
324.512	2199
324.601	3488
324.689	3542
324.778	5381
324.866	11024
324.954	3127
325.043	3282
325.131	6969
325.220	14501
325.308	15800
325.397	10201
325.485	5951
325.574	890
325.662	1333
325.750	1059
325.839	2038
325.927	1021
326.015	2569
326.104	4949
326.192	8249
326.280	1781
326.369	2513
326.457	2399
326.545	4600
326.634	1790
326.722	2043
326.810	1180
326.898	1770
326.987	1545
327.075	4986
327.163	5946
327.251	2205
327.340	1324
327.428	1763
327.516	984
327.604	1569
327.692	2008
327.781	3029
327.869	5034
327.957	2113
328.045	1987
328.133	2181
328.221	2728
328.309	2295
328.397	920
328.485	2714
328.574	3673
328.662	11505
328.750	7148
328.838	2305
328.926	1168
329.014	903
329.102	2580
329.190	7965
329.278	4574
329.366	1634
329.454	775
329.542	896
329.630	961
329.718	1776
329.806	1647
329.893	1712
329.981	900
330.069	1826
330.157	4361
330.245	14735
330.333	6687
330.421	2049
330.509	3658
330.597	14014
330.684	9104
330.772	3555
330.860	5107
330.948	6190
331.036	2707
331.123	1250
331.211	735
331.299	2205
331.387	5448
331.475	9733
331.562	3337
331.650	1074
331.738	1215
331.825	3232
331.913	1608
332.001	970
332.089	2297
332.176	7006
332.264	17683
332.352	12779
332.439	2745
332.527	2440
332.614	2347
332.702	3370
332.790	2277
332.877	7829
332.965	16816
333.052	3022
333.140	3541
333.228	7077
333.315	2266
333.403	2513
333.490	10552
333.578	7605
333.665	7656
333.753	3652
333.840	936
333.928	3236
334.015	11811
334.103	16229
334.190	51083
334.278	11437
334.365	3361
334.452	2522
334.540	2030
334.627	2640
334.715	4645
334.802	11673
334.889	64578
334.977	61082
335.064	5816
335.151	1488
335.239	3316
335.326	5241
335.413	23575
335.501	30888
335.588	3315
335.675	2107
335.762	2509
335.850	5423
335.937	4121
336.024	14502
336.111	65275
336.199	22257
336.286	2666
336.373	1868
336.460	659
336.547	1514
336.635	2063
336.722	1792
336.809	1288
336.896	3910
336.983	13229
337.070	33995
337.157	52650
337.245	44448
337.332	29205
337.419	2849
337.506	2000
337.593	3279
337.680	10995
337.767	31681
337.854	8394
337.941	9654
338.028	13376
338.115	3125
338.202	4580
338.289	11358
338.376	43194
338.463	12817
338.550	18411
338.637	19778
338.724	7456
338.811	12556
338.898	2129
338.984	1740
339.071	1664
339.158	2048
339.245	6158
339.332	4102
339.419	8334
339.506	8651
339.593	482
339.679	1810
339.766	333
339.853	2358
339.940	4637
340.027	1478
340.113	1136
340.200	1971
340.287	901
340.374	1738
340.460	4105
340.547	395
340.634	3797
340.720	13676
340.807	7667
340.894	1145
340.980	1742
341.067	402
341.154	1602
341.240	2355
341.327	6184
341.414	2130
341.500	686
341.587	1247
341.674	1822
341.760	4217
341.847	4243
341.933	976
342.020	-358
342.106	507
342.193	1317
342.279	3915
342.366	1394
342.452	4281
342.539	2469
342.625	5054
342.712	14394
342.798	5537
342.885	1838
342.971	338
343.058	311
343.144	544
343.230	866
343.317	1655
343.403	213
343.490	808
343.576	148
343.662	1432
343.749	952
343.835	2219
343.921	6329
344.008	43597
344.094	98083
344.180	19600
344.267	6313
344.353	22203
344.439	23586
344.525	7777
344.612	3603
344.698	2801
344.784	1912
344.870	1855
344.957	624
345.043	2917
345.129	1040
345.215	3939
345.301	1247
345.387	333
345.474	743
345.560	806
345.646	1236
345.732	1180
345.818	2463
345.904	604
345.990	1466
346.076	2288
346.162	4418
346.249	1661
346.335	-304
346.421	1879
346.507	8618
346.593	34046
346.679	6421
346.765	1961
346.851	-113
346.937	274
347.023	1263
347.108	724
347.194	546
347.280	1164
347.366	1654
347.452	10160
347.538	41889
347.624	27716
347.710	20913
347.796	2875
347.882	1176
347.967	820
348.053	2224
348.139	1222
348.225	-148
348.311	-74
348.397	-455
348.482	2617
348.568	1702
348.654	196
348.740	525
348.825	-488
348.911	4316
348.997	19282
349.083	40100
349.168	5812
349.254	1032
349.340	981
349.425	239
349.511	1185
349.597	821
349.682	4643
349.768	18718
349.854	8232
349.939	1045
350.025	493
350.110	2486
350.196	875
350.282	77
350.367	1294
350.453	2388
350.538	2870
350.624	1308
350.709	1573
350.795	-306
350.880	316
350.966	1590
351.051	3135
351.137	1468
351.222	1464
351.308	5863
351.393	15418
351.479	2604
351.564	-153
351.649	1135
351.735	1342
351.820	1046
351.906	402
351.991	864
352.076	9139
352.162	13558
352.247	2083
352.332	861
352.418	2040
352.503	4146
352.588	22060
352.673	15642
352.759	3229
352.844	-217
352.929	1212
353.014	2110
353.100	1209
353.185	1824
353.270	4009
353.355	4830
353.441	1271
353.526	2089
353.611	3879
353.696	4103
353.781	2770
353.866	1014
353.952	2078
354.037	3920
354.122	10760
354.207	8608
354.292	3091
354.377	1089
354.462	1142
354.547	1772
354.632	1924
354.717	1537
354.802	819
354.887	1253
354.972	909
355.057	40
355.142	-470
355.227	2229
355.312	2450
355.397	6518
355.482	16186
355.567	7060
355.652	6124
355.737	6851
355.822	23432
355.907	16790
355.991	3467
356.076	934
356.161	1822
356.246	289
356.331	1153
356.416	5201
356.501	46498
356.585	43443
356.670	4398
356.755	3553
356.840	5193
356.924	26405
357.009	109534
357.094	35196
357.179	6485
357.263	3602
357.348	3836
357.433	3956
357.517	2649
357.602	1981
357.687	1289
357.771	2268
357.856	4499
357.941	5562
358.025	24859
358.110	114708
358.195	46150
358.279	4719
358.364	3520
358.448	13850
358.533	39596
358.617	26979
358.702	28373
358.787	9185
358.871	4194
358.956	3985
359.040	1049
359.125	300
359.209	731
359.294	741
359.378	2620
359.462	2373
359.547	1700
359.631	1585
359.716	325
359.800	635
359.885	3016
359.969	1017
360.053	1239
360.138	-540
360.222	1621
360.306	3492
360.391	2326
360.475	4233
360.559	9716
360.644	13261
360.728	9084
360.812	23638
360.896	67655
360.981	21868
361.065	9807
361.149	2662
361.233	2489
361.318	914
361.402	1504
361.486	1883
361.570	1091
361.654	2697
361.739	7446
361.823	42576
361.907	68921
361.991	9376
362.075	3415
362.159	7997
362.243	5493
362.327	2014
362.411	4217
362.495	3045
362.580	1754
362.664	684
362.748	301
362.832	530
362.916	266
363.000	6919
363.084	37636
363.168	75623
363.252	14411
363.336	4178
363.420	6620
363.503	32931
363.587	35918
363.671	4701
363.755	1983
363.839	5158
363.923	1214
364.007	4448
364.091	5472
364.175	9137
364.258	51839
364.342	21104
364.426	7883
364.510	3031
364.594	6115
364.677	11912
364.761	59051
364.845	39210
364.929	9667
365.013	6165
365.096	6101
365.180	5784
365.264	14178
365.347	55964
365.431	20941
365.515	3601
365.598	555
365.682	2556
365.766	3582
365.849	5481
365.933	2165
366.017	4571
366.100	1300
366.184	578
366.267	1155
366.351	472
366.435	720
366.518	-375
366.602	947
366.685	687
366.769	1126
366.852	3404
366.936	6658
367.019	3319
367.103	2110
367.186	6475
367.270	1334
367.353	-775
367.436	1518
367.520	-375
367.603	868
367.687	1492
367.770	5518
367.853	3035
367.937	15388
368.020	25553
368.104	4201
368.187	4208
368.270	5695
368.353	5100
368.437	10112
368.520	27589
368.603	13728
368.687	15449
368.770	30286
368.853	6471
368.936	6555
369.020	6403
369.103	1874
369.186	761
369.269	788
369.352	4255
369.436	4252
369.519	2912
369.602	-530
369.685	2503
369.768	839
369.851	695
369.934	407
370.018	974
370.101	4111
370.184	4119
370.267	2787
370.350	3572
370.433	7447
370.516	27667
370.599	31260
370.682	4995
370.765	14433
370.848	20641
370.931	39540
371.014	13952
371.097	1900
371.180	2477
371.263	1274
371.346	-874
371.429	1182
371.511	705
371.594	2270
371.677	5323
371.760	7697
371.843	4963
371.926	38139
372.009	94044
372.091	25968
372.174	15635
372.257	43065
372.340	14506
372.423	9941
372.505	11322
372.588	4493
372.671	11889
372.754	38530
372.836	18241
372.919	14896
373.002	28533
373.085	6361
373.167	5412
373.250	15686
373.332	40583
373.415	56683
373.498	125217
373.580	38407
373.663	53115
373.746	75351
373.828	12773
373.911	6066
373.993	5890
374.076	30004
374.159	25746
374.241	9947
374.324	30989
374.406	20280
374.489	34956
374.571	104059
374.654	35586
374.736	18008
374.819	61847
374.901	89623
374.983	89952
375.066	13506
375.148	4498
375.231	24236
375.313	44573
375.395	13931
375.478	1888
375.560	2127
375.643	3690
375.725	16442
375.807	79189
375.890	61952
375.972	23058
376.054	12304
376.136	22409
376.219	8647
376.301	20239
376.383	62767
376.465	21518
376.548	10203
376.630	14658
376.712	50868
376.794	20936
376.877	1822
376.959	-287
377.041	1227
377.123	4021
377.205	6122
377.287	702
377.369	1071
377.452	1
377.534	1031
377.616	554
377.698	199
377.780	-818
377.862	896
377.944	1889
378.026	-760
378.108	169
378.190	117
378.272	1015
378.354	-149
378.436	43
378.518	2529
378.600	10591
378.682	8801
378.764	20923
378.846	14394
378.928	3725
379.010	4282
379.091	2735
379.173	1173
379.255	-151
379.337	1618
379.419	8583
379.501	31709
379.583	10601
379.664	2289
379.746	4454
379.828	20221
379.910	27319
379.991	24943
380.073	2077
380.155	1663
380.237	1594
380.318	685
380.400	590
380.482	4365
380.564	5424
380.645	4696
380.727	4314
380.809	3938
380.890	1579
380.972	437
381.053	723
381.135	2828
381.217	6384
381.298	21161
381.380	9021
381.461	9153
381.543	49197
381.624	58441
381.706	8482
381.787	4004
381.869	4880
381.951	23205
382.032	98259
382.113	55971
382.195	7839
382.276	6078
382.358	13223
382.439	46293
382.521	53563
382.602	88353
382.684	32587
382.765	55868
382.846	51153
382.928	63466
383.009	30403
383.090	20689
383.172	89965
383.253	142588
383.334	49092
383.416	68379
383.497	31609
383.578	9282
383.659	17479
383.741	75964
383.822	220097
383.903	102526
383.984	39706
384.066	77654
384.147	42182
384.228	7263
384.309	4563
384.390	3155
384.471	2228
384.553	3262
384.634	4196
384.715	4484
384.796	1823
384.877	2903
384.958	19097
385.039	21426
385.120	6453
385.201	2441
385.282	3495
385.363	4315
385.444	2334
385.525	7806
385.606	36025
385.687	30412
385.768	5650
385.849	6980
385.930	42552
386.011	77642
386.092	16879
386.173	2714
386.254	2017
386.335	3024
386.416	1985
386.496	11847
386.577	19491
386.658	6586
386.739	2301
386.820	4016
386.901	1870
386.981	3347
387.062	1211
387.143	3377
387.224	19745
387.304	17934
387.385	5392
387.466	1799
387.547	4316
387.627	1776
387.708	6242
387.789	38301
387.869	48505
387.950	12389
388.031	1247
388.111	-66
388.192	6635
388.273	9887
388.353	4553
388.434	2808
388.514	7178
388.595	44864
388.676	54410
388.756	20203
388.837	17699
388.917	10548
388.998	70
389.078	1706
389.159	2055
389.239	427
389.320	3826
389.400	611
389.480	8171
389.561	23736
389.641	10421
389.722	2808
389.802	3904
389.883	9518
389.963	31628
390.043	17925
390.124	3793
390.204	6116
390.284	22737
390.365	13032
390.445	21834
390.525	62668
390.605	49733
390.686	10839
390.766	2643
390.846	1988
390.927	667
391.007	604
391.087	1910
391.167	895
391.247	0
391.328	4001
391.408	6414
391.488	3208
391.568	-786
391.648	714
391.728	2856
391.808	2940
391.888	2373
391.969	10793
392.049	17176
392.129	7908
392.209	8298
392.289	27618
392.369	13125
392.449	10648
392.529	4387
392.609	3384
392.689	5610
392.769	25212
392.849	18566
392.929	13465
393.009	34926
393.089	19596
393.169	6617
393.248	20583
393.328	131729
393.408	137339
393.488	20816
393.568	4543
393.648	1147
393.728	1204
393.807	-150
393.887	1782
393.967	311
394.047	1133
394.127	1707
394.206	5031
394.286	25265
394.366	147924
394.446	151226
394.525	22898
394.605	4388
394.685	5222
394.764	14750
394.844	27455
394.924	17050
395.003	3778
395.083	2417
395.163	1585
395.242	1555
395.322	1857
395.402	-720
395.481	3569
395.561	9695
395.640	30766
395.720	18401
395.799	35214
395.879	24771
395.958	8663
396.038	35228
396.117	194064
396.197	198383
396.276	40096
396.356	11366
396.435	8999
396.515	4744
396.594	3248
396.673	7172
396.753	30373
396.832	129736
396.912	93966
396.991	20015
397.070	4393
397.150	81
397.229	1777
397.308	628
397.388	641
397.467	472
397.546	564
397.625	-2559
397.705	2231
397.784	998
397.863	648
397.942	-136
398.022	317
398.101	8654
398.180	31503
398.259	14012
398.338	3245
398.417	957
398.497	726
398.576	1740
398.655	-733
398.734	372
398.813	642
398.892	8435
398.971	36587
399.050	14931
399.129	821
399.208	667
399.287	1197
399.366	-372
399.445	-100
399.524	792
399.603	-1202
399.682	2153
399.761	9450
399.840	38724
399.919	28608
399.998	2077
400.077	-652
400.156	-1078
400.235	2047
400.313	-61
400.392	123
400.471	9590
400.550	15825
400.629	2172
400.708	1136
400.786	623
400.865	6453
400.944	5400
401.023	3253
401.102	141
401.180	54
401.259	-65
401.338	637
401.416	1795
401.495	-93
401.574	800
401.652	-406
401.731	1321
401.810	-163
401.888	-132
401.967	-983
402.046	-971
402.124	536
402.203	631
402.281	1055
402.360	657
402.438	8405
402.517	4376
402.596	1880
402.674	426
402.753	-569
402.831	286
402.910	963
402.988	1430
403.066	10379
403.145	5049
403.223	3673
403.302	5941
403.380	5732
403.459	4548
403.537	2016
403.615	648
403.694	-1395
403.772	138
403.850	-85
403.929	-1038
404.007	-969
404.085	1383
404.164	517
404.242	-439
404.320	4154
404.398	16791
404.477	20834
404.555	66866
404.633	55612
404.711	14563
404.789	5968
404.868	314
404.946	-1030
405.024	2
405.102	-932
405.180	-689
405.258	-1166
405.336	-184
405.415	-798
405.493	912
405.571	838
405.649	-391
405.727	-920
405.805	1448
405.883	50
405.961	1156
406.039	774
406.117	-846
406.195	1490
406.273	11520
406.351	51376
406.429	27401
406.507	3707
406.585	-322
406.663	350
406.740	882
406.818	63
406.896	-249
406.974	883
407.052	1930
407.130	28126
407.208	36972
407.285	6323
407.363	-487
407.441	229
407.519	-586
407.596	-96
407.674	1404
407.752	5391
407.830	7808
407.907	4125
407.985	-724
408.063	-839
408.141	-927
408.218	1376
408.296	-492
408.373	-438
408.451	247
408.529	132
408.606	-973
408.684	-1432
408.762	-1025
408.839	-394
408.917	-1015
408.994	-856
409.072	-2043
409.149	-862
409.227	-155
409.304	-478
409.382	-809
409.459	-768
409.537	-1104
409.614	-548
409.692	-1325
409.769	-342
409.846	-1134
409.924	1397
410.001	-1487
410.079	-206
410.156	159
410.233	-1267
410.311	-1397
410.388	-298
410.465	-229
410.543	-538
410.620	-399
410.697	286
410.775	-1227
410.852	-1342
410.929	357
411.006	778
411.083	-903
411.161	1568
411.238	1960
411.315	1258
411.392	-771
411.469	1433
411.547	-330
411.624	-1775
411.701	-937
411.778	-17
411.855	1624
411.932	-97
412.009	-1179
412.086	-552
412.163	-36
412.240	-56
412.317	615
412.394	488
412.471	-961
412.548	-784
412.625	-691
412.702	726
412.779	321
412.856	188
412.933	-1804
413.010	250
413.087	1283
413.164	8530
413.241	12110
413.318	1229
413.395	1058
413.471	1416
413.548	-377
413.625	-159
413.702	-946
413.779	-5
413.855	-951
413.932	-1048
414.009	-1425
414.086	-833
414.162	-739
414.239	1166
414.316	7563
414.393	20928
414.469	6015
414.546	-444
414.623	-1334
414.699	-642
414.776	123
414.853	-889
414.929	-446
415.006	-767
415.082	756
415.159	-387
415.236	202
415.312	544
415.389	926
415.465	933
415.542	-228
415.618	-1237
415.695	278
415.771	-789
415.848	661
415.924	-656
416.000	-142
416.077	-260
416.153	-1689
416.230	-1838
416.306	-784
416.383	-1042
416.459	-377
416.535	-1640
416.612	-948
416.688	-487
416.764	-1057
416.841	-1034
416.917	-723
416.993	-789
417.069	-317
417.146	-414
417.222	36
417.298	-174
417.374	-2037
417.451	476
417.527	-640
417.603	-285
417.679	-611
417.755	-672
417.831	-891
417.908	-697
417.984	-640
418.060	-2016
418.136	1505
418.212	2191
418.288	-48
418.364	-367
418.440	-857
418.516	551
418.592	660
418.668	3281
418.744	4781
418.820	2792
418.896	-225
418.972	-1670
419.048	-1093
419.124	2423
419.200	-6
419.276	-329
419.352	-1593
419.428	-487
419.504	-948
419.579	-433
419.655	-826
419.731	-572
419.807	2824
419.883	6148
419.959	3190
420.034	89
420.110	1178
420.186	12350
420.262	8779
420.337	-241
420.413	292
420.489	-1043
420.565	-614
420.640	-1006
420.716	-829
420.792	-1875
420.867	-606
420.943	-1457
421.019	784
421.094	-52
421.170	-865
421.245	-933
421.321	-817
421.397	-1401
421.472	-155
421.548	1807
421.623	1426
421.699	128
421.774	174
421.850	-903
421.925	282
422.001	354
422.076	-1152
422.152	-581
422.227	459
422.302	255
422.378	-230
422.453	1670
422.529	5210
422.604	37397
422.679	97419
422.755	43285
422.830	6250
422.905	616
422.981	-767
423.056	-607
423.131	-430
423.207	-1433
423.282	-403
423.357	1742
423.432	491
423.508	578
423.583	4224
423.658	2361
423.733	-55
423.808	1246
423.883	519
423.959	-334
424.034	-831
424.109	-814
424.184	-1317
424.259	-1378
424.334	-1461
424.409	-1118
424.484	-621
424.559	-422
424.634	-1058
424.709	-160
424.784	1300
424.859	-687
424.934	360
425.009	7605
425.084	15406
425.159	3938
425.234	-84
425.309	-1417
425.384	-555
425.459	-727
425.534	-266
425.609	-1068
425.683	-201
425.758	-950
425.833	-221
425.908	690
425.983	3603
426.058	15402
426.132	5391
426.207	16
426.282	2636
426.357	1214
426.431	-122
426.506	-260
426.581	-352
426.655	-854
426.730	-463
426.805	-1391
426.879	-755
426.954	-454
427.029	1501
427.103	14746
427.178	44001
427.253	18200
427.327	538
427.402	145
427.476	2683
427.551	-270
427.625	-149
427.700	284
427.774	-831
427.849	278
427.923	-1056
427.998	-592
428.072	-700
428.147	2041
428.221	4026
428.296	9181
428.370	2495
428.444	-12
428.519	1867
428.593	5674
428.667	4686
428.742	7592
428.816	4625
428.890	8782
428.965	10418
429.039	5671
429.113	7965
429.188	2487
429.262	-54
429.336	1504
429.410	5747
429.485	4184
429.559	4988
429.633	4058
429.707	132
429.781	1850
429.855	14830
429.930	20768
430.004	19068
430.078	35423
430.152	24922
430.226	12510
430.300	9094
430.374	834
430.448	1501
430.522	10501
430.596	34550
430.670	19879
430.744	25709
430.818	45358
430.892	9983
430.966	1246
431.040	-198
431.114	-1231
431.188	-950
431.262	-666
431.336	-556
431.410	2583
431.484	9298
431.557	5637
431.631	-590
431.705	-728
431.779	20
431.853	4605
431.927	2345
432.000	363
432.074	-683
432.148	414
432.222	378
432.295	-267
432.369	-1328
432.443	997
432.516	16692
432.590	49112
432.664	18004
432.737	1257
432.811	-1340
432.885	-647
432.958	-443
433.032	-1328
433.106	-1168
433.179	-218
433.253	-669
433.326	-1369
433.400	-1223
433.473	-544
433.547	-1825
433.620	-476
433.694	-172
433.767	840
433.841	-149
433.914	-735
433.988	-838
434.061	-948
434.134	-1551
434.208	-1123
434.281	-1877
434.355	-980
434.428	-692
434.501	-1036
434.575	-1862
434.648	-577
434.721	-1051
434.795	-1894
434.868	-2113
434.941	-1630
435.014	-1711
435.088	-1848
435.161	-320
435.234	536
435.307	672
435.381	-310
435.454	-1689
435.527	-680
435.600	-1654
435.673	-874
435.746	-1360
435.819	-1100
435.892	-1861
435.966	-794
436.039	-983
436.112	-292
436.185	-1048
436.258	-1052
436.331	-2401
436.404	-1629
436.477	-1264
436.550	-1320
436.623	-1111
436.696	-1532
436.769	-1836
436.842	-478
436.915	-436
436.987	515
437.060	-631
437.133	-1043
437.206	-1236
437.279	8
437.352	-1682
437.425	-675
437.498	-1043
437.570	879
437.643	337
437.716	-922
437.789	-1612
437.861	386
437.934	4285
438.007	2036
438.080	-406
438.152	-166
438.225	1918
438.298	25795
438.370	78832
438.443	32720
438.516	6848
438.588	668
438.661	-873
438.734	-1242
438.806	-67
438.879	514
438.951	-249
439.024	1196
439.096	-885
439.169	-1112
439.241	-1714
439.314	-1054
439.386	-13
439.459	1736
439.531	2751
439.604	449
439.676	-804
439.749	-1498
439.821	-1158
439.893	-800
439.966	-1080
440.038	-723
440.110	215
440.183	-467
440.255	-567
440.327	1513
440.400	9235
440.472	45802
440.544	34245
440.617	3906
440.689	1575
440.761	1698
440.833	4122
440.905	2414
440.978	-289
441.050	-969
441.122	-1201
441.194	-997
441.266	-1034
441.338	-1450
441.411	649
441.483	11521
441.555	20694
441.627	5814
441.699	1397
441.771	2206
441.843	278
441.915	-989
441.987	-1058
442.059	-1178
442.131	-274
442.203	92
442.275	1493
442.347	1152
442.419	-552
442.491	1010
442.563	3319
442.635	5410
442.706	10061
442.778	10533
442.850	671
442.922	-824
442.994	-148
443.066	1588
443.137	646
443.209	-454
443.281	-442
443.353	1089
443.425	4010
443.496	8071
443.568	7864
443.640	2251
443.711	-229
443.783	-465
443.855	-659
443.926	-335
443.998	-650
444.070	366
444.141	1095
444.213	773
444.285	2239
444.356	2097
444.428	2185
444.499	298
444.571	-1103
444.642	-966
444.714	-954
444.785	843
444.857	1666
444.928	9280
445.000	6778
445.071	5350
445.143	7415
445.214	2308
445.285	2518
445.357	13022
445.428	15590
445.500	21499
445.571	20783
445.642	8602
445.714	7212
445.785	17000
445.856	5363
445.928	2577
445.999	1674
446.070	644
446.141	1048
446.213	2178
446.284	554
446.355	1307
446.426	72
446.497	59
446.569	1357
446.640	4557
446.711	3031
446.782	95
446.853	1796
446.924	2150
446.995	286
447.066	998
447.138	2535
447.209	2753
447.280	-1317
447.351	-1500
447.422	-633
447.493	452
447.564	1644
447.635	2208
447.706	-687
447.777	-379
447.847	-1558
447.918	-1028
447.989	102
448.060	1522
448.131	6320
448.202	8184
448.273	2928
448.344	869
448.414	-697
448.485	-434
448.556	-451
448.627	-939
448.698	-525
448.768	-650
448.839	-931
448.910	2380
448.981	3262
449.051	18
449.122	-782
449.193	-1046
449.263	-977
449.334	-380
449.405	-484
449.475	2310
449.546	3263
449.616	3311
449.687	3134
449.758	179
449.828	-1076
449.899	-724
449.969	-1597
450.040	-533
450.110	460
450.181	1483
450.251	-639
450.322	118
450.392	-490
450.463	412
450.533	-964
450.604	66
450.674	362
450.744	363
450.815	-1023
450.885	-603
450.955	-732
451.026	-384
451.096	-819
451.166	252
451.237	3098
451.307	13193
451.377	8087
451.447	-207
451.518	-628
451.588	66
451.658	-858
451.728	1305
451.799	10766
451.869	20077
451.939	4655
452.009	-66
452.079	-640
452.149	-59
452.219	2498
452.289	15214
452.360	16491
452.430	2872
452.500	1301
452.570	1908
452.640	1760
452.710	7217
452.780	14680
452.850	10943
452.920	8393
452.990	3354
453.060	895
453.129	1648
453.199	4529
453.269	17200
453.339	47389
453.409	77628
453.479	62664
453.549	98241
453.619	107069
453.688	59693
453.758	8246
453.828	1011
453.898	900
453.968	525
454.037	527
454.087	226
454.107	95
454.168	-123
454.177	-165
454.247	-98
454.249	-98
454.316	-447
454.330	-179
454.386	797
454.411	3105
454.456	6636
454.492	10727
454.525	14383
454.574	8515
454.595	6004
454.655	1064
454.665	282
454.734	1173
454.736	1278
454.804	4075
454.817	6274
454.873	14365
454.898	17565
454.943	23118
454.979	16816
455.013	11303
455.060	6052
455.082	3942
455.141	4170
455.152	4308
455.221	13524
455.222	13877
455.291	38080
455.303	43113
455.360	61069
455.384	86939
455.430	124918
455.465	104890
455.499	88680
455.546	46048
455.569	26361
455.627	17717
455.638	16328
455.707	3558
455.708	3558
455.777	1132
455.789	1114
455.846	866
455.869	708
455.916	397
455.950	498
455.985	587
456.031	592
456.054	567
456.112	542
456.124	550
456.193	571
456.193	558
456.262	388
456.274	807
456.332	2688
456.355	3071
456.401	3300
456.436	2574
456.470	1990
456.516	806
456.540	224
456.597	-135
456.609	-186
456.678	-106
456.678	-117
456.747	62
456.759	-44
456.817	-592
456.840	-552
456.886	-539
456.920	-449
456.955	-135
457.001	191
457.024	395
457.082	944
457.093	1021
457.162	3641
457.163	3665
457.232	4608
457.243	4361
457.301	2690
457.324	1723
457.370	341
457.405	720
457.439	964
457.485	517
457.508	501
457.566	638
457.577	608
457.646	808
457.647	820
457.715	1070
457.727	1029
457.784	782
457.808	776
457.853	872
457.889	1590
457.922	2181
457.969	1958
457.991	1707
458.050	1808
458.060	1870
458.129	2045
458.130	2051
458.198	1337
458.211	1228
458.267	643
458.292	285
458.336	176
458.372	537
458.405	878
458.453	617
458.474	490
458.533	1588
458.543	1754
458.611	3143
458.614	3187
458.680	2497
458.694	2124
458.749	1436
458.775	1129
458.818	643
458.855	542
458.887	556
458.936	868
458.955	920
459.016	1140
459.024	1210
459.093	1578
459.097	1578
459.162	822
459.177	818
459.230	1541
459.257	2088
459.299	2366
459.338	2128
459.368	2028
459.418	2070
459.437	2038
459.499	2148
459.505	2142
459.574	1206
459.579	1213
459.643	1468
459.659	1269
459.711	949
459.740	1227
459.780	1510
459.820	1760
459.849	1859
459.900	2186
459.917	2210
459.981	1917
459.986	1876
460.054	1696
460.061	1569
460.123	1219
460.141	1458
460.191	2371
460.222	2866
460.260	3094
460.302	3448
460.328	3197
460.382	2537
460.397	2554
460.462	2016
460.465	1994
460.534	2112
460.543	2103
460.602	4021
460.623	4931
460.671	7568
460.703	9945
460.739	9750
460.783	8470
460.808	7181
460.864	2677
460.876	2379
460.944	1597
460.945	1591
461.013	2439
461.024	2471
461.081	1892
461.104	1959
461.150	2190
461.184	2042
461.218	2078
461.264	2027
461.286	1988
461.345	1720
461.355	1622
461.423	1790
461.425	1792
461.491	2240
461.505	2296
461.559	5647
461.585	7227
461.628	13137
461.665	19389
461.696	21101
461.745	27108
461.764	24954
461.825	11482
461.832	11312
461.901	3783
461.905	3680
461.969	2777
461.985	2710
462.037	3058
462.065	3217
462.105	3290
462.145	3523
462.173	5499
462.225	9422
462.241	10641
462.305	17092
462.310	16684
462.378	10890
462.385	9614
462.446	5306
462.465	4201
462.514	2568
462.545	2458
462.582	2708
462.625	2994
462.650	2859
462.705	2424
462.718	2504
462.785	2926
462.786	2966
462.854	5781
462.865	6225
462.922	7961
462.945	8909
462.990	7013
463.025	4684
463.058	4117
463.104	2679
463.126	2085
463.184	1957
463.194	2057
463.262	2341
463.264	2362
463.330	2922
463.344	2965
463.398	3600
463.424	3846
463.466	3895
463.504	4259
463.533	4108
463.583	3593
463.601	3749
463.663	4134
463.669	4272
463.737	6249
463.743	6415
463.805	10748
463.823	12163
463.873	19142
463.903	23374
463.940	24596
463.982	27480
464.008	23162
464.062	10930
464.076	10158
464.142	3622
464.144	3548
464.211	3704
464.221	3811
464.279	2791
464.301	2454
464.347	3266
464.381	3809
464.414	4690
464.461	6090
464.482	6347
464.540	7160
464.550	6864
464.617	4427
464.620	4324
464.685	4558
464.699	4626
464.753	4660
464.779	4794
464.820	5635
464.859	6440
464.888	6626
464.938	6700
464.956	6722
465.018	7233
465.023	7117
465.091	5102
465.098	4860
465.158	4392
465.177	4332
465.226	4684
465.257	4894
465.293	5362
465.336	5923
465.361	6418
465.416	7450
465.428	8075
465.495	11493
465.496	11573
465.563	21128
465.575	22851
465.631	29157
465.654	32130
465.698	20228
465.734	9267
465.765	7389
465.813	3876
465.833	3572
465.893	4041
465.900	4096
465.968	4432
465.972	4453
466.035	3928
466.052	3762
466.102	4058
466.131	4254
466.170	3847
466.210	3380
466.237	3986
466.290	5221
466.304	5215
466.369	5015
466.372	5030
466.439	5220
466.449	5236
466.506	5942
466.528	6199
466.573	10104
466.607	12980
466.641	20427
466.687	30887
466.708	34848
466.766	45904
466.775	42168
466.842	13589
466.845	12198
466.909	7766
466.925	6806
466.977	5358
467.004	4712
467.044	5289
467.083	5851
467.111	6209
467.163	6868
467.178	7122
467.242	8123
467.245	8098
467.312	7290
467.321	7172
467.379	7686
467.400	7849
467.446	9064
467.480	9916
467.559	8363
467.638	7318
467.717	7608
467.796	8281
467.875	10125
467.955	9347
468.034	15141
468.113	38269
468.192	57409
468.271	12880
468.350	5799
468.429	6409
468.508	6835
468.588	5428
468.667	6820
468.746	7039
468.825	6511
468.904	5604
468.983	8206
469.062	14696
469.141	19121
469.220	7246
469.299	6820
469.378	6900
469.456	6995
469.535	7197
469.614	7572
469.693	7818
469.772	11181
469.851	15239
469.930	11007
470.009	6564
470.088	7071
470.166	7383
470.245	11300
470.324	13590
470.403	8352
470.482	7519
470.560	6324
470.639	6221
470.718	8272
470.797	6346
470.875	8126
470.954	11207
471.033	13329
471.111	5922
471.190	4802
471.269	4916
471.347	5813
471.426	6002
471.505	6125
471.583	6968
471.662	5238
471.740	5738
471.819	6181
471.898	4901
471.976	5195
472.055	6242
472.133	7482
472.212	9836
472.290	10293
472.369	6188
472.447	6128
472.526	5927
472.604	7492
472.683	5412
472.761	6376
472.839	6457
472.918	5224
472.996	5854
473.075	8170
473.153	7765
473.231	5506
473.310	7304
473.388	7659
473.466	5808
473.545	6602
473.623	8246
473.701	7980
473.780	5072
473.858	4036
473.936	6574
474.014	6028
474.093	6093
474.171	11769
474.249	16207
474.327	9525
474.405	4731
474.484	5420
474.562	5320
474.640	4981
474.718	5429
474.796	5196
474.874	4832
474.952	3447
475.030	4649
475.108	4971
475.187	4561
475.265	5145
475.343	6836
475.421	7175
475.499	5451
475.577	5345
475.655	8921
475.733	19041
475.811	34642
475.889	32912
475.966	20718
476.044	5429
476.122	6423
476.200	6132
476.278	6322
476.356	5605
476.434	6844
476.512	6225
476.590	7388
476.667	7155
476.745	5936
476.823	5980
476.901	6331
476.979	5685
477.056	6140
477.134	6255
477.212	5731
477.290	6444
477.367	5341
477.445	6199
477.523	5270
477.601	5608
477.678	5678
477.756	8062
477.834	8378
477.911	6027
477.989	5466
478.066	5705
478.144	5765
478.222	5246
478.299	6896
478.377	6810
478.454	4878
478.532	4551
478.609	4615
478.687	5844
478.764	3761
478.842	5085
478.919	6755
478.997	5633
479.074	5831
479.152	5929
479.229	8367
479.307	6280
479.384	4546
479.461	5033
479.539	5071
479.616	5760
479.694	4655
479.771	7088
479.848	7103
479.926	8791
480.003	11334
480.080	5558
480.157	5159
480.235	5154
480.312	4744
480.389	6593
480.467	11967
480.544	14609
480.621	6966
480.698	6463
480.775	7415
480.853	8513
480.930	5585
481.007	6454
481.084	7336
481.161	7637
481.238	6954
481.315	5823
481.392	4901
481.470	4700
481.547	4982
481.624	5303
481.701	5743
481.778	6070
481.855	6801
481.932	10081
482.009	18833
482.086	12593
482.163	5936
482.240	6182
482.317	7428
482.393	7331
482.470	5531
482.547	6728
482.624	5265
482.701	6574
482.778	5524
482.855	4427
482.932	5419
483.009	4368
483.085	5265
483.162	5563
483.239	5808
483.316	4147
483.393	4846
483.469	5129
483.546	6523
483.623	6937
483.699	5994
483.776	6203
483.853	6870
483.930	9766
484.006	27878
484.083	51822
484.160	19426
484.236	20441
484.313	15697
484.389	12108
484.466	12111
484.543	10513
484.619	9928
484.696	12915
484.772	12983
484.849	14877
484.925	10683
485.002	10935
485.078	10752
485.155	11386
485.231	10527
485.308	10028
485.384	10720
485.461	13953
485.537	26056
485.614	32975
485.690	11486
485.766	10249
485.843	10027
485.919	15142
485.995	14770
486.072	10197
486.148	9099
486.224	8981
486.301	10995
486.377	11281
486.453	11971
486.530	10726
486.606	13351
486.682	15671
486.758	21888
486.835	25274
486.911	18931
486.987	34875
487.063	31189
487.139	33597
487.215	23283
487.292	12590
487.368	9758
487.444	10178
487.520	12211
487.596	9031
487.672	11630
487.748	15827
487.824	17996
487.900	11494
487.976	9935
488.052	10835
488.128	13507
488.204	11070
488.280	10705
488.356	12693
488.432	30933
488.508	52182
488.584	14697
488.660	9512
488.736	9358
488.812	9915
488.888	12485
488.964	15054
489.039	30946
489.115	50148
489.191	29128
489.267	10510
489.343	9781
489.418	8441
489.494	7964
489.570	7509
489.646	8471
489.722	9410
489.797	9184
489.873	15536
489.949	39815
490.024	33531
490.100	8810
490.176	8092
490.251	9569
490.327	12466
490.403	7721
490.478	7105
490.554	6054
490.629	6387
490.705	6554
490.781	7844
490.856	6647
490.932	8645
491.007	8598
491.083	8694
491.158	7359
491.234	11025
491.309	28159
491.385	29289
491.460	8734
491.536	9264
491.611	7182
491.686	9528
491.762	9905
491.837	20960
491.913	35767
491.988	52969
492.063	62384
492.139	20919
492.214	14505
492.289	7365
492.365	5250
492.440	8435
492.515	9023
492.590	8404
492.666	7449
492.741	11192
492.816	17857
492.891	10928
492.967	10332
493.042	11345
493.117	15098
493.192	20940
493.267	48828
493.342	231871
493.418	338290
493.493	39217
493.568	9318
493.643	7175
493.718	8735
493.793	13197
493.868	14287
493.943	8362
494.018	7336
494.093	6789
494.168	6773
494.243	5937
494.318	5545
494.393	6592
494.468	5842
494.543	5216
494.618	6395
494.693	5195
494.768	5503
494.842	5423
494.917	4808
494.992	5592
495.067	4361
495.142	4412
495.217	6026
495.292	5766
495.366	6623
495.441	9058
495.516	11947
495.591	13968
495.665	43912
495.740	108285
495.815	42444
495.890	10226
495.964	6647
496.039	9504
496.114	7432
496.188	7972
496.263	7730
496.338	7582
496.412	8648
496.487	10547
496.561	10318
496.636	9866
496.710	8971
496.785	9295
496.860	11145
496.934	8032
497.009	8734
497.083	6487
497.158	8322
497.232	10078
497.307	12685
497.381	9113
497.455	11845
497.530	17091
497.604	10575
497.679	11075
497.753	19033
497.827	22766
497.902	19471
497.976	24501
498.050	59317
498.125	269018
498.199	271231
498.273	28783
498.348	16319
498.422	12598
498.496	12732
498.570	13156
498.645	8874
498.719	10447
498.793	15801
498.867	25929
498.941	34025
499.016	102262
499.090	302244
499.164	100633
499.238	11583
499.312	9185
499.386	10349
499.460	11430
499.534	10909
499.609	14727
499.683	22028
499.757	23226
499.831	43799
499.905	196211
499.979	180384
500.053	26928
500.127	23818
500.201	15088
500.275	11571
500.349	11406
500.422	12780
500.496	17828
500.570	33799
500.644	99722
500.718	203598
500.792	43821
500.866	11928
500.940	15580
501.013	13779
501.087	12510
501.161	20041
501.235	26137
501.309	59079
501.382	177706
501.456	150541
501.530	32106
501.603	56371
501.677	21320
501.751	8398
501.825	12191
501.898	21948
501.972	70215
502.046	43033
502.119	11424
502.193	27930
502.266	76277
502.340	33973
502.413	31333
502.487	64001
502.561	34641
502.634	11109
502.708	9055
502.781	6344
502.855	7025
502.928	4450
503.002	5482
503.075	5603
503.149	7472
503.222	7748
503.295	8586
503.369	10509
503.442	13971
503.516	47197
503.589	131182
503.662	79109
503.736	24167
503.809	58208
503.882	44077
503.956	68774
504.029	57544
504.102	15201
504.175	13477
504.249	6361
504.322	9227
504.395	7498
504.468	5913
504.542	5228
504.615	4821
504.688	5525
504.761	3207
504.834	7267
504.907	7242
504.980	11006
505.053	6416
505.127	5440
505.200	11658
505.273	10443
505.346	6053
505.419	5093
505.492	5159
505.565	3466
505.638	5019
505.711	3947
505.784	3956
505.857	4324
505.930	6483
506.003	3918
506.076	6827
506.149	8442
506.221	8930
506.294	10065
506.367	24166
506.440	94923
506.513	48478
506.586	11444
506.659	5998
506.731	4465
506.804	6209
506.877	7270
506.950	6618
507.022	5500
507.095	6195
507.168	8746
507.241	5703
507.313	3681
507.386	4139
507.459	7738
507.531	4975
507.604	3563
507.677	5348
507.749	2492
507.822	6263
507.894	8885
507.967	9961
508.040	5104
508.112	6066
508.185	5609
508.257	4458
508.330	8972
508.402	4920
508.475	5087
508.547	6252
508.620	6438
508.692	10994
508.765	6683
508.837	4418
508.909	4259
508.982	4770
509.054	5920
509.127	4709
509.199	4393
509.271	3147
509.344	3290
509.416	3505
509.488	4398
509.560	4870
509.633	4362
509.705	5756
509.777	5665
509.849	8047
509.922	4783
509.994	4588
510.066	4692
510.138	3261
510.210	9543
510.283	7408
510.355	7068
510.427	5633
510.499	5968
510.571	5338
510.643	4117
510.715	9231
510.787	6538
510.859	6686
510.931	7146
511.003	8421
511.076	8134
511.148	4865
511.219	5008
511.291	10765
511.363	13164
511.435	5876
511.507	3626
511.579	5818
511.651	4690
511.723	4577
511.795	4894
511.867	4589
511.939	6216
512.010	14695
512.082	11181
512.154	4275
512.226	5355
512.298	7014
512.369	10191
512.441	8238
512.513	7966
512.585	5816
512.656	7197
512.728	6580
512.800	4016
512.871	6416
512.943	5980
513.015	4237
513.086	5710
513.158	5761
513.230	5057
513.301	7698
513.373	10627
513.444	5130
513.516	4298
513.588	4738
513.659	5693
513.731	6718
513.802	4211
513.874	12426
513.945	21027
514.016	7244
514.088	5539
514.159	4880
514.231	7456
514.302	8633
514.374	6979
514.445	5540
514.516	18341
514.588	11954
514.659	6735
514.730	15584
514.802	10529
514.873	3747
514.944	7057
515.016	5422
515.087	6965
515.158	10320
515.229	15884
515.301	5189
515.372	6266
515.443	4162
515.514	4244
515.585	3606
515.656	4548
515.728	4772
515.799	3153
515.870	5619
515.941	6108
516.012	4893
516.083	7401
516.154	6942
516.225	10942
516.296	10556
516.367	9384
516.438	9855
516.509	11350
516.580	14720
516.651	48237
516.722	180194
516.793	78095
516.864	19581
516.935	18919
517.006	22693
517.077	27214
517.148	54307
517.219	203115
517.289	319093
517.360	113110
517.431	37588
517.502	10531
517.573	10443
517.643	8303
517.714	9761
517.785	10312
517.856	10658
517.926	14265
517.997	16742
518.068	19939
518.138	27169
518.209	35263
518.280	124055
518.350	504806
518.421	174559
518.492	21248
518.562	12251
518.633	10598
518.703	6957
518.774	11139
518.845	12518
518.915	13048
518.986	10462
519.056	12335
519.127	21034
519.197	32248
519.268	92783
519.338	61142
519.408	12578
519.479	12897
519.549	9687
519.620	8372
519.690	6039
519.760	5554
519.831	6339
519.901	6964
519.971	6367
520.042	6000
520.112	7604
520.182	8122
520.253	8946
520.323	6463
520.393	6073
520.463	9594
520.534	4456
520.604	13000
520.674	9035
520.744	8979
520.814	13305
520.885	14479
520.955	28479
521.025	116829
521.095	42404
521.165	9069
521.235	6181
521.305	4488
521.375	5514
521.445	6018
521.515	6868
521.585	8544
521.655	6465
521.725	7136
521.795	6935
521.865	3000
521.935	11156
522.005	7963
522.075	5542
522.145	7160
522.215	5948
522.285	10512
522.355	13858
522.424	29801
522.494	22903
522.564	9903
522.634	16196
522.704	48285
522.774	17647
522.843	7773
522.913	5598
522.983	7432
523.053	5003
523.122	6155
523.192	6770
523.262	24901
523.331	23830
523.401	5058
523.471	4427
523.540	5071
523.610	3675
523.680	4319
523.749	4070
523.819	6211
523.888	5933
523.958	2696
524.027	5116
524.097	5448
524.166	4842
524.236	4583
524.305	6249
524.375	3538
524.444	3302
524.514	6018
524.583	5027
524.653	5824
524.722	7573
524.791	3387
524.861	6116
524.930	2759
524.999	2821
525.069	6870
525.138	5748
525.207	6873
525.277	5282
525.346	4503
525.415	4545
525.484	4327
525.554	4402
525.623	5192
525.692	3791
525.761	4534
525.830	4264
525.900	3635
525.969	5872
526.038	6650
526.107	4520
526.176	12071
526.245	8348
526.314	9635
526.383	12073
526.452	7031
526.522	18237
526.591	25447
526.660	22672
526.729	12137
526.797	11979
526.867	23820
526.935	123283
527.004	93142
527.073	32016
527.142	5674
527.211	5649
527.280	6129
527.349	5777
527.418	2205
527.487	4721
527.555	3089
527.624	2712
527.693	1874
527.762	4719
527.831	1730
527.899	3363
527.968	3244
528.037	1821
528.106	4623
528.174	8512
528.243	7851
528.312	10899
528.380	13431
528.449	3889
528.518	5222
528.586	2487
528.655	4196
528.723	2862
528.792	2814
528.861	2406
528.929	2471
528.998	3905
529.066	3181
529.135	2628
529.203	2662
529.272	1615
529.340	3383
529.409	4264
529.477	2592
529.545	4880
529.614	7131
529.682	4027
529.751	6137
529.819	8451
529.887	4220
529.956	2671
530.024	3574
530.092	1893
530.161	4434
530.229	5887
530.297	2928
530.365	3925
530.434	2620
530.502	2412
530.570	3272
530.638	1614
530.707	3742
530.775	5573
530.843	2218
530.911	3461
530.979	3010
531.047	2418
531.115	3258
531.183	2724
531.252	3072
531.320	2997
531.388	2118
531.456	3397
531.524	1416
531.592	3642
531.660	4978
531.728	1598
531.796	2668
531.864	2080
531.932	2850
532.000	2709
532.067	2866
532.135	4129
532.203	4637
532.271	4204
532.339	8379
532.407	20128
532.475	13292
532.542	6253
532.610	6848
532.678	7605
532.746	34851
532.814	92486
532.881	22095
532.949	5004
533.017	3788
533.084	3491
533.152	2786
533.220	2823
533.287	2089
533.355	3575
533.423	2861
533.490	1846
533.558	3553
533.625	3032
533.693	4121
533.761	3771
533.828	3913
533.896	3484
533.963	9139
534.031	9611
534.098	12605
534.166	5382
534.233	3115
534.300	4755
534.368	4249
534.435	3270
534.503	3723
534.570	3559
534.637	1277
534.705	3588
534.772	2651
534.840	2134
534.907	6291
534.974	6736
535.041	3715
535.109	5154
535.176	2514
535.243	3453
535.310	3218
535.378	2214
535.445	3323
535.512	2243
535.579	2984
535.646	3458
535.714	2909
535.781	3845
535.848	5058
535.915	5432
535.982	4653
536.049	4533
536.116	4176
536.183	3516
536.250	3765
536.317	2876
536.384	4266
536.451	6470
536.518	6804
536.585	3186
536.652	6433
536.719	9219
536.786	6283
536.853	4387
536.920	7739
536.987	13612
537.053	10231
537.120	44420
537.187	38703
537.254	5678
537.321	2997
537.388	5178
537.454	2945
537.521	2432
537.588	2131
537.654	4852
537.721	3395
537.788	5015
537.855	2139
537.921	2942
537.988	3351
538.055	4825
538.121	2822
538.188	3858
538.254	5858
538.321	13029
538.388	7715
538.454	3202
538.521	3325
538.587	3222
538.654	3304
538.720	2954
538.787	3570
538.853	3254
538.920	4918
538.986	5126
539.053	3840
539.119	4924
539.185	3048
539.252	4993
539.318	6582
539.385	6296
539.451	3683
539.517	5233
539.583	5669
539.650	12148
539.716	34308
539.782	9318
539.849	3104
539.915	4873
539.981	2989
540.047	5010
540.114	4969
540.180	5798
540.246	3205
540.312	5877
540.378	12247
540.444	13471
540.510	11931
540.576	36523
540.643	11007
540.709	3350
540.775	3785
540.841	3629
540.907	5671
540.973	8564
541.039	6298
541.105	8216
541.171	4328
541.237	2686
541.303	4935
541.369	5656
541.435	5194
541.500	11631
541.566	5505
541.632	3778
541.698	2916
541.764	4829
541.830	3566
541.896	2395
541.961	3699
542.027	3241
542.093	3467
542.159	3804
542.224	3561
542.290	6955
542.356	10516
542.421	15430
542.487	7870
542.553	5294
542.618	4701
542.684	4419
542.750	3592
542.815	5729
542.881	9113
542.947	32599
543.012	23952
543.078	4835
543.143	3698
543.209	4927
543.274	3101
543.340	4872
543.405	10711
543.471	18922
543.536	4493
543.602	3568
543.667	2285
543.732	5073
543.798	2559
543.863	3936
543.928	2134
543.994	2335
544.059	3562
544.124	3570
544.190	2957
544.255	3283
544.320	3991
544.386	3018
544.451	5772
544.516	7221
544.581	5844
544.646	18120
544.712	30807
544.777	7379
544.842	5417
544.907	5648
544.972	4698
545.037	4724
545.102	5858
545.168	5201
545.233	5636
545.298	7332
545.363	5942
545.428	7505
545.493	12779
545.558	26631
545.623	11567
545.688	5112
545.753	6078
545.818	4498
545.883	6226
545.947	4089
546.012	6661
546.077	5953
546.142	4935
546.207	4926
546.272	6696
546.337	6486
546.401	5254
546.466	4550
546.531	4607
546.596	6182
546.661	5937
546.725	6323
546.790	4438
546.855	4984
546.919	4118
546.984	4956
547.049	4997
547.113	6822
547.178	4888
547.243	6624
547.307	6657
547.372	8302
547.436	8544
547.501	5122
547.565	6323
547.630	7084
547.695	7054
547.759	8808
547.823	6125
547.888	4723
547.952	5496
548.017	5409
548.081	6612
548.146	10379
548.210	7893
548.274	4794
548.339	5044
548.403	6439
548.468	4536
548.532	4319
548.596	5047
548.660	5026
548.725	6444
548.789	6315
548.853	8261
548.917	5698
548.982	9662
549.046	9753
549.110	4687
549.174	4782
549.238	4910
549.303	4220
549.367	6177
549.431	4203
549.495	4566
549.559	5008
549.623	5139
549.687	6327
549.751	8388
549.815	6093
549.879	6681
549.943	4486
550.007	6435
550.071	6213
550.135	7726
550.199	7443
550.263	5430
550.327	7647
550.391	9738
550.455	5415
550.519	5856
550.582	6495
550.646	8506
550.710	9212
550.774	6470
550.838	6546
550.901	6253
550.965	8350
551.029	7101
551.093	8956
551.156	11021
551.220	23205
551.284	24373
551.347	11629
551.411	30117
551.475	31875
551.538	8677
551.602	6665
551.666	6140
551.729	5260
551.793	6066
551.856	7736
551.920	9322
551.983	6814
552.047	5242
552.110	5625
552.174	5058
552.237	5541
552.301	5606
552.364	5735
552.428	5470
552.491	6552
552.554	5996
552.618	6301
552.681	6162
552.745	6305
552.808	13071
552.871	16127
552.934	9383
552.998	7145
553.061	8370
553.124	9346
553.187	9128
553.251	12851
553.314	14057
553.377	16921
553.440	28045
553.503	115258
553.567	199065
553.630	30012
553.693	9762
553.756	7560
553.819	6424
553.882	6079
553.945	5300
554.008	4750
554.071	4403
554.134	4978
554.197	4723
554.260	4096
554.323	6337
554.386	6197
554.449	4240
554.512	5832
554.575	4182
554.638	5908
554.701	4610
554.764	4894
554.827	4965
554.889	4866
554.952	4231
555.015	4906
555.078	4113
555.141	4686
555.203	4915
555.266	4634
555.329	4703
555.391	4105
555.454	4591
555.517	5029
555.580	4442
555.642	3296
555.705	3588
555.768	4773
555.830	4501
555.893	4160
555.955	5126
556.018	4545
556.080	4147
556.143	4589
556.206	3572
556.268	5375
556.330	5042
556.393	4806
556.455	4580
556.518	9442
556.580	8186
556.643	3992
556.705	4642
556.767	3025
556.830	4498
556.892	5441
556.955	7986
557.017	6058
557.079	4234
557.142	4480
557.204	5180
557.266	11513
557.328	10434
557.391	4643
557.453	4494
557.515	4452
557.577	6272
557.639	5661
557.701	3294
557.764	3741
557.826	4994
557.888	4651
557.950	5131
558.012	3467
558.074	3963
558.136	6098
558.198	8959
558.260	6412
558.322	4294
558.384	4619
558.446	5432
558.508	6157
558.570	6599
558.632	12790
558.694	18077
558.756	9962
558.818	16718
558.880	39537
558.942	12738
559.003	9858
559.065	6479
559.127	4206
559.189	4478
559.251	4664
559.312	6443
559.374	8068
559.436	23027
559.498	13708
559.559	4269
559.621	4210
559.683	6323
559.744	8425
559.806	17073
559.868	19490
559.929	7797
559.991	7177
560.052	6097
560.114	9732
560.176	7681
560.237	8995
560.299	11361
560.360	5531
560.422	4905
560.483	6341
560.545	4879
560.606	5602
560.667	5206
560.729	4419
560.790	4850
560.852	5214
560.913	5080
560.974	5652
561.036	5148
561.097	4813
561.158	5202
561.220	6296
561.281	5351
561.342	5769
561.403	7302
561.465	7874
561.526	18289
561.587	23863
561.648	5962
561.709	6161
561.771	5717
561.832	4547
561.893	5855
561.954	5202
562.015	4920
562.076	5565
562.137	4455
562.198	5447
562.259	4852
562.320	5179
562.381	5051
562.442	8126
562.503	7315
562.564	5571
562.625	4883
562.686	5946
562.747	5991
562.808	5062
562.869	5245
562.930	7690
562.991	6943
563.051	6271
563.112	6383
563.173	5896
563.234	5129
563.294	5324
563.355	5580
563.416	5639
563.477	5578
563.537	5170
563.598	5650
563.659	6341
563.720	5569
563.780	5795
563.841	5431
563.901	5905
563.962	6052
564.023	5772
564.083	5839
564.144	6700
564.204	5776
564.265	6304
564.325	6990
564.386	15525
564.446	14122
564.507	6022
564.567	4841
564.628	5646
564.688	5197
564.749	5405
564.809	6963
564.869	8889
564.930	5356
564.990	5726
565.050	4412
565.111	5542
565.171	5463
565.231	5129
565.292	5486
565.352	4652
565.412	4759
565.472	5741
565.532	5605
565.593	5166
565.653	4445
565.713	5324
565.773	6427
565.833	6929
565.893	8167
565.953	5985
566.013	5776
566.074	5911
566.134	8244
566.194	14283
566.254	13698
566.314	7550
566.374	5010
566.434	6707
566.494	5878
566.554	5850
566.614	5597
566.673	5182
566.733	5701
566.793	6254
566.853	6002
566.913	5788
566.973	6345
567.033	6612
567.092	6682
567.152	5529
567.212	5726
567.272	6657
567.331	6926
567.391	5991
567.451	7112
567.511	11288
567.570	10572
567.630	6289
567.690	5906
567.749	5728
567.809	5353
567.868	6081
567.928	6257
567.988	7633
568.047	7724
568.107	5990
568.166	7195
568.226	8512
568.285	11216
568.345	10629
568.404	8565
568.464	8229
568.523	7277
568.582	7418
568.642	8812
568.701	9336
568.761	10840
568.820	16277
568.879	17572
568.939	15814
568.998	10019
569.057	8037
569.116	7989
569.176	6704
569.235	5896
569.294	5855
569.353	5118
569.413	5826
569.472	5483
569.531	5249
569.590	4551
569.649	4105
569.708	4402
569.767	5432
569.827	7117
569.886	5194
569.945	4768
570.004	5344
570.063	4563
570.122	5264
570.181	6369
570.240	7259
570.299	6915
570.358	6264
570.417	5766
570.475	4668
570.534	5614
570.593	5627
570.652	5519
570.711	4993
570.770	5021
570.829	6182
570.887	6550
570.946	6417
571.005	4404
571.064	5010
571.122	5471
571.181	7105
571.240	5489
571.299	4954
571.357	5466
571.416	6033
571.475	7540
571.533	6683
571.592	5068
571.650	6154
571.709	4526
571.768	4824
571.826	4443
571.885	4382
571.943	3566
572.002	4220
572.060	5585
572.119	5126
572.177	4010
572.236	4633
572.294	3947
572.352	4729
572.411	4729
572.469	3798
572.528	4140
572.586	4116
572.644	4680
572.703	6377
572.761	4867
572.819	3752
572.877	4622
572.936	3205
572.994	3506
573.052	4085
573.110	3660
573.169	4715
573.227	3227
573.285	3544
573.343	3222
573.401	4501
573.459	4807
573.517	4055
573.576	4014
573.634	4326
573.692	3719
573.750	3862
573.808	3560
573.866	4892
573.924	6975
573.982	6062
574.040	4422
574.098	4633
574.155	3932
574.213	4507
574.271	3175
574.329	3316
574.387	3852
574.445	3214
574.503	3813
574.560	2827
574.618	3052
574.676	3195
574.734	2964
574.792	3956
574.849	3440
574.907	3616
574.965	3125
575.022	3583
575.080	3009
575.138	3862
575.195	4636
575.253	3345
575.311	4551
575.368	4423
575.426	3305
575.483	3678
575.541	3035
575.598	3337
575.656	3960
575.713	3374
575.771	3474
575.828	3506
575.886	3681
575.943	5057
576.001	4258
576.058	4691
576.115	5208
576.173	6645
576.230	6068
576.287	6778
576.345	5518
576.402	5006
576.459	3670
576.517	5201
576.574	5794
576.631	6090
576.688	4771
576.746	4590
576.803	4191
576.860	4243
576.917	4513
576.974	3780
577.031	4062
577.089	4683
577.146	4278
577.203	4822
577.260	5181
577.317	5797
577.374	6788
577.431	5924
577.488	4638
577.545	4355
577.602	5906
577.659	6277
577.716	8463
577.773	11076
577.830	6693
577.886	5463
577.943	4049
578.000	4717
578.057	4978
578.114	5447
578.171	5660
578.227	6988
578.284	7006
578.341	5649
578.398	5139
578.454	4941
578.511	5631
578.568	6698
578.625	5729
578.681	4516
578.738	4132
578.794	4670
578.851	4673
578.908	4054
578.964	3929
579.021	4983
579.077	3539
579.134	3867
579.190	4010
579.247	4195
579.303	3426
579.360	3319
579.416	3890
579.473	3057
579.529	4188
579.586	3312
579.642	3960
579.698	4464
579.755	5269
579.811	4406
579.867	4623
579.924	4344
579.980	5321
580.036	6220
580.093	7160
580.149	9605
580.205	9850
580.261	7503
580.317	7266
580.374	6907
580.430	7766
580.486	7001
580.542	5424
580.598	5014
580.619	5178
580.654	5466
580.692	5241
580.710	5140
580.765	4401
580.767	4382
580.823	4996
580.838	4894
580.879	4624
580.911	4261
580.935	4010
580.984	4352
580.991	4401
581.047	5010
581.057	4968
581.103	4828
581.130	4915
581.159	4984
581.203	5672
581.215	5867
581.270	5292
581.276	5227
581.326	4600
581.349	4411
581.382	4140
581.422	5016
581.438	5389
581.494	4342
581.494	4342
581.550	4609
581.567	4460
581.606	4119
581.640	4554
581.661	4835
581.713	4835
581.717	4836
581.773	4867
581.786	4550
581.829	3544
581.859	4014
581.885	4412
581.932	3992
581.940	3939
581.996	4816
582.004	4810
582.052	4547
582.077	4355
582.107	4226
582.150	4424
582.163	4454
582.219	5028
582.223	5017
582.274	5170
582.296	5144
582.330	4848
582.368	5025
582.386	5237
582.441	4695
582.441	4695
582.497	4942
582.514	5197
582.552	6120
582.587	7714
582.608	8407
582.659	6172
582.663	6026
582.719	5227
582.732	4994
582.774	4196
582.805	4493
582.830	4817
582.877	4760
582.885	4720
582.941	4350
582.950	4304
582.996	4119
583.023	4683
583.052	5382
583.095	5268
583.107	5259
583.162	6509
583.168	6557
583.218	6817
583.240	6356
583.273	5608
583.313	4853
583.328	4599
583.384	5230
583.385	5215
583.439	4803
583.458	4862
583.494	4781
583.531	4072
583.549	3876
583.603	4340
583.605	4343
583.660	5024
583.676	4722
583.715	4190
583.748	4330
583.770	4328
583.820	4777
583.825	4822
583.881	4154
583.893	4217
583.936	4495
583.965	4072
583.991	3793
584.038	4693
584.046	4811
584.101	4204
584.110	4268
584.156	4661
584.183	4607
584.211	4430
584.255	4396
584.266	4468
584.321	4561
584.328	4612
584.376	4780
584.400	4359
584.431	3960
584.472	4471
584.486	4502
584.541	3547
584.545	3579
584.596	4665
584.617	4713
584.651	4815
584.689	5039
584.706	4912
584.761	4833
584.762	4828
584.816	4870
584.834	5017
584.871	5151
584.906	5161
584.926	5071
584.978	4886
584.980	4896
585.035	5873
585.051	5925
585.090	5921
585.123	6396
585.145	6732
585.195	7336
585.200	7473
585.254	9743
585.267	10833
585.309	15326
585.340	20453
585.364	22562
585.412	12445
585.419	11010
585.473	6893
585.484	6476
585.528	6132
585.556	6208
585.583	6774
585.628	7953
585.637	8243
585.692	11832
585.700	12462
585.747	14967
585.772	13407
585.801	10628
585.845	7082
585.856	6512
585.910	6199
585.917	6121
585.965	5517
585.989	5589
586.019	6162
586.061	6588
586.074	6506
586.128	6090
586.133	6127
586.183	7128
586.205	7206
586.237	7027
586.277	6542
586.292	6418
586.346	6428
586.349	6456
586.401	6841
586.421	6892
586.455	7569
586.493	8684
586.509	9309
586.564	12342
586.565	12511
586.618	21951
586.637	22316
586.672	17849
586.709	10357
586.727	7799
586.781	7356
586.781	7358
586.835	6143
586.853	6238
586.889	6540
586.925	6213
586.944	6049
586.996	6659
586.998	6686
587.052	6906
587.068	7168
587.106	7614
587.140	7279
587.161	7157
587.212	7797
587.215	7799
587.269	7429
587.284	7262
587.323	7459
587.356	7579
587.377	7534
587.427	7987
587.431	8027
587.485	8200
587.499	8192
587.539	7905
587.571	7855
587.593	8283
587.643	9745
587.648	9790
587.702	9385
587.715	9330
587.755	9657
587.786	9789
587.810	9833
587.858	10512
587.864	10648
587.917	11515
587.930	11776
587.971	12556
588.001	13400
588.025	14152
588.073	14640
588.079	14711
588.133	16203
588.145	16493
588.187	18009
588.217	19335
588.241	20829
588.288	24069
588.295	24542
588.348	28542
588.360	29448
588.402	33395
588.431	36595
588.456	39415
588.503	45292
588.510	46318
588.564	55436
588.575	57679
588.617	66603
588.646	72616
588.671	80184
588.718	97166
588.725	102312
588.778	148879
588.789	161165
588.832	271721
588.861	359719
588.886	508508
588.932	831637
588.939	855220
588.993	987659
589.004	978515
589.047	596067
589.075	349789
589.100	251829
589.147	125528
589.154	119939
589.207	92063
589.218	87339
589.261	84338
589.290	84052
589.314	88898
589.361	101764
589.368	107918
589.421	166684
589.433	182099
589.475	344028
589.504	473809
589.528	605575
589.576	872856
589.582	847853
589.635	471274
589.647	389614
589.689	194660
589.718	86638
589.742	69101
589.790	43433
589.795	42360
589.849	35067
589.861	33815
589.902	31476
589.932	29149
589.955	25841
590.004	18558
590.009	18275
590.062	16533
590.075	16101
590.115	14768
590.146	13737
590.168	13596
590.218	13514
590.222	13454
590.275	12537
590.289	12325
590.328	12428
590.360	12090
590.381	11687
590.431	11388
590.435	11363
590.488	10559
590.503	10329
590.541	10451
590.574	10652
590.594	10763
590.645	10937
590.647	10933
590.700	10489
590.716	10322
590.753	10053
590.787	9839
590.806	9568
590.859	9010
590.859	9021
590.912	9219
590.930	9327
590.965	8877
591.001	8328
591.018	8567
591.071	9408
591.072	9406
591.124	9334
591.143	9244
591.177	8891
591.214	8565
591.230	8675
591.283	9222
591.285	9232
591.336	10376
591.356	10859
591.389	10518
591.427	9911
591.442	9758
591.495	9329
591.498	9285
591.547	8323
591.569	7911
591.600	8256
591.640	8661
591.653	8565
591.706	8187
591.711	8139
591.759	9052
591.782	9577
591.811	10047
591.853	10669
591.864	10508
591.917	9497
591.924	9357
591.969	8787
591.995	8460
592.022	8654
592.066	8992
592.075	9212
592.127	10551
592.137	10803
592.180	11997
592.208	12718
592.233	11474
592.279	9029
592.285	9041
592.338	9210
592.350	9248
592.390	8742
592.421	8366
592.443	8397
592.491	8429
592.495	8424
592.548	8321
592.562	8294
592.600	8352
592.633	8401
592.653	8130
592.704	7402
592.705	7464
592.775	8496
592.846	8776
592.916	9166
592.987	8863
593.058	8776
593.128	7385
593.199	8135
593.270	8011
593.341	7619
593.411	7170
593.482	7334
593.553	8196
593.623	7433
593.694	7839
593.764	8330
593.835	7998
593.906	7779
593.976	7365
594.047	8654
594.117	10350
594.188	10079
594.258	6644
594.329	7493
594.399	6479
594.470	7730
594.540	6952
594.611	7300
594.681	6802
594.751	7720
594.822	9108
594.892	8884
594.963	7790
595.033	8881
595.103	8542
595.174	9065
595.244	13770
595.314	16826
595.384	8780
595.455	7528
595.525	7512
595.595	7392
595.665	8074
595.736	7912
595.806	6891
595.876	7995
595.946	7577
596.016	6768
596.087	6936
596.157	7241
596.227	6513
596.297	7782
596.367	7955
596.437	9838
596.507	13319
596.577	15155
596.647	8423
596.717	7105
596.787	7248
596.857	8250
596.927	7136
596.997	8266
597.067	8623
597.137	13424
597.207	9309
597.277	7460
597.347	7330
597.417	7099
597.487	7838
597.557	9109
597.626	8402
597.696	9366
597.766	10408
597.836	15056
597.906	8355
597.975	7431
598.045	6750
598.115	7910
598.185	7292
598.254	8722
598.324	8468
598.394	8291
598.464	7332
598.533	8008
598.603	6844
598.672	8450
598.742	6912
598.812	7311
598.881	6701
598.951	7496
599.020	7175
599.090	6999
599.159	6480
599.229	7418
599.299	6442
599.368	6828
599.437	7300
599.507	7733
599.576	7685
599.646	10755
599.715	11544
599.785	7396
599.854	7307
599.924	9449
599.993	7881
600.062	7464
600.132	6422
600.201	7828
600.270	7867
600.340	7237
600.409	6784
600.478	6836
600.547	6951
600.617	7070
600.686	6933
600.755	7089
600.824	7250
600.894	7998
600.963	6443
601.032	7835
601.101	6534
601.170	7231
601.239	6264
601.308	7265
601.378	5941
601.447	7323
601.516	6562
601.585	6877
601.654	6846
601.723	7215
601.792	7522
601.861	9381
601.930	12771
601.999	9395
602.068	6347
602.137	7212
602.206	5812
602.275	7748
602.343	7411
602.412	8317
602.481	5437
602.550	6713
602.619	6453
602.688	7554
602.756	6658
602.825	7375
602.894	6465
602.963	6883
603.032	6414
603.100	5952
603.169	6528
603.238	5805
603.307	6252
603.375	6457
603.444	5945
603.513	6777
603.581	6135
603.650	7093
603.719	5354
603.787	5865
603.856	6412
603.924	6759
603.993	6090
604.061	6022
604.130	6729
604.198	6473
604.267	6262
604.335	6638
604.404	6004
604.472	6725
604.541	6084
604.609	6871
604.678	6066
604.746	6073
604.815	5867
604.883	6499
604.951	6533
605.020	6377
605.088	6265
605.156	6364
605.225	6152
605.293	6654
605.361	5658
605.429	6407
605.498	7028
605.566	6532
605.634	6385
605.702	7251
605.771	5999
605.839	6455
605.907	6284
605.975	6643
606.043	6953
606.111	6413
606.180	7880
606.248	13859
606.316	14467
606.384	7761
606.452	9183
606.520	8944
606.588	6847
606.656	5659
606.724	5232
606.792	5737
606.860	6031
606.928	5545
606.996	5301
607.064	5598
607.132	4483
607.200	5207
607.267	4876
607.335	3880
607.403	5178
607.471	5420
607.539	4437
607.607	6163
607.674	4594
607.742	5906
607.810	6037
607.878	6289
607.946	4531
608.013	5585
608.081	5479
608.149	5928
608.216	5055
608.284	7198
608.352	5447
608.419	5871
608.487	9799
608.555	5965
608.622	5063
608.690	5804
608.757	4661
608.825	6259
608.893	5478
608.960	6772
609.028	7606
609.095	10261
609.163	5631
609.230	5175
609.298	5823
609.365	6043
609.432	5420
609.500	6290
609.567	5323
609.635	6541
609.702	5879
609.769	7173
609.837	6962
609.904	6020
609.971	4758
610.039	6976
610.106	7237
610.173	10979
610.241	22811
610.308	22822
610.375	14237
610.442	6281
610.509	4378
610.577	6423
610.644	6074
610.711	5291
610.778	5741
610.845	5986
610.912	6830
610.980	12589
611.047	23151
611.114	12269
611.181	5412
611.248	4128
611.315	6580
611.382	5103
611.449	5624
611.516	6156
611.583	5962
611.650	4883
611.717	6044
611.784	5773
611.851	5449
611.918	7150
611.984	6139
612.051	10356
612.118	17358
612.185	39161
612.252	22651
612.319	7068
612.386	6702
612.452	6594
612.519	7400
612.586	11551
612.653	7376
612.719	6605
612.786	4806
612.853	5489
612.919	4745
612.986	6208
613.053	4380
613.120	4665
613.186	4025
613.253	6489
613.319	4377
613.386	4712
613.453	4813
613.519	7309
613.586	7651
613.652	13164
613.719	9768
613.785	9318
613.852	7216
613.918	8277
613.985	16431
614.051	40979
614.118	115653
614.184	97243
614.250	12774
614.317	7243
614.383	5767
614.449	5804
614.516	5138
614.582	6318
614.648	4664
614.715	5813
614.781	4861
614.847	5913
614.914	4897
614.980	5442
615.046	5794
615.112	5143
615.179	5192
615.245	4897
615.311	5111
615.377	7225
615.443	6576
615.509	6429
615.575	5713
615.642	6012
615.708	5840
615.774	6240
615.840	6805
615.906	8192
615.972	10368
616.038	15899
616.104	27299
616.170	58201
616.236	39268
616.302	12547
616.368	7513
616.434	6957
616.500	7128
616.565	7338
616.631	8557
616.697	6327
616.763	7063
616.829	8429
616.895	12616
616.961	12152
617.026	7891
617.092	5634
617.158	6064
617.224	6841
617.289	5634
617.355	5788
617.421	6067
617.487	7494
617.552	5992
617.618	5811
617.684	4526
617.749	8058
617.815	5069
617.880	5567
617.946	5744
618.012	6327
618.077	4925
618.143	6651
618.208	6282
618.274	6668
618.339	6760
618.405	5155
618.470	6555
618.536	6938
618.601	6891
618.667	6808
618.732	5739
618.798	6504
618.863	6095
618.928	5956
618.994	6767
619.059	9048
619.124	10905
619.190	8654
619.255	6091
619.320	7287
619.386	5375
619.451	5676
619.516	6101
619.581	6333
619.647	6006
619.712	5819
619.777	5562
619.842	6233
619.907	5904
619.972	6318
620.038	6185
620.103	5787
620.168	4542
620.233	6577
620.298	5308
620.363	6247
620.428	6056
620.493	5701
620.558	5624
620.623	6197
620.688	5392
620.753	5300
620.818	4444
620.883	6325
620.948	5077
621.013	5870
621.078	5415
621.143	5438
621.207	7974
621.272	7019
621.337	6704
621.402	8012
621.467	9791
621.532	10897
621.596	7907
621.661	7732
621.726	6286
621.791	7379
621.855	7326
621.920	8235
621.985	8000
622.049	10707
622.114	8282
622.179	7982
622.243	8304
622.308	7199
622.373	9324
622.437	8672
622.502	6335
622.566	7453
622.631	6759
622.695	8400
622.760	8281
622.824	7652
622.889	8093
622.953	9337
623.018	12876
623.082	12723
623.147	7454
623.211	8384
623.276	7491
623.340	6407
623.404	6942
623.469	7519
623.533	8012
623.597	6790
623.662	6570
623.726	7007
623.790	6739
623.854	7976
623.919	7325
623.983	6361
624.047	6564
624.111	6247
624.176	5863
624.240	6829
624.304	9164
624.368	6838
624.432	6379
624.496	7970
624.560	7662
624.625	7800
624.689	7443
624.753	6431
624.817	5845
624.881	5104
624.945	6504
625.009	6476
625.073	6402
625.137	7721
625.201	9156
625.265	8674
625.329	5827
625.393	7468
625.456	7069
625.520	7980
625.584	7993
625.648	10329
625.712	17900
625.776	42259
625.839	45171
625.903	15538
625.967	8547
626.031	17545
626.095	23836
626.158	8535
626.222	4282
626.286	6755
626.349	5328
626.413	5117
626.477	6581
626.540	5101
626.604	4759
626.668	6482
626.731	6087
626.795	6286
626.858	6054
626.922	5111
626.986	6786
627.049	4804
627.113	5285
627.176	5528
627.240	5363
627.303	5144
627.366	5407
627.430	5222
627.493	5127
627.557	4752
627.620	5986
627.684	4955
627.747	5082
627.810	3613
627.874	5181
627.937	4129
628.000	6253
628.064	5699
628.127	3259
628.190	5169
628.253	4635
628.317	4778
628.380	4651
628.443	5352
628.506	4971
628.569	5248
628.632	3896
628.696	5003
628.759	3408
628.822	4733
628.885	4188
628.948	5025
629.011	4327
629.074	4928
629.137	4007
629.200	4125
629.263	5629
629.326	3641
629.389	3987
629.452	4630
629.515	4987
629.578	4270
629.641	5307
629.704	3713
629.767	4115
629.830	4303
629.892	3708
629.955	3931
630.018	5693
630.081	4676
630.144	6871
630.207	4005
630.269	5826
630.332	5211
630.395	3893
630.458	4348
630.520	2355
630.583	5258
630.646	4258
630.708	2776
630.771	2681
630.834	4569
630.896	3013
630.959	4271
631.021	2612
631.084	3806
631.146	3718
631.209	5746
631.272	3074
631.334	4076
631.397	2827
631.459	3438
631.522	2983
631.584	3700
631.646	3451
631.709	4448
631.771	4287
631.834	3658
631.896	3695
631.958	3607
632.021	4633
632.083	2065
632.145	2844
632.208	3375
632.270	4210
632.332	2244
632.395	1836
632.457	4693
632.519	2810
632.581	5050
632.643	2781
632.706	4186
632.768	1578
632.830	4012
632.892	2988
632.954	2651
633.016	4082
633.078	3447
633.141	2862
633.203	2385
633.265	3640
633.327	3950
633.389	2608
633.451	4576
633.513	4170
633.575	5390
633.637	3596
633.698	3600
633.760	3436
633.822	3447
633.884	3219
633.946	3878
634.008	2385
634.070	5142
634.132	7349
634.193	4559
634.255	3317
634.317	2481
634.379	2731
634.441	2761
634.502	2646
634.564	3583
634.626	2582
634.687	3938
634.749	3024
634.811	3298
634.873	2535
634.934	3090
634.996	3371
635.057	1836
635.119	1537
635.181	3481
635.242	2720
635.304	860
635.365	3311
635.427	1537
635.488	2488
635.550	2362
635.611	2846
635.673	1248
635.734	3663
635.796	3018
635.857	3304
635.918	1836
635.980	3044
636.041	2074
636.102	2978
636.164	3078
636.225	2694
636.286	598
636.348	3418
636.409	3365
636.470	2122
636.531	3678
636.593	3437
636.654	3597
636.715	2171
636.776	2815
636.838	1491
636.899	2811
636.960	1928
637.021	2012
637.082	2096
637.143	3516
637.204	1077
637.265	1881
637.326	1749
637.387	3080
637.448	1033
637.509	2588
637.570	1393
637.631	3650
637.692	815
637.753	753
637.814	2111
637.875	2058
637.936	2781
637.997	2567
638.058	2002
638.119	2976
638.179	1795
638.240	2322
638.301	2100
638.362	1791
638.423	1998
638.483	3052
638.544	870
638.605	2833
638.666	1076
638.726	2629
638.787	2491
638.848	1911
638.908	1538
638.969	3015
639.030	2296
639.090	536
639.151	1076
639.211	2933
639.272	3241
639.332	5356
639.393	2537
639.453	1085
639.514	1919
639.574	2650
639.635	1091
639.695	3166
639.756	621
639.816	2284
639.877	2344
639.937	7009
639.997	7197
640.058	2119
640.118	1075
640.178	3231
640.239	1368
640.299	1870
640.359	1050
640.420	1606
640.480	1532
640.540	2045
640.600	982
640.661	2158
640.721	1329
640.781	3566
640.841	588
640.901	2351
640.961	3099
641.021	3213
641.082	1844
641.142	4479
641.202	3275
641.262	196
641.322	1454
641.382	849
641.442	1925
641.502	1614
641.562	1926
641.622	1123
641.682	1106
641.742	1702
641.802	1003
641.861	2707
641.921	1727
641.981	3232
642.041	3285
642.101	2920
642.161	345
642.221	2518
642.280	1368
642.340	1517
642.400	538
642.460	3020
642.519	571
642.579	1540
642.639	2020
642.698	-310
642.758	3384
642.818	2780
642.877	154
642.937	1852
642.997	2285
643.056	4110
643.116	455
643.175	3309
643.235	1140
643.294	1189
643.354	1565
643.414	2113
643.473	2448
643.532	1007
643.592	1017
643.651	3850
643.711	4831
643.770	9182
643.830	18809
643.889	37288
643.948	7727
644.008	2933
644.067	1017
644.126	1230
644.186	1563
644.245	2502
644.304	300
644.363	2722
644.423	-284
644.482	1438
644.541	1147
644.600	-1070
644.659	1405
644.719	647
644.778	1102
644.837	2066
644.896	4477
644.955	7536
645.014	3771
645.073	4995
645.132	808
645.191	2179
645.250	794
645.309	2576
645.368	278
645.427	1663
645.486	609
645.545	2585
645.604	761
645.663	1549
645.722	853
645.781	1666
645.840	2516
645.898	1514
645.957	2408
646.016	1138
646.075	3603
646.134	6893
646.192	16389
646.251	22076
646.310	1846
646.369	1848
646.427	1767
646.486	-24
646.545	-154
646.603	1518
646.662	2212
646.721	1561
646.779	1462
646.838	83
646.896	907
646.955	1262
647.014	1439
647.072	1245
647.131	3620
647.189	2219
647.248	785
647.306	1438
647.365	1712
647.423	-459
647.481	2194
647.540	347
647.598	874
647.657	161
647.715	1644
647.773	616
647.832	1701
647.890	-1
647.948	547
648.007	2549
648.065	-211
648.123	1167
648.181	3077
648.240	5616
648.298	3087
648.356	1608
648.414	1561
648.472	1084
648.531	799
648.589	1446
648.647	-68
648.705	1164
648.763	249
648.821	1435
648.879	672
648.937	1273
648.995	806
649.053	870
649.111	1451
649.169	2559
649.227	3802
649.285	6070
649.343	13225
649.401	10036
649.459	11435
649.516	12497
649.574	17063
649.632	50555
649.690	53540
649.748	10911
649.806	11754
649.863	17733
649.921	5293
649.979	2005
650.037	1398
650.094	255
650.152	1087
650.210	244
650.268	968
650.325	1560
650.383	-407
650.440	-15
650.498	977
650.556	1297
650.613	-331
650.671	1000
650.728	1174
650.786	1680
650.843	936
650.901	206
650.958	1564
651.016	130
651.073	-54
651.131	385
651.188	-409
651.246	785
651.303	-80
651.360	710
651.418	-37
651.475	1080
651.532	-618
651.590	1017
651.647	-200
651.704	1041
651.762	348
651.819	1132
651.876	83
651.933	727
651.990	712
652.048	-693
652.105	307
652.162	728
652.219	715
652.276	614
652.333	905
652.390	183
652.448	1382
652.505	1005
652.562	1502
652.619	2725
652.676	6913
652.733	7268
652.790	1017
652.847	-206
652.904	1697
652.961	5
653.017	-484
653.074	1218
653.131	81
653.188	-141
653.245	273
653.302	934
653.359	77
653.415	546
653.472	-449
653.529	1415
653.586	-194
653.642	316
653.699	695
653.756	82
653.813	718
653.869	1353
653.926	-451
653.983	-236
654.039	459
654.096	409
654.152	1760
654.209	476
654.266	715
654.322	-127
654.379	711
654.435	977
654.492	546
654.548	1935
654.605	2567
654.661	1677
654.717	150
654.774	1058
654.830	925
654.887	789
654.943	-279
655.000	1186
655.056	377
655.112	1224
655.168	-212
655.225	1550
655.281	237
655.337	1354
655.394	2053
655.450	1681
655.506	1593
655.562	3033
655.618	3372
655.675	426
655.731	438
655.787	256
655.843	1561
655.899	91
655.955	796
656.011	579
656.067	-711
656.123	1459
656.179	400
656.235	2695
656.291	-487
656.347	1505
656.403	647
656.459	145
656.515	70
656.571	966
656.627	-4
656.683	1056
656.739	752
656.795	574
656.850	328
656.906	1053
656.962	942
657.018	-406
657.074	288
657.129	451
657.185	349
657.241	1206
657.297	11
657.352	433
657.408	34
657.464	1744
657.519	-61
657.575	-201
657.630	-321
657.686	1280
657.742	-244
657.797	483
657.853	644
657.908	2058
657.964	-487
658.019	1150
658.075	887
658.130	727
658.186	-933
658.241	1270
658.297	-310
658.352	-549
658.407	298
658.463	388
658.518	359
658.573	1052
658.629	-507
658.684	175
658.739	181
658.795	-567
658.850	760
658.905	-503
658.960	-142
659.016	-240
659.071	233
659.126	890
659.181	47
659.236	3080
659.291	1960
659.346	1936
659.401	1388
659.457	3451
659.512	5240
659.567	3408
659.622	67
659.677	230
659.732	-401
659.787	716
659.842	544
659.897	1806
659.952	450
660.007	438
660.061	-362
660.116	4
660.171	150
660.226	-124
660.281	491
660.336	-652
660.391	490
660.445	-195
660.500	-307
660.555	1183
660.610	219
660.664	337
660.719	-691
660.774	462
660.828	81
660.883	1236
660.938	108
660.992	-787
661.047	267
661.101	-23
661.156	-1225
661.211	-46
661.265	-189
661.320	58
661.374	161
661.429	-492
661.483	-72
661.538	-316
661.592	-173
661.647	594
661.701	244
661.755	5
661.810	-63
661.864	118
661.919	-221
661.973	835
662.027	115
662.081	-133
662.136	-543
662.190	882
662.244	-110
662.299	935
662.353	-187
662.407	63
662.461	-291
662.515	1325
662.569	-100
662.624	1131
662.678	-13
662.732	481
662.786	506
662.840	604
662.894	89
662.948	-178
663.002	-166
663.056	832
663.110	-233
663.164	402
663.218	-32
663.272	1114
663.326	293
663.380	433
663.434	-280
663.488	-336
663.542	12
663.595	609
663.649	589
663.703	1004
663.757	-82
663.811	60
663.864	-49
663.918	231
663.972	128
664.026	443
664.079	555
664.133	350
664.187	-419
664.240	-105
664.294	-166
664.348	424
664.401	-407
664.455	413
664.508	-520
664.562	689
664.615	163
664.669	-49
664.722	-482
664.776	359
664.829	298
664.883	-348
664.936	200
664.990	389
665.043	314
665.097	1379
665.150	743
665.203	848
665.257	291
665.310	826
665.363	639
665.417	218
665.470	161
665.523	825
665.576	867
665.630	409
665.683	-237
665.736	520
665.789	-451
665.842	-143
665.895	872
665.949	468
666.002	-320
666.055	864
666.108	648
666.161	781
666.214	375
666.267	747
666.320	703
666.373	524
666.426	-575
666.479	705
666.532	294
666.585	1057
666.638	618
666.691	392
666.744	562
666.796	296
666.849	321
666.902	1247
666.955	767
667.008	138
667.060	113
667.113	433
667.166	-42
667.219	656
667.271	-319
667.324	961
667.377	856
667.430	1135
667.482	1789
667.535	1359
667.587	661
667.640	96
667.693	65
667.745	2004
667.798	1172
667.850	934
667.903	904
667.955	-374
668.008	422
668.060	-241
668.113	-60
668.165	1367
668.218	229
668.270	624
668.322	545
668.375	-571
668.427	559
668.479	425
668.532	573
668.584	424
668.636	-543
668.689	457
668.741	-603
668.793	437
668.845	-123
668.898	1273
668.950	129
669.002	439
669.054	-483
669.106	652
669.158	187
669.211	1375
669.263	1013
669.315	1767
669.367	2481
669.419	1022
669.471	193
669.523	296
669.575	958
669.627	600
669.679	-29
669.731	597
669.783	677
669.835	1222
669.886	-312
669.938	52
669.990	-455
670.042	414
670.094	-313
670.146	448
670.197	37
670.249	1853
670.301	763
670.353	2358
670.404	3160
670.456	4792
670.508	8621
670.560	14935
670.611	26921
670.663	49579
670.715	127955
670.766	179207
670.818	38474
670.869	6777
670.921	2376
670.972	2931
671.024	1242
671.075	805
671.127	826
671.178	-322
671.230	1408
671.281	763
671.333	256
671.384	428
671.436	514
671.487	1553
671.538	128
671.590	999
671.641	1096
671.692	1125
671.744	1926
671.795	1600
671.846	211
671.897	1020
671.949	0
672.000	642
672.051	444
672.102	1541
672.153	72
672.204	525
672.256	-8
672.307	686
672.358	322
672.409	307
672.460	1037
672.511	-144
672.562	-818
672.613	147
672.664	-15
672.715	1191
672.766	-258
672.817	-99
672.868	-426
672.919	980
672.970	-867
673.021	148
673.071	-291
673.122	323
673.173	-401
673.224	49
673.275	-329
673.326	-15
673.376	22
673.427	160
673.478	-16
673.528	1115
673.579	160
673.630	26
673.680	1334
673.731	176
673.782	-1452
673.832	477
673.883	350
673.934	-270
673.984	-20
674.035	42
674.085	593
674.136	810
674.186	164
674.237	1154
674.287	730
674.338	292
674.388	419
674.438	-52
674.489	-922
674.539	117
674.589	-274
674.640	329
674.690	-359
674.740	714
674.791	330
674.841	-42
674.891	73
674.942	247
674.992	-677
675.042	130
675.092	300
675.142	-776
675.193	-44
675.243	-196
675.293	-689
675.343	95
675.393	-633
675.443	748
675.493	18
675.543	-422
675.593	-667
675.643	-376
675.693	-379
675.743	139
675.793	-713
675.843	-116
675.893	108
675.943	593
675.993	-436
676.043	553
676.093	-348
676.142	-575
676.192	252
676.242	523
676.292	-787
676.341	614
676.391	-188
676.441	-777
676.491	-816
676.540	-547
676.590	270
676.640	-423
676.689	-300
676.739	54
676.789	-554
676.838	-102
676.888	-708
676.937	-423
676.987	-572
677.037	-392
677.086	-1819
677.136	11
677.185	-1020
677.235	-647
677.284	-422
677.333	-23
677.383	-1155
677.432	-120
677.482	-1148
677.531	-286
677.580	-311
677.630	33
677.679	-1118
677.728	273
677.778	-954
677.827	-380
677.876	-590
677.925	-388
677.975	-677
678.024	467
678.073	-81
678.122	-6
678.171	-645
678.220	-351
678.269	-85
678.319	-352
678.368	-444
678.417	171
678.466	171
678.515	-696
678.564	-702
678.613	-385
678.662	-682
678.711	903
678.760	-243
678.809	-444
678.857	-442
678.906	296
678.955	-580
679.004	398
679.053	-1076
679.102	-359
679.151	-1440
679.199	321
679.248	315
679.297	-188
679.346	-748
679.394	-369
679.443	-630
679.492	-244
679.540	-816
679.589	-94
679.638	-822
679.686	-202
679.735	-975
679.784	-411
679.832	-409
679.881	-742
679.929	-1028
679.978	-1001
680.026	-619
680.075	298
680.123	-709
680.172	79
680.220	-979
680.268	131
680.317	-929
680.365	-30
680.414	-960
680.462	-218
680.510	-183
680.559	8
680.607	-768
680.655	-52
680.703	-899
680.752	-510
680.800	-1262
680.848	-779
680.896	-886
680.945	-593
680.993	-988
681.041	84
681.089	-1170
681.137	80
681.185	-1067
681.233	-174
681.258	-209
681.281	-274
681.329	-72
681.377	-1060
681.380	-971
681.425	73
681.473	125
681.502	211
681.521	213
681.569	-646
681.617	886
681.624	774
681.665	-180
681.713	409
681.745	328
681.761	241
681.809	349
681.857	745
681.867	760
681.904	693
681.952	-804
681.989	-96
682.000	77
682.048	-425
682.096	441
682.111	313
682.143	-56
682.191	355
682.233	836
682.239	871
682.286	1298
682.334	240
682.354	471
682.382	739
682.430	957
682.476	1249
682.477	1229
682.525	689
682.572	1610
682.598	814
682.620	103
682.667	1055
682.715	509
682.720	670
682.763	1827
682.810	1127
682.841	1332
682.857	1412
682.905	881
682.952	1986
682.963	1925
683.000	1561
683.047	2056
683.085	2414
683.095	2479
683.142	2349
683.190	1730
683.206	1850
683.237	2050
683.284	1610
683.328	2463
683.332	2512
683.379	1700
683.426	2467
683.449	2002
683.473	1458
683.521	1914
683.568	1930
683.571	1961
683.615	2141
683.662	1381
683.693	2117
683.709	2486
683.757	2310
683.804	2978
683.814	2731
683.851	1817
683.898	3474
683.936	3322
683.945	3248
683.992	3785
684.039	3377
684.057	3619
684.086	4020
684.133	3274
684.179	3752
684.180	3741
684.227	3480
684.274	3790
684.300	3639
684.321	3526
684.368	3826
684.415	3944
684.422	3976
684.462	3958
684.509	3390
684.543	3622
684.556	3691
684.603	3262
684.649	3334
684.665	3237
684.696	3120
684.743	4369
684.786	3960
684.790	3926
684.837	4505
684.883	4179
684.908	4957
684.930	5490
684.977	4447
685.023	5522
685.029	5402
685.070	4331
685.117	4931
685.150	4564
685.164	4448
685.210	4689
685.257	4517
685.272	4992
685.303	5975
685.350	4862
685.393	5432
685.396	5472
685.443	5408
685.490	6505
685.514	6187
685.536	5702
685.583	6123
685.629	5295
685.636	5432
685.675	6396
685.722	6155
685.757	6188
685.768	6163
685.815	5981
685.861	5911
685.878	5974
685.908	6204
685.954	6607
686.000	7119
686.000	7129
686.047	8211
686.093	8839
686.121	9494
686.139	9185
686.185	7427
686.232	7519
686.242	7263
686.278	6808
686.324	6165
686.363	6268
686.370	6372
686.416	6477
686.463	7222
686.484	7468
686.509	7622
686.555	6846
686.601	7086
686.606	7132
686.647	7278
686.693	6547
686.727	6443
686.739	6476
686.785	7247
686.831	6721
686.848	6698
686.877	6458
686.923	6720
686.969	6447
686.969	6446
687.015	6294
687.061	6977
687.090	7015
687.107	6865
687.153	6814
687.199	6680
687.211	6521
687.245	6504
687.291	7418
687.332	7793
687.336	7798
687.382	7621
687.428	7357
687.453	7409
687.474	7294
687.520	7316
687.565	6538
687.574	6417
687.611	6387
687.657	6586
687.695	7495
687.702	7657
687.748	7401
687.794	7671
687.816	7754
687.839	7590
687.885	7220
687.931	6991
687.937	6903
687.976	6895
688.022	7071
688.058	7272
688.067	7289
688.113	7047
688.158	7435
688.179	7435
688.204	7546
688.249	7837
688.295	8194
688.300	8256
688.340	8666
688.386	8376
688.421	8511
688.431	8489
688.477	7962
688.522	8161
688.542	8010
688.567	8012
688.613	8803
688.658	8377
688.663	8328
688.703	7745
688.749	7984
688.784	8049
688.794	8119
688.839	7996
688.884	8017
688.905	8000
688.930	8084
688.975	8143
689.020	8505
689.026	8509
689.065	8351
689.110	7819
689.146	8278
689.155	8393
689.201	8069
689.246	7957
689.267	7728
689.291	7762
689.336	8620
689.381	8334
689.388	8460
689.426	8887
689.471	8384
689.509	9001
689.516	9111
689.561	8599
689.606	8494
689.630	8139
689.651	8033
689.696	8343
689.741	8856
689.750	8973
689.785	9068
689.830	8479
689.871	8232
689.875	8251
689.920	8403
689.965	8942
689.992	8624
690.010	8387
690.054	9014
690.099	8383
690.112	8503
690.144	8960
690.189	8709
690.233	8981
690.233	8995
690.278	8768
690.323	8989
690.354	8876
690.367	8986
690.412	9639
690.457	9323
690.474	9665
690.501	10126
690.546	10132
690.590	10818
690.595	10766
690.635	10837
690.680	11695
690.716	11935
690.724	12107
690.769	13320
690.813	14762
690.836	15107
690.857	16488
690.902	19517
690.946	23383
690.957	24124
690.991	31343
691.035	41627
691.077	50633
691.080	50641
691.124	48675
691.168	46869
691.198	45244
691.213	42473
691.257	35119
691.301	27203
691.318	23965
691.346	21857
691.390	18706
691.434	15474
691.439	15136
691.478	14699
691.522	13813
691.559	12811
691.567	12757
691.611	12490
691.655	12361
691.680	12205
691.699	12065
691.743	11903
691.787	11162
691.800	10929
691.831	11062
691.875	11974
691.919	12062
691.921	12057
691.964	12249
692.008	12208
692.041	12066
692.052	12062
692.096	11941
692.139	12119
692.162	12161
692.183	12078
692.227	11522
692.271	11504
692.282	11336
692.315	11364
692.359	12094
692.402	11824
692.403	11845
692.447	11895
692.490	11628
692.523	11995
692.534	12228
692.578	12180
692.622	12674
692.643	12630
692.666	12333
692.709	12061
692.753	11498
692.763	11469
692.797	11855
692.840	11589
692.884	12078
692.884	12110
692.928	12163
692.971	12622
693.004	12649
693.015	12556
693.059	12592
693.102	12299
693.124	12330
693.146	12888
693.189	13305
693.233	14037
693.245	14251
693.276	14754
693.320	15861
693.363	15810
693.365	15800
693.407	17292
693.450	18568
693.485	19666
693.493	20297
693.537	23380
693.580	26102
693.605	27976
693.624	31529
693.667	39415
693.710	47419
693.725	50174
693.753	65397
693.797	89188
693.840	112993
693.845	115558
693.883	110431
693.926	104796
693.966	99465
693.970	97696
694.013	77574
694.056	56782
694.086	42615
694.099	40780
694.142	34436
694.185	28184
694.206	25223
694.229	24508
694.272	22977
694.315	21031
694.326	20608
694.358	19864
694.401	18477
694.444	17125
694.446	17018
694.487	16584
694.530	16168
694.566	15674
694.573	15558
694.616	14564
694.659	13579
694.686	13080
694.702	13029
694.745	12321
694.787	12136
694.806	11882
694.830	11860
694.873	12019
694.916	11726
694.926	11725
694.959	12031
695.002	12009
695.044	12181
695.046	12166
695.087	12746
695.130	13066
695.166	13284
695.172	13283
695.215	13123
695.258	12784
695.286	12749
695.301	12797
695.343	12522
695.386	12564
695.406	12329
695.428	12042
695.471	11856
695.514	11261
695.526	11143
695.556	11438
695.599	11746
695.641	12255
695.646	12254
695.684	12150
695.726	12087
695.766	11764
695.769	11785
695.811	11904
695.854	11998
695.886	11947
695.896	11979
695.938	12011
695.981	12134
696.005	12003
696.023	11922
696.065	11930
696.108	11792
696.125	11795
696.150	12028
696.192	12087
696.235	12329
696.245	12289
696.277	12074
696.319	12116
696.361	11894
696.365	11856
696.404	12382
696.446	12708
696.485	13279
696.488	13314
696.530	12936
696.572	12752
696.604	12484
696.614	12408
696.656	12163
696.698	11775
696.724	11527
696.740	11672
696.783	11756
696.825	12058
696.844	12107
696.867	12009
696.909	11953
696.951	11642
696.964	11590
696.992	11621
697.034	11348
697.076	11285
697.083	11232
697.118	11602
697.160	12007
697.202	12270
697.203	12248
697.244	12071
697.286	11561
697.323	11249
697.327	11302
697.369	11397
697.411	11517
697.442	11523
697.453	11541
697.494	11543
697.536	11544
697.562	11571
697.578	11800
697.620	12089
697.661	12543
697.682	12719
697.703	12801
697.744	12834
697.786	12991
697.801	12958
697.828	13036
697.869	13149
697.911	13314
697.921	13292
697.952	13009
697.994	12702
698.035	12289
698.040	12213
698.077	12022
698.118	11681
698.160	11379
698.160	11343
698.201	11516
698.243	11744
698.279	11849
698.284	11911
698.325	12227
698.367	12457
698.399	12625
698.408	12510
698.449	11787
698.491	11138
698.518	10625
698.532	10749
698.573	11053
698.614	11364
698.638	11497
698.656	11584
698.697	11718
698.738	11864
698.757	11897
698.779	12046
698.820	12264
698.862	12468
698.877	12516
698.903	12902
698.944	13440
698.985	13998
698.996	14112
699.026	13761
699.067	13224
699.116	12547
699.235	11505
699.354	11691
699.474	12262
699.593	15583
699.713	13770
699.832	13115
699.951	14203
700.070	13074
700.190	11996
700.309	13913
700.428	14434
700.547	12896
700.667	12860
700.786	15031
700.905	13084
701.024	14156
701.143	11924
701.262	11119
701.381	10658
701.500	11735
701.619	12218
701.738	10637
701.857	10350
701.976	10671
702.095	10399
702.214	11877
702.333	12169
702.452	10188
702.571	10060
702.690	11225
702.809	10153
702.928	9783
703.047	10112
703.165	10459
703.284	10221
703.403	10250
703.522	13352
703.640	13023
703.759	16233
703.878	24012
703.997	11678
704.115	9790
704.234	10731
704.353	10180
704.471	9823
704.590	9438
704.708	8742
704.827	9604
704.946	9928
705.064	12908
705.183	10211
705.301	12779
705.420	19367
705.538	18830
705.656	18351
705.775	31899
705.893	105092
706.012	119801
706.130	18621
706.249	15075
706.367	14457
706.485	16817
706.604	15119
706.722	15190
706.840	18027
706.958	16657
707.077	13633
707.195	12782
707.313	12016
707.431	12864
707.549	11916
707.668	13113
707.786	12757
707.904	12234
708.022	11725
708.140	11232
708.258	11308
708.376	12397
708.494	11366
708.612	14277
708.730	19794
708.848	18526
708.966	16694
709.084	16397
709.202	14562
709.320	15878
709.438	15852
709.556	15429
709.674	14613
709.791	14204
709.909	14007
710.027	14820
710.145	14016
710.263	15252
710.380	15113
710.498	14423
710.616	14092
710.733	15100
710.851	15286
710.969	16757
711.086	15316
711.204	14720
711.322	14487
711.439	14385
711.557	15715
711.674	16070
711.792	17100
711.909	26255
712.027	31639
712.144	14734
712.262	13691
712.379	16875
712.497	21702
712.614	21722
712.732	17862
712.849	16968
712.966	19791
713.084	23164
713.201	18500
713.318	18138
713.436	16107
713.553	17162
713.670	17604
713.787	20707
713.905	20636
714.022	17278
714.139	15335
714.256	17748
714.373	17711
714.490	19009
714.608	23223
714.725	57701
714.842	50812
714.959	16245
715.076	15052
715.193	14852
715.310	14585
715.427	15049
715.544	13631
715.661	14241
715.778	15398
715.895	16804
716.011	15797
716.128	15155
716.245	14634
716.362	17435
716.479	16946
716.596	15135
716.713	14006
716.829	13711
716.946	13863
717.063	12675
717.180	13779
717.296	12693
717.413	13299
717.530	12429
717.646	11845
717.763	12785
717.880	11568
717.996	12500
718.113	12057
718.229	12547
718.346	11219
718.462	13072
718.579	16472
718.695	26052
718.812	21384
718.928	22335
719.045	13913
719.161	12658
719.277	11325
719.394	12968
719.510	15388
719.626	11922
719.743	14276
719.859	12011
719.975	12492
720.092	20109
720.208	30604
720.324	13705
720.440	11497
720.557	14422
720.673	22496
720.789	36574
720.905	85953
721.021	22230
721.137	11667
721.253	12110
721.369	12882
721.486	15630
721.602	23921
721.718	11535
721.834	10046
721.950	11160
722.066	10284
722.181	9696
722.297	11172
722.413	10130
722.529	9226
722.645	11096
722.761	10323
722.877	10014
722.993	9486
723.108	9901
723.224	9615
723.340	9654
723.456	9295
723.571	10501
723.687	8255
723.803	9412
723.918	8794
724.034	10084
724.150	8905
724.265	12656
724.381	30864
724.497	35890
724.612	8973
724.728	8937
724.843	9274
724.959	13087
725.074	30686
725.190	31299
725.305	11019
725.421	9277
725.536	6894
725.651	7275
725.767	7065
725.882	8155
725.997	7358
726.113	8619
726.228	7727
726.343	8112
726.459	6175
726.574	8788
726.689	7341
726.804	8131
726.920	7592
727.035	8328
727.150	8723
727.265	8508
727.380	9078
727.495	8017
727.610	7615
727.725	11216
727.841	19546
727.956	65066
728.071	36299
728.186	8569
728.301	6626
728.416	7984
728.531	6785
728.645	6361
728.760	7864
728.875	8815
728.990	8440
729.105	8052
729.220	7841
729.335	7311
729.449	6164
729.564	6502
729.679	5714
729.794	5871
729.908	8080
730.023	7369
730.138	5727
730.253	5985
730.367	5493
730.482	5426
730.596	6621
730.711	6484
730.826	6192
730.940	5600
731.055	6422
731.169	5954
731.284	5474
731.398	5829
731.513	8253
731.627	7389
731.742	8726
731.856	8638
731.970	4594
732.085	6304
732.199	4983
732.313	7116
732.428	7776
732.542	13946
732.656	9480
732.771	6228
732.885	5542
732.999	5448
733.113	6024
733.227	6380
733.342	4912
733.456	5366
733.570	3730
733.684	5143
733.798	5212
733.912	4986
734.026	4063
734.140	5426
734.254	6619
734.368	15360
734.482	18099
734.596	4621
734.710	3937
734.824	5107
734.938	3960
735.052	4528
735.166	7084
735.280	5979
735.393	4520
735.507	5607
735.621	8354
735.735	19599
735.849	6526
735.962	4125
736.076	5742
736.190	5798
736.303	10244
736.417	12981
736.531	4616
736.644	5587
736.758	3627
736.872	4052
736.985	4097
737.099	3419
737.212	3309
737.326	4365
737.439	3907
737.553	4840
737.666	4357
737.780	4208
737.893	3682
738.007	3832
738.120	2771
738.233	4492
738.347	3781
738.460	4164
738.573	4247
738.687	4925
738.800	3265
738.913	6718
739.026	5824
739.140	7958
739.253	7934
739.366	4387
739.479	3994
739.592	3365
739.705	3367
739.818	3249
739.932	4088
740.045	3880
740.158	3826
740.271	3964
740.384	3888
740.497	3808
740.610	5437
740.723	4393
740.836	5009
740.949	5316
741.062	5611
741.174	5721
741.287	4283
741.400	3438
741.513	4699
741.626	5470
741.739	5004
741.851	4178
741.964	3826
742.077	4246
742.189	4434
742.302	5930
742.415	5117
742.527	3954
742.640	4273
742.753	3433
742.865	3148
742.978	3005
743.090	3121
743.203	3744
743.316	3137
743.428	3124
743.541	2322
743.653	4157
743.766	3517
743.878	3578
743.990	6808
744.103	5740
744.215	3066
744.327	4090
744.440	5028
744.552	8265
744.664	3544
744.777	3691
744.889	2393
745.001	3071
745.113	3371
745.226	2951
745.338	2678
745.450	3103
745.562	3066
745.674	2713
745.786	4058
745.898	4276
746.010	3588
746.122	3075
746.234	3367
746.347	3227
746.459	3169
746.570	3144
746.682	2812
746.794	4767
746.906	3418
747.018	3646
747.130	3574
747.242	3028
747.354	2994
747.466	3562
747.577	2436
747.689	3217
747.801	2699
747.913	2733
748.024	1793
748.136	2506
748.248	2983
748.359	2519
748.471	2813
748.583	4120
748.694	6301
748.806	10244
748.918	6854
749.029	5122
749.141	2843
749.252	4205
749.364	4774
749.475	10031
749.587	6123
749.698	2611
749.809	3060
749.921	2493
750.032	2144
750.144	2098
750.255	2103
750.366	2288
750.478	2156
750.589	3472
750.700	2730
750.811	3829
750.923	4475
751.034	10424
751.145	9950
751.256	2822
751.367	2196
751.479	2960
751.590	2209
751.701	3044
751.812	2546
751.923	2793
752.034	1988
752.145	2700
752.256	2181
752.367	3035
752.478	2447
752.589	2523
752.700	1942
752.811	1887
752.922	2490
753.032	3248
753.143	2826
753.254	2004
753.365	1993
753.476	2727
753.586	2695
753.697	1498
753.808	2390
753.919	2213
754.029	2615
754.140	3071
754.251	1756
754.361	2363
754.472	2474
754.582	1753
754.693	1988
754.804	3494
754.914	1449
755.025	2807
755.135	2279
755.246	2853
755.356	1551
755.466	2743
755.577	2787
755.687	2787
755.798	1929
755.908	2338
756.018	2527
756.129	1698
756.239	2179
756.349	2491
756.460	2157
756.570	2988
756.680	2923
756.790	3483
756.900	3903
757.011	3000
757.121	2859
757.231	2535
757.341	2004
757.451	2502
757.561	1943
757.671	2367
757.781	1780
757.891	3829
758.001	3348
758.111	3597
758.221	3150
758.331	3726
758.441	3884
758.551	5490
758.661	4995
758.771	3421
758.880	3313
758.990	3760
759.100	3120
759.210	3559
759.320	2709
759.429	3358
759.539	3132
759.649	3475
759.758	3708
759.868	3968
759.978	2606
760.087	3664
760.197	3132
760.307	3895
760.416	2889
760.526	3536
760.635	4051
760.745	4423
760.854	3455
760.964	5107
761.073	4427
761.182	4112
761.292	4239
761.401	5002
761.511	4003
761.620	5177
761.729	4021
761.839	5691
761.948	5593
762.057	5847
762.166	5720
762.276	5371
762.385	5975
762.494	6313
762.603	4944
762.712	6190
762.822	5203
762.931	5985
763.040	5714
763.149	6347
763.258	6419
763.367	6891
763.476	7112
763.585	8712
763.694	9104
763.803	9112
763.912	10367
764.021	10351
764.130	10313
764.238	12695
764.347	12438
764.456	13445
764.565	13097
764.674	14801
764.783	15456
764.891	17476
765.000	20185
765.109	22560
765.217	25550
765.326	31774
765.435	37836
765.543	44673
765.652	54710
765.761	71566
765.869	100249
765.978	147736
766.086	231567
766.195	394549
766.303	676935
766.412	779180
766.520	709305
766.629	580543
766.737	317949
766.846	193421
766.954	127636
767.062	95582
767.171	83173
767.279	54842
767.387	41432
767.496	34261
767.604	29400
767.712	26224
767.820	24194
767.928	21062
768.037	19394
768.145	19639
768.253	18230
768.361	17679
768.469	17971
768.577	17231
768.685	18793
768.793	19456
768.901	22180
769.009	26571
769.117	31003
769.225	40713
769.333	58185
769.441	91226
769.549	154476
769.657	308385
769.765	610392
769.873	653369
769.981	521816
770.088	243837
770.196	126661
770.304	79447
770.412	56146
770.519	42348
770.627	33504
770.735	27882
770.842	22282
770.950	20184
771.058	17078
771.165	16178
771.273	13555
771.380	12745
771.488	11289
771.595	9448
771.703	9912
771.810	9614
771.918	8845
772.025	7901
772.133	6980
772.240	7874
772.348	7949
772.455	7046
772.562	6396
772.670	6026
772.777	6337
772.884	5334
772.991	5333
773.099	5085
773.206	4350
773.313	5363
773.420	4770
773.528	4499
773.635	3379
773.742	5760
773.849	4961
773.956	4582
774.063	4347
774.170	4012
774.277	3571
774.384	3922
774.491	4470
774.598	3334
774.705	4362
774.812	5099
774.919	4606
775.026	4706
775.133	4061
775.239	4073
775.346	3193
775.453	3491
775.560	2404
775.667	3369
775.773	3105
775.880	4196
775.987	3406
776.093	3307
776.200	3018
776.307	2768
776.413	3505
776.520	3168
776.627	3071
776.733	3254
776.840	1682
776.946	3868
777.053	4512
777.159	7624
777.266	2602
777.372	6027
777.478	5480
777.585	3584
777.691	2759
777.798	3589
777.904	5227
778.010	12521
778.117	5282
778.223	2971
778.329	2315
778.435	2589
778.542	1774
778.648	2505
778.754	1688
778.860	2151
778.966	2327
779.072	3236
779.178	2326
779.284	2390
779.391	1944
779.497	1603
779.603	4090
779.708	3680
779.815	8798
779.920	30763
780.026	56816
780.132	7638
780.238	2683
780.344	3091
780.450	2769
780.556	2271
780.661	1488
780.767	2892
780.873	1587
780.979	2851
781.085	981
781.190	2662
781.296	1598
781.402	1845
781.507	1781
781.613	3006
781.719	948
781.824	1772
781.930	1436
782.035	1927
782.141	1925
782.246	1848
782.352	2290
782.457	1403
782.563	1310
782.668	1772
782.773	1705
782.879	1975
782.984	1437
783.090	2386
783.195	4400
783.300	3134
783.405	2291
783.511	2250
783.616	2187
783.721	2167
783.826	1533
783.932	2251
784.037	2093
784.142	1768
784.247	1254
784.352	1350
784.457	1011
784.562	2369
784.667	1163
784.772	1541
784.877	1160
784.982	1395
785.087	1386
785.192	2354
785.297	1489
785.402	1874
785.507	1471
785.611	1986
785.716	1919
785.821	2127
785.926	1567
786.031	1437
786.135	967
786.240	1707
786.345	116
786.450	2058
786.554	997
786.659	1038
786.763	341
786.868	1722
786.973	1585
787.077	1855
787.182	1205
787.286	1447
787.391	935
787.495	1685
787.600	818
787.704	789
787.809	1285
787.913	1804
788.017	1047
788.122	1451
788.226	791
788.330	521
788.435	1544
788.539	1315
788.643	1033
788.747	652
788.852	-2
788.956	503
789.060	1639
789.164	1726
789.268	183
789.372	1447
789.476	253
789.580	659
789.684	312
789.788	2313
789.892	1499
789.996	2695
790.100	642
790.204	1423
790.308	970
790.412	1777
790.516	5207
790.620	4209
790.724	1189
790.828	1381
790.931	1026
791.035	3911
791.139	2883
791.242	373
791.346	1763
791.450	1419
791.554	1034
791.657	767
791.761	2115
791.864	1281
791.968	1581
792.072	1427
792.175	412
792.279	884
792.382	1419
792.486	2213
792.589	869
792.693	1298
792.796	366
792.899	1248
793.003	1406
793.106	171
793.209	817
793.313	3081
793.416	-578
793.519	2122
793.623	2722
793.726	4365
793.829	1389
793.932	1267
794.035	628
794.138	2198
794.242	1922
794.345	2661
794.448	3603
794.551	6196
794.654	16558
794.757	28602
794.860	6095
794.963	2698
795.066	325
795.169	2316
795.272	422
795.375	1350
795.477	1449
795.580	868
795.683	-797
795.786	1356
795.889	249
795.991	1602
796.094	2461
796.197	1218
796.300	1117
796.402	406
796.505	515
796.608	300
796.710	1163
796.813	1113
796.915	-7
797.018	1136
797.120	551
797.223	-233
797.326	1535
797.428	140
797.530	406
797.633	744
797.735	2203
797.838	4973
797.940	3645
798.042	418
798.145	89
798.247	1440
798.349	-1163
798.452	952
798.554	-449
798.656	-484
798.758	1547
798.860	200
798.962	149
799.065	151
799.167	515
799.269	1582
799.371	1356
799.473	1735
799.575	1273
799.677	2668
799.779	2285
799.881	1828
799.983	2107
800.085	836
800.187	-107
800.289	-32
800.390	322
800.492	470
800.594	861
800.696	656
800.798	81
800.899	-302
801.001	-411
801.103	562
801.205	49
801.306	901
801.408	-87
801.509	806
801.611	-313
801.713	55
801.814	-185
801.916	1329
802.017	-386
802.119	-558
802.220	845
802.322	-952
802.423	3365
802.525	1500
802.626	314
802.727	1166
802.829	557
802.930	-1667
803.031	1955
803.133	242
803.234	-307
803.335	480
803.436	-731
803.538	389
803.639	-1037
803.740	458
803.841	-522
803.942	-15
804.043	1007
804.144	45
804.245	-203
804.346	42
804.447	380
804.548	1423
804.649	1911
804.750	584
804.851	-692
804.952	312
805.053	-333
805.154	-168
805.255	767
805.355	208
805.456	-298
805.557	-260
805.658	-1031
805.758	559
805.859	-567
805.960	118
806.061	-173
806.161	-305
806.262	29
806.362	390
806.463	-28
806.564	292
806.664	375
806.765	1321
806.865	1919
806.966	135
807.066	-19
807.166	818
807.267	287
807.367	-97
807.468	727
807.568	-936
807.668	504
807.769	1086
807.869	-567
807.969	734
808.069	171
808.170	332
808.270	-672
808.370	531
808.470	855
808.570	-284
808.670	-125
808.770	672
808.870	-975
808.970	442
809.070	545
809.170	-1055
809.271	-88
809.370	-192
809.470	-238
809.570	-371
809.670	-417
809.770	-22
809.870	-33
809.970	-92
810.070	-823
810.169	319
810.269	-1213
810.369	878
810.469	150
810.568	-609
810.668	-789
810.768	-157
810.867	378
810.967	-340
811.066	-167
811.166	-814
811.265	719
811.365	-557
811.464	-314
811.564	-232
811.663	-69
811.763	-1108
811.862	-387
811.962	389
812.061	-128
812.160	-468
812.260	-513
812.359	195
812.458	327
812.557	2186
812.657	649
812.756	937
812.855	349
812.954	-408
813.053	507
813.153	340
813.252	-760
813.351	-13
813.450	-683
813.549	-1239
813.648	-324
813.747	-180
813.846	-32
813.945	-707
814.044	289
814.143	303
814.242	240
814.341	-476
814.439	606
814.538	-224
814.637	159
814.736	706
814.835	586
814.933	-439
815.032	239
815.131	-436
815.229	-942
815.328	-174
815.427	-754
815.525	57
815.624	-739
815.722	-288
815.821	581
815.919	-300
816.018	-473
816.116	1102
816.215	-903
816.313	-554
816.412	221
816.510	596
816.609	299
816.707	227
816.805	-663
816.904	-865
817.002	284
817.100	1097
817.198	1199
817.296	147
817.395	-223
817.493	1356
817.591	-174
817.689	988
817.787	1457
817.885	3683
817.983	6838
818.081	17838
818.179	40927
818.277	110476
818.375	94553
818.473	23384
818.571	8649
818.669	5618
818.767	4217
818.865	4265
818.963	5643
819.061	8179
819.158	15279
819.256	36381
819.354	88836
819.452	210934
819.549	132808
819.647	35036
819.745	12713
819.842	8412
819.940	4333
820.038	3750
820.135	2534
820.233	3264
820.330	936
820.428	1199
820.525	1909
820.623	1594
820.720	-107
820.818	1512
820.915	1303
821.012	2363
821.110	-821
821.207	1285
821.304	120
821.402	-119
821.499	483
821.596	1962
821.693	1069
821.791	1817
821.888	1173
821.985	4573
822.082	2665
822.179	1562
822.276	376
822.373	464
822.470	-586
822.567	632
822.664	-741
822.761	475
822.858	-1548
822.955	-324
823.052	-321
823.149	-657
823.246	-177
823.343	945
823.440	229
823.536	-125
823.633	-222
823.730	-295
823.827	-438
823.923	57
824.020	637
824.117	235
824.213	-1300
824.310	538
824.407	-423
824.503	296
824.600	-140
824.696	-79
824.793	521
824.889	-1180
824.986	-518
825.082	-348
825.179	604
825.275	-114
825.371	-771
825.468	-353
825.564	-1390
825.660	419
825.757	-231
825.853	307
825.949	-2107
826.045	-266
826.142	-958
826.238	876
826.334	-555
826.430	-868
826.526	496
826.622	-1265
826.718	-704
826.814	-327
826.910	-87
827.006	-381
827.102	-555
827.198	4
827.294	-672
827.390	351
827.486	-661
827.582	-1206
827.678	-1576
827.774	-131
827.869	-1360
827.965	488
828.061	-1400
828.157	12
828.252	-1575
828.348	-1118
828.444	163
828.539	-1011
828.635	-790
828.731	39
828.826	-1762
828.922	-450
829.017	-682
829.113	-322
829.208	-1336
829.304	-514
829.399	-509
829.495	-1269
829.590	483
829.685	-153
829.781	-267
829.876	-3
829.971	134
830.066	-609
830.162	-623
830.257	-499
830.352	-665
830.447	209
830.543	-413
830.638	-943
830.733	880
830.828	-231
830.923	263
831.018	-1011
831.113	403
831.208	-651
831.303	-168
831.398	-655
831.493	-763
831.588	-268
831.683	-1403
831.778	193
831.873	-12
831.967	-49
832.062	-993
832.157	-1429
832.252	686
832.346	780
832.441	188
832.536	707
832.631	3870
832.725	2405
832.820	-887
832.914	-469
833.009	-776
833.104	298
833.198	412
833.293	-239
833.387	725
833.482	-1209
833.576	-650
833.670	-25
833.765	-752
833.859	153
833.954	66
834.048	115
834.142	212
834.237	-174
834.331	-1289
834.425	312
834.519	-1187
834.613	672
834.708	-650
834.802	-392
834.896	-1098
834.990	220
835.084	-115
835.178	-98
835.272	-1321
835.366	-1274
835.460	-325
835.554	-506
835.648	-469
835.742	-267
835.836	-535
835.930	-944
836.024	-99
836.117	768
836.211	-639
836.305	1669
836.399	2228
836.493	-1359
836.586	667
836.680	-1352
836.774	-1052
836.867	910
836.961	-888
837.055	-1313
837.148	-657
837.242	-583
837.335	-167
837.429	-970
837.522	-371
837.616	1256
837.709	4055
837.803	1529
837.896	255
837.989	-364
838.083	1914
838.176	5024
838.269	3271
838.363	525
838.456	-644
838.549	697
838.642	2244
838.735	4709
838.829	1033
838.922	-1054
839.015	-160
839.108	-890
839.201	-871
839.294	188
839.387	496
839.480	-948
839.573	720
839.666	1240
839.759	-3
839.852	-795
839.945	-635
840.038	-832
840.131	-447
840.223	-942
840.316	363
840.409	-734
840.502	-1384
840.594	119
840.687	-1393
840.780	0
840.873	-448
840.965	721
841.058	1413
841.150	4450
841.243	2209
841.336	73
841.428	-518
841.521	-366
841.613	-490
841.706	213
841.798	-787
841.890	-564
841.983	-1921
842.075	-202
842.167	-1110
842.260	-114
842.352	983
842.444	1846
842.537	5480
842.629	7961
842.721	805
842.813	237
842.905	-1233
842.997	851
843.090	-107
843.182	1991
843.274	5168
843.366	13717
843.458	26420
843.550	15072
843.642	733
843.734	678
843.826	1143
843.918	583
844.009	456
844.101	-546
844.193	-1110
844.285	-936
844.377	-571
844.469	283
844.560	-370
844.652	495
844.744	-621
844.835	-174
844.927	104
845.019	235
845.110	-478
845.202	-395
845.293	-165
845.385	-829
845.476	-677
845.568	221
845.659	334
845.751	-197
845.842	-549
845.934	-1463
846.025	-1428
846.116	-62
846.208	-351
846.299	-541
846.390	-637
846.482	-652
846.573	320
846.664	1843
846.755	1404
846.846	1387
846.937	-1135
847.029	-639
847.120	-1306
847.211	-58
847.302	-316
847.393	-762
847.484	-268
847.575	-417
847.666	-1371
847.757	-631
847.847	-900
847.938	458
848.029	-443
848.120	-910
848.211	-86
848.302	-562
848.392	-1141
848.483	320
848.574	-1253
848.664	-457
848.755	-866
848.846	-162
848.936	-1524
849.027	-986
849.118	-1699
849.208	-896
849.299	43
849.389	575
849.480	612
849.570	1120
849.661	393
849.751	2702
849.841	523
849.932	-320
850.022	-1394
850.112	89
850.203	-940
850.293	-642
850.383	-375
850.474	-991
850.564	-1129
850.654	-701
850.744	-802
850.834	-104
850.924	-1053
851.014	27
851.104	-525
851.194	-1011
851.284	-389
851.374	589
851.464	-582
851.554	-52
851.644	44
851.734	1831
851.824	353
851.914	-480
852.004	-936
852.094	-1155
852.183	-446
852.273	-299
852.363	-1222
852.452	-864
852.542	-1085
852.632	-1549
852.721	-611
852.811	-452
852.901	-578
852.990	-620
853.080	-1205
853.169	-697
853.259	-1032
853.348	-1199
853.438	-537
853.527	64
853.617	-517
853.706	96
853.795	1361
853.885	3135
853.974	6555
854.063	14325
854.152	22028
854.242	6452
854.331	267
854.420	423
854.509	-328
854.598	-62
854.687	-175
854.777	1036
854.866	-605
854.955	-882
855.044	-855
855.133	-844
855.222	-484
855.311	-785
855.400	328
855.488	-287
855.577	-388
855.666	1010
855.755	1241
855.844	4223
855.933	5187
856.021	1167
856.110	509
856.199	-1400
856.288	-792
856.376	-1110
856.465	-798
856.554	-308
856.642	-436
856.731	-727
856.819	-675
856.908	-442
856.996	-585
857.085	-678
857.173	-714
857.262	-1967
857.350	-412
857.438	-508
857.527	-781
857.615	-149
857.703	-866
857.792	-1018
857.880	-953
857.968	-465
858.056	-1282
858.145	-396
858.233	-1651
858.321	-798
858.409	-492
858.497	-581
858.585	-1006
858.673	-44
858.761	-1027
858.849	-1419
858.937	-1268
859.025	-302
859.113	-228
859.201	-1251
859.289	-66
859.377	-1449
859.465	-1442
859.552	-284
859.640	-1786
859.728	-512
859.816	-378
859.903	228
859.991	-1918
860.079	-764
860.166	-608
860.254	-677
860.342	-248
860.429	-771
860.517	-1138
860.604	-647
860.692	-752
860.779	-564
860.867	-1534
860.954	-450
861.042	-575
861.129	-462
861.216	-564
861.304	-390
861.391	-999
861.478	-323
861.565	-365
861.653	571
861.740	-1432
861.827	-1261
861.914	-1150
862.001	-815
862.089	-1244
862.176	-1048
862.263	-1038
862.350	-534
862.437	-813
862.524	-1214
862.611	-1373
862.698	-419
862.785	-1055
862.871	-805
862.958	-1135
863.045	-825
863.132	-456
863.219	68
863.306	-1741
863.392	240
863.479	-955
863.566	-93
863.652	-753
863.739	-733
863.826	-1019
863.912	-1276
863.999	-1173
864.086	-1145
864.172	-1583
864.259	-685
864.345	-1305
864.432	-697
864.518	-1159
864.604	-437
864.691	-1417
864.777	-605
864.863	-742
864.950	53
865.036	-937
865.122	-296
865.209	-766
865.295	-795
865.381	-811
865.467	-267
865.553	-395
865.639	-721
865.726	-464
865.812	838
865.898	3012
865.984	4659
866.070	9931
866.156	11317
866.242	1150
866.328	-195
866.414	-1416
866.499	-365
866.585	-922
866.671	-361
866.757	-69
866.843	-67
866.928	-1552
867.014	-469
867.100	-909
867.186	-685
867.271	-191
867.357	1774
867.442	2050
867.528	173
867.614	-903
867.699	-210
867.785	-379
867.870	-344
867.956	-135
868.041	754
868.127	-261
868.212	941
868.297	91
868.383	-418
868.468	303
868.553	1622
868.639	1632
868.724	5160
868.809	4951
868.894	431
868.979	-960
869.065	-628
869.150	-1216
869.235	-884
869.320	-797
869.405	-489
869.490	-1275
869.575	-1089
869.660	-1280
869.745	-590
869.830	-1139
869.915	-1074
870.000	-1257
870.085	-991
870.169	-749
870.254	484
870.339	-1242
870.424	-428
870.509	-988
870.593	-348
870.678	-783
870.763	-926
870.847	-346
870.932	-850
871.016	-707
871.101	-263
871.186	-1165
871.270	-1062
871.355	-875
871.439	-645
871.523	-1197
871.608	-778
871.692	-904
871.777	-1001
871.861	-981
871.945	-1103
872.030	-377
872.114	-498
872.198	-715
872.282	-718
872.367	-1822
872.451	-1189
872.535	-807
872.619	-319
872.703	-1764
872.787	-1318
872.871	-1243
872.955	-786
873.039	-1501
873.123	-1110
873.207	-584
873.291	-737
873.375	-495
873.459	-66
873.543	-1739
873.627	-625
873.711	-1003
873.794	-626
873.878	-1882
873.962	-1112
874.045	-984
874.129	-336
874.137	-422
874.213	-1290
874.245	-958
874.296	-419
874.352	-1313
874.380	-1751
874.460	-1070
874.464	-1043
874.547	-1127
874.568	-991
874.631	-599
874.676	-796
874.714	-947
874.784	-173
874.798	-30
874.881	-1055
874.892	-949
874.965	-136
874.999	-515
875.048	-1070
875.107	-348
875.131	-65
875.215	-434
875.215	-434
875.298	-340
875.323	-356
875.381	-417
875.430	-553
875.465	-651
875.538	-1386
875.548	-1486
875.631	-1063
875.646	-1171
875.714	-1646
875.753	-1338
875.798	-1006
875.861	-1253
875.881	-1328
875.964	-1171
875.968	-1115
876.047	-185
876.076	-313
876.130	-490
876.183	-460
876.213	-476
876.291	-27
876.296	3
876.379	-1088
876.398	-1072
876.462	-935
876.506	-545
876.545	-269
876.613	-579
876.628	-621
876.711	-856
876.721	-840
876.794	-691
876.828	-714
876.877	-861
876.935	-636
876.960	-491
877.043	-467
877.043	-468
877.125	-473
877.150	-489
877.208	-558
877.258	-596
877.291	-608
877.365	-1066
877.374	-1114
877.456	-473
877.472	-487
877.539	-720
877.579	-703
877.622	-484
877.687	-602
877.704	-729
877.787	-788
877.794	-830
877.869	-976
877.901	-882
877.952	-745
878.008	-528
878.034	-513
878.115	-635
878.117	-630
878.199	-871
878.222	-876
878.282	-993
878.329	-661
878.364	-436
878.437	-112
878.447	-77
878.529	-1523
878.544	-1382
878.611	-623
878.651	-689
878.694	-755
878.758	-438
878.776	-327
878.858	-953
878.865	-920
878.941	-726
878.972	-669
879.023	-539
879.078	-409
879.105	-298
879.185	-162
879.187	-163
879.269	-208
879.292	-513
879.351	-1194
879.399	-1038
879.433	-832
879.506	-641
879.516	-643
879.598	-409
879.613	-489
879.680	-875
879.720	-511
879.762	6
879.827	-517
879.844	-712
879.926	-719
879.933	-678
880.007	-288
880.040	-392
880.089	-365
880.147	-165
880.171	-90
880.253	1665
880.254	1670
880.335	2352
880.360	2558
880.417	3079
880.467	4918
880.499	6216
880.574	7288
880.580	7249
880.662	1690
880.680	1088
880.744	-383
880.787	-683
880.825	-898
880.893	-691
880.907	-639
880.989	-937
881.000	-857
881.070	-224
881.106	-329
881.152	-662
881.213	-570
881.233	-532
881.315	-721
881.319	-725
881.396	-154
881.426	-142
881.478	-423
881.532	-281
881.559	-258
881.639	-659
881.641	-670
881.722	-605
881.745	-784
881.803	-647
881.852	-117
881.885	16
881.958	-146
881.966	-162
882.047	94
882.064	77
882.129	40
882.171	224
882.210	652
882.277	925
882.291	824
882.372	4
882.383	-119
882.454	-446
882.489	-387
882.535	-505
882.596	-608
882.616	-622
882.697	-1063
882.702	-1067
882.778	-344
882.808	-139
882.859	-390
882.914	-578
882.940	-573
883.020	-594
883.021	-589
883.102	-405
883.127	-322
883.183	-442
883.233	-514
883.264	-408
883.339	-100
883.345	-70
883.426	-188
883.445	-108
883.507	-243
883.551	-275
883.587	-169
883.657	-242
883.668	-225
883.749	-252
883.763	-231
883.830	-295
883.869	-417
883.910	-428
883.975	-299
883.991	-290
884.072	-119
884.081	-118
884.152	-351
884.187	-570
884.233	-696
884.292	-477
884.314	-332
884.394	-380
884.398	-362
884.475	-81
884.504	-73
884.555	-205
884.610	-265
884.636	-303
884.716	-552
884.716	-548
884.797	-152
884.821	-133
884.877	92
884.927	344
884.958	166
885.033	-554
885.038	-572
885.118	-231
885.139	-323
885.199	-579
885.244	-593
885.279	-579
885.350	-622
885.359	-581
885.439	-130
885.456	-108
885.520	-367
885.561	-338
885.600	-234
885.667	-212
885.680	-192
885.760	-86
885.773	-69
885.840	6
885.878	109
885.920	443
885.984	494
886.000	283
886.080	-223
886.089	-302
886.160	-549
886.195	-602
886.240	-490
886.300	-457
886.320	-352
886.400	134
886.406	168
886.480	396
886.511	419
886.560	351
886.616	267
886.640	197
886.720	-128
886.722	-136
886.800	-47
886.827	-27
886.879	55
886.932	155
886.959	130
887.038	115
887.039	115
887.119	-395
887.143	-456
887.198	-228
887.248	-12
887.278	-27
887.354	-248
887.358	-235
887.437	-52
887.459	26
887.517	-167
887.564	-274
887.596	-22
887.669	428
887.676	406
887.755	33
887.774	-31
887.835	228
887.880	378
887.914	382
887.985	374
887.994	380
888.073	435
888.090	432
888.153	57
888.195	-164
888.232	-333
888.300	-726
888.311	-690
888.391	-419
888.405	-368
888.470	-539
888.510	-667
888.549	-324
888.615	404
888.628	396
888.708	136
888.720	106
888.787	167
888.825	177
888.866	-107
888.930	-570
888.945	-562
889.024	-480
889.035	-471
889.103	-333
889.140	-256
889.182	-118
889.245	78
889.261	-1
889.340	-422
889.349	-465
889.419	404
889.454	834
889.498	549
889.559	142
889.577	128
889.656	74
889.664	70
889.735	360
889.768	497
889.814	430
889.873	341
889.978	663
890.083	58
890.187	168
890.292	210
890.397	-85
890.501	-289
890.606	-182
890.710	-351
890.815	120
890.919	834
891.024	-939
891.128	51
891.233	328
891.337	-65
891.442	-218
891.546	96
891.650	-666
891.755	-207
891.859	1266
891.963	-341
892.068	-97
892.172	-341
892.276	-285
892.380	187
892.484	277
892.589	376
892.693	21
892.797	-242
892.901	332
893.005	357
893.109	221
893.213	401
893.317	-198
893.421	150
893.525	376
893.629	429
893.733	-113
893.837	251
893.941	-595
894.045	1008
894.148	472
894.252	430
894.356	-126
894.460	416
894.564	-446
894.667	-379
894.771	-668
894.875	220
894.978	94
895.082	-298
895.186	-308
895.289	485
895.393	233
895.496	18
895.600	-67
895.703	134
895.807	373
895.910	-100
896.014	249
896.117	-26
896.221	1160
896.324	356
896.427	-173
896.531	-312
896.634	-716
896.737	23
896.840	-460
896.944	-396
897.047	212
897.150	109
897.253	-509
897.356	-179
897.460	510
897.563	-168
897.666	123
897.769	7
897.872	-238
897.975	-174
898.078	-759
898.181	-266
898.284	-71
898.387	16
898.490	-888
898.593	156
898.695	-291
898.798	-39
898.901	98
899.004	-313
899.107	-140
899.209	-209
899.312	315
899.415	458
899.518	-121
899.620	-900
899.723	-119
899.826	444
899.928	-418
900.031	-354
900.133	-220
900.236	-728
900.338	-204
900.441	-43
900.543	-165
900.646	-582
900.748	266
900.851	-4
900.953	-11
901.055	-38
901.158	216
901.260	149
901.362	-149
901.465	108
901.567	-968
901.669	713
901.771	-514
901.873	-720
901.976	239
902.078	-1200
902.180	-546
902.282	30
902.384	-762
902.486	43
902.588	206
902.690	164
902.792	-285
902.894	281
902.996	-305
903.098	-782
903.200	-417
903.302	-41
903.404	-704
903.505	371
903.607	-389
903.709	-51
903.811	-593
903.913	-255
904.014	302
904.116	-591
904.218	-266
904.319	347
904.421	-466
904.523	-626
904.624	-752
904.726	48
904.827	-302
904.929	-75
905.030	-1064
905.132	-42
905.233	465
905.335	-888
905.436	-286
905.537	-473
905.639	260
905.740	-1221
905.841	-746
905.943	-360
906.044	-1120
906.145	-59
906.247	185
906.348	-67
906.449	-83
906.550	140
906.651	-267
906.752	241
906.854	-345
906.955	73
907.056	-82
907.157	136
907.258	-1100
907.359	-235
907.460	-846
907.561	-915
907.662	-194
907.762	-961
907.863	-1644
907.964	-1054
908.065	-1013
908.166	-537
908.267	15
908.367	-718
908.468	49
908.569	-908
908.670	-240
908.770	174
908.871	-630
908.971	-33
909.072	-591
909.173	-143
909.273	-391
909.374	-548
909.474	-683
909.575	-810
909.675	4
909.776	-116
909.876	-503
909.977	-14
910.077	-65
910.177	-313
910.278	-638
910.378	-510
910.478	-783
910.579	-918
910.679	210
910.779	-44
910.879	146
910.980	-368
911.080	-620
911.180	-802
911.280	-367
911.380	-126
911.480	-478
911.580	-1056
911.680	-730
911.780	356
911.880	-304
911.980	-436
912.080	-1393
912.180	-471
912.280	-559
912.380	-353
912.480	-1450
912.580	-852
912.679	-468
912.779	-155
912.879	-822
912.979	-810
913.078	-1108
913.178	-1409
913.278	-510
913.377	-657
913.477	-11
913.577	-579
913.676	376
913.776	-1390
913.875	-92
913.975	-353
914.074	-1390
914.174	-233
914.273	-895
914.373	172
914.472	-681
914.572	-1105
914.671	-659
914.770	-632
914.870	-357
914.969	-1356
915.068	-1076
915.167	105
915.267	-909
915.366	-942
915.465	-904
915.564	-90
915.663	204
915.763	-628
915.862	929
915.961	-256
916.060	175
916.159	-1120
916.258	-1344
916.357	60
916.456	72
916.555	-447
916.654	-526
916.752	-141
916.851	-1109
916.950	-360
917.049	-1468
917.148	-450
917.247	-274
917.345	65
917.444	-285
917.543	253
917.642	-1247
917.740	-1242
917.839	-1352
917.937	-447
918.036	-437
918.135	-941
918.233	-187
918.332	-428
918.430	-304
918.529	-1344
918.627	-554
918.726	236
918.824	-904
918.923	-564
919.021	-646
919.119	-871
919.218	-593
919.316	-408
919.414	-676
919.512	-858
919.611	-995
919.709	-530
919.807	-1028
919.905	-440
920.003	-603
920.102	-857
920.200	-671
920.298	-714
920.396	-40
920.494	-78
920.592	-775
920.690	-288
920.788	-652
920.886	13
920.984	-820
921.082	-857
921.180	122
921.277	-702
921.375	-831
921.473	-991
921.571	-195
921.669	-1082
921.766	-959
921.864	-725
921.962	-1286
922.060	-650
922.157	-309
922.255	-220
922.352	-823
922.450	-1000
922.548	-825
922.645	224
922.743	-839
922.840	-769
922.938	-548
923.035	-405
923.133	-1148
923.230	294
923.327	-691
923.425	-63
923.522	-458
923.619	-834
923.717	-457
923.814	-424
923.911	-1096
924.008	-171
924.106	-562
924.203	-130
924.300	-796
924.397	-693
924.494	-879
924.591	-880
924.688	-853
924.786	-774
924.883	-743
924.979	-583
925.077	-56
925.173	-225
925.270	-1027
925.367	-637
925.464	-762
925.561	-198
925.658	-502
925.755	2
925.852	-1622
925.948	-773
926.045	-200
926.142	-183
926.239	-666
926.335	-367
926.432	-411
926.529	-780
926.625	-899
926.722	-187
926.818	-570
926.915	-386
927.011	-869
927.108	-311
927.204	-504
927.301	-455
927.397	-924
927.494	-508
927.590	-1009
927.687	-1048
927.783	-1187
927.879	-501
927.976	-832
928.072	38
928.168	-606
928.264	-902
928.361	-1237
928.457	-534
928.553	-594
928.649	-371
928.745	-468
928.841	-825
928.937	-918
929.033	-44
929.129	338
929.225	-1080
929.321	-556
929.417	-457
929.513	-813
929.609	-737
929.705	-1034
929.801	-985
929.897	251
929.993	289
930.089	-1288
930.184	-1088
930.280	-923
930.376	-703
930.471	-1249
930.567	-863
930.663	-1012
930.758	-1355
930.854	-1258
930.950	-1328
931.045	-1107
931.141	59
931.236	-799
931.332	-1075
931.427	-1538
931.523	-604
931.618	-19
931.714	-332
931.809	-479
931.905	-1153
932.000	-912
932.095	148
932.191	-689
932.286	-96
932.381	-1218
932.476	-1128
932.572	-1275
932.667	-1607
932.762	-1361
932.857	-857
932.952	-805
933.047	-937
933.142	-914
933.237	-506
933.332	-141
933.427	-61
933.522	-1035
933.617	-784
933.712	-520
933.807	-1309
933.902	-905
933.997	-795
934.092	-962
934.187	-822
934.282	-1222
934.376	-609
934.471	-518
934.566	-890
934.661	-1351
934.755	-1020
934.850	-1329
934.945	-163
935.039	-1886
935.134	-949
935.228	-969
935.323	-1272
935.417	-500
935.512	-1002
935.606	-681
935.701	-984
935.795	-1047
935.890	-773
935.984	-451
936.079	-700
936.173	-765
936.267	-322
936.362	-531
936.456	-524
936.550	-956
936.644	-839
936.738	-168
936.833	-439
936.927	217
937.021	-227
937.115	-834
937.209	-1375
937.303	-68
937.397	-559
937.491	-809
937.585	-340
937.679	-991
937.773	-627
937.867	-987
937.961	-697
938.055	-1079
938.149	-164
938.243	-1116
938.337	-582
938.430	-1179
938.524	-818
938.618	-1212
938.712	-591
938.805	-952
938.899	-758
938.993	-868
939.086	-830
939.180	-983
939.274	-809
939.367	139
939.461	-1074
939.554	-1314
939.648	-623
939.741	-344
939.835	-1513
939.928	-611
940.022	-423
940.115	-388
940.208	-102
940.302	-213
940.395	-510
940.488	-1323
940.582	-873
940.675	-1500
940.768	-897
940.861	-1390
940.954	-795
941.048	-451
941.141	-647
941.234	-1177
941.327	-400
941.420	-263
941.513	-534
941.606	-943
941.699	-595
941.792	-1184
941.885	-1356
941.978	-506
942.071	-696
942.164	-885
942.257	-1068
942.349	-802
942.442	-873
942.535	-911
942.628	-1361
942.721	-812
942.813	-1361
942.906	-319
942.999	-786
943.091	-914
943.184	-878
943.277	-1476
943.369	-980
943.462	-682
943.554	-716
943.647	-1053
943.739	-227
943.832	-878
943.924	-1994
944.017	-773
944.109	-1127
944.201	-1065
944.294	-1569
944.386	-1136
944.478	-1427
944.571	-1341
944.663	-1418
944.755	-1537
944.847	-533
944.940	-794
945.032	-1543
945.124	-1549
945.216	-52
945.308	-986
945.400	-937
945.492	-430
945.584	-1251
945.676	-1069
945.768	-772
945.860	-710
945.952	-734
946.044	-526
946.136	-904
946.228	-1311
946.320	-1131
946.412	-699
946.503	-1549
946.595	-812
946.687	-1417
946.779	-1228
946.870	-567
946.962	-978
947.054	-645
947.145	-1104
947.237	-983
947.329	-1617
947.420	-673
947.512	-1008
947.603	-468
947.695	-1108
947.786	-1631
947.878	-1615
947.969	-1050
948.061	-1242
948.152	-1375
948.243	-1043
948.335	-824
948.426	-1673
948.517	-1947
948.609	-2145
948.700	-857
948.791	-689
948.882	-786
948.973	-1187
949.065	-810
949.156	-1415
949.247	-1356
949.338	-1016
949.429	-1446
949.520	-1441
949.611	-1352
949.702	-1003
949.793	-408
949.884	-1597
949.975	-591
950.066	-1175
950.157	-1227
950.247	-1427
950.338	-1635
950.429	-968
950.520	-1133
950.611	-985
950.701	-1301
950.792	-1002
950.883	-1032
950.973	-1382
951.064	-1088
951.155	-1795
951.245	-346
951.336	-312
951.427	-914
951.517	399
951.608	-451
951.698	-1053
951.788	-686
951.879	-1801
951.969	-1105
952.060	-1367
952.150	-1081
952.240	-572
952.331	-2029
952.421	-153
952.511	-831
952.602	-610
952.692	-1048
952.782	-1287
952.872	-1090
952.962	-1399
953.052	-441
953.143	-1517
953.233	-1041
953.323	-1306
953.413	-1460
953.503	-519
953.593	-878
953.683	-1697
953.773	-1880
953.863	-546
953.953	-1827
954.042	-1769
954.132	-1469
954.222	-527
954.312	-1761
954.402	-876
954.492	-1318
954.581	-977
954.671	-954
954.761	-1766
954.850	-203
954.940	-1449
955.030	-423
955.119	-1125
955.209	-981
955.298	-1935
955.388	-756
955.477	-50
955.567	-765
955.656	-697
955.746	-316
955.835	-1924
955.925	-2005
956.014	-1201
956.103	-770
956.193	-1690
956.282	-877
956.371	-1059
956.461	-992
956.550	-1280
956.639	-1291
956.728	-1280
956.817	-1441
956.906	-2255
956.995	-114
957.085	-2326
957.174	-381
957.263	-1808
957.352	-1730
957.441	-1753
957.530	-1427
957.619	-391
957.708	-1093
957.796	-1441
957.885	-2015
957.974	-733
958.063	-885
958.152	-1531
958.241	-1037
958.329	-943
958.418	-1767
958.507	-1171
958.596	-271
958.684	-1592
958.773	-704
958.861	-1192
958.950	-125
959.039	-935
959.127	-1429
959.216	-314
959.304	-1607
959.393	-2060
959.481	-880
959.570	-1539
959.658	-877
959.746	-1156
959.835	-973
959.923	58
960.011	-741
960.100	-1380
960.188	-1511
960.276	-716
960.365	-999
960.453	-1794
960.541	-1391
960.629	-1221
960.717	-864
960.805	-1473
960.893	-1368
960.981	-1515
961.069	-910
961.158	-1411
961.245	-1407
961.333	-989
961.421	-1513
961.509	-1608
961.597	-1146
961.685	-1580
961.773	-1187
961.861	-1389
961.949	-502
962.036	-2029
962.124	-1532
962.212	-995
962.299	-1268
962.387	-2433
962.475	-814
962.562	-2376
962.650	-1063
962.738	-136
962.825	-1584
962.913	-867
963.000	-2234
963.088	-933
963.175	-1571
963.263	-1687
963.350	-1525
963.438	-1691
963.525	-1612
963.612	-861
963.700	-402
963.787	2777
963.874	-147
963.962	-790
964.049	-776
964.136	-1535
964.223	-2184
964.310	-1807
964.398	-1650
964.485	-1976
964.572	-1043
964.659	-846
964.746	-1275
964.833	-1428
964.920	-1645
965.007	-1265
965.094	-1119
965.181	-1503
965.268	-1787
965.355	-1958
965.441	-1462
965.528	-2596
965.615	-450
965.702	-1525
965.789	-2263
965.875	-740
965.962	-1534
966.049	-2310
966.136	-1913
966.222	-1241
966.309	-1354
966.395	-1732
966.482	-759
966.569	-2252
966.655	-1414
966.742	-1817
966.828	-1354
966.915	-1226
967.001	-1290
967.087	-1736
967.174	-611
967.260	-1157
967.347	-1182
967.433	-767
967.519	1103
967.605	-685
967.692	-864
967.778	-1492
967.864	-2248
967.950	-1039
968.036	-1978
968.123	-2233
968.209	-1957
968.295	-1801
968.381	-1095
968.467	-1046
968.553	-1999
968.639	-1100
968.725	-2519
968.811	-1118
968.897	-1056
968.983	-2048
969.069	-1766
969.154	-1065
969.240	-619
969.326	-2148
969.412	-1939
969.497	-2201
969.583	-1760
969.669	-791
969.755	-1248
969.840	-1607
969.926	-2173
970.012	-2769
970.097	-1347
970.183	-2091
970.268	-1127
970.354	-1561
970.439	-1955
970.525	753
970.610	-1626
970.696	-1075
970.781	-1115
970.866	-2505
970.952	-1219
971.037	-1979
971.122	-1734
971.208	-1706
971.293	-1329
971.378	-3346
971.463	-1911
971.549	-1120
971.634	-1034
971.719	-1729
971.804	-705
971.889	-1377
971.974	-2009
972.059	-1508
972.144	-1977
972.229	-1110
972.314	-1547
972.399	-1554
972.484	-1736
972.569	-1494
972.654	-2339
972.739	-293
972.824	-1017
972.908	-1298
972.993	-1660
973.078	-2071
973.163	-1289
973.247	-1516
973.332	-2920
973.417	139
973.501	-2209
973.586	-1486
973.671	-2422
973.755	-1733
973.840	-947
973.924	-1287
974.009	-1337
974.093	-2135
974.178	-1052
974.262	-1099
974.346	-1439
974.431	-2181
974.515	-2356
974.600	-2271
974.684	-1780
974.768	-1987
974.852	-1208
974.937	-2842
975.021	-578
975.105	-1614
975.189	-1270
975.273	-1060
975.358	-2810
975.442	-2084
975.526	-292
975.610	-2668
975.694	-2616
975.778	-1185
975.862	-1541
975.946	-3298
976.030	-740
976.114	-2144
976.198	-2431
976.281	-2247
976.365	-852
976.449	-2056
976.533	-1134
976.617	-1781
976.700	-2014
976.784	-2380
976.868	-2092
976.951	-1996
977.035	-1711
977.119	-954
977.202	-1267
977.286	-2114
977.369	-1349
977.453	-1462
977.536	-2629
977.620	-2057
977.703	-2348
977.787	-2968
977.870	-1604
977.953	-989
978.037	-2536
978.120	-1449
978.203	-1919
978.287	-1057
978.370	-1768
978.453	-1661
978.536	-1631
978.620	-990
978.703	-1686
978.786	-2394
978.869	-2864
978.952	-3516
979.035	-278
979.118	-1007
979.201	-2668
979.284	-1867
979.367	-2512
979.450	-1330
979.533	-2299
979.616	-2533
979.699	-1988
979.782	-2003
979.865	-1615
979.948	-2751
980.030	-2179
980.113	-2035
980.196	-2730
980.279	-1678
980.361	-2095
980.444	-3282
980.526	-1274
980.609	-2421
980.692	-1521
980.774	-1966
980.857	-1721
980.939	-1701
981.022	-2249
981.104	-2213
981.187	-2750
981.269	-1552
981.352	-1121
981.434	-2549
981.516	-2949
981.599	-1270
981.681	-1359
981.763	-2383
981.846	-2001
981.928	-2310
982.010	-1658
982.092	-2641
982.174	-1763
982.256	-2418
982.339	-1235
982.421	-1838
982.503	-1532
982.585	-2830
982.667	-2231
982.749	-1836
982.831	-2440
982.913	-2804
982.995	-798
983.077	-2031
983.158	-543
983.240	-2647
983.322	-1520
983.404	-1035
983.486	-2161
983.568	-1132
983.649	-1938
983.731	-2817
983.813	-2684
983.894	-2236
983.976	-2104
984.058	-2778
984.139	-809
984.221	-2567
984.302	-2291
984.384	-1597
984.465	-3242
984.547	-1822
984.628	-2591
984.710	-1863
984.791	-1997
984.872	-1899
984.954	-2462
985.035	-2185
985.116	-1952
985.198	-2740
985.279	-1049
985.360	-2544
985.441	-1674
985.522	-1542
985.604	-2413
985.685	-3634
985.766	-1460
985.847	-1270
985.928	-2366
986.009	-2987
986.090	-1396
986.171	-1582
986.252	-2182
986.333	-1737
986.414	-2667
986.495	-2177
986.576	-2166
986.656	-2728
986.737	-1668
986.818	-1830
986.899	-2450
986.980	-2348
987.060	-1331
987.141	-2572
987.222	-1717
987.302	-2265
987.383	-1532
987.464	-2342
987.544	-1141
987.625	-3177
987.705	-1161
987.786	-2199
987.866	-2241
987.947	-1770
988.027	-1978
988.108	-1835
988.188	-1732
988.268	-1469
988.349	-2588
988.429	-2353
988.509	-1990
988.589	-2450
988.670	-3391
988.750	-854
988.830	-2310
988.910	-1420
988.990	-2404
989.070	-2338
989.151	-1509
989.231	-2603
989.311	-1711
989.391	-2133
989.471	-1818
989.551	-2614
989.631	-2847
989.711	-1559
989.791	-2402
989.870	-2546
989.950	-527
990.030	-2605
990.110	-2090
990.190	-2045
990.269	-2444
990.349	-1886
990.429	-2071
990.509	-1282
990.588	-2139
990.668	-2299
990.747	-1875
990.827	-2186
990.907	-1460
990.986	-2637
991.066	-1534
991.145	-1950
991.225	-1902
991.304	-2701
991.383	-1989
991.463	-2183
991.542	-1229
991.622	-2261
991.701	-3233
991.780	-1671
991.859	-2219
991.939	-2178
992.018	-1660
992.097	-2266
992.176	-1811
992.256	-2138
992.335	-2074
992.414	-2192
992.493	-2566
992.572	-2583
992.651	-1254
992.730	-2430
992.809	-1801
992.888	-2668
992.967	-1670
993.046	-2095
993.125	-2646
993.203	-2805
993.282	-1767
993.361	-2076
993.440	-1811
993.519	-2616
993.597	-1957
993.676	-2567
993.755	-860
993.834	-2031
993.912	-2952
993.991	-1130
994.069	-2745
994.148	-1741
994.226	-1885
994.305	-735
994.384	-3139
994.462	-814
994.540	-3403
994.619	-2048
994.697	-1515
994.776	-3006
994.854	-1857
994.932	-2539
995.011	-1743
995.089	-2718
995.167	-1619
995.245	-1617
995.324	-2632
995.402	-1966
995.480	-3117
995.558	-1578
995.636	-2772
995.714	-2824
995.792	-1611
995.870	-2799
995.948	-1486
996.026	-1984
996.104	-2821
996.182	-1933
996.260	-2739
996.338	-2297
996.416	-2470
996.494	-2145
996.572	-1298
996.649	-3116
996.727	-2526
996.805	-2083
996.883	-2873
996.960	-2044
997.038	-1713
997.116	-1699
997.193	-2401
997.271	-2160
997.348	-2943
997.426	-2083
997.504	-2664
997.581	-1659
997.658	-1581
997.736	-3751
997.813	-2393
997.891	-849
997.968	-3144
998.046	-1914
998.123	-1890
998.200	-2324
998.277	-2584
998.355	-1690
998.432	-3770
998.509	-1643
998.586	-2530
998.663	-1692
998.741	-1485
998.818	-2264
998.895	-2884
998.972	-2143
999.049	-1577
999.126	-2590
999.203	-1735
999.280	-2232
999.357	-2405
999.434	-2195
999.511	-2203
999.587	-1588
999.664	-2676
999.741	-1765
999.818	-1302
999.895	-2014
999.971	-2017
1000.048	-1652
1000.125	-1009
1000.202	-2127
1000.278	-1915
1000.355	-1548
1000.431	-1897
1000.508	-2558
1000.584	-2563
1000.661	-1294
1000.738	-2452
1000.814	-2066
1000.890	-1035
1000.967	-1863
1001.043	-2156
1001.120	-2288
1001.196	-1562
1001.272	-2401
1001.349	-2508
1001.425	-1494
1001.501	-2511
1001.577	-2438
1001.654	-1661
1001.730	-2130
1001.806	-1554
1001.882	-2004
1001.958	-1622
1002.034	-1677
1002.110	-2217
1002.186	-1773
1002.262	-2254
1002.338	-2217
1002.414	-1323
1002.490	-1563
1002.566	-2528
1002.642	-2279
1002.718	-1453
1002.794	-1891
1002.870	-2572
1002.945	-2037
1003.021	-2099
1003.097	-2140
1003.173	-1605
1003.248	-2410
1003.324	-2638
1003.400	-1313
1003.475	-2883
1003.551	-1987
1003.626	-1825
1003.702	-2441
1003.777	-1792
1003.853	-2363
1003.928	-2664
1004.004	-2116
1004.079	-2261
1004.155	-2115
1004.230	-2568
1004.305	-1524
1004.381	-2199
1004.456	-2543
1004.531	-2066
1004.607	-2096
1004.682	-2115
1004.757	-1864
1004.832	-2145
1004.907	-1579
1004.982	-1907
1005.057	-2120
1005.133	-1934
1005.208	-2239
1005.283	-2925
1005.358	-2008
1005.433	-2454
1005.508	-2120
1005.583	-3360
1005.657	-3024
1005.732	-2255
1005.807	-2477
1005.882	-2351
1005.957	-1891
1006.032	-1437
1006.106	-2707
1006.181	-2183
1006.256	-1379
1006.331	-2797
1006.405	-2272
1006.480	-2086
1006.554	-3312
1006.629	-1142
1006.704	-2561
1006.778	-1994
1006.853	-1450
1006.927	-2224
1007.002	-2466
1007.076	-770
1007.150	-3061
1007.225	-1811
1007.299	-1900
1007.373	-2470
1007.448	-1911
1007.522	-1442
1007.596	-1646
1007.671	-2387
1007.745	-1988
1007.819	-3291
1007.893	-2740
1007.967	-1841
1008.041	-2703
1008.115	-1858
1008.190	-3191
1008.264	-2137
1008.338	-2789
1008.412	-2003
1008.486	-2586
1008.560	-2326
1008.633	-2590
1008.707	-2195
1008.781	-1997
1008.855	-2282
1008.929	-2416
1009.003	-3408
1009.076	-2218
1009.150	-2141
1009.224	-2148
1009.298	-1851
1009.371	-3250
1009.445	-1044
1009.519	-2129
1009.592	-4070
1009.666	-2488
1009.739	-1463
1009.813	-2150
1009.886	-1611
1009.960	-2899
1010.033	-1753
1010.107	-1771
1010.180	-2758
1010.253	-2287
1010.327	-1676
1010.400	-2849
1010.473	-2495
1010.547	-1841
1010.620	-2728
1010.693	-2844
1010.766	-2292
1010.840	-2636
1010.913	-1626
1010.986	-2375
1011.059	-1939
1011.132	-2238
1011.205	-2073
1011.278	-2718
1011.351	-1617
1011.424	-2170
1011.497	-1880
1011.570	-1972
1011.643	-2708
1011.716	-3806
1011.789	-2618
1011.862	-2322
1011.934	-1910
1012.007	-2541
1012.080	-1955
1012.153	-2405
1012.225	-1040
1012.298	-2551
1012.371	-3052
1012.443	-1794
1012.516	-2483
1012.588	-3261
1012.661	-3098
1012.733	-3596
1012.806	-1903
1012.879	-2745
1012.951	-2428
1013.023	-2785
1013.096	-2157
1013.168	-2033
1013.241	-1377
1013.313	-2944
1013.385	-3059
1013.458	-2022
1013.530	-1763
1013.602	-3077
1013.674	-2600
1013.746	-2691
1013.819	-2244
1013.891	-1088
1013.963	-2246
1014.035	-2184
1014.107	-2471
1014.179	-1761
1014.251	-2615
1014.323	-2393
1014.395	-2823
1014.467	-2101
1014.539	-2193
1014.611	-2560
1014.683	-2375
1014.754	-2083
1014.826	-3341
1014.898	-1971
1014.970	-2551
1015.042	-1933
1015.113	-2168
1015.185	-2116
1015.257	-2989
1015.328	-1956
1015.400	-3248
1015.471	-2386
1015.543	-3188
1015.615	-2516
1015.686	-2838
1015.757	-2649
1015.829	-2648
1015.901	-2872
1015.972	-2517
1016.043	-2096
1016.115	-2031
1016.186	-2713
1016.257	-2983
1016.328	-1986
1016.400	-1902
1016.471	-3086
1016.542	-2395
1016.613	-1724
1016.685	-2170
1016.756	-1995
1016.827	-3001
1016.898	-3116
1016.969	-2579
1017.040	-2485
1017.111	-3609
1017.182	-2802
1017.253	-2595
1017.324	-2577
1017.395	-2965
1017.466	-2218
1017.537	-3067
1017.608	-2712
1017.678	-2396
1017.749	-2952
1017.820	-2908
1017.891	-2863
1017.961	-2508
1018.032	-2719
1018.103	-1938
1018.173	-2304
1018.244	-2223
1018.315	-1954
1018.385	-1852
1018.456	-2416
1018.526	-3205
1018.597	-2184
1018.667	-3248
1018.738	-2393
1018.808	-2463
1018.878	-2680
1018.949	-2388
1019.019	-2963
1019.089	-2665
1019.160	-2245
1019.230	-3479
1019.300	-2651
1019.371	-2847
1019.441	-1603
1019.511	-2873
1019.581	-3135
1019.651	-3426
1019.721	-3000
1019.791	-2447
1019.861	-2686
1019.931	-2711
1020.001	-2999
1020.071	-3228
1020.141	-2328
1020.211	-3503
1020.281	-3142
1020.351	-2434
1020.421	-2088
1020.491	-2772
1020.560	-2882
1020.630	-2622
1020.700	-2467
1020.770	-2273
1020.839	-3166
1020.909	-2587
1020.979	-2218
1021.048	-2695
1021.118	-2636
1021.187	-2486
1021.257	-2339
1021.326	-1837
1021.396	-3052
1021.465	-2636
1021.535	-2298
1021.604	-2761
1021.674	-3069
1021.743	-2137
1021.812	-2866
1021.882	-2509
1021.951	-2955
1022.020	-2967
1022.089	-2566
1022.159	-3037
1022.228	-2903
1022.297	-2614
1022.366	-2826
1022.435	-3053
1022.504	-2667
1022.573	-3072
1022.642	-2579
1022.711	-2603
1022.781	-2810
1022.849	-2476
1022.918	-3008
1022.987	-3020
1023.056	-2817
1023.125	-2718
1023.194	-2961
1023.263	-2134
1023.331	-2297
1023.400	-2963
1023.469	-3116
1023.538	-2180
1023.606	-2623
1023.675	-2541
1023.744	-2660
1023.812	-3113
1023.881	-3021
1023.949	-2113
1024.018	-3081
1024.086	-2855
1024.155	-2940
1024.223	-3475
1024.292	-2676
1024.360	-2516
1024.429	-3401
1024.497	-1999
1024.565	-2285
1024.634	-2965
1024.702	-2755
1024.770	-3008
1024.838	-2939
1024.907	-2259
1024.975	-2068
1025.043	-2396
1025.111	-2822
1025.179	-2694
1025.247	-3478
1025.315	-3211
1025.383	-2972
1025.451	-2712
1025.519	-2988
1025.587	-3129
1025.655	-3041
1025.723	-2313
1025.791	-2317
1025.859	-2641
1025.927	-2794
1025.995	-3244
1026.062	-2565
1026.130	-2771
1026.198	-3248
1026.266	-3114
1026.333	-2394
1026.401	-1795
1026.469	-2626
1026.536	-2504
1026.604	-2961
1026.671	-3011
1026.739	-2820
1026.806	-2998
1026.874	-3412
1026.941	-2125
1027.009	-3179
1027.076	-2190
1027.144	-2293
1027.211	-3204
1027.278	-3348
1027.345	-2657
1027.413	-3227
1027.480	-2326
1027.547	-2554
1027.614	-2932
1027.682	-2544
1027.749	-2586
1027.816	-2333
1027.883	-3098
1027.950	-2498
1028.017	-3045
1028.084	-2400
1028.151	-2532
1028.218	-2158
1028.285	-3068
1028.352	-2447
1028.419	-3254
1028.486	-3285
1028.553	-2577
1028.619	-2774
1028.686	-2398
1028.753	-2822
1028.820	-1811
1028.886	-3249
1028.953	-3139
1029.020	-2545
1029.086	-2612
1029.153	-2612
1029.220	-2693
1029.286	-2845
1029.353	-2961
1029.419	-2890
1029.486	-2789
1029.552	-3036
1029.619	-2533
1029.685	-2983
1029.751	-2443
1029.818	-1979
1029.884	-3091
1029.951	-2749
1030.017	-3039
1030.083	-2862
1030.149	-2532
1030.216	-3079
1030.282	-2522
1030.348	-3301
1030.414	-3446
1030.480	-3302
1030.546	-2560
1030.612	-2321
1030.678	-2963
1030.744	-2505
1030.810	-2730
1030.876	-2721
1030.942	-2775
1031.008	-2433
1031.074	-2412
1031.140	-2782
1031.206	-2122
1031.272	-3178
1031.337	-2289
1031.403	-2640
1031.469	-3483
1031.534	-3809
1031.600	-1738
1031.666	-2508
1031.731	-3321
1031.797	-2589
1031.863	-2564
1031.928	-2924
1031.994	-2670
1032.059	-3015
1032.125	-2388
1032.190	-3301
1032.256	-2290
1032.321	-3358
1032.386	-2949
1032.452	-1823
1032.517	-2886
1032.582	-2679
1032.647	-2816
1032.713	-2916
1032.778	-2680
1032.843	-2832
1032.908	-2538
1032.974	-2592
1033.039	-3229
1033.104	-2645
1033.169	-2987
1033.234	-2835
1033.299	-2295
1033.364	-2701
1033.429	-2360
1033.494	-2457
1033.559	-2023
1033.624	-2443
1033.688	-1706
1033.753	-2994
1033.818	-2911
1033.883	-3779
1033.948	-2153
1034.013	-3526
1034.077	-2038
1034.142	-2130
1034.207	-3386
1034.271	-2726
1034.336	-2341
1034.400	-2518
1034.465	-2478
1034.530	-3167
1034.594	-2538
1034.658	-2988
1034.723	-2957
1034.787	-2710
1034.852	-2678
1034.916	-3680
1034.981	-2857
1035.045	-3263
1035.109	-2774
1035.173	-2825
1035.238	-3089
1035.302	-2823
1035.366	-2460
1035.430	-2513
1035.495	-3000
1035.559	-2241
1035.623	-2627
1035.687	-2006
1035.751	-3056
1035.815	-2970
1035.879	-1995
1035.943	-2526
1036.007	-3015
1036.071	-2858
1036.135	-2283
1036.198	-2428
1036.262	-2609
1036.326	-2553
1036.390	-2456
1036.454	-3013
1036.517	-3125
1036.581	-2594
1036.645	-2357
1036.709	-2759
1036.772	-3628
1036.836	-3678
1036.900	-2368
1036.963	-3069
1037.026	-2303
1037.090	-3214
1037.154	-2288
1037.217	-2817
1037.280	-2512
1037.344	-2804
1037.407	-2438
1037.471	-2649
1037.534	-3264
1037.597	-2449
1037.661	-2844
1037.724	-3280
1037.787	-3185
1037.850	-2644
1037.913	-2997
1037.977	-2132
1038.040	-2115
1038.103	-2788
1038.166	-2809
1038.229	-2405
1038.292	-2606
1038.355	-2719
1038.418	-2578
1038.481	-2670
1038.544	-2792
1038.607	-2662
1038.670	-2981
1038.732	-2864
1038.795	-3008
1038.858	-2483
1038.921	-1991
1038.984	-1581
1039.046	-2872
1039.109	-2802
1039.172	-2549
1039.234	-2702
1039.297	-2006
1039.360	-2663
1039.422	-2782
1039.485	-2361
1039.547	-2932
1039.610	-2088
1039.672	-2391
1039.734	-2528
1039.797	-2360
1039.859	-2708
1039.922	-2632
1039.984	-2292
1040.046	-3176
1040.109	-2814
1040.171	-3057
1040.233	-3016
1040.295	-3134
1040.358	-3013
1040.420	-2782
1040.482	-2479
1040.544	-2233
1040.606	-2366
1040.668	-3077
1040.730	-2880
1040.792	-3115
1040.854	-2849
1040.916	-2330
1040.978	-2992
1041.040	-2015
1041.102	-3186
1041.164	-2301
1041.225	-2537
1041.287	-2455
1041.349	-3086
1041.411	-2341
1041.472	-3114
1041.534	-2808
1041.596	-2400
1041.657	-2597
1041.719	-2120
1041.781	-2659
1041.842	-3829
1041.904	-3341
1041.965	-2284
1042.027	-3059
1042.088	-2683
1042.150	-2570
1042.211	-2606
1042.272	-1979
1042.334	-3039
1042.395	-2257
1042.456	-2380
1042.518	-2622
1042.579	-2380
1042.640	-2554
1042.701	-2143
1042.763	-2817
1042.824	-2449
1042.885	-3003
1042.946	-2199
1043.007	-2928
1043.068	-1938
1043.129	-2528
1043.190	-1878
1043.251	-2096
1043.312	-2391
1043.373	-2213
1043.434	-2812
1043.495	-2275
1043.556	-2099
1043.616	-2273
1043.677	-2931
1043.738	-2308
1043.799	-1829
1043.859	-1818
1043.920	-2509
1043.981	-2509
1044.041	-2315
1044.102	-1750
1044.162	-2655
1044.223	-2001
1044.284	-2812
1044.344	-2184
1044.405	-2287
1044.465	-2552
1044.525	-2850
1044.586	-2433
1044.646	-2105
1044.707	-1754
1044.767	-2622
1044.827	-1823
1044.887	-2108
1044.948	-1708
1045.008	-2688
1045.068	-2404
1045.128	-2120
1045.188	-2336
1045.249	-2007
1045.309	-1497
1045.369	-2875
1045.429	-2146
1045.489	-2318
1045.549	-1397
1045.609	-1968
1045.669	-2468
1045.729	-2002
1045.789	-2277
1045.848	-2134
1045.908	-2129
1045.968	-1951
1046.028	-2879
1046.088	-2687
1046.147	-1733
1046.207	-2198
1046.267	-2795
1046.326	-1149
1046.386	-1741
1046.446	-1638
1046.505	-2043
1046.565	-1221
1046.624	-2290
1046.684	-825
1046.743	-1480
1046.803	-617
1046.862	-313
1046.922	0
