'Start Wavelength	183.907
'End Wavelength	1046.922
'Gate Delay	5.000
'Gate Width (ms)	1.050
'Laser Output Level	0.000
'X Position	0.000
'Y Position	0.000
'Z Position	0.000
'Grid Point Number	1.000
'Shot Number	100.000
183.907	490.000
183.977	-43.000
184.047	365
184.116	620
184.186	503
184.256	-226
184.325	210
184.395	-1239
184.465	133
184.534	-190
184.604	-378
184.674	282
184.743	-910
184.813	813
184.883	-308
184.952	-692
185.022	668
185.092	-114
185.161	-43
185.231	-390
185.301	310
185.370	-508
185.440	-990
185.509	-580
185.579	469
185.649	141
185.718	-104
185.788	200
185.857	198
185.927	-117
185.996	-313
186.066	-361
186.136	607
186.205	52
186.275	266
186.344	308
186.414	50
186.483	-969
186.553	81
186.622	403
186.692	15
186.761	-177
186.831	-222
186.900	-790
186.970	452
187.039	929
187.109	949
187.178	338
187.248	682
187.317	258
187.387	503
187.456	-344
187.526	181
187.595	-514
187.664	-412
187.734	156
187.803	959
187.873	-120
187.942	660
188.012	-200
188.081	-59
188.150	-706
188.220	508
188.289	-133
188.358	117
188.428	-170
188.497	103
188.567	424
188.636	-493
188.705	177
188.775	659
188.844	26
188.913	887
188.983	-569
189.052	435
189.121	166
189.191	804
189.260	1058
189.329	1101
189.399	485
189.468	702
189.537	128
189.606	1021
189.676	325
189.745	414
189.814	-85
189.883	303
189.953	235
190.022	1140
190.091	2784
190.161	5297
190.230	1125
190.299	693
190.368	414
190.437	-124
190.507	-109
190.576	507
190.645	-214
190.714	583
190.783	752
190.853	637
190.922	510
190.991	504
191.060	704
191.129	94
191.198	372
191.268	306
191.337	-507
191.406	290
191.475	348
191.544	217
191.613	114
191.682	890
191.752	260
191.821	321
191.890	-344
191.959	497
192.028	35
192.097	389
192.166	-141
192.235	338
192.304	412
192.373	-41
192.442	178
192.511	52
192.580	204
192.650	212
192.719	411
192.788	694
192.857	216
192.926	306
192.995	717
193.064	1406
193.133	1497
193.202	1460
193.271	856
193.340	1009
193.409	941
193.478	1331
193.547	1333
193.615	2329
193.684	1393
193.753	969
193.822	770
193.891	280
193.960	731
194.029	600
194.098	562
194.167	-70
194.236	622
194.305	-348
194.374	-237
194.443	95
194.512	670
194.580	456
194.649	-42
194.718	1379
194.787	649
194.856	32
194.925	382
194.994	53
195.062	587
195.131	226
195.200	497
195.269	1108
195.338	498
195.407	-119
195.475	813
195.544	434
195.613	891
195.682	229
195.751	365
195.819	720
195.888	894
195.957	287
196.026	525
196.094	555
196.163	674
196.232	1531
196.301	416
196.369	494
196.438	182
196.507	128
196.576	60
196.644	792
196.713	77
196.782	309
196.850	-205
196.919	100
196.988	518
197.056	304
197.125	-197
197.194	196
197.262	606
197.331	909
197.400	300
197.468	390
197.537	96
197.606	1347
197.674	1768
197.743	5076
197.812	1434
197.880	5266
197.949	2742
198.017	4574
198.086	2877
198.155	1836
198.223	780
198.292	5781
198.360	1710
198.429	545
198.497	894
198.566	2853
198.635	5470
198.703	1360
198.772	1635
198.840	6344
198.909	5565
198.977	1994
199.046	2306
199.114	881
199.183	343
199.251	566
199.320	308
199.388	848
199.457	727
199.525	596
199.594	374
199.662	138
199.731	221
199.799	600
199.867	1093
199.936	385
200.004	606
200.073	1403
200.141	654
200.210	88
200.278	523
200.346	1498
200.415	220
200.483	-119
200.552	545
200.620	-54
200.688	-106
200.757	1216
200.825	70
200.893	1621
200.962	256
201.030	-168
201.098	-197
201.167	975
201.235	1016
201.303	940
201.372	352
201.440	1266
201.508	717
201.577	758
201.645	158
201.713	-14
201.781	311
201.850	718
201.918	563
201.986	566
202.055	1114
202.123	-8
202.191	700
202.259	727
202.327	-265
202.396	875
202.464	391
202.532	702
202.600	2781
202.669	1525
202.737	731
202.805	1125
202.873	234
202.941	1540
203.009	422
203.078	144
203.146	97
203.214	961
203.282	646
203.350	858
203.418	-90
203.487	1179
203.555	517
203.623	355
203.691	359
203.759	921
203.827	472
203.895	815
203.963	101
204.031	1071
204.099	1231
204.168	564
204.236	348
204.304	1026
204.372	274
204.440	817
204.508	1356
204.576	712
204.644	242
204.712	893
204.780	593
204.848	249
204.916	236
204.984	1153
205.052	482
205.120	1313
205.188	1435
205.256	1246
205.324	428
205.392	1340
205.460	1217
205.528	1601
205.596	585
205.664	659
205.732	1228
205.799	5921
205.867	10153
205.935	1747
206.003	2085
206.071	1844
206.139	1690
206.207	1671
206.275	982
206.343	579
206.411	512
206.478	1636
206.546	668
206.614	1437
206.682	1163
206.750	416
206.818	856
206.885	987
206.953	318
207.021	1981
207.089	598
207.157	850
207.225	1604
207.292	1200
207.360	387
207.428	1333
207.496	1029
207.563	1501
207.631	1020
207.699	290
207.767	1167
207.834	1057
207.902	578
207.970	1500
208.038	650
208.105	453
208.173	646
208.241	2552
208.309	2332
208.376	1240
208.444	3675
208.512	2399
208.579	608
208.647	1546
208.715	948
208.782	1172
208.850	1972
208.918	2277
208.985	1150
209.053	1336
209.120	1252
209.188	673
209.256	291
209.323	1497
209.391	889
209.459	1675
209.526	1842
209.594	1763
209.661	813
209.729	2560
209.796	1984
209.864	1042
209.932	916
209.999	2371
210.067	1017
210.134	2029
210.202	1442
210.269	1970
210.337	1647
210.404	1283
210.472	1081
210.539	1944
210.607	1368
210.674	1603
210.742	1430
210.809	1005
210.877	1041
210.944	2404
211.012	1092
211.079	2786
211.146	1307
211.214	1252
211.281	1138
211.349	1879
211.416	569
211.484	1897
211.551	1238
211.618	1331
211.686	1720
211.753	1439
211.821	1315
211.888	2309
211.955	1648
212.023	1739
212.090	1552
212.157	2168
212.225	1979
212.292	5715
212.359	12449
212.427	38588
212.494	14696
212.561	4917
212.629	2876
212.696	2858
212.763	2201
212.831	1544
212.898	2368
212.965	2091
213.032	1490
213.100	1768
213.167	1658
213.234	2801
213.301	2627
213.369	2415
213.436	1132
213.503	974
213.570	2132
213.638	3072
213.705	803
213.772	1055
213.839	2574
213.906	2717
213.973	2294
214.041	1340
214.108	1411
214.175	2174
214.242	935
214.309	2394
214.376	1509
214.444	1670
214.511	2231
214.578	1376
214.645	1914
214.712	2127
214.779	1914
214.846	2103
214.913	1608
214.980	2707
215.048	2424
215.115	2780
215.182	2356
215.249	1701
215.316	1599
215.383	1536
215.450	1276
215.517	1766
215.584	2235
215.651	1164
215.718	1404
215.785	2199
215.852	850
215.919	1927
215.986	912
216.053	1273
216.120	615
216.187	2422
216.254	1455
216.321	1977
216.388	1786
216.455	2911
216.522	1200
216.589	2282
216.656	4512
216.722	4663
216.789	2738
216.856	3430
216.923	2032
216.990	2837
217.057	1914
217.124	2602
217.191	1737
217.258	3418
217.324	3393
217.391	4789
217.458	3290
217.525	3283
217.592	2687
217.659	2344
217.725	2285
217.792	3582
217.859	4249
217.926	1816
217.993	1330
218.059	2844
218.126	2370
218.193	1345
218.260	1593
218.327	1332
218.393	1784
218.460	1151
218.527	507
218.594	2182
218.660	3951
218.727	4904
218.794	700
218.860	2016
218.927	691
218.994	1712
219.061	817
219.127	1764
219.194	3153
219.261	1695
219.327	1306
219.394	1167
219.461	797
219.527	2271
219.594	2233
219.661	2313
219.727	1192
219.794	1986
219.860	552
219.927	1830
219.994	2204
220.060	3914
220.127	2861
220.193	2903
220.260	2055
220.326	3889
220.393	5208
220.460	7462
220.526	4814
220.593	3117
220.659	3628
220.726	3986
220.792	14447
220.859	9820
220.925	9609
220.992	13825
221.058	17579
221.125	20746
221.191	15464
221.258	5711
221.324	3626
221.391	2804
221.457	2137
221.524	2568
221.590	4760
221.657	21031
221.723	12998
221.789	11964
221.856	9478
221.922	4741
221.989	3770
222.055	2755
222.121	1377
222.188	3052
222.254	2143
222.321	1090
222.387	818
222.453	2536
222.520	1602
222.586	1957
222.652	1652
222.719	1422
222.785	1981
222.851	970
222.918	1093
222.984	2448
223.050	1551
223.116	640
223.183	1115
223.249	1290
223.315	478
223.382	1383
223.448	1473
223.514	455
223.580	1251
223.647	1624
223.713	535
223.779	1061
223.845	1257
223.911	827
223.978	937
224.044	2279
224.110	481
224.176	1754
224.242	801
224.309	950
224.375	898
224.441	1541
224.507	830
224.573	927
224.639	1022
224.705	1421
224.772	1215
224.838	1556
224.904	1664
224.970	1781
225.036	743
225.102	1131
225.168	1443
225.234	1920
225.300	1174
225.366	772
225.432	1125
225.499	742
225.565	997
225.631	869
225.697	1177
225.763	2305
225.829	1817
225.895	2514
225.961	4065
226.027	3955
226.093	2206
226.159	3233
226.225	4277
226.291	12514
226.357	19734
226.423	9818
226.489	4984
226.554	3305
226.620	3251
226.686	4275
226.752	5732
226.818	9847
226.884	27226
226.950	22754
227.016	7722
227.082	4242
227.148	3504
227.214	3044
227.279	2807
227.345	2471
227.411	2037
227.477	2010
227.543	2217
227.609	3400
227.674	2623
227.740	1294
227.806	870
227.872	2361
227.938	1773
228.003	3029
228.069	862
228.135	1179
228.201	1172
228.267	926
228.332	1350
228.398	2406
228.464	2196
228.530	696
228.595	1305
228.661	1216
228.727	2126
228.792	2443
228.858	1646
228.924	989
228.990	3039
229.055	771
229.121	2722
229.187	1259
229.252	1423
229.318	536
229.384	1368
229.449	1469
229.515	-556
229.581	176
229.646	2044
229.712	1568
229.777	5162
229.843	4658
229.909	2483
229.974	3272
230.040	2774
230.105	2750
230.171	1991
230.236	3780
230.302	7643
230.368	4015
230.433	2635
230.499	2335
230.564	2858
230.630	1868
230.695	1227
230.761	2396
230.826	918
230.892	3670
230.957	1381
231.023	1772
231.088	1398
231.154	1618
231.219	1889
231.284	2400
231.350	2832
231.415	1478
231.481	1647
231.546	1709
231.612	1442
231.677	1542
231.742	116
231.808	2552
231.873	496
231.939	-74
232.004	2476
232.069	3569
232.135	1721
232.200	1532
232.265	1219
232.331	1467
232.396	812
232.461	22
232.527	1005
232.592	943
232.657	1884
232.723	4630
232.788	3469
232.853	2175
232.918	1344
232.984	1453
233.049	353
233.114	4029
233.179	3992
233.245	8300
233.310	9969
233.375	2518
233.440	2185
233.506	2933
233.571	1966
233.636	1524
233.701	1459
233.766	4888
233.832	7699
233.897	2197
233.962	525
234.027	2473
234.092	2601
234.157	2137
234.222	1581
234.288	5701
234.353	23137
234.418	17296
234.483	7041
234.548	4681
234.613	3364
234.678	3321
234.743	4631
234.808	20284
234.873	11266
234.938	4666
235.004	2735
235.069	2943
235.134	2873
235.199	3188
235.264	1762
235.329	2068
235.394	2496
235.459	4480
235.524	2189
235.589	2962
235.654	1831
235.719	1516
235.784	2295
235.849	4265
235.913	9547
235.978	10202
236.043	11715
236.108	4588
236.173	3995
236.238	3754
236.303	2266
236.368	2883
236.433	6902
236.498	12241
236.563	5932
236.627	10131
236.692	35618
236.757	27049
236.822	10591
236.887	9470
236.952	6376
237.017	5746
237.081	5774
237.146	6613
237.211	14618
237.276	35642
237.341	62522
237.405	28415
237.470	10721
237.535	9949
237.600	5212
237.664	5519
237.729	3047
237.794	5236
237.859	8081
237.923	9053
237.988	5314
238.053	8711
238.118	8608
238.182	33733
238.247	28635
238.312	11296
238.376	7508
238.441	5233
238.506	5295
238.570	2029
238.635	3423
238.700	2746
238.764	2578
238.829	12247
238.893	15248
238.958	5179
239.023	4038
239.087	3102
239.152	3035
239.216	1732
239.281	1945
239.346	2934
239.410	2561
239.475	4754
239.539	31526
239.604	25021
239.668	5673
239.733	3128
239.797	3018
239.862	5976
239.926	20064
239.991	7475
240.055	3689
240.120	2305
240.184	3010
240.249	1724
240.313	1911
240.378	3367
240.442	14712
240.507	30248
240.571	7977
240.635	12116
240.700	14592
240.764	3741
240.829	2660
240.893	1613
240.957	2937
241.022	16058
241.086	26630
241.151	10226
241.215	3356
241.279	5865
241.344	12185
241.408	5689
241.472	2410
241.537	3447
241.601	3428
241.665	2363
241.730	2571
241.794	4159
241.858	2195
241.922	2313
241.987	2553
242.051	2224
242.115	1121
242.179	2034
242.244	1313
242.308	3221
242.372	3121
242.436	4646
242.501	2842
242.565	1307
242.629	1403
242.693	2671
242.757	1146
242.822	2917
242.886	3636
242.950	3574
243.014	3010
243.078	3461
243.142	3261
243.206	3399
243.271	4537
243.335	4124
243.399	6525
243.463	34015
243.527	87685
243.591	24309
243.655	8808
243.719	5906
243.783	5648
243.847	8755
243.911	11646
243.975	9050
244.040	5384
244.104	4831
244.168	2572
244.232	3048
244.296	6448
244.360	8832
244.424	4886
244.488	5359
244.552	3956
244.615	2777
244.679	3699
244.743	3575
244.807	2515
244.871	1984
244.935	2360
244.999	1772
245.063	1822
245.127	3289
245.191	7060
245.255	5353
245.319	3443
245.383	2822
245.446	3450
245.510	2297
245.574	2247
245.638	2530
245.702	1880
245.766	7120
245.829	3685
245.893	4335
245.957	2243
246.021	3381
246.085	3177
246.149	5693
246.212	10309
246.276	16171
246.340	6152
246.404	4363
246.467	4303
246.531	6597
246.595	5461
246.659	5307
246.722	2911
246.786	3720
246.850	3802
246.913	5458
246.977	3144
247.041	3826
247.104	3572
247.168	3575
247.232	8600
247.295	23085
247.359	9256
247.423	4466
247.486	6969
247.550	5362
247.614	3395
247.677	4384
247.741	3484
247.804	2964
247.868	4963
247.932	8555
247.995	20957
248.059	7114
248.122	3437
248.186	6129
248.249	9660
248.313	36555
248.376	32161
248.440	22272
248.503	6741
248.567	7595
248.630	8045
248.694	9967
248.757	14702
248.821	38460
248.884	18641
248.948	18256
249.011	28096
249.075	45261
249.138	36951
249.202	12371
249.265	9710
249.328	19525
249.392	9410
249.455	7919
249.519	5263
249.582	7082
249.645	10009
249.709	9620
249.772	9791
249.835	8888
249.899	9049
249.962	6754
250.025	5702
250.089	14276
250.152	18814
250.215	8363
250.279	6587
250.342	8766
250.405	8253
250.468	7248
250.532	9486
250.595	18583
250.658	87006
250.721	139276
250.785	36468
250.848	18641
250.911	12971
250.974	11326
251.038	14135
251.101	25247
251.164	15344
251.227	14013
251.290	12854
251.354	25203
251.417	120679
251.480	108401
251.543	71261
251.606	235607
251.669	152186
251.732	48852
251.795	42297
251.859	48541
251.922	137561
251.985	67776
252.048	23297
252.111	16340
252.174	14328
252.237	22829
252.300	49930
252.363	66626
252.426	166197
252.489	57826
252.552	30405
252.615	20808
252.678	19154
252.741	40797
252.804	68947
252.867	176493
252.930	77485
252.993	35522
253.056	21100
253.119	15465
253.182	12921
253.245	25133
253.308	16702
253.371	14597
253.434	12515
253.497	13055
253.559	21321
253.622	14730
253.685	15741
253.748	13472
253.811	8531
253.874	14948
253.937	12962
254.000	8089
254.062	13409
254.125	20970
254.188	15534
254.251	12937
254.314	7743
254.376	11513
254.439	11902
254.502	9920
254.565	12540
254.628	22329
254.690	10984
254.753	7172
254.816	5991
254.878	8293
254.941	16275
255.004	16621
255.067	7285
255.129	6047
255.192	3940
255.255	3033
255.317	4073
255.380	3388
255.443	2428
255.505	2060
255.568	1568
255.631	2468
255.693	2914
255.756	1537
255.819	3720
255.881	1685
255.944	1918
256.006	3833
256.069	3049
256.132	2614
256.194	5449
256.257	21501
256.319	14098
256.382	12068
256.444	5305
256.507	4498
256.569	3030
256.632	4292
256.694	8151
256.757	17840
256.819	51188
256.882	18073
256.944	7393
257.007	6104
257.069	6757
257.132	4637
257.194	4147
257.257	3171
257.319	3214
257.381	4781
257.444	14121
257.506	63004
257.569	56173
257.631	20702
257.693	12775
257.756	8219
257.818	8641
257.880	5200
257.943	4019
258.005	2591
258.067	2748
258.130	3778
258.192	3809
258.254	9746
258.317	5516
258.379	4324
258.441	9113
258.503	11338
258.566	27384
258.628	34512
258.690	6472
258.753	6432
258.815	7295
258.877	3876
258.939	3245
259.001	3479
259.064	3236
259.126	5412
259.188	8514
259.250	4893
259.312	4819
259.375	8176
259.437	5419
259.499	4157
259.561	3295
259.623	3880
259.685	3739
259.747	5091
259.809	26290
259.872	50726
259.934	80799
259.996	55251
260.058	12197
260.120	6870
260.182	5872
260.244	4150
260.306	2994
260.368	4236
260.430	2391
260.492	5743
260.554	9714
260.616	6407
260.678	26864
260.740	44164
260.802	8897
260.864	5222
260.926	3710
260.988	4809
261.050	4537
261.112	9674
261.174	45089
261.236	38909
261.298	9469
261.359	20713
261.421	28288
261.483	7393
261.545	4778
261.607	3137
261.669	4423
261.731	11772
261.793	24470
261.854	6187
261.916	5003
261.978	4574
262.040	5098
262.102	5190
262.164	9043
262.225	6772
262.287	3787
262.349	7318
262.411	5012
262.472	4612
262.534	12881
262.596	28494
262.658	7498
262.719	3222
262.781	7440
262.843	26828
262.904	10416
262.966	7085
263.028	10961
263.090	60358
263.151	143578
263.213	36530
263.275	14192
263.336	8178
263.398	6574
263.459	3833
263.521	2900
263.583	6828
263.644	4706
263.706	2361
263.767	1705
263.829	2287
263.891	2056
263.952	1684
264.014	1577
264.075	3817
264.137	6649
264.198	4242
264.260	2371
264.321	2713
264.383	5024
264.444	11438
264.506	3204
264.567	2987
264.629	5233
264.690	8146
264.752	3809
264.813	2317
264.875	1639
264.936	2744
264.998	1520
265.059	1439
265.120	1798
265.182	4065
265.243	22750
265.305	21365
265.366	4815
265.427	2879
265.489	3188
265.550	1519
265.611	1375
265.673	1878
265.734	1489
265.795	2191
265.857	680
265.918	2283
265.979	7262
266.040	40032
266.102	30583
266.163	7840
266.224	4990
266.286	3615
266.347	2004
266.408	2686
266.469	3821
266.530	2905
266.592	1116
266.653	3915
266.714	6723
266.775	2521
266.836	1230
266.898	954
266.959	2681
267.020	1944
267.081	2345
267.142	1194
267.203	667
267.264	568
267.326	1706
267.387	1492
267.448	-25
267.509	1554
267.570	1423
267.631	1372
267.692	-257
267.753	2218
267.814	-101
267.875	3909
267.936	8027
267.997	4068
268.058	3621
268.119	2571
268.180	1134
268.241	657
268.302	939
268.363	1218
268.424	852
268.485	3193
268.546	1132
268.607	855
268.668	1589
268.729	1369
268.790	1370
268.851	1638
268.912	4694
268.972	5415
269.033	2436
269.094	1159
269.155	1546
269.216	1388
269.277	2476
269.338	1323
269.398	1681
269.459	1152
269.520	1995
269.581	3176
269.642	3301
269.702	2206
269.763	1600
269.824	1664
269.885	2431
269.945	3859
270.006	1033
270.067	977
270.128	1380
270.188	1403
270.249	472
270.310	1007
270.370	1973
270.431	2941
270.492	1500
270.553	1954
270.613	2976
270.674	8151
270.734	2826
270.795	1464
270.856	2613
270.916	2421
270.977	1640
271.038	2579
271.098	1747
271.159	3729
271.219	4504
271.280	2505
271.340	1750
271.401	3418
271.462	13150
271.522	4980
271.583	3382
271.643	3253
271.704	1791
271.764	2707
271.825	7456
271.885	28477
271.946	41358
272.006	11335
272.066	18599
272.127	34314
272.187	8383
272.248	5351
272.308	5467
272.369	22648
272.429	11157
272.489	7185
272.550	6004
272.610	6934
272.671	4158
272.731	8836
272.791	14714
272.852	5326
272.912	4531
272.972	2551
273.033	2568
273.093	6817
273.153	5112
273.214	3154
273.274	3752
273.334	14825
273.394	28565
273.455	8834
273.515	9993
273.575	21690
273.635	8806
273.696	16429
273.756	33859
273.816	11830
273.876	7451
273.936	29125
273.997	50136
274.057	10290
274.117	6481
274.177	9066
274.237	35336
274.297	37249
274.358	31025
274.418	24952
274.478	15522
274.538	7316
274.598	8846
274.658	43373
274.718	51748
274.778	16612
274.838	8683
274.898	24621
274.958	76163
275.018	44384
275.078	23534
275.138	8938
275.198	5147
275.258	5536
275.318	6937
275.378	9041
275.438	7847
275.498	7448
275.558	35017
275.618	63440
275.678	23648
275.738	12124
275.798	7818
275.858	5295
275.918	2803
275.978	3893
276.038	3313
276.098	2642
276.157	5471
276.217	15993
276.277	6418
276.337	5055
276.397	2734
276.457	4337
276.517	1978
276.576	2310
276.636	1856
276.696	4054
276.756	11774
276.815	8461
276.875	3845
276.935	4185
276.995	3235
277.055	3073
277.114	2175
277.174	3953
277.234	12116
277.293	5739
277.353	3769
277.413	2317
277.472	1511
277.532	2188
277.592	2579
277.651	7056
277.711	10554
277.771	5317
277.830	14912
277.890	13720
277.950	11300
278.009	32052
278.069	11709
278.128	9313
278.188	10828
278.248	6345
278.307	12039
278.367	10062
278.426	4647
278.486	3494
278.545	2368
278.605	3026
278.664	2195
278.724	4235
278.783	12383
278.843	34875
278.902	9003
278.962	5167
279.021	5413
279.081	10336
279.140	7947
279.199	4362
279.259	5210
279.318	5608
279.378	8444
279.437	15007
279.496	48975
279.556	232268
279.615	173421
279.675	36214
279.734	20655
279.793	27501
279.853	32491
279.912	12253
279.971	7916
280.031	6343
280.090	9326
280.149	17444
280.208	26325
280.268	162884
280.327	159209
280.386	30563
280.445	18587
280.505	16433
280.564	9437
280.623	7493
280.682	8663
280.742	12433
280.801	4744
280.860	3296
280.919	2013
280.978	2595
281.037	3362
281.097	3570
281.156	2146
281.215	2984
281.274	4594
281.333	19282
281.392	14320
281.451	4170
281.510	2459
281.569	2236
281.628	3286
281.688	2916
281.747	2278
281.806	3212
281.865	2247
281.924	1440
281.983	1993
282.042	1856
282.101	622
282.160	1931
282.219	1109
282.278	2727
282.337	7113
282.396	5551
282.454	2728
282.513	3996
282.572	11623
282.631	8118
282.690	2461
282.749	2140
282.808	2756
282.867	3078
282.926	2845
282.985	2151
283.043	1075
283.102	2042
283.161	2656
283.220	7160
283.279	18216
283.338	6189
283.396	2473
283.455	2708
283.514	2088
283.573	4951
283.631	3885
283.690	2440
283.749	2356
283.808	5323
283.866	5503
283.925	2480
283.984	2706
284.043	2977
284.101	3877
284.160	2571
284.219	5442
284.277	3281
284.336	5360
284.395	17543
284.453	15638
284.512	5079
284.570	5463
284.629	5071
284.688	4312
284.746	3422
284.805	4236
284.863	5428
284.922	4782
284.981	6454
285.039	9328
285.098	18102
285.156	50674
285.215	186372
285.273	171010
285.332	62494
285.390	27208
285.449	17119
285.507	12476
285.566	9876
285.624	7448
285.683	5833
285.741	4358
285.799	4181
285.858	3817
285.916	3917
285.975	2266
286.033	3229
286.091	1856
286.150	2140
286.208	3095
286.267	4144
286.325	3029
286.383	4208
286.442	4045
286.500	2548
286.558	2677
286.616	2276
286.675	2737
286.733	3023
286.791	1713
286.850	3718
286.908	3950
286.966	7227
287.024	3013
287.083	2233
287.141	2359
287.199	2351
287.257	4186
287.315	4352
287.374	4336
287.432	8270
287.490	6363
287.548	4344
287.606	3774
287.664	4637
287.723	5672
287.781	8427
287.839	5170
287.897	6959
287.955	10242
288.013	18658
288.071	49482
288.129	181915
288.187	480216
288.245	212154
288.303	67740
288.361	38381
288.419	27975
288.477	21016
288.535	14454
288.593	10585
288.651	7474
288.709	5542
288.767	5020
288.825	4182
288.883	3767
288.941	4510
288.999	3329
289.057	3137
289.115	2998
289.173	3019
289.231	2322
289.289	2940
289.346	2796
289.404	3691
289.462	4715
289.520	4840
289.578	2436
289.636	2393
289.694	1486
289.751	2434
289.809	1724
289.867	2878
289.925	2771
289.983	3656
290.040	2168
290.098	2178
290.156	1994
290.214	2002
290.271	2152
290.329	1894
290.387	675
290.444	1670
290.502	250
290.560	1408
290.617	1946
290.675	1295
290.733	1218
290.790	2184
290.848	2024
290.906	2704
290.963	2699
291.021	2460
291.078	1866
291.136	2622
291.194	7696
291.251	18956
291.309	6103
291.366	2113
291.424	1357
291.481	1986
291.539	921
291.596	1600
291.654	932
291.711	1314
291.769	2383
291.826	4785
291.884	3487
291.941	1997
291.999	1183
292.056	2194
292.114	2662
292.171	1492
292.228	832
292.286	2942
292.343	5573
292.401	7093
292.458	5143
292.515	3598
292.573	2740
292.630	2949
292.687	4052
292.745	2653
292.802	4285
292.859	10797
292.917	19257
292.974	11973
293.031	3666
293.089	2705
293.146	2046
293.203	1718
293.260	1283
293.318	2693
293.375	3832
293.432	3143
293.489	1739
293.546	2114
293.604	5452
293.661	15149
293.718	40484
293.775	19843
293.832	8260
293.889	5794
293.947	3545
294.004	3289
294.061	3893
294.118	8173
294.175	17575
294.232	23288
294.289	9866
294.346	5156
294.403	5308
294.460	4820
294.517	3823
294.574	3485
294.631	2875
294.688	5638
294.745	12085
294.802	45650
294.859	46124
294.916	17522
294.973	7721
295.030	6337
295.087	5424
295.144	4388
295.201	3943
295.258	4835
295.315	5634
295.372	16318
295.429	34695
295.486	14963
295.542	8390
295.599	17351
295.656	29965
295.713	22746
295.770	29010
295.827	12979
295.883	6048
295.940	5385
295.997	7315
296.054	8057
296.111	4195
296.167	3457
296.224	2538
296.281	2419
296.338	2401
296.394	2795
296.451	3923
296.508	12093
296.564	24089
296.621	18653
296.678	37823
296.734	57567
296.791	21275
296.848	10658
296.904	9301
296.961	17828
297.018	33272
297.074	27520
297.131	11585
297.187	8181
297.244	11241
297.301	37733
297.357	71603
297.414	26854
297.470	10254
297.527	6686
297.583	5049
297.640	6003
297.696	4943
297.753	3936
297.809	2663
297.866	2096
297.922	1875
297.979	2702
298.035	2775
298.092	6079
298.148	17391
298.204	19275
298.261	10503
298.317	17739
298.374	48410
298.430	30523
298.486	15060
298.543	11364
298.599	8233
298.656	10221
298.712	17402
298.768	48905
298.824	41540
298.881	14663
298.937	6886
298.993	6545
299.050	5889
299.106	5433
299.162	5158
299.218	5179
299.275	4454
299.331	6416
299.387	11034
299.443	38722
299.500	41297
299.556	15852
299.612	6848
299.668	5520
299.724	4622
299.780	5264
299.837	5031
299.893	8299
299.949	26791
300.005	34550
300.061	30258
300.117	55005
300.173	29754
300.229	11909
300.285	11985
300.341	13733
300.397	8004
300.453	5496
300.510	3936
300.566	3828
300.622	4838
300.678	8744
300.734	18830
300.790	27770
300.845	41447
300.901	22815
300.957	24087
301.013	22198
301.069	9864
301.125	7127
301.181	6154
301.237	4907
301.293	3270
301.349	3538
301.405	3001
301.461	3731
301.516	4775
301.572	5279
301.628	7274
301.684	8483
301.740	11164
301.796	20422
301.851	14745
301.907	21624
301.963	27177
302.019	46052
302.074	123564
302.130	126243
302.186	58096
302.242	23523
302.297	13662
302.353	13750
302.409	22279
302.464	21847
302.520	19430
302.576	38070
302.631	46869
302.687	25377
302.743	11250
302.798	6286
302.854	5330
302.910	5912
302.965	6788
303.021	11728
303.076	11075
303.132	12286
303.187	14898
303.243	8661
303.299	5355
303.354	4876
303.410	3737
303.465	3447
303.521	3962
303.576	4998
303.632	6171
303.687	12897
303.743	38425
303.798	34447
303.853	14087
303.909	6557
303.964	6243
304.020	8377
304.075	11436
304.130	11448
304.186	16121
304.241	19976
304.297	15462
304.352	9620
304.358	9192
304.407	5724
304.449	4774
304.463	4458
304.518	4545
304.539	4328
304.573	3991
304.629	6039
304.630	6126
304.684	10400
304.720	21743
304.739	27445
304.794	46576
304.811	39989
304.850	24084
304.902	10911
304.905	10075
304.960	6426
304.992	6696
305.015	6908
305.071	6842
305.083	6508
305.126	5274
305.173	4025
305.181	3834
305.236	3435
305.264	3390
305.292	3321
305.347	4120
305.354	4157
305.402	4380
305.445	5675
305.457	6043
305.512	7700
305.535	7721
305.567	7786
305.622	8216
305.626	8549
305.678	15455
305.716	31425
305.733	37479
305.788	47404
305.807	41274
305.843	30944
305.897	38425
305.898	38478
305.953	40343
305.988	28135
306.008	21386
306.063	11327
306.078	10107
306.118	7665
306.168	5527
306.173	5326
306.228	4499
306.259	4142
306.283	3978
306.338	3688
306.349	3873
306.393	4498
306.440	5773
306.448	6004
306.503	6091
306.530	6947
306.558	8755
306.613	18068
306.620	19545
306.668	28125
306.711	32612
306.723	33061
306.778	27953
306.801	21882
306.833	14561
306.888	7816
306.892	7557
306.943	5073
306.982	5009
306.997	5009
307.052	4799
307.072	4924
307.107	5500
307.162	6768
307.163	6818
307.217	11818
307.253	14687
307.272	15502
307.327	17720
307.343	16199
307.381	12629
307.434	10740
307.436	10871
307.491	18625
307.524	27783
307.546	31067
307.600	30384
307.614	27269
307.655	17879
307.704	10021
307.710	9547
307.765	11128
307.795	13879
307.819	16885
307.874	30397
307.885	30380
307.929	24223
307.975	16723
307.984	16374
308.038	21261
308.065	27942
308.093	47302
308.148	98212
308.156	111890
308.202	188663
308.246	238514
308.257	234983
308.312	129789
308.336	87935
308.366	61640
308.421	36069
308.426	34341
308.475	22352
308.517	17080
308.530	15760
308.585	13035
308.607	12457
308.639	12176
308.694	12946
308.697	13167
308.748	23169
308.787	35591
308.803	36542
308.857	29056
308.877	24418
308.912	18714
308.967	14915
308.967	14933
309.021	18007
309.058	22183
309.076	27513
309.130	50587
309.148	61788
309.185	135673
309.238	266381
309.239	267107
309.293	305653
309.328	275223
309.348	234894
309.402	104189
309.418	73034
309.457	47116
309.508	27756
309.511	26823
309.566	20555
309.598	18212
309.620	17514
309.674	17392
309.688	17804
309.729	16864
309.778	14072
309.783	13749
309.837	11509
309.868	10548
309.892	12165
309.946	18039
309.959	20402
310.001	27525
310.049	33616
310.055	32898
310.109	21851
310.139	14644
310.163	11518
310.218	7668
310.229	7291
310.272	6060
310.319	4709
310.326	4580
310.381	4943
310.409	4858
310.435	4649
310.489	4241
310.499	4217
310.543	4717
310.589	5382
310.598	5234
310.652	4573
310.679	4047
310.706	3573
310.760	2542
310.769	2425
310.814	2169
310.859	2014
310.868	2027
310.923	2183
310.948	2269
310.977	2620
311.031	3472
311.038	3601
311.085	3409
311.128	2987
311.139	2889
311.193	2577
311.218	2419
311.247	2286
311.301	2045
311.308	2044
311.356	2398
311.398	2623
311.410	2592
311.464	2539
311.488	2516
311.518	2162
311.572	1498
311.578	1438
311.626	2100
311.668	2809
311.680	2830
311.734	2843
311.758	2883
311.788	2970
311.842	3146
311.847	3180
311.896	3723
311.937	4284
311.950	4178
312.004	3808
312.027	3636
312.058	3059
312.112	2090
312.117	2012
312.165	2181
312.207	2359
312.297	2239
312.386	2403
312.476	2317
312.566	5013
312.656	2829
312.745	1915
312.835	1837
312.925	2049
313.015	3120
313.104	3713
313.194	1969
313.284	2426
313.374	1915
313.463	2250
313.553	1043
313.643	2010
313.732	1580
313.822	1584
313.912	1832
314.001	2016
314.091	1750
314.180	2379
314.270	2028
314.360	3476
314.449	3220
314.539	1914
314.628	1280
314.718	2412
314.808	3340
314.897	1638
314.987	1557
315.076	2374
315.166	2596
315.255	3510
315.345	3318
315.434	3837
315.524	3167
315.613	3305
315.703	3504
315.792	4011
315.881	7780
315.971	4046
316.060	7120
316.150	12543
316.239	13972
316.328	4726
316.418	2217
316.507	2434
316.597	2966
316.686	2924
316.775	6328
316.865	15178
316.954	2947
317.043	2220
317.133	1272
317.222	1819
317.311	1894
317.400	779
317.490	3289
317.579	2801
317.668	2631
317.757	2914
317.847	5395
317.936	14224
318.025	7919
318.114	4373
318.203	3118
318.293	5136
318.382	8942
318.471	6628
318.560	10026
318.649	21233
318.738	5022
318.828	3474
318.917	3265
319.006	5560
319.095	15838
319.184	27910
319.273	14288
319.362	6725
319.451	2866
319.540	2923
319.629	5080
319.718	9595
319.807	5070
319.896	9233
319.985	35479
320.074	11998
320.163	4358
320.252	9239
320.341	4783
320.430	3412
320.519	4816
320.608	3185
320.697	1986
320.786	2352
320.875	2896
320.964	4772
321.053	6416
321.142	8651
321.230	8982
321.319	7683
321.408	14866
321.497	6907
321.586	7003
321.675	11713
321.764	10397
321.852	7187
321.941	8262
322.030	6238
322.119	5591
322.207	18296
322.296	19495
322.385	7846
322.474	7211
322.562	18906
322.651	10170
322.740	8008
322.829	12397
322.917	18570
323.006	8250
323.095	5541
323.183	6320
323.272	10297
323.361	20163
323.449	77717
323.538	23922
323.626	46803
323.715	30288
323.804	10674
323.892	40801
323.981	20031
324.069	6248
324.158	22744
324.246	21691
324.335	5119
324.424	5731
324.512	3737
324.601	4330
324.689	13015
324.778	25499
324.866	15400
324.954	4296
325.043	2788
325.131	7656
325.220	16605
325.308	18486
325.397	11975
325.485	7089
325.574	1546
325.662	1659
325.750	2492
325.839	1774
325.927	2199
326.015	2808
326.104	7203
326.192	11210
326.280	2785
326.369	1727
326.457	2826
326.545	4367
326.634	2054
326.722	1014
326.810	1480
326.898	1311
326.987	2681
327.075	4362
327.163	7981
327.251	4898
327.340	7701
327.428	12002
327.516	2744
327.604	2446
327.692	3183
327.781	3058
327.869	6974
327.957	3450
328.045	2577
328.133	2445
328.221	3377
328.309	1840
328.397	2010
328.485	1854
328.574	3475
328.662	10030
328.750	9229
328.838	3627
328.926	2411
329.014	1448
329.102	3030
329.190	5547
329.278	4149
329.366	1323
329.454	1086
329.542	1149
329.630	1643
329.718	2548
329.806	1578
329.893	1957
329.981	3275
330.069	7769
330.157	31033
330.245	95101
330.333	48659
330.421	7809
330.509	4879
330.597	12562
330.684	8059
330.772	3050
330.860	4843
330.948	4749
331.036	2675
331.123	1676
331.211	1473
331.299	1399
331.387	5207
331.475	7214
331.562	2752
331.650	1350
331.738	2381
331.825	3456
331.913	2027
332.001	1337
332.089	2928
332.176	6970
332.264	20988
332.352	14708
332.439	3314
332.527	2433
332.614	2222
332.702	4127
332.790	2247
332.877	8204
332.965	17761
333.052	3689
333.140	2826
333.228	6868
333.315	1285
333.403	2615
333.490	11167
333.578	7959
333.665	3965
333.753	3258
333.840	1763
333.928	2882
334.015	12534
334.103	17067
334.190	53215
334.278	12326
334.365	4404
334.452	1913
334.540	2044
334.627	3719
334.715	6514
334.802	14428
334.889	88846
334.977	92434
335.064	8372
335.151	2435
335.239	2546
335.326	3713
335.413	17589
335.501	23654
335.588	3288
335.675	1891
335.762	2224
335.850	4669
335.937	5272
336.024	17006
336.111	82341
336.199	28964
336.286	3661
336.373	2088
336.460	2232
336.547	1345
336.635	2449
336.722	2590
336.809	1619
336.896	3300
336.983	8974
337.070	23995
337.157	44670
337.245	54467
337.332	40690
337.419	4486
337.506	1985
337.593	2122
337.680	6588
337.767	19913
337.854	6001
337.941	7242
338.028	13894
338.115	4162
338.202	5055
338.289	12421
338.376	52742
338.463	14816
338.550	11737
338.637	13064
338.724	7992
338.811	14309
338.898	2504
338.984	1836
339.071	1754
339.158	2377
339.245	5713
339.332	4160
339.419	8542
339.506	7848
339.593	980
339.679	1452
339.766	539
339.853	1734
339.940	4317
340.027	107
340.113	953
340.200	2285
340.287	1746
340.374	1941
340.460	4406
340.547	1542
340.634	3466
340.720	12286
340.807	7438
340.894	1342
340.980	2117
341.067	1051
341.154	1795
341.240	3272
341.327	6049
341.414	2217
341.500	940
341.587	1974
341.674	2355
341.760	3328
341.847	4555
341.933	2048
342.020	537
342.106	1358
342.193	1407
342.279	2742
342.366	1691
342.452	3458
342.539	2339
342.625	4278
342.712	12966
342.798	5386
342.885	2181
342.971	745
343.058	377
343.144	1105
343.230	688
343.317	1454
343.403	798
343.490	1103
343.576	1270
343.662	1280
343.749	1879
343.835	3365
343.921	8263
344.008	51653
344.094	120465
344.180	22637
344.267	5755
344.353	19199
344.439	22667
344.525	6819
344.612	3026
344.698	1871
344.784	1765
344.870	1349
344.957	773
345.043	2176
345.129	969
345.215	2981
345.301	2037
345.387	467
345.474	588
345.560	332
345.646	1992
345.732	1421
345.818	861
345.904	2034
345.990	2044
346.076	2426
346.162	5450
346.249	1940
346.335	774
346.421	1936
346.507	8169
346.593	31552
346.679	6674
346.765	1633
346.851	326
346.937	1471
347.023	896
347.108	1856
347.194	487
347.280	364
347.366	1289
347.452	7919
347.538	42231
347.624	25943
347.710	19221
347.796	3024
347.882	1027
347.967	1339
348.053	1360
348.139	388
348.225	768
348.311	644
348.397	1129
348.482	1616
348.568	1228
348.654	370
348.740	336
348.825	-131
348.911	4119
348.997	17668
349.083	41142
349.168	6364
349.254	2183
349.340	1126
349.425	443
349.511	1704
349.597	2120
349.682	3645
349.768	15798
349.854	7272
349.939	1706
350.025	803
350.110	779
350.196	-462
350.282	849
350.367	698
350.453	4332
350.538	4469
350.624	1160
350.709	1469
350.795	359
350.880	1588
350.966	1975
351.051	3433
351.137	2307
351.222	1812
351.308	4121
351.393	12117
351.479	2850
351.564	588
351.649	1508
351.735	826
351.820	611
351.906	541
351.991	2015
352.076	8426
352.162	12218
352.247	2717
352.332	1896
352.418	2828
352.503	3510
352.588	17289
352.673	13508
352.759	3230
352.844	1152
352.929	1652
353.014	2027
353.100	603
353.185	890
353.270	2858
353.355	4698
353.441	1051
353.526	2657
353.611	3972
353.696	5217
353.781	3015
353.866	335
353.952	2041
354.037	3241
354.122	8570
354.207	7694
354.292	2196
354.377	1551
354.462	137
354.547	1436
354.632	1362
354.717	1439
354.802	1062
354.887	287
354.972	725
355.057	274
355.142	-71
355.227	1569
355.312	2193
355.397	5295
355.482	13284
355.567	5968
355.652	4958
355.737	6265
355.822	19272
355.907	15858
355.991	1847
356.076	1015
356.161	929
356.246	855
356.331	1873
356.416	5522
356.501	48053
356.585	50328
356.670	5934
356.755	3239
356.840	4846
356.924	30792
357.009	130948
357.094	45260
357.179	6335
357.263	4222
357.348	3743
357.433	4413
357.517	2295
357.602	2243
357.687	1698
357.771	3362
357.856	12216
357.941	10483
358.025	30991
358.110	158082
358.195	68070
358.279	6185
358.364	3674
358.448	12057
358.533	32776
358.617	22614
358.702	24044
358.787	8536
358.871	3979
358.956	2734
359.040	855
359.125	824
359.209	1937
359.294	5100
359.378	9029
359.462	3252
359.547	2273
359.631	1825
359.716	-63
359.800	833
359.885	1553
359.969	632
360.053	1827
360.138	1260
360.222	1660
360.306	2905
360.391	2849
360.475	5908
360.559	13541
360.644	12284
360.728	8897
360.812	23924
360.896	74797
360.981	23289
361.065	7867
361.149	2393
361.233	1801
361.318	1163
361.402	1977
361.486	1798
361.570	389
361.654	2652
361.739	6856
361.823	44835
361.907	79910
361.991	11487
362.075	3406
362.159	7388
362.243	5795
362.327	2462
362.411	3476
362.495	2797
362.580	1461
362.664	451
362.748	365
362.832	692
362.916	843
363.000	5904
363.084	39884
363.168	87886
363.252	16762
363.336	3503
363.420	5874
363.503	24647
363.587	27234
363.671	3784
363.755	2632
363.839	4159
363.923	1315
364.007	3944
364.091	4778
364.175	8156
364.258	39848
364.342	18532
364.426	6045
364.510	2455
364.594	4328
364.677	11169
364.761	63176
364.845	45143
364.929	7890
365.013	5917
365.096	5032
365.180	5707
365.264	10196
365.347	44439
365.431	17097
365.515	2518
365.598	837
365.682	1491
365.766	2079
365.849	2494
365.933	1495
366.017	3425
366.100	480
366.184	54
366.267	1553
366.351	931
366.435	-26
366.518	-250
366.602	-341
366.685	73
366.769	1041
366.852	1773
366.936	4667
367.019	2793
367.103	1501
367.186	3561
367.270	572
367.353	662
367.436	680
367.520	668
367.603	1397
367.687	2117
367.770	4404
367.853	3172
367.937	11816
368.020	21727
368.104	3634
368.187	3755
368.270	5086
368.353	3401
368.437	10288
368.520	32725
368.603	14853
368.687	13772
368.770	26956
368.853	4968
368.936	4596
369.020	4578
369.103	949
369.186	45
369.269	873
369.352	2454
369.436	4095
369.519	2539
369.602	286
369.685	2501
369.768	1417
369.851	1317
369.934	-38
370.018	993
370.101	3059
370.184	3967
370.267	1937
370.350	3591
370.433	6902
370.516	24728
370.599	31159
370.682	5753
370.765	11400
370.848	16654
370.931	35027
371.014	13653
371.097	2053
371.180	1795
371.263	1272
371.346	84
371.429	792
371.511	360
371.594	2064
371.677	4187
371.760	4689
371.843	6580
371.926	49742
372.009	128805
372.091	33876
372.174	14560
372.257	38681
372.340	14439
372.423	6464
372.505	7311
372.588	3132
372.671	9123
372.754	33820
372.836	16903
372.919	10053
373.002	19692
373.085	5057
373.167	4503
373.250	13065
373.332	36120
373.415	68764
373.498	168973
373.580	52953
373.663	67080
373.746	101075
373.828	17712
373.911	4552
373.993	4962
374.076	18774
374.159	20565
374.241	9504
374.324	26068
374.406	18343
374.489	36709
374.571	112847
374.654	40385
374.736	17618
374.819	65006
374.901	104968
374.983	116504
375.066	17335
375.148	4549
375.231	16251
375.313	32528
375.395	9683
375.478	2542
375.560	1904
375.643	3183
375.725	17364
375.807	88601
375.890	73254
375.972	28553
376.054	13262
376.136	26482
376.219	11128
376.301	20189
376.383	66205
376.465	22808
376.548	9375
376.630	13893
376.712	46881
376.794	21056
376.877	2201
376.959	285
377.041	1213
377.123	2849
377.205	3992
377.287	533
377.369	870
377.452	1058
377.534	998
377.616	1029
377.698	741
377.780	153
377.862	1507
377.944	1936
378.026	-133
378.108	603
378.190	785
378.272	858
378.354	-224
378.436	292
378.518	1741
378.600	6809
378.682	5710
378.764	16538
378.846	12811
378.928	3170
379.010	3139
379.091	3170
379.173	771
379.255	456
379.337	2467
379.419	7689
379.501	26305
379.583	9499
379.664	1988
379.746	4715
379.828	15840
379.910	21634
379.991	20329
380.073	2923
380.155	1523
380.237	1593
380.318	333
380.400	391
380.482	2520
380.564	4859
380.645	3446
380.727	3512
380.809	2047
380.890	827
380.972	623
381.053	1099
381.135	1211
381.217	4056
381.298	16623
381.380	7842
381.461	8103
381.543	48550
381.624	63251
381.706	9942
381.787	3510
381.869	5155
381.951	26243
382.032	123234
382.113	72080
382.195	8732
382.276	5257
382.358	10608
382.439	42331
382.521	55104
382.602	103050
382.684	35779
382.765	49787
382.846	38428
382.928	22790
383.009	11041
383.090	7724
383.172	30661
383.253	52685
383.334	27015
383.416	62661
383.497	30099
383.578	5794
383.659	7962
383.741	26969
383.822	83184
383.903	43233
383.984	27231
384.066	67531
384.147	39658
384.228	6439
384.309	3789
384.390	2396
384.471	1316
384.553	1877
384.634	3074
384.715	3615
384.796	1436
384.877	2552
384.958	14111
385.039	17954
385.120	5811
385.201	3126
385.282	2878
385.363	2753
385.444	2821
385.525	7048
385.606	32806
385.687	31037
385.768	6406
385.849	6759
385.930	49341
386.011	99064
386.092	23044
386.173	3272
386.254	2781
386.335	1832
386.416	1890
386.496	8737
386.577	15211
386.658	4750
386.739	2714
386.820	2738
386.901	1901
386.981	1925
387.062	976
387.143	2754
387.224	15593
387.304	14504
387.385	4439
387.466	1606
387.547	2848
387.627	1389
387.708	5724
387.789	31128
387.869	41913
387.950	11085
388.031	1347
388.111	-1104
388.192	4616
388.273	6602
388.353	3607
388.434	1938
388.514	7127
388.595	45443
388.676	53609
388.756	17163
388.837	14844
388.917	9281
388.998	608
389.078	1460
389.159	1601
389.239	153
389.320	3334
389.400	1264
389.480	6096
389.561	17062
389.641	8816
389.722	2439
389.802	3287
389.883	7941
389.963	24741
390.043	16221
390.124	4257
390.204	5550
390.284	18323
390.365	12468
390.445	22951
390.525	102292
390.605	93173
390.686	15166
390.766	3637
390.846	2888
390.927	432
391.007	795
391.087	1622
391.167	611
391.247	407
391.328	4028
391.408	5396
391.488	2637
391.568	-71
391.648	847
391.728	2956
391.808	2742
391.888	2732
391.969	8459
392.049	15196
392.129	5507
392.209	7429
392.289	21701
392.369	10601
392.449	6797
392.529	3439
392.609	4311
392.689	5256
392.769	20924
392.849	18536
392.929	10457
393.009	28276
393.089	19174
393.169	9997
393.248	43090
393.328	274477
393.408	308111
393.488	48007
393.568	8283
393.648	4519
393.728	2421
393.807	2010
393.887	3343
393.967	2360
394.047	4189
394.127	4262
394.206	10544
394.286	54264
394.366	307812
394.446	330489
394.525	56291
394.605	11129
394.685	6807
394.764	11514
394.844	17998
394.924	12870
395.003	4282
395.083	3301
395.163	2698
395.242	2071
395.322	2996
395.402	788
395.481	3726
395.561	7505
395.640	21658
395.720	16259
395.799	25133
395.879	21615
395.958	16472
396.038	79063
396.117	398434
396.197	436691
396.276	86779
396.356	17791
396.435	10478
396.515	7053
396.594	5461
396.673	11413
396.753	59428
396.832	254661
396.912	174540
396.991	27041
397.070	6511
397.150	2788
397.229	2583
397.308	1475
397.388	1224
397.467	2185
397.546	1542
397.625	-637
397.705	2755
397.784	1794
397.863	141
397.942	451
398.022	1082
398.101	6367
398.180	19719
398.259	8724
398.338	2120
398.417	1399
398.497	169
398.576	2022
398.655	-487
398.734	179
398.813	310
398.892	6324
398.971	23740
399.050	10972
399.129	574
399.208	316
399.287	199
399.366	-201
399.445	-112
399.524	22
399.603	-390
399.682	1744
399.761	6642
399.840	27646
399.919	20978
399.998	2506
400.077	-599
400.156	-800
400.235	1621
400.313	266
400.392	330
400.471	7198
400.550	12392
400.629	2877
400.708	755
400.786	60
400.865	3260
400.944	2590
401.023	2605
401.102	-379
401.180	114
401.259	149
401.338	105
401.416	816
401.495	18
401.574	1488
401.652	-172
401.731	1114
401.810	-677
401.888	-552
401.967	-825
402.046	-545
402.124	1102
402.203	755
402.281	510
402.360	-367
402.438	4435
402.517	2362
402.596	625
402.674	723
402.753	-265
402.831	315
402.910	-202
402.988	1268
403.066	4176
403.145	4052
403.223	1699
403.302	3139
403.380	2872
403.459	2080
403.537	625
403.615	214
403.694	-1363
403.772	522
403.850	-154
403.929	-786
404.007	-587
404.085	1635
404.164	-504
404.242	-588
404.320	1822
404.398	8458
404.477	16445
404.555	66488
404.633	59435
404.711	10529
404.789	3171
404.868	530
404.946	-1209
405.024	-207
405.102	-496
405.180	145
405.258	-1272
405.336	210
405.415	-451
405.493	1259
405.571	1036
405.649	-505
405.727	-987
405.805	1423
405.883	608
405.961	231
406.039	683
406.117	-702
406.195	971
406.273	10184
406.351	46921
406.429	27544
406.507	2029
406.585	-57
406.663	46
406.740	340
406.818	-48
406.896	-298
406.974	907
407.052	1244
407.130	24704
407.208	35733
407.285	7064
407.363	196
407.441	334
407.519	-743
407.596	-155
407.674	2796
407.752	12170
407.830	11318
407.907	2650
407.985	-591
408.063	-207
408.141	-779
408.218	381
408.296	-52
408.373	-282
408.451	-225
408.529	75
408.606	-390
408.684	-919
408.762	-428
408.839	-1584
408.917	-560
408.994	-676
409.072	-1684
409.149	-635
409.227	-769
409.304	-1015
409.382	-392
409.459	-547
409.537	-333
409.614	38
409.692	-575
409.769	-1567
409.846	111
409.924	376
410.001	-1113
410.079	-1045
410.156	424
410.233	193
410.311	18
410.388	-1044
410.465	-67
410.543	-388
410.620	285
410.697	380
410.775	-142
410.852	-1965
410.929	479
411.006	557
411.083	-17
411.161	800
411.238	1142
411.315	-60
411.392	-464
411.469	-10
411.547	1139
411.624	-1169
411.701	-282
411.778	102
411.855	846
411.932	-246
412.009	-853
412.086	-232
412.163	344
412.240	-516
412.317	937
412.394	19
412.471	-280
412.548	-1252
412.625	-949
412.702	473
412.779	1270
412.856	627
412.933	-1307
413.010	-393
413.087	598
413.164	5848
413.241	10025
413.318	919
413.395	1614
413.471	1129
413.548	-57
413.625	-352
413.702	-957
413.779	-592
413.855	-858
413.932	-1025
414.009	-1843
414.086	-383
414.162	-376
414.239	643
414.316	5684
414.393	17013
414.469	5042
414.546	-504
414.623	-740
414.699	-453
414.776	-943
414.853	-1299
414.929	-446
415.006	-405
415.082	-90
415.159	-446
415.236	228
415.312	-240
415.389	-314
415.465	521
415.542	1078
415.618	-566
415.695	797
415.771	-101
415.848	-345
415.924	-212
416.000	-317
416.077	-397
416.153	-1203
416.230	-1838
416.306	219
416.383	-673
416.459	179
416.535	-1695
416.612	-505
416.688	-362
416.764	-305
416.841	-1256
416.917	-877
416.993	-410
417.069	-282
417.146	-587
417.222	1452
417.298	386
417.374	-936
417.451	-515
417.527	-247
417.603	-459
417.679	-534
417.755	-338
417.831	-723
417.908	-725
417.984	-1134
418.060	-1336
418.136	1237
418.212	1190
418.288	-438
418.364	-65
418.440	-1458
418.516	381
418.592	469
418.668	2093
418.744	3480
418.820	3208
418.896	-388
418.972	-1580
419.048	-1141
419.124	1701
419.200	-363
419.276	-773
419.352	-1403
419.428	-759
419.504	-412
419.579	-689
419.655	-834
419.731	-397
419.807	2176
419.883	4910
419.959	2974
420.034	128
420.110	1582
420.186	7971
420.262	7964
420.337	93
420.413	-123
420.489	-1241
420.565	-439
420.640	-1038
420.716	-391
420.792	-1799
420.867	15
420.943	-1634
421.019	-44
421.094	-360
421.170	-421
421.245	-1150
421.321	-293
421.397	-1219
421.472	1225
421.548	3980
421.623	2671
421.699	-460
421.774	-156
421.850	-939
421.925	768
422.001	-335
422.076	324
422.152	-787
422.227	626
422.302	475
422.378	882
422.453	1786
422.529	7839
422.604	51289
422.679	137031
422.755	60921
422.830	9085
422.905	1326
422.981	353
423.056	-638
423.131	-357
423.207	-645
423.282	-466
423.357	1785
423.432	438
423.508	608
423.583	4038
423.658	2551
423.733	-241
423.808	-187
423.883	661
423.959	-903
424.034	-763
424.109	-342
424.184	-704
424.259	-1181
424.334	-707
424.409	-1146
424.484	-838
424.559	-637
424.634	-1142
424.709	-611
424.784	609
424.859	660
424.934	492
425.009	5812
425.084	11913
425.159	3350
425.234	-417
425.309	-1035
425.384	1667
425.459	3053
425.534	1270
425.609	-1000
425.683	-944
425.758	-781
425.833	-221
425.908	796
425.983	2957
426.058	12016
426.132	4977
426.207	-224
426.282	874
426.357	-475
426.431	-1018
426.506	184
426.581	-825
426.655	-523
426.730	-607
426.805	-568
426.879	-599
426.954	402
427.029	1027
427.103	12472
427.178	37751
427.253	18203
427.327	1619
427.402	953
427.476	5381
427.551	2448
427.625	-78
427.700	503
427.774	-715
427.849	-317
427.923	-722
427.998	-1466
428.072	-712
428.147	768
428.221	2858
428.296	6991
428.370	2463
428.444	-773
428.519	386
428.593	3375
428.667	2945
428.742	3169
428.816	2775
428.890	6204
428.965	10371
429.039	5936
429.113	3056
429.188	1401
429.262	-201
429.336	896
429.410	4749
429.485	3595
429.559	2839
429.633	2241
429.707	267
429.781	866
429.855	9072
429.930	14901
430.004	12827
430.078	21951
430.152	17501
430.226	12254
430.300	13430
430.374	1377
430.448	394
430.522	5789
430.596	22616
430.670	14469
430.744	22116
430.818	44678
430.892	11025
430.966	484
431.040	532
431.114	-1426
431.188	-1199
431.262	-1064
431.336	-842
431.410	1209
431.484	5097
431.557	4262
431.631	-935
431.705	-269
431.779	-252
431.853	4959
431.927	4041
432.000	-326
432.074	-638
432.148	-635
432.222	-1155
432.295	-655
432.369	-883
432.443	388
432.516	13152
432.590	42922
432.664	18306
432.737	969
432.811	-787
432.885	-760
432.958	14
433.032	-1046
433.106	-1135
433.179	-1104
433.253	-528
433.326	-922
433.400	-1050
433.473	-402
433.547	-1828
433.620	-586
433.694	-205
433.767	916
433.841	-941
433.914	-1597
433.988	-1172
434.061	-363
434.134	-2113
434.208	-1377
434.281	-1220
434.355	-1039
434.428	-533
434.501	-730
434.575	-325
434.648	-1321
434.721	-1229
434.795	-1414
434.868	-1118
434.941	-1459
435.014	-980
435.088	-976
435.161	-1008
435.234	-248
435.307	31
435.381	-840
435.454	-1685
435.527	-1258
435.600	-782
435.673	-1462
435.746	-578
435.819	-1207
435.892	-995
435.966	-660
436.039	-478
436.112	-790
436.185	-1248
436.258	-608
436.331	-1845
436.404	-1457
436.477	-1325
436.550	-988
436.623	-454
436.696	-1444
436.769	291
436.842	-434
436.915	-1181
436.987	-144
437.060	-915
437.133	-957
437.206	-1636
437.279	-97
437.352	-716
437.425	-645
437.498	-915
437.570	568
437.643	949
437.716	-795
437.789	-1320
437.861	782
437.934	4279
438.007	2491
438.080	-169
438.152	-81
438.225	2025
438.298	23865
438.370	78903
438.443	38122
438.516	7195
438.588	1495
438.661	-351
438.734	-1010
438.806	-846
438.879	294
438.951	35
439.024	1937
439.096	726
439.169	-580
439.241	-552
439.314	-1042
439.386	-762
439.459	789
439.531	3008
439.604	777
439.676	-437
439.749	-688
439.821	-714
439.893	-818
439.966	618
440.038	-235
440.110	280
440.183	-850
440.255	-1187
440.327	693
440.400	7505
440.472	36405
440.544	32499
440.617	4119
440.689	1972
440.761	1951
440.833	4171
440.905	2968
440.978	-694
441.050	-1437
441.122	-360
441.194	-1115
441.266	-302
441.338	-1512
441.411	523
441.483	8441
441.555	17386
441.627	4689
441.699	1014
441.771	918
441.843	-290
441.915	-1643
441.987	-715
442.059	-1644
442.131	26
442.203	50
442.275	1115
442.347	710
442.419	-10
442.491	1264
442.563	6197
442.635	5194
442.706	6288
442.778	6915
442.850	1279
442.922	-896
442.994	356
443.066	379
443.137	672
443.209	-724
443.281	-625
443.353	890
443.425	4657
443.496	11705
443.568	14713
443.640	4940
443.711	1505
443.783	-467
443.855	-339
443.926	-788
443.998	-1464
444.070	-465
444.141	-219
444.213	1306
444.285	1574
444.356	734
444.428	1689
444.499	104
444.571	-1247
444.642	-182
444.714	-830
444.785	520
444.857	1458
444.928	3956
445.000	3383
445.071	2838
445.143	4905
445.214	2073
445.285	1708
445.357	8148
445.428	15175
445.500	29527
445.571	25359
445.642	10376
445.714	5905
445.785	11158
445.856	3341
445.928	2025
445.999	1333
446.070	1320
446.141	663
446.213	979
446.284	400
446.355	213
446.426	394
446.497	-316
446.569	405
446.640	2002
446.711	2175
446.782	492
446.853	1236
446.924	985
446.995	-150
447.066	213
447.138	1347
447.209	1257
447.280	-702
447.351	-761
447.422	-645
447.493	82
447.564	169
447.635	1251
447.706	40
447.777	-534
447.847	-652
447.918	-1174
447.989	609
448.060	1300
448.131	4042
448.202	4736
448.273	2201
448.344	1333
448.414	394
448.485	202
448.556	-342
448.627	-679
448.698	750
448.768	-905
448.839	257
448.910	750
448.981	2220
449.051	936
449.122	222
449.193	-460
449.263	-380
449.334	-53
449.405	1233
449.475	2336
449.546	2471
449.616	2776
449.687	2748
449.758	757
449.828	523
449.899	461
449.969	-12
450.040	401
450.110	1073
450.181	1147
450.251	54
450.322	289
450.392	654
450.463	200
450.533	-347
450.604	583
450.674	-152
450.744	28
450.815	110
450.885	-305
450.955	-9
451.026	8
451.096	-140
451.166	435
451.237	2564
451.307	7590
451.377	5539
451.447	849
451.518	331
451.588	256
451.658	-22
451.728	1255
451.799	7569
451.869	11848
451.939	4371
452.009	296
452.079	288
452.149	433
452.219	1590
452.289	8557
452.360	11029
452.430	2049
452.500	265
452.570	646
452.640	1689
452.710	4272
452.780	9450
452.850	7564
452.920	6490
452.990	3173
453.060	817
453.129	1393
453.199	2703
453.269	10088
453.339	33929
453.409	57814
453.479	42292
453.549	64567
453.619	70678
453.688	42008
453.758	7866
453.828	2071
453.898	1620
453.968	823
454.037	1704
454.087	271
454.107	-341
454.168	110
454.177	140
454.247	575
454.249	618
454.316	1099
454.330	1142
454.386	1066
454.411	2530
454.456	4285
454.492	6836
454.525	8960
454.574	6349
454.595	5305
454.655	2278
454.665	1837
454.734	2631
454.736	2755
454.804	4375
454.817	6148
454.873	11243
454.898	13371
454.943	16194
454.979	11497
455.013	7672
455.060	4289
455.082	3359
455.141	4736
455.152	4866
455.221	10713
455.222	11052
455.291	22176
455.303	23318
455.360	26273
455.384	32275
455.430	37809
455.465	31308
455.499	25884
455.546	18097
455.569	14061
455.627	10338
455.638	9930
455.707	2892
455.708	2912
455.777	1003
455.789	1124
455.846	1547
455.869	1563
455.916	1564
455.950	1447
455.985	1240
456.031	1539
456.054	1604
456.112	1315
456.124	1325
456.193	1233
456.193	1205
456.262	2270
456.274	2522
456.332	3202
456.355	3625
456.401	3545
456.436	2609
456.470	1706
456.516	954
456.540	834
456.597	962
456.609	928
456.678	1824
456.678	1810
456.747	1144
456.759	1126
456.817	813
456.840	889
456.886	1049
456.920	1497
456.955	2020
457.001	1396
457.024	1414
457.082	3464
457.093	3856
457.162	6261
457.163	6313
457.232	6135
457.243	5846
457.301	3171
457.324	2281
457.370	1865
457.405	1816
457.439	1778
457.485	2128
457.508	2312
457.566	1918
457.577	1850
457.646	2156
457.647	2185
457.715	3000
457.727	3168
457.784	3834
457.808	4012
457.853	4424
457.889	5085
457.922	5142
457.969	4800
457.991	4910
458.050	5974
458.060	6114
458.129	6499
458.130	6536
458.198	5368
458.211	5160
458.267	3851
458.292	3195
458.336	3045
458.372	3112
458.405	3609
458.453	4426
458.474	5049
458.533	7045
458.543	7275
458.611	10418
458.614	10569
458.680	8240
458.694	7181
458.749	5146
458.775	4392
458.818	3654
458.855	3352
458.887	3150
458.936	2981
458.955	3000
459.016	3657
459.024	3706
459.093	3392
459.097	3423
459.162	4024
459.177	4201
459.230	4940
459.257	5176
459.299	5330
459.338	5516
459.368	5782
459.418	6731
459.437	6400
459.499	4735
459.505	4718
459.574	4142
459.579	4161
459.643	3858
459.659	3654
459.711	3623
459.740	3921
459.780	4458
459.820	4944
459.849	5139
459.900	5593
459.917	5643
459.981	5489
459.986	5401
460.054	4674
460.061	4603
460.123	5120
460.141	5356
460.191	6452
460.222	7024
460.260	7645
460.302	8218
460.328	7425
460.382	6390
460.397	6406
460.462	5256
460.465	5293
460.534	7623
460.543	7805
460.602	19190
460.623	23826
460.671	37682
460.703	48786
460.739	44111
460.783	37999
460.808	32532
460.864	10840
460.876	9554
460.944	5730
460.945	5690
461.013	5858
461.024	5811
461.081	5750
461.104	6245
461.150	6397
461.184	6135
461.218	5836
461.264	4981
461.286	4942
461.345	5258
461.355	5297
461.423	6156
461.425	6155
461.491	6038
461.505	6221
461.559	12708
461.585	15554
461.628	26395
461.665	36739
461.696	40193
461.745	47134
461.764	39881
461.825	12835
461.832	12569
461.901	7563
461.905	7427
461.969	6446
461.985	6346
462.037	6282
462.065	5883
462.105	6784
462.145	8542
462.173	12618
462.225	19523
462.241	21749
462.305	32027
462.310	31060
462.378	15602
462.385	13615
462.446	8994
462.465	7565
462.514	7072
462.545	7347
462.582	7361
462.625	7298
462.650	7061
462.705	6306
462.718	6478
462.785	7860
462.786	7933
462.854	12010
462.865	12697
462.922	16228
462.945	17711
462.990	12937
463.025	8765
463.058	7801
463.104	6428
463.126	6317
463.184	6195
463.194	6346
463.262	7527
463.264	7565
463.330	7485
463.344	7472
463.398	9018
463.424	9597
463.466	9116
463.504	9027
463.533	9179
463.583	9148
463.601	9225
463.663	9571
463.669	9925
463.737	13909
463.743	14262
463.805	21783
463.823	23997
463.873	35699
463.903	42873
463.940	46032
463.982	50202
464.008	39804
464.062	16309
464.076	15242
464.142	8503
464.144	8445
464.211	7389
464.221	7331
464.279	8149
464.301	8396
464.347	9301
464.381	9953
464.414	11523
464.461	13723
464.482	14307
464.540	15903
464.550	15458
464.617	12091
464.620	11949
464.685	11916
464.699	11968
464.753	15037
464.779	16466
464.820	17691
464.859	18989
464.888	18498
464.938	17300
464.956	17470
465.018	18057
465.023	17868
465.091	15172
465.098	14848
465.158	14928
465.177	14986
465.226	14984
465.257	14981
465.293	15613
465.336	16181
465.361	17425
465.416	20141
465.428	21293
465.495	27754
465.496	27905
465.563	44517
465.575	47398
465.631	58722
465.654	63636
465.698	40976
465.734	21602
465.765	19450
465.813	15638
465.833	15503
465.893	15809
465.900	15767
465.968	15271
465.972	15209
466.035	16433
466.052	16753
466.102	17200
466.131	17409
466.170	18076
466.210	18637
466.237	19051
466.290	19905
466.304	20372
466.369	22189
466.372	22269
466.439	23540
466.449	23683
466.506	24999
466.528	25447
466.573	33198
466.607	38925
466.641	53248
466.687	73035
466.708	80607
466.766	101281
466.775	94516
466.842	42261
466.845	39696
466.909	31331
466.925	29315
466.977	29213
467.004	29198
467.044	29006
467.083	28711
467.111	30057
467.163	32423
467.178	33033
467.242	35291
467.245	35195
467.312	31872
467.321	31374
467.379	29880
467.400	29252
467.446	30859
467.480	31920
467.559	28120
467.638	25445
467.717	24325
467.796	25849
467.875	28223
467.955	25074
468.034	35573
468.113	76043
468.192	114348
468.271	32438
468.350	18665
468.429	19582
468.508	18322
468.588	17743
468.667	18572
468.746	21174
468.825	19749
468.904	17319
468.983	20771
469.062	31119
469.141	38977
469.220	17631
469.299	17381
469.378	19765
469.456	23366
469.535	22156
469.614	20453
469.693	20336
469.772	25453
469.851	35589
469.930	25699
470.009	18004
470.088	17263
470.166	18859
470.245	20183
470.324	23327
470.403	20073
470.482	17865
470.560	16929
470.639	18242
470.718	20626
470.797	18065
470.875	20531
470.954	27733
471.033	31347
471.111	16043
471.190	13656
471.269	13744
471.347	14059
471.426	15223
471.505	19304
471.583	19965
471.662	17686
471.740	16502
471.819	16073
471.898	15917
471.976	15896
472.055	15571
472.133	17495
472.212	22851
472.290	24141
472.369	17650
472.447	14626
472.526	14897
472.604	15944
472.683	15274
472.761	16529
472.839	15191
472.918	13610
472.996	14646
473.075	18325
473.153	17186
473.231	13787
473.310	16447
473.388	16854
473.466	15799
473.545	16835
473.623	23696
473.701	22841
473.780	14567
473.858	14389
473.936	16248
474.014	14671
474.093	16658
474.171	25474
474.249	35479
474.327	24459
474.405	12677
474.484	13353
474.562	14456
474.640	13919
474.718	17666
474.796	17745
474.874	17401
474.952	14266
475.030	15773
475.108	16939
475.187	20699
475.265	20095
475.343	19653
475.421	18771
475.499	15535
475.577	16324
475.655	21092
475.733	39889
475.811	73206
475.889	65209
475.966	44047
476.044	13372
476.122	14800
476.200	16121
476.278	15200
476.356	12681
476.434	14236
476.512	14316
476.590	16055
476.667	15797
476.745	12403
476.823	13409
476.901	13282
476.979	12941
477.056	12765
477.134	14649
477.212	14223
477.290	13198
477.367	11938
477.445	10809
477.523	11997
477.601	11980
477.678	11623
477.756	15921
477.834	17518
477.911	11407
477.989	12821
478.066	11454
478.144	13848
478.222	12279
478.299	13747
478.377	13906
478.454	10794
478.532	10867
478.609	11616
478.687	13445
478.764	10467
478.842	11800
478.919	13877
478.997	13334
479.074	10800
479.152	14033
479.229	17790
479.307	11767
479.384	9847
479.461	9023
479.539	11303
479.616	13977
479.694	12069
479.771	12903
479.848	14032
479.926	19481
480.003	21826
480.080	10953
480.157	9530
480.235	10409
480.312	11099
480.389	12030
480.467	22173
480.544	28931
480.621	13409
480.698	11732
480.775	14483
480.853	14665
480.930	11999
481.007	11292
481.084	14235
481.161	15050
481.238	14269
481.315	9651
481.392	10079
481.470	10071
481.547	9944
481.624	9895
481.701	10166
481.778	10960
481.855	12340
481.932	20124
482.009	35031
482.086	24229
482.163	9531
482.240	11039
482.317	13986
482.393	13676
482.470	10733
482.547	11003
482.624	10606
482.701	11014
482.778	10147
482.855	8986
482.932	9214
483.009	7537
483.085	10074
483.162	12265
483.239	12072
483.316	9145
483.393	8454
483.469	8797
483.546	11678
483.623	13255
483.699	10478
483.776	11008
483.853	13904
483.930	20863
484.006	54854
484.083	99264
484.160	48749
484.236	66358
484.313	51203
484.389	37744
484.466	32919
484.543	32461
484.619	31525
484.696	33053
484.772	34893
484.849	37094
484.925	30870
485.002	30388
485.078	33092
485.155	33032
485.231	29854
485.308	29116
485.384	30974
485.461	35679
485.537	60820
485.614	74650
485.690	30965
485.766	28417
485.843	28339
485.919	38835
485.995	40936
486.072	25774
486.148	25890
486.224	25233
486.301	26522
486.377	31701
486.453	32245
486.530	30616
486.606	40246
486.682	45542
486.758	54667
486.835	65011
486.911	48685
486.987	78265
487.063	78087
487.139	92552
487.215	65791
487.292	33305
487.368	28081
487.444	31316
487.520	35356
487.596	29503
487.672	31536
487.748	45346
487.824	59044
487.900	33776
487.976	28477
488.052	29220
488.128	38265
488.204	31991
488.280	27996
488.356	32726
488.432	68112
488.508	107906
488.584	37114
488.660	24269
488.736	25347
488.812	27242
488.888	35367
488.964	42425
489.039	84492
489.115	130662
489.191	80982
489.267	26339
489.343	25045
489.418	21809
489.494	22158
489.570	19617
489.646	21110
489.722	23009
489.797	23556
489.873	34881
489.949	78685
490.024	69388
490.100	21850
490.176	20417
490.251	25051
490.327	32128
490.403	20392
490.478	18867
490.554	16437
490.629	16937
490.705	16965
490.781	19986
490.856	18452
490.932	23176
491.007	21948
491.083	23064
491.158	19684
491.234	26197
491.309	57544
491.385	63214
491.460	22108
491.536	22102
491.611	20309
491.686	21989
491.762	28928
491.837	55589
491.913	92248
491.988	126305
492.063	161566
492.139	48549
492.214	30624
492.289	16220
492.365	16131
492.440	18406
492.515	19442
492.590	19028
492.666	15537
492.741	22649
492.816	34663
492.891	19240
492.967	16033
493.042	15441
493.117	17300
493.192	19667
493.267	35008
493.342	117220
493.418	172307
493.493	29513
493.568	13448
493.643	13448
493.718	18696
493.793	27886
493.868	31420
493.943	18203
494.018	14127
494.093	13747
494.168	13725
494.243	12260
494.318	11380
494.393	11186
494.468	11640
494.543	10892
494.618	14747
494.693	12547
494.768	12863
494.842	12831
494.917	10648
494.992	11897
495.067	11687
495.142	10802
495.217	13361
495.292	13364
495.366	15486
495.441	20811
495.516	25527
495.591	34202
495.665	107058
495.740	266730
495.815	111091
495.890	22308
495.964	15700
496.039	18618
496.114	15621
496.188	17659
496.263	18884
496.338	16228
496.412	20186
496.487	23301
496.561	24396
496.636	25745
496.710	21035
496.785	24233
496.860	27979
496.934	21646
497.009	22157
497.083	21301
497.158	23124
497.232	27773
497.307	34838
497.381	31058
497.455	37796
497.530	50847
497.604	40399
497.679	44164
497.753	64664
497.827	85784
497.902	87999
497.976	97236
498.050	164100
498.125	556064
498.199	591437
498.273	121164
498.348	99223
498.422	85210
498.496	75635
498.570	64806
498.645	53503
498.719	51041
498.793	54515
498.867	70471
498.941	84012
499.016	207893
499.090	589908
499.164	204704
499.238	31594
499.312	25533
499.386	28882
499.460	26758
499.534	25152
499.609	30525
499.683	46197
499.757	44634
499.831	87842
499.905	362937
499.979	352740
500.053	52586
500.127	48580
500.201	35084
500.275	22462
500.349	22725
500.422	26414
500.496	37463
500.570	72954
500.644	188533
500.718	384342
500.792	80441
500.866	22636
500.940	28208
501.013	23063
501.087	23331
501.161	39594
501.235	51694
501.309	110026
501.382	320681
501.456	286100
501.530	58093
501.603	103065
501.677	39549
501.751	17226
501.825	21589
501.898	39929
501.972	125926
502.046	78203
502.119	23092
502.193	52136
502.266	136882
502.340	62930
502.413	55748
502.487	115510
502.561	66907
502.634	20135
502.708	15566
502.781	13943
502.855	11274
502.928	9592
503.002	10326
503.075	9871
503.149	12342
503.222	12395
503.295	15190
503.369	19504
503.442	26289
503.516	85359
503.589	238321
503.662	150957
503.736	43034
503.809	104277
503.882	83474
503.956	117039
504.029	102309
504.102	32601
504.175	31506
504.249	14538
504.322	15405
504.395	14467
504.468	10294
504.542	11453
504.615	8620
504.688	8398
504.761	9151
504.834	13222
504.907	12696
504.980	23303
505.053	11531
505.127	14016
505.200	18602
505.273	18373
505.346	11012
505.419	8681
505.492	8384
505.565	6946
505.638	7287
505.711	7624
505.784	6582
505.857	7046
505.930	8821
506.003	7602
506.076	11045
506.149	13621
506.221	18438
506.294	16633
506.367	42373
506.440	163853
506.513	83763
506.586	19337
506.659	10630
506.731	9333
506.804	10702
506.877	16521
506.950	11989
507.022	7966
507.095	11040
507.168	15231
507.241	9633
507.313	7595
507.386	8809
507.459	13892
507.531	8514
507.604	6845
507.677	8664
507.749	4631
507.822	10493
507.894	21279
507.967	27699
508.040	15956
508.112	12931
508.185	11507
508.257	11368
508.330	16369
508.402	10960
508.475	11596
508.547	12897
508.620	11819
508.692	20888
508.765	12797
508.837	9204
508.909	9110
508.982	9307
509.054	10914
509.127	9070
509.199	8407
509.271	7711
509.344	7722
509.416	8317
509.488	9056
509.560	9665
509.633	10972
509.705	12265
509.777	11243
509.849	16709
509.922	11385
509.994	10026
510.066	9397
510.138	11313
510.210	23286
510.283	20911
510.355	17189
510.427	14222
510.499	14761
510.571	14281
510.643	13061
510.715	19799
510.787	17767
510.859	12992
510.931	16691
511.003	18039
511.076	17288
511.148	11800
511.219	12710
511.291	20976
511.363	25177
511.435	11426
511.507	10707
511.579	10940
511.651	10645
511.723	10355
511.795	10171
511.867	10621
511.939	14013
512.010	30249
512.082	24325
512.154	11837
512.226	12822
512.298	17743
512.369	27037
512.441	20670
512.513	20237
512.585	15025
512.656	15679
512.728	17168
512.800	12764
512.871	12909
512.943	13452
513.015	11425
513.086	12784
513.158	13832
513.230	14122
513.301	20769
513.373	24420
513.444	13541
513.516	11311
513.588	11449
513.659	13477
513.731	17759
513.802	14254
513.874	29193
513.945	51991
514.016	18427
514.088	11721
514.159	12949
514.231	18210
514.302	24724
514.374	17926
514.445	17909
514.516	35979
514.588	25644
514.659	17194
514.730	31963
514.802	27584
514.873	26888
514.944	29079
515.016	20734
515.087	20383
515.158	24936
515.229	36287
515.301	30753
515.372	44786
515.443	27853
515.514	18427
515.585	12504
515.656	13679
515.728	12697
515.799	10750
515.870	11802
515.941	11994
516.012	12654
516.083	16576
516.154	18865
516.225	23304
516.296	21573
516.367	17701
516.438	18597
516.509	22379
516.580	28967
516.651	65938
516.722	244068
516.793	121580
516.864	31005
516.935	30465
517.006	32175
517.077	40383
517.148	81039
517.219	216877
517.289	364329
517.360	177263
517.431	60142
517.502	17916
517.573	16035
517.643	16433
517.714	18238
517.785	19363
517.856	17728
517.926	21761
517.997	23752
518.068	29045
518.138	36801
518.209	44614
518.280	141702
518.350	569512
518.421	210138
518.492	29110
518.562	19942
518.633	20055
518.703	15423
518.774	19305
518.845	30469
518.915	30205
518.986	20540
519.056	24256
519.127	44503
519.197	68000
519.268	169015
519.338	105839
519.408	25210
519.479	28364
519.549	20252
519.620	14686
519.690	10537
519.760	11833
519.831	11184
519.901	12492
519.971	10427
520.042	12243
520.112	14511
520.182	15884
520.253	18316
520.323	12908
520.393	18807
520.463	29115
520.534	18378
520.604	44340
520.674	20569
520.744	21415
520.814	46334
520.885	42767
520.955	49559
521.025	202240
521.095	73048
521.165	15113
521.235	12726
521.305	10790
521.375	9991
521.445	11812
521.515	15827
521.585	17544
521.655	16420
521.725	15440
521.795	14572
521.865	9410
521.935	18056
522.005	14728
522.075	9187
522.145	11416
522.215	12539
522.285	19220
522.355	26781
522.424	53609
522.494	44369
522.564	20665
522.634	35226
522.704	108277
522.774	40341
522.843	12479
522.913	10847
522.983	15393
523.053	11796
523.122	12236
523.192	15395
523.262	58326
523.331	58829
523.401	12999
523.471	8441
523.540	9549
523.610	6654
523.680	7413
523.749	8258
523.819	11004
523.888	11452
523.958	7857
524.027	8286
524.097	8903
524.166	8002
524.236	8397
524.305	9533
524.375	6700
524.444	6017
524.514	9935
524.583	9092
524.653	11388
524.722	13505
524.791	8623
524.861	8856
524.930	6761
524.999	7592
525.069	12131
525.138	9264
525.207	12599
525.277	8748
525.346	8717
525.415	7200
525.484	8326
525.554	9517
525.623	9720
525.692	8114
525.761	7706
525.830	7101
525.900	6815
525.969	10909
526.038	12845
526.107	13829
526.176	37008
526.245	30807
526.314	21618
526.383	28611
526.452	28489
526.522	50028
526.591	66382
526.660	54816
526.729	26094
526.797	25298
526.867	54434
526.935	265888
527.004	226661
527.073	87409
527.142	12993
527.211	9779
527.280	11606
527.349	11312
527.418	6632
527.487	7172
527.555	6101
527.624	5921
527.693	4336
527.762	6101
527.831	5430
527.899	6470
527.968	6773
528.037	5991
528.106	8720
528.174	17262
528.243	14785
528.312	20977
528.380	29353
528.449	8449
528.518	7354
528.586	3938
528.655	5532
528.723	5543
528.792	5540
528.861	5436
528.929	4380
528.998	4827
529.066	4432
529.135	4290
529.203	4035
529.272	3827
529.340	4558
529.409	5623
529.477	4915
529.545	7006
529.614	10837
529.682	10024
529.751	12545
529.819	13074
529.887	8500
529.956	4993
530.024	5898
530.092	5038
530.161	7266
530.229	13338
530.297	6457
530.365	4981
530.434	3950
530.502	3678
530.570	3805
530.638	3231
530.707	4769
530.775	5598
530.843	3809
530.911	4779
530.979	4839
531.047	4011
531.115	4931
531.183	4026
531.252	5508
531.320	4906
531.388	4041
531.456	4489
531.524	3049
531.592	5541
531.660	6212
531.728	3765
531.796	5154
531.864	4450
531.932	4833
532.000	4670
532.067	5083
532.135	5992
532.203	8392
532.271	7298
532.339	15361
532.407	45595
532.475	25980
532.542	12239
532.610	11431
532.678	17594
532.746	70844
532.814	198886
532.881	42392
532.949	9052
533.017	6742
533.084	5053
533.152	5462
533.220	4391
533.287	5544
533.355	5531
533.423	4775
533.490	4273
533.558	4396
533.625	5932
533.693	6523
533.761	5920
533.828	7216
533.896	6400
533.963	15053
534.031	18939
534.098	23549
534.166	8587
534.233	5876
534.300	5936
534.368	6309
534.435	5159
534.503	4987
534.570	6590
534.637	3913
534.705	5028
534.772	5422
534.840	6192
534.907	16951
534.974	20388
535.041	6842
535.109	8920
535.176	5281
535.243	4431
535.310	4649
535.378	5184
535.445	4358
535.512	4088
535.579	5738
535.646	4059
535.714	4560
535.781	8036
535.848	6525
535.915	7686
535.982	7468
536.049	6316
536.116	7691
536.183	6020
536.250	6559
536.317	6472
536.384	8184
536.451	13913
536.518	14581
536.585	8628
536.652	13116
536.719	18820
536.786	14616
536.853	10322
536.920	17264
536.987	29184
537.053	24571
537.120	91316
537.187	78213
537.254	8547
537.321	5907
537.388	6321
537.454	4105
537.521	5518
537.588	4638
537.654	6427
537.721	8088
537.788	7460
537.855	6367
537.921	5987
537.988	6096
538.055	6805
538.121	6474
538.188	7170
538.254	12981
538.321	28551
538.388	15821
538.454	6473
538.521	6180
538.587	5649
538.654	5292
538.720	5833
538.787	5688
538.853	6521
538.920	9249
538.986	8852
539.053	7164
539.119	7345
539.185	7635
539.252	8913
539.318	15477
539.385	11126
539.451	9039
539.517	9791
539.583	12232
539.650	23457
539.716	68697
539.782	17814
539.849	8132
539.915	7787
539.981	7208
540.047	10731
540.114	8544
540.180	9030
540.246	8422
540.312	12200
540.378	27729
540.444	28297
540.510	23492
540.576	76521
540.643	22346
540.709	6168
540.775	7041
540.841	7390
540.907	11123
540.973	19747
541.039	15867
541.105	16395
541.171	8631
541.237	6845
541.303	8880
541.369	9765
541.435	12705
541.500	24094
541.566	14186
541.632	5889
541.698	5830
541.764	6161
541.830	5960
541.896	5984
541.961	6127
542.027	6271
542.093	6980
542.159	7641
542.224	8125
542.290	14471
542.356	23760
542.421	27577
542.487	12242
542.553	7241
542.618	8819
542.684	8165
542.750	8224
542.815	9683
542.881	17715
542.947	64001
543.012	45854
543.078	7509
543.143	6211
543.209	8392
543.274	7674
543.340	9761
543.405	22597
543.471	37808
543.536	8827
543.602	6327
543.667	5923
543.732	6836
543.798	5568
543.863	6833
543.928	5074
543.994	4992
544.059	7001
544.124	6118
544.190	5824
544.255	7521
544.320	7287
544.386	7080
544.451	11650
544.516	13945
544.581	13081
544.646	38679
544.712	63640
544.777	11359
544.842	8902
544.907	9915
544.972	8105
545.037	8181
545.102	9604
545.168	8520
545.233	9102
545.298	10261
545.363	12897
545.428	13287
545.493	22683
545.558	54079
545.623	19239
545.688	9097
545.753	8922
545.818	7905
545.883	9408
545.947	7475
546.012	9408
546.077	8854
546.142	9120
546.207	7963
546.272	12208
546.337	13756
546.401	10097
546.466	8752
546.531	7114
546.596	9334
546.661	8636
546.725	8688
546.790	6630
546.855	7178
546.919	6119
546.984	8057
547.049	8499
547.113	10681
547.178	8074
547.243	9949
547.307	11150
547.372	13508
547.436	14196
547.501	9579
547.565	9648
547.630	13278
547.695	13525
547.759	14501
547.823	11691
547.888	8673
547.952	7619
548.017	8656
548.081	12135
548.146	18013
548.210	13727
548.274	7943
548.339	8538
548.403	8576
548.468	8068
548.532	7827
548.596	9152
548.660	7781
548.725	9674
548.789	11663
548.853	13430
548.917	9832
548.982	15655
549.046	15835
549.110	7465
549.174	7484
549.238	7292
549.303	7281
549.367	9091
549.431	8234
549.495	7805
549.559	7619
549.623	8840
549.687	11209
549.751	15076
549.815	10094
549.879	10224
549.943	8074
550.007	10447
550.071	10094
550.135	14168
550.199	10566
550.263	9196
550.327	10929
550.391	17103
550.455	9836
550.519	9932
550.582	11616
550.646	14756
550.710	15507
550.774	11244
550.838	9595
550.901	10443
550.965	12559
551.029	11983
551.093	14493
551.156	19196
551.220	39669
551.284	41632
551.347	19703
551.411	48368
551.475	51217
551.538	13423
551.602	9962
551.666	9155
551.729	8218
551.793	9700
551.856	9625
551.920	9652
551.983	9024
552.047	7903
552.110	8588
552.174	8767
552.237	8214
552.301	8835
552.364	8032
552.428	8297
552.491	7981
552.554	9554
552.618	9175
552.681	9980
552.745	9326
552.808	13846
552.871	17346
552.934	12027
552.998	9665
553.061	11787
553.124	10908
553.187	10421
553.251	11493
553.314	11793
553.377	12201
553.440	19439
553.503	56617
553.567	93472
553.630	16102
553.693	9548
553.756	9212
553.819	8314
553.882	8107
553.945	8065
554.008	8147
554.071	7920
554.134	7243
554.197	7648
554.260	6769
554.323	9500
554.386	7930
554.449	7098
554.512	7872
554.575	7921
554.638	9027
554.701	7632
554.764	7139
554.827	7761
554.889	6533
554.952	5874
555.015	6574
555.078	6090
555.141	6437
555.203	7013
555.266	6104
555.329	7624
555.391	7248
555.454	7570
555.517	7841
555.580	6878
555.642	5824
555.705	7340
555.768	7517
555.830	7476
555.893	6179
555.955	6774
556.018	7154
556.080	6781
556.143	6817
556.206	6873
556.268	7310
556.330	7996
556.393	7552
556.455	7874
556.518	13424
556.580	14738
556.643	6403
556.705	7106
556.767	6412
556.830	7603
556.892	9320
556.955	15573
557.017	11097
557.079	6812
557.142	6888
557.204	8787
557.266	21064
557.328	16484
557.391	6581
557.453	5771
557.515	5850
557.577	8090
557.639	8586
557.701	6470
557.764	4784
557.826	6001
557.888	7769
557.950	6591
558.012	5972
558.074	6735
558.136	11995
558.198	21239
558.260	9973
558.322	7740
558.384	8471
558.446	9453
558.508	10408
558.570	13707
558.632	24189
558.694	37213
558.756	22295
558.818	49202
558.880	123779
558.942	33054
559.003	23840
559.065	13705
559.127	8679
559.189	8560
559.251	9576
559.312	11680
559.374	21758
559.436	69903
559.498	34423
559.559	8992
559.621	7745
559.683	9566
559.744	15045
559.806	37457
559.868	49125
559.929	12341
559.991	10995
560.052	11308
560.114	22747
560.176	16496
560.237	16787
560.299	24846
560.360	8119
560.422	8279
560.483	7350
560.545	7219
560.606	6194
560.667	5780
560.729	6971
560.790	6180
560.852	7188
560.913	6885
560.974	6897
561.036	7212
561.097	7066
561.158	7385
561.220	8028
561.281	6797
561.342	8721
561.403	9768
561.465	11651
561.526	31198
561.587	42900
561.648	11092
561.709	7984
561.771	7181
561.832	6811
561.893	7241
561.954	6410
562.015	6537
562.076	6339
562.137	7171
562.198	6899
562.259	7595
562.320	7338
562.381	8421
562.442	13378
562.503	10625
562.564	6779
562.625	7816
562.686	7179
562.747	8395
562.808	8083
562.869	8076
562.930	9395
562.991	9286
563.051	8539
563.112	8206
563.173	7298
563.234	7322
563.294	6958
563.355	7767
563.416	7481
563.477	7740
563.537	8661
563.598	8571
563.659	7888
563.720	7827
563.780	8602
563.841	9032
563.901	7705
563.962	7283
564.023	7541
564.083	8751
564.144	9178
564.204	8490
564.265	8705
564.325	11062
564.386	22468
564.446	19612
564.507	8579
564.567	8228
564.628	7869
564.688	7648
564.749	8294
564.809	10017
564.869	12505
564.930	8599
564.990	7915
565.050	8031
565.111	7632
565.171	8199
565.231	7865
565.292	9746
565.352	7862
565.412	8881
565.472	10260
565.532	9820
565.593	9353
565.653	8487
565.713	9027
565.773	10260
565.833	12574
565.893	16863
565.953	11318
566.013	10496
566.074	11753
566.134	14857
566.194	23604
566.254	24206
566.314	16215
566.374	12165
566.434	13920
566.494	13523
566.554	15241
566.614	15567
566.673	16574
566.733	17409
566.793	19117
566.853	19795
566.913	20749
566.973	20776
567.033	21304
567.092	20044
567.152	20440
567.212	20005
567.272	21189
567.331	23979
567.391	24329
567.451	26424
567.511	31261
567.570	30368
567.630	23871
567.690	23246
567.749	24633
567.809	26215
567.868	32577
567.928	38076
567.988	44682
568.047	54797
568.107	66801
568.166	94756
568.226	147189
568.285	209490
568.345	189554
568.404	150566
568.464	127767
568.523	116142
568.582	116850
568.642	128804
568.701	160051
568.761	228758
568.820	354481
568.879	365412
568.939	276194
568.998	199568
569.057	149180
569.116	115067
569.176	90746
569.235	73158
569.294	60412
569.353	51899
569.413	44506
569.472	40179
569.531	34843
569.590	30886
569.649	29223
569.708	24690
569.767	23908
569.827	24505
569.886	22409
569.945	18552
570.004	18146
570.063	16817
570.122	16662
570.181	16962
570.240	16999
570.299	17816
570.358	17287
570.417	12746
570.475	12493
570.534	13467
570.593	12840
570.652	14042
570.711	13247
570.770	11982
570.829	14761
570.887	13083
570.946	13331
571.005	9806
571.064	9521
571.122	10539
571.181	11554
571.240	10019
571.299	9636
571.357	10035
571.416	10383
571.475	11209
571.533	12553
571.592	9591
571.650	9790
571.709	8158
571.768	8942
571.826	8477
571.885	8527
571.943	7282
572.002	8049
572.060	8145
572.119	7684
572.177	7337
572.236	6472
572.294	6862
572.352	7765
572.411	7349
572.469	6821
572.528	7485
572.586	7550
572.644	8520
572.703	10289
572.761	8856
572.819	6999
572.877	6451
572.936	5798
572.994	6464
573.052	6736
573.110	7376
573.169	7710
573.227	6109
573.285	6263
573.343	6345
573.401	6963
573.459	6373
573.517	6030
573.576	6291
573.634	7245
573.692	6976
573.750	6288
573.808	6095
573.866	8156
573.924	9292
573.982	9407
574.040	7463
574.098	6996
574.155	6427
574.213	6959
574.271	5920
574.329	6582
574.387	6119
574.445	5945
574.503	6692
574.560	5450
574.618	5936
574.676	4907
574.734	5751
574.792	5530
574.849	6247
574.907	5519
574.965	5815
575.022	6024
575.080	5233
575.138	6239
575.195	5945
575.253	6693
575.311	7026
575.368	6235
575.426	5249
575.483	6235
575.541	6021
575.598	5998
575.656	6303
575.713	6246
575.771	5341
575.828	6102
575.886	6046
575.943	6396
576.001	6566
576.058	6443
576.115	7653
576.173	8799
576.230	9940
576.287	9610
576.345	8861
576.402	6597
576.459	7542
576.517	7789
576.574	8608
576.631	8655
576.688	7873
576.746	6538
576.803	7255
576.860	6622
576.917	7503
576.974	6886
577.031	7406
577.089	6986
577.146	8095
577.203	7994
577.260	8213
577.317	8258
577.374	9536
577.431	8658
577.488	7684
577.545	7530
577.602	7193
577.659	7078
577.716	7721
577.773	8763
577.830	7496
577.886	6954
577.943	7099
578.000	7475
578.057	7627
578.114	8498
578.171	9758
578.227	10932
578.284	10017
578.341	8776
578.398	8752
578.454	8813
578.511	9982
578.568	9404
578.625	9087
578.681	8084
578.738	7135
578.794	7203
578.851	7910
578.908	7923
578.964	7112
579.021	7693
579.077	7641
579.134	7224
579.190	7311
579.247	7854
579.303	7316
579.360	7670
579.416	7254
579.473	6392
579.529	7276
579.586	7911
579.642	7703
579.698	8245
579.755	8271
579.811	9373
579.867	9379
579.924	7509
579.980	8414
580.036	9045
580.093	10257
580.149	13523
580.205	14330
580.261	11858
580.317	11093
580.374	9827
580.430	11695
580.486	10402
580.542	9701
580.598	9130
580.619	9120
580.654	9112
580.692	9046
580.710	9033
580.765	9441
580.767	9465
580.823	9048
580.838	9248
580.879	9821
580.911	9349
580.935	9022
580.984	8438
580.991	8373
581.047	9052
581.057	9116
581.103	9447
581.130	9437
581.159	9451
581.203	10661
581.215	10995
581.270	10248
581.276	10183
581.326	9673
581.349	9657
581.382	9639
581.422	9707
581.438	9743
581.494	9290
581.494	9277
581.550	8676
581.567	8796
581.606	9079
581.640	9352
581.661	9524
581.713	9701
581.717	9727
581.773	9225
581.786	9143
581.829	8845
581.859	9170
581.885	9531
581.932	9065
581.940	8969
581.996	10021
582.004	9869
582.052	9019
582.077	8846
582.107	8668
582.150	9349
582.163	9602
582.219	9427
582.223	9445
582.274	9497
582.296	9568
582.330	9878
582.368	9922
582.386	9869
582.441	9763
582.441	9767
582.497	9146
582.514	9353
582.552	9920
582.587	10316
582.608	10511
582.659	10225
582.663	10210
582.719	10857
582.732	10436
582.774	9199
582.805	9852
582.830	10310
582.877	9884
582.885	9834
582.941	9359
582.950	9440
582.996	9686
583.023	10109
583.052	10723
583.095	11557
583.107	11745
583.162	12473
583.168	12458
583.218	12493
583.240	12526
583.273	12416
583.313	11981
583.328	11873
583.384	10951
583.385	10971
583.439	11251
583.458	10907
583.494	10491
583.531	11238
583.549	11605
583.603	10447
583.605	10403
583.660	11396
583.676	11279
583.715	10936
583.748	11143
583.770	11471
583.820	11618
583.825	11584
583.881	11942
583.893	11626
583.936	10736
583.965	11269
583.991	11614
584.038	11440
584.046	11457
584.101	11633
584.110	11694
584.156	11774
584.183	11571
584.211	11338
584.255	12109
584.266	12311
584.321	12282
584.328	12288
584.376	12560
584.400	12606
584.431	12447
584.472	12513
584.486	12541
584.541	12887
584.545	12870
584.596	12412
584.617	12606
584.651	13215
584.689	13421
584.706	13317
584.761	13969
584.762	13970
584.816	13579
584.834	13778
584.871	13925
584.906	13618
584.926	13551
584.978	14251
584.980	14267
585.035	14833
585.051	15118
585.090	15773
585.123	15510
585.145	15210
585.195	15572
585.200	15662
585.254	17111
585.267	17488
585.309	18453
585.340	19710
585.364	20488
585.412	18916
585.419	18622
585.473	18446
585.484	18422
585.528	18579
585.556	19047
585.583	19832
585.628	22003
585.637	22580
585.692	29763
585.700	31296
585.747	38524
585.772	34656
585.801	28614
585.845	22628
585.856	21517
585.910	19975
585.917	20004
585.965	20544
585.989	20648
586.019	20519
586.061	20594
586.074	20744
586.128	22378
586.133	22473
586.183	22843
586.205	22971
586.237	23247
586.277	23604
586.292	23589
586.346	24179
586.349	24220
586.401	24845
586.421	25491
586.455	26450
586.493	27181
586.509	27622
586.564	30253
586.565	30477
586.618	39508
586.637	39454
586.672	37088
586.709	32584
586.727	30322
586.781	29373
586.781	29334
586.835	30754
586.853	31090
586.889	31359
586.925	31573
586.944	31944
586.996	33932
586.998	33919
587.052	35001
587.068	35563
587.106	37023
587.140	37945
587.161	38287
587.212	39386
587.215	39418
587.269	42247
587.284	42886
587.323	43786
587.356	45086
587.377	46062
587.427	48993
587.431	49109
587.485	51346
587.499	52111
587.539	54194
587.571	56371
587.593	57777
587.643	61151
587.648	61442
587.702	66873
587.715	68102
587.755	71169
587.786	74762
587.810	77739
587.858	84177
587.864	84676
587.917	92487
587.930	94444
587.971	101974
588.001	108781
588.025	113786
588.073	124960
588.079	126376
588.133	143266
588.145	147559
588.187	162129
588.217	173568
588.241	184113
588.288	209015
588.295	212101
588.348	244076
588.360	252191
588.402	284333
588.431	310743
588.456	334033
588.503	384431
588.510	391697
588.564	465331
588.575	483190
588.617	561269
588.646	625726
588.671	694616
588.718	845166
588.725	877398
588.778	1159966
588.789	1220555
588.832	1589397
588.861	1819872
588.886	2023577
588.932	2307217
588.939	2300029
588.993	2207184
589.004	2226634
589.047	2171164
589.075	2072245
589.100	1854731
589.147	1337551
589.154	1295284
589.207	994142
589.218	942256
589.261	851963
589.290	812449
589.314	819542
589.361	865761
589.368	889149
589.421	1131460
589.433	1188654
589.475	1591982
589.504	1851461
589.528	2003601
589.576	2210390
589.582	2175367
589.635	1955537
589.647	1885714
589.689	1410396
589.718	1031527
589.742	867957
589.790	574690
589.795	554947
589.849	412955
589.861	384640
589.902	321731
589.932	281508
589.955	257518
590.004	213780
590.009	209726
590.062	177796
590.075	171182
590.115	154091
590.146	142568
590.168	134837
590.218	120361
590.222	119042
590.275	107822
590.289	105266
590.328	97209
590.360	91910
590.381	88196
590.431	80088
590.435	79444
590.488	73899
590.503	72564
590.541	68560
590.574	65596
590.594	63689
590.645	59554
590.647	59186
590.700	54817
590.716	53663
590.753	51301
590.787	49450
590.806	48099
590.859	45383
590.859	45207
590.912	43561
590.930	43264
590.965	41439
591.001	39939
591.018	39110
591.071	36704
591.072	36807
591.124	35827
591.143	35656
591.177	34645
591.214	33811
591.230	33573
591.283	33299
591.285	33384
591.336	31426
591.356	30779
591.389	30756
591.427	30827
591.442	30069
591.495	27694
591.498	27616
591.547	26455
591.569	26020
591.600	25382
591.640	24781
591.653	24837
591.706	25437
591.711	25581
591.759	24177
591.782	23613
591.811	23569
591.853	23699
591.864	23272
591.917	21276
591.924	21096
591.969	20970
591.995	20988
592.022	20663
592.066	20319
592.075	20161
592.127	19687
592.137	19672
592.180	20183
592.208	20608
592.233	19683
592.279	18088
592.285	18025
592.338	18147
592.350	18239
592.390	17738
592.421	17464
592.443	16931
592.491	15999
592.495	15958
592.548	16300
592.562	16463
592.600	15707
592.633	15170
592.653	15098
592.704	15008
592.705	15083
592.775	14633
592.846	14955
592.916	14483
592.987	14723
593.058	13731
593.128	14102
593.199	13192
593.270	14087
593.341	11973
593.411	12732
593.482	11926
593.553	13479
593.623	10614
593.694	11879
593.764	11872
593.835	11572
593.906	11221
593.976	11525
594.047	10321
594.117	11896
594.188	12570
594.258	10005
594.329	10050
594.399	9700
594.470	9021
594.540	9593
594.611	9736
594.681	10304
594.751	9885
594.822	11941
594.892	11115
594.963	10593
595.033	9703
595.103	9847
595.174	9656
595.244	12728
595.314	14685
595.384	9977
595.455	8744
595.525	9426
595.595	8569
595.665	9194
595.736	8207
595.806	9269
595.876	8768
595.946	8015
596.016	8012
596.087	8426
596.157	8350
596.227	8712
596.297	8394
596.367	7778
596.437	8573
596.507	10683
596.577	13008
596.647	9305
596.717	7401
596.787	8306
596.857	7916
596.927	8714
596.997	7196
597.067	8338
597.137	7826
597.207	8491
597.277	7957
597.347	7741
597.417	7946
597.487	7619
597.557	7807
597.626	7877
597.696	8181
597.766	8665
597.836	10814
597.906	8675
597.975	7479
598.045	7378
598.115	7196
598.185	7085
598.254	7974
598.324	8481
598.394	7521
598.464	8002
598.533	7306
598.603	7143
598.672	7564
598.742	7358
598.812	7779
598.881	7778
598.951	6951
599.020	6507
599.090	6772
599.159	6664
599.229	6412
599.299	6615
599.368	6983
599.437	7187
599.507	6980
599.576	7119
599.646	7391
599.715	7539
599.785	6472
599.854	6984
599.924	7832
599.993	7511
600.062	6419
600.132	6565
600.201	6136
600.270	8123
600.340	6792
600.409	6269
600.478	7221
600.547	7193
600.617	6986
600.686	6848
600.755	5827
600.824	6088
600.894	6383
600.963	7094
601.032	5685
601.101	5621
601.170	5086
601.239	5840
601.308	5549
601.378	5764
601.447	5917
601.516	5550
601.585	5691
601.654	5258
601.723	5343
601.792	5583
601.861	5723
601.930	7746
601.999	6050
602.068	6610
602.137	5463
602.206	6118
602.275	5424
602.343	6767
602.412	6649
602.481	5860
602.550	4603
602.619	6095
602.688	5572
602.756	5284
602.825	4946
602.894	5553
602.963	4687
603.032	5694
603.100	5653
603.169	5884
603.238	4589
603.307	5819
603.375	5633
603.444	5924
603.513	4575
603.581	5842
603.650	5531
603.719	5287
603.787	5248
603.856	5573
603.924	5659
603.993	6293
604.061	4720
604.130	6183
604.198	5320
604.267	5768
604.335	5083
604.404	5452
604.472	4963
604.541	5527
604.609	5850
604.678	5864
604.746	5439
604.815	6083
604.883	5723
604.951	5784
605.020	4550
605.088	5542
605.156	5593
605.225	5469
605.293	4536
605.361	6225
605.429	5508
605.498	5428
605.566	6077
605.634	6201
605.702	5149
605.771	5553
605.839	5350
605.907	5843
605.975	4949
606.043	5779
606.111	5200
606.180	5958
606.248	5734
606.316	6944
606.384	5217
606.452	8110
606.520	7897
606.588	6316
606.656	5669
606.724	6382
606.792	5750
606.860	5625
606.928	5101
606.996	5113
607.064	4926
607.132	5542
607.200	4189
607.267	4553
607.335	3769
607.403	5675
607.471	4212
607.539	5198
607.607	5127
607.674	4720
607.742	4623
607.810	5485
607.878	4711
607.946	5403
608.013	4183
608.081	4988
608.149	4831
608.216	5272
608.284	4832
608.352	5163
608.419	3627
608.487	7986
608.555	4695
608.622	5284
608.690	5118
608.757	4588
608.825	4909
608.893	5827
608.960	6229
609.028	7916
609.095	7416
609.163	6049
609.230	4683
609.298	4967
609.365	4371
609.432	4933
609.500	3922
609.567	5650
609.635	5678
609.702	6328
609.769	5562
609.837	6051
609.904	4411
609.971	4149
610.039	6182
610.106	7264
610.173	9742
610.241	24138
610.308	23961
610.375	15948
610.442	6065
610.509	4686
610.577	4933
610.644	5107
610.711	4179
610.778	5034
610.845	4450
610.912	5345
610.980	5791
611.047	7530
611.114	7237
611.181	5269
611.248	3662
611.315	5474
611.382	4713
611.449	4706
611.516	4849
611.583	5802
611.650	5339
611.717	5415
611.784	4801
611.851	5371
611.918	6527
611.984	7240
612.051	8037
612.118	17183
612.185	41015
612.252	31760
612.319	7417
612.386	6163
612.452	5269
612.519	6513
612.586	6974
612.653	6709
612.719	5026
612.786	5466
612.853	4936
612.919	4143
612.986	4701
613.053	4494
613.120	4215
613.186	4377
613.253	5881
613.319	5201
613.386	5032
613.453	4684
613.519	5742
613.586	6157
613.652	10227
613.719	8084
613.785	8288
613.852	5587
613.918	4421
613.985	7365
614.051	10321
614.118	24517
614.184	27035
614.250	6915
614.317	5251
614.383	4882
614.449	4661
614.516	5437
614.582	4612
614.648	5083
614.715	4381
614.781	5123
614.847	5153
614.914	5566
614.980	5087
615.046	6608
615.112	5553
615.179	7939
615.245	8091
615.311	15301
615.377	33993
615.443	42320
615.509	16336
615.575	9621
615.642	7786
615.708	7837
615.774	9082
615.840	11860
615.906	16228
615.972	32587
616.038	72864
616.104	87759
616.170	74540
616.236	63436
616.302	17432
616.368	10184
616.434	7404
616.500	7662
616.565	7199
616.631	8031
616.697	6179
616.763	6423
616.829	7690
616.895	13640
616.961	12897
617.026	8419
617.092	5136
617.158	6082
617.224	5125
617.289	4799
617.355	4617
617.421	4232
617.487	5136
617.552	5122
617.618	3915
617.684	4327
617.749	5965
617.815	4463
617.880	3754
617.946	4887
618.012	4971
618.077	4298
618.143	4303
618.208	4437
618.274	4313
618.339	5518
618.405	2972
618.470	5008
618.536	4252
618.601	5352
618.667	4560
618.732	4506
618.798	5401
618.863	5020
618.928	3477
618.994	5556
619.059	6359
619.124	7574
619.190	5321
619.255	4957
619.320	4013
619.386	4789
619.451	3222
619.516	4187
619.581	4438
619.647	4321
619.712	4211
619.777	4450
619.842	4751
619.907	5262
619.972	4860
620.038	4841
620.103	4394
620.168	3645
620.233	4685
620.298	4149
620.363	3425
620.428	4908
620.493	4219
620.558	5036
620.623	3837
620.688	4221
620.753	3283
620.818	4757
620.883	4021
620.948	4431
621.013	3977
621.078	3952
621.143	2906
621.207	6577
621.272	3954
621.337	5184
621.402	4838
621.467	7539
621.532	6138
621.596	5920
621.661	4956
621.726	5160
621.791	4538
621.855	4330
621.920	6050
621.985	5690
622.049	6967
622.114	6133
622.179	4811
622.243	5703
622.308	4508
622.373	6123
622.437	5644
622.502	5184
622.566	4449
622.631	3939
622.695	4982
622.760	5493
622.824	5339
622.889	5880
622.953	5418
623.018	9309
623.082	9097
623.147	5599
623.211	5970
623.276	4579
623.340	3944
623.404	4197
623.469	4043
623.533	4756
623.597	3965
623.662	4689
623.726	4597
623.790	4239
623.854	4203
623.919	4575
623.983	4222
624.047	5078
624.111	4530
624.176	4871
624.240	4678
624.304	6707
624.368	4257
624.432	5705
624.496	4957
624.560	5616
624.625	6191
624.689	5549
624.753	4063
624.817	4774
624.881	4194
624.945	4421
625.009	4260
625.073	4959
625.137	4381
625.201	6789
625.265	6666
625.329	4785
625.393	5297
625.456	5110
625.520	4359
625.584	4876
625.648	5970
625.712	9698
625.776	20896
625.839	26988
625.903	11346
625.967	5302
626.031	9608
626.095	14483
626.158	6847
626.222	3106
626.286	3445
626.349	3185
626.413	2644
626.477	5028
626.540	3194
626.604	3662
626.668	4287
626.731	3457
626.795	3488
626.858	4287
626.922	2620
626.986	4362
627.049	1686
627.113	4586
627.176	3862
627.240	4055
627.303	2848
627.366	3825
627.430	3174
627.493	3426
627.557	2705
627.620	3301
627.684	2876
627.747	4285
627.810	2000
627.874	3652
627.937	2099
628.000	4809
628.064	3067
628.127	2302
628.190	2494
628.253	3359
628.317	2399
628.380	3485
628.443	2339
628.506	3231
628.569	2714
628.632	3162
628.696	2158
628.759	2728
628.822	2415
628.885	3359
628.948	2466
629.011	3090
629.074	2434
629.137	2895
629.200	1891
629.263	3943
629.326	898
629.389	2964
629.452	3121
629.515	3552
629.578	2759
629.641	3203
629.704	1977
629.767	3554
629.830	2900
629.892	2413
629.955	1623
630.018	4024
630.081	1967
630.144	5015
630.207	2441
630.269	4038
630.332	2454
630.395	3858
630.458	2763
630.520	1938
630.583	3209
630.646	2522
630.708	2069
630.771	1786
630.834	2810
630.896	2121
630.959	1691
631.021	2551
631.084	2083
631.146	2894
631.209	2983
631.272	2529
631.334	2015
631.397	1973
631.459	1418
631.522	3415
631.584	1263
631.646	2786
631.709	2837
631.771	4326
631.834	1873
631.896	2187
631.958	2031
632.021	2864
632.083	2211
632.145	3278
632.208	1486
632.270	2897
632.332	1115
632.395	1920
632.457	2432
632.519	1718
632.581	2522
632.643	1659
632.706	2407
632.768	1413
632.830	1981
632.892	2489
632.954	1282
633.016	2643
633.078	1524
633.141	2340
633.203	1837
633.265	2365
633.327	1299
633.389	2338
633.451	1952
633.513	3264
633.575	3654
633.637	1551
633.698	1463
633.760	2403
633.822	2211
633.884	2604
633.946	1630
634.008	1470
634.070	1309
634.132	3066
634.193	2062
634.255	2709
634.317	1187
634.379	2345
634.441	1643
634.502	1627
634.564	2326
634.626	3222
634.687	2827
634.749	3438
634.811	1851
634.873	1408
634.934	2200
634.996	1566
635.057	779
635.119	2080
635.181	1734
635.242	2606
635.304	-637
635.365	3624
635.427	869
635.488	2307
635.550	934
635.611	1989
635.673	969
635.734	2882
635.796	1238
635.857	2591
635.918	1139
635.980	2264
636.041	976
636.102	2213
636.164	1533
636.225	3070
636.286	490
636.348	2476
636.409	1911
636.470	1935
636.531	922
636.593	2010
636.654	1749
636.715	1469
636.776	559
636.838	2019
636.899	956
636.960	1245
637.021	1570
637.082	2077
637.143	1409
637.204	233
637.265	855
637.326	1913
637.387	761
637.448	1309
637.509	997
637.570	1649
637.631	1867
637.692	1668
637.753	325
637.814	1242
637.875	1154
637.936	1946
637.997	708
638.058	2110
638.119	961
638.179	1359
638.240	223
638.301	1595
638.362	187
638.423	1502
638.483	1508
638.544	-380
638.605	936
638.666	507
638.726	1578
638.787	2445
638.848	1258
638.908	1535
638.969	1586
639.030	920
639.090	28
639.151	1562
639.211	1228
639.272	1684
639.332	4136
639.393	2933
639.453	-173
639.514	1580
639.574	1477
639.635	1995
639.695	1542
639.756	856
639.816	1785
639.877	1878
639.937	3558
639.997	4992
640.058	1284
640.118	1076
640.178	1295
640.239	1504
640.299	673
640.359	1207
640.420	1371
640.480	1481
640.540	696
640.600	823
640.661	930
640.721	390
640.781	2253
640.841	359
640.901	1792
640.961	1587
641.021	1516
641.082	1600
641.142	2746
641.202	2889
641.262	-200
641.322	2190
641.382	-446
641.442	2627
641.502	703
641.562	2109
641.622	313
641.682	1361
641.742	713
641.802	1625
641.861	1473
641.921	1491
641.981	1177
642.041	1907
642.101	1576
642.161	1218
642.221	300
642.280	533
642.340	327
642.400	459
642.460	999
642.519	1212
642.579	482
642.639	2081
642.698	-1153
642.758	2944
642.818	915
642.877	1258
642.937	1582
642.997	2071
643.056	1916
643.116	1281
643.175	2048
643.235	1215
643.294	1060
643.354	1635
643.414	963
643.473	1470
643.532	1101
643.592	764
643.651	2025
643.711	4622
643.770	8028
643.830	17778
643.889	43581
643.948	12691
644.008	1723
644.067	1435
644.126	34
644.186	968
644.245	1720
644.304	-375
644.363	2062
644.423	76
644.482	1233
644.541	902
644.600	-937
644.659	1446
644.719	-642
644.778	1609
644.837	528
644.896	3092
644.955	6687
645.014	3350
645.073	1384
645.132	1092
645.191	647
645.250	1408
645.309	2001
645.368	601
645.427	981
645.486	230
645.545	1441
645.604	594
645.663	1080
645.722	443
645.781	1148
645.840	619
645.898	723
645.957	2236
646.016	300
646.075	3937
646.134	6078
646.192	15659
646.251	29598
646.310	4753
646.369	606
646.427	1916
646.486	-557
646.545	507
646.603	381
646.662	973
646.721	1209
646.779	544
646.838	32
646.896	894
646.955	1124
647.014	1489
647.072	362
647.131	4582
647.189	1244
647.248	-15
647.306	1437
647.365	1425
647.423	-978
647.481	1308
647.540	-813
647.598	360
647.657	639
647.715	1389
647.773	222
647.832	1758
647.890	-51
647.948	811
648.007	318
648.065	-574
648.123	-363
648.181	2280
648.240	840
648.298	314
648.356	424
648.414	985
648.472	683
648.531	2092
648.589	289
648.647	588
648.705	-441
648.763	426
648.821	78
648.879	991
648.937	125
648.995	1357
649.053	194
649.111	1584
649.169	1602
649.227	2646
649.285	4564
649.343	14420
649.401	8440
649.459	6123
649.516	5798
649.574	2048
649.632	8484
649.690	12998
649.748	2837
649.806	1185
649.863	4158
649.921	4452
649.979	1865
650.037	1312
650.094	-1406
650.152	111
650.210	-1001
650.268	1198
650.325	385
650.383	308
650.440	-829
650.498	1107
650.556	-72
650.613	11
650.671	176
650.728	820
650.786	-336
650.843	451
650.901	-1145
650.958	1237
651.016	-339
651.073	540
651.131	-614
651.188	636
651.246	874
651.303	-477
651.360	690
651.418	577
651.475	383
651.532	-11
651.590	806
651.647	-136
651.704	-291
651.762	-123
651.819	408
651.876	-603
651.933	235
651.990	779
652.048	-913
652.105	334
652.162	1093
652.219	306
652.276	176
652.333	516
652.390	-1157
652.448	174
652.505	512
652.562	-194
652.619	84
652.676	874
652.733	1958
652.790	728
652.847	-1047
652.904	926
652.961	-350
653.017	-170
653.074	1238
653.131	-85
653.188	-674
653.245	612
653.302	332
653.359	-94
653.415	474
653.472	-790
653.529	-58
653.586	-706
653.642	-625
653.699	1109
653.756	-644
653.813	-564
653.869	362
653.926	-189
653.983	-952
654.039	1163
654.096	-603
654.152	1269
654.209	-1244
654.266	1088
654.322	-1558
654.379	300
654.435	956
654.492	1065
654.548	-99
654.605	2157
654.661	1200
654.717	571
654.774	328
654.830	486
654.887	649
654.943	158
655.000	434
655.056	672
655.112	-323
655.168	-248
655.225	-798
655.281	1178
655.337	-286
655.394	2000
655.450	1377
655.506	704
655.562	1223
655.618	2189
655.675	-412
655.731	724
655.787	-545
655.843	1068
655.899	-553
655.955	1031
656.011	1279
656.067	230
656.123	992
656.179	1855
656.235	2143
656.291	1902
656.347	1933
656.403	803
656.459	106
656.515	1588
656.571	272
656.627	965
656.683	-79
656.739	717
656.795	543
656.850	167
656.906	954
656.962	1004
657.018	-272
657.074	323
657.129	-919
657.185	903
657.241	-577
657.297	192
657.352	-171
657.408	-93
657.464	965
657.519	931
657.575	-1186
657.630	-877
657.686	-950
657.742	-120
657.797	-955
657.853	-132
657.908	931
657.964	-722
658.019	-244
658.075	-77
658.130	-193
658.186	-358
658.241	259
658.297	-322
658.352	-613
658.407	520
658.463	-990
658.518	-126
658.573	-306
658.629	-1107
658.684	-807
658.739	581
658.795	-1407
658.850	439
658.905	-421
658.960	911
659.016	-908
659.071	517
659.126	-469
659.181	572
659.236	832
659.291	2073
659.346	-441
659.401	647
659.457	344
659.512	820
659.567	425
659.622	170
659.677	-430
659.732	-928
659.787	-676
659.842	648
659.897	-49
659.952	74
660.007	-842
660.061	-465
660.116	-208
660.171	-499
660.226	-243
660.281	709
660.336	-1188
660.391	-149
660.445	-529
660.500	157
660.555	97
660.610	124
660.664	615
660.719	-188
660.774	122
660.828	177
660.883	586
660.938	770
660.992	-1684
661.047	69
661.101	-869
661.156	155
661.211	-1444
661.265	-211
661.320	-450
661.374	-198
661.429	-682
661.483	860
661.538	-1259
661.592	487
661.647	-810
661.701	518
661.755	-22
661.810	-60
661.864	-242
661.919	-944
661.973	202
662.027	-515
662.081	-1364
662.136	-277
662.190	227
662.244	-150
662.299	-387
662.353	506
662.407	-1249
662.461	-315
662.515	-549
662.569	-17
662.624	333
662.678	-201
662.732	-1093
662.786	-174
662.840	-162
662.894	276
662.948	-659
663.002	-315
663.056	-400
663.110	-1037
663.164	-1066
663.218	-564
663.272	-306
663.326	-224
663.380	22
663.434	-207
663.488	-1576
663.542	88
663.595	-197
663.649	-629
663.703	-547
663.757	-313
663.811	-1162
663.864	-103
663.918	-402
663.972	-300
664.026	-595
664.079	-48
664.133	-77
664.187	322
664.240	-570
664.294	221
664.348	-15
664.401	43
664.455	-269
664.508	-437
664.562	-198
664.615	-720
664.669	-588
664.722	-269
664.776	-446
664.829	-434
664.883	-631
664.936	-709
664.990	-1141
665.043	351
665.097	-1095
665.150	3
665.203	-1214
665.257	79
665.310	-405
665.363	-310
665.417	-510
665.470	-689
665.523	-287
665.576	560
665.630	-838
665.683	-163
665.736	-139
665.789	118
665.842	-979
665.895	-206
665.949	-508
666.002	-395
666.055	-68
666.108	24
666.161	-475
666.214	411
666.267	-390
666.320	791
666.373	-343
666.426	251
666.479	-1126
666.532	-207
666.585	-409
666.638	117
666.691	-613
666.744	99
666.796	-315
666.849	-361
666.902	75
666.955	-243
667.008	-376
667.060	-266
667.113	-928
667.166	-557
667.219	-1334
667.271	-575
667.324	-744
667.377	138
667.430	-10
667.482	469
667.535	-164
667.587	180
667.640	-27
667.693	-153
667.745	334
667.798	1838
667.850	-662
667.903	-533
667.955	-546
668.008	-165
668.060	-422
668.113	-585
668.165	-547
668.218	-462
668.270	-581
668.322	2
668.375	-218
668.427	996
668.479	-923
668.532	-165
668.584	-73
668.636	1066
668.689	290
668.741	-807
668.793	-524
668.845	-214
668.898	-380
668.950	56
669.002	-597
669.054	-690
669.106	-2042
669.158	-416
669.211	385
669.263	-710
669.315	-18
669.367	409
669.419	-634
669.471	1164
669.523	84
669.575	934
669.627	597
669.679	-232
669.731	-911
669.783	24
669.835	-147
669.886	261
669.938	-236
669.990	661
670.042	-869
670.094	429
670.146	-527
670.197	1293
670.249	954
670.301	746
670.353	1127
670.404	2593
670.456	4290
670.508	7907
670.560	15256
670.611	25949
670.663	46565
670.715	112707
670.766	223941
670.818	80729
670.869	9147
670.921	4184
670.972	1883
671.024	1755
671.075	748
671.127	1323
671.178	-848
671.230	1212
671.281	-26
671.333	489
671.384	-59
671.436	486
671.487	-746
671.538	1158
671.590	-216
671.641	803
671.692	327
671.744	1932
671.795	1278
671.846	38
671.897	-444
671.949	85
672.000	-280
672.051	-8
672.102	-282
672.153	-585
672.204	-20
672.256	-469
672.307	-971
672.358	669
672.409	303
672.460	-340
672.511	-923
672.562	-471
672.613	-551
672.664	-56
672.715	-972
672.766	280
672.817	-129
672.868	95
672.919	-825
672.970	-550
673.021	-134
673.071	-796
673.122	140
673.173	173
673.224	-1241
673.275	192
673.326	-1432
673.376	350
673.427	-1990
673.478	-898
673.528	-626
673.579	-280
673.630	-384
673.680	199
673.731	-541
673.782	-962
673.832	-1111
673.883	-370
673.934	-789
673.984	-136
674.035	-493
674.085	122
674.136	-923
674.186	-190
674.237	-56
674.287	180
674.338	-35
674.388	-37
674.438	-747
674.489	518
674.539	-426
674.589	-373
674.640	-1108
674.690	173
674.740	-1238
674.791	350
674.841	-463
674.891	-365
674.942	-942
674.992	-976
675.042	-1243
675.092	-148
675.142	-811
675.193	-202
675.243	-503
675.293	-228
675.343	-788
675.393	-410
675.443	-587
675.493	-282
675.543	-2133
675.593	-206
675.643	-545
675.693	-673
675.743	-1322
675.793	184
675.843	-1387
675.893	-801
675.943	-102
675.993	-640
676.043	-394
676.093	-210
676.142	-1004
676.192	-585
676.242	-895
676.292	-984
676.341	-945
676.391	-18
676.441	-1054
676.491	-574
676.540	-1727
676.590	-683
676.640	-769
676.689	-548
676.739	-1527
676.789	-567
676.838	-736
676.888	-682
676.937	-1308
676.987	-1286
677.037	-652
677.086	-706
677.136	-1011
677.185	-1235
677.235	-990
677.284	4
677.333	-1243
677.383	-687
677.432	-2062
677.482	-1110
677.531	-1004
677.580	-1182
677.630	-785
677.679	-552
677.728	-1633
677.778	-262
677.827	-872
677.876	-1525
677.925	-816
677.975	-460
678.024	-1067
678.073	-1151
678.122	-354
678.171	-615
678.220	-935
678.269	2
678.319	-1022
678.368	-1356
678.417	-994
678.466	-18
678.515	-598
678.564	-746
678.613	-931
678.662	-749
678.711	-849
678.760	-759
678.809	-489
678.857	-1036
678.906	-754
678.955	-357
679.004	-192
679.053	-543
679.102	-878
679.151	-320
679.199	-1176
679.248	-471
679.297	-1950
679.346	-1391
679.394	-897
679.443	-950
679.492	-1512
679.540	-655
679.589	-894
679.638	-613
679.686	-937
679.735	-734
679.784	-1239
679.832	-927
679.881	-1444
679.929	248
679.978	-1077
680.026	-713
680.075	-638
680.123	-1322
680.172	-1785
680.220	-989
680.268	-1131
680.317	-1078
680.365	-1474
680.414	-806
680.462	-1538
680.510	17
680.559	-987
680.607	-675
680.655	-1580
680.703	-684
680.752	-1578
680.800	-1097
680.848	-1576
680.896	-1121
680.945	-1654
680.993	-644
681.041	-2000
681.089	-1110
681.137	-716
681.185	-1578
681.233	-380
681.258	-590
681.281	-811
681.329	-868
681.377	-668
681.380	-673
681.425	-1179
681.473	-116
681.502	-800
681.521	-1319
681.569	112
681.617	-416
681.624	-361
681.665	-191
681.713	-1519
681.745	-562
681.761	-129
681.809	-600
681.857	318
681.867	136
681.904	-587
681.952	-296
681.989	-629
682.000	-763
682.048	-95
682.096	-950
682.111	-730
682.143	-338
682.191	-88
682.233	687
682.239	785
682.286	-11
682.334	-214
682.354	-256
682.382	-350
682.430	241
682.476	-678
682.477	-720
682.525	606
682.572	440
682.598	213
682.620	7
682.667	-231
682.715	1107
682.720	1016
682.763	-29
682.810	723
682.841	-377
682.857	-978
682.905	561
682.952	640
682.963	698
683.000	838
683.047	202
683.085	1344
683.095	1619
683.142	866
683.190	1458
683.206	1244
683.237	821
683.284	1495
683.328	683
683.332	602
683.379	1408
683.426	887
683.449	1046
683.473	1162
683.521	850
683.568	1243
683.571	1257
683.615	1259
683.662	1662
683.693	1230
683.709	967
683.757	1789
683.804	1410
683.814	1508
683.851	1701
683.898	1507
683.936	1609
683.945	1633
683.992	1176
684.039	1894
684.057	1918
684.086	1935
684.133	1927
684.179	1578
684.180	1551
684.227	1718
684.274	1645
684.300	2194
684.321	2615
684.368	1492
684.415	2809
684.422	2726
684.462	2066
684.509	1722
684.543	1950
684.556	2042
684.603	2361
684.649	1863
684.665	2054
684.696	2506
684.743	2174
684.786	2853
684.790	2892
684.837	2262
684.883	3412
684.908	2944
684.930	2457
684.977	3345
685.023	2870
685.029	2909
685.070	3041
685.117	1954
685.150	2429
685.164	2650
685.210	2721
685.257	4061
685.272	3762
685.303	3025
685.350	3261
685.393	2881
685.396	2850
685.443	3703
685.490	3419
685.514	3639
685.536	3756
685.583	3262
685.629	3914
685.636	3870
685.675	3605
685.722	3621
685.757	3485
685.768	3457
685.815	3594
685.861	3450
685.878	3619
685.908	3839
685.954	3872
686.000	4616
686.000	4624
686.047	4303
686.093	4910
686.121	4930
686.139	4819
686.185	4488
686.232	4374
686.242	4471
686.278	4695
686.324	3853
686.363	3907
686.370	3962
686.416	3656
686.463	4243
686.484	4063
686.509	3808
686.555	4517
686.601	4312
686.606	4295
686.647	4166
686.693	4265
686.727	4519
686.739	4592
686.785	3884
686.831	4405
686.848	4205
686.877	3828
686.923	4574
686.969	3843
686.969	3839
687.015	4552
687.061	3987
687.090	4743
687.107	5072
687.153	4783
687.199	4940
687.211	4692
687.245	4158
687.291	4938
687.332	4872
687.336	4873
687.382	4791
687.428	5008
687.453	5400
687.474	5580
687.520	4732
687.565	5285
687.574	5096
687.611	4553
687.657	4825
687.695	5062
687.702	5116
687.748	5467
687.794	5462
687.816	5718
687.839	5825
687.885	5334
687.931	4937
687.937	4946
687.976	5053
688.022	5302
688.058	4829
688.067	4766
688.113	4879
688.158	4883
688.179	5031
688.204	5239
688.249	5396
688.295	5822
688.300	5814
688.340	5687
688.386	6140
688.421	6018
688.431	5945
688.477	6001
688.522	5244
688.542	5507
688.567	5968
688.613	5285
688.658	6059
688.663	5989
688.703	5378
688.749	5734
688.784	5329
688.794	5272
688.839	5959
688.884	5805
688.905	6183
688.930	6422
688.975	5807
689.020	6048
689.026	5896
689.065	5284
689.110	5920
689.146	5894
689.155	5858
689.201	6202
689.246	6019
689.267	6259
689.291	6455
689.336	5738
689.381	5789
689.388	5703
689.426	5452
689.471	5737
689.509	5584
689.516	5578
689.561	5856
689.606	5954
689.630	6326
689.651	6600
689.696	5623
689.741	5906
689.750	5925
689.785	6183
689.830	6384
689.871	5998
689.875	5944
689.920	6457
689.965	5834
689.992	6026
690.010	6292
690.054	6105
690.099	6495
690.112	6417
690.144	6116
690.189	6356
690.233	5914
690.233	5924
690.278	6378
690.323	5784
690.354	6560
690.367	6942
690.412	6880
690.457	7477
690.474	7398
690.501	7130
690.546	7322
690.590	6960
690.595	6958
690.635	7501
690.680	7764
690.716	8398
690.724	8569
690.769	8661
690.813	9914
690.836	9866
690.857	10524
690.902	12868
690.946	14503
690.957	15002
690.991	19938
691.035	25768
691.077	32159
691.080	32256
691.124	31848
691.168	32251
691.198	32091
691.213	30072
691.257	24384
691.301	18099
691.318	15912
691.346	14909
691.390	12271
691.434	10465
691.439	10198
691.478	9607
691.522	9443
691.559	8695
691.567	8671
691.611	8796
691.655	8744
691.680	8717
691.699	8617
691.743	8576
691.787	8670
691.800	8429
691.831	8118
691.875	8487
691.919	8388
691.921	8382
691.964	8635
692.008	8244
692.041	8133
692.052	8159
692.096	7878
692.139	8553
692.162	8352
692.183	8183
692.227	8527
692.271	8303
692.282	8368
692.315	8581
692.359	8311
692.402	8343
692.403	8364
692.447	8251
692.490	8876
692.523	8792
692.534	8794
692.578	8933
692.622	8944
692.643	8974
692.666	8755
692.709	8162
692.753	8231
692.763	8069
692.797	8329
692.840	8816
692.884	9163
692.884	9184
692.928	9516
692.971	9376
693.004	9324
693.015	9382
693.059	9585
693.102	9492
693.124	9455
693.146	9350
693.189	9492
693.233	9222
693.245	9322
693.276	10101
693.320	10469
693.363	10823
693.365	10815
693.407	11581
693.450	12260
693.485	12833
693.493	13122
693.537	14731
693.580	15891
693.605	16972
693.624	19234
693.667	23646
693.710	28592
693.725	30170
693.753	39339
693.797	53728
693.840	68546
693.845	70178
693.883	70536
693.926	69846
693.966	70099
693.970	68850
694.013	53977
694.056	39016
694.086	28428
694.099	27069
694.142	23175
694.185	18848
694.206	16893
694.229	16368
694.272	14811
694.315	13927
694.326	13559
694.358	13245
694.401	12856
694.444	12203
694.446	12148
694.487	12051
694.530	11878
694.566	11935
694.573	11890
694.616	10904
694.659	10473
694.686	9938
694.702	9838
694.745	9686
694.787	9309
694.806	9299
694.830	9624
694.873	9600
694.916	9881
694.926	9892
694.959	9628
695.002	9463
695.044	9121
695.046	9087
695.087	9352
695.130	9337
695.166	9507
695.172	9571
695.215	9775
695.258	9927
695.286	9989
695.301	9916
695.343	9844
695.386	9555
695.406	9370
695.428	9225
695.471	8814
695.514	8839
695.526	8698
695.556	8907
695.599	9447
695.641	9700
695.646	9728
695.684	9689
695.726	9420
695.766	9382
695.769	9430
695.811	9348
695.854	9756
695.886	9765
695.896	9763
695.938	9847
695.981	9712
696.005	9696
696.023	9672
696.065	9572
696.108	9358
696.125	9258
696.150	9441
696.192	9823
696.235	10100
696.245	10136
696.277	9991
696.319	9695
696.361	9542
696.365	9491
696.404	9966
696.446	10618
696.485	11076
696.488	11102
696.530	11186
696.572	10997
696.604	10913
696.614	10852
696.656	10457
696.698	10158
696.724	9780
696.740	9709
696.783	9684
696.825	9667
696.844	9606
696.867	9657
696.909	9641
696.951	9662
696.964	9655
696.992	9742
697.034	9776
697.076	9704
697.083	9692
697.118	9997
697.160	10240
697.202	10509
697.203	10486
697.244	10313
697.286	10100
697.323	9820
697.327	9857
697.369	9939
697.411	9987
697.442	10108
697.453	10115
697.494	9813
697.536	9728
697.562	9559
697.578	9645
697.620	9836
697.661	9969
697.682	10031
697.703	10187
697.744	10448
697.786	10748
697.801	10783
697.828	10944
697.869	11192
697.911	11400
697.921	11443
697.952	11196
697.994	10710
698.035	10312
698.040	10224
698.077	10008
698.118	9774
698.160	9489
698.160	9457
698.201	9835
698.243	10097
698.279	10390
698.284	10426
698.325	10371
698.367	10406
698.399	10362
698.408	10388
698.449	10365
698.491	10350
698.518	10302
698.532	10270
698.573	10100
698.614	9906
698.638	9758
698.656	9859
698.697	10049
698.738	10223
698.757	10277
698.779	10301
698.820	10270
698.862	10266
698.877	10232
698.903	10498
698.944	10870
698.985	11242
698.996	11313
699.026	11056
699.067	10655
699.116	10147
699.235	10999
699.354	10313
699.474	10494
699.593	11180
699.713	11341
699.832	10262
699.951	11650
700.070	11249
700.190	9898
700.309	10473
700.428	11047
700.547	10589
700.667	10227
700.786	11472
700.905	10042
701.024	9626
701.143	10533
701.262	9773
701.381	9767
701.500	9915
701.619	10525
701.738	9209
701.857	9880
701.976	9845
702.095	8634
702.214	10024
702.333	10369
702.452	10359
702.571	9261
702.690	9283
702.809	9053
702.928	9184
703.047	8919
703.165	9158
703.284	8231
703.403	8624
703.522	9930
703.640	10528
703.759	11008
703.878	13502
703.997	9708
704.115	9091
704.234	9463
704.353	9145
704.471	7852
704.590	8719
704.708	7908
704.827	8481
704.946	8261
705.064	8336
705.183	8610
705.301	10067
705.420	12803
705.538	12358
705.656	11147
705.775	11148
705.893	18290
706.012	25114
706.130	10893
706.249	11004
706.367	11699
706.485	10941
706.604	10509
706.722	10938
706.840	11800
706.958	12410
707.077	11066
707.195	10363
707.313	9722
707.431	9252
707.549	9393
707.668	9343
707.786	9834
707.904	9585
708.022	9682
708.140	9669
708.258	9327
708.376	9272
708.494	9463
708.612	10672
708.730	13138
708.848	13697
708.966	12000
709.084	11469
709.202	10748
709.320	11128
709.438	12128
709.556	10648
709.674	11677
709.791	11018
709.909	11391
710.027	11135
710.145	11199
710.263	11040
710.380	10053
710.498	10983
710.616	10670
710.733	10730
710.851	10833
710.969	10663
711.086	10745
711.204	10208
711.322	10865
711.439	9873
711.557	10737
711.674	10686
711.792	10342
711.909	11251
712.027	11604
712.144	9807
712.262	9844
712.379	11345
712.497	13466
712.614	14887
712.732	13116
712.849	12112
712.966	12289
713.084	13567
713.201	12863
713.318	12610
713.436	13031
713.553	11916
713.670	11974
713.787	12434
713.905	13051
714.022	11699
714.139	11680
714.256	12138
714.373	13198
714.490	13065
714.608	16897
714.725	42604
714.842	55422
714.959	12762
715.076	10900
715.193	11058
715.310	10324
715.427	10407
715.544	10873
715.661	10174
715.778	9356
715.895	10868
716.011	10493
716.128	10216
716.245	10255
716.362	11896
716.479	12412
716.596	10882
716.713	10497
716.829	9332
716.946	9868
717.063	9314
717.180	9612
717.296	9371
717.413	10240
717.530	9792
717.646	10207
717.763	9467
717.880	9189
717.996	9788
718.113	8960
718.229	9389
718.346	9078
718.462	9134
718.579	9974
718.695	14623
718.812	13396
718.928	11476
719.045	9983
719.161	8502
719.277	8404
719.394	9083
719.510	8987
719.626	7894
719.743	10331
719.859	8854
719.975	9931
720.092	15205
720.208	27727
720.324	11384
720.440	7608
720.557	9332
720.673	12474
720.789	16883
720.905	31243
721.021	15259
721.137	8706
721.253	8648
721.369	9017
721.486	9087
721.602	11765
721.718	8343
721.834	7605
721.950	7449
722.066	7472
722.181	8195
722.297	7943
722.413	8928
722.529	8012
722.645	8115
722.761	7126
722.877	6758
722.993	6898
723.108	7646
723.224	6925
723.340	7650
723.456	7330
723.571	7292
723.687	7438
723.803	6820
723.918	6609
724.034	7002
724.150	7302
724.265	6991
724.381	12581
724.497	18163
724.612	6876
724.728	6727
724.843	7535
724.959	7855
725.074	11662
725.190	15415
725.305	7531
725.421	7303
725.536	7042
725.651	6457
725.767	6040
725.882	6213
725.997	5835
726.113	6508
726.228	6059
726.343	6165
726.459	5918
726.574	6637
726.689	5355
726.804	6061
726.920	6280
727.035	5900
727.150	6254
727.265	5927
727.380	6749
727.495	6184
727.610	5588
727.725	5889
727.841	6613
727.956	10848
728.071	10966
728.186	6413
728.301	5108
728.416	5930
728.531	5859
728.645	5879
728.760	6535
728.875	7267
728.990	6755
729.105	7029
729.220	5929
729.335	5976
729.449	6010
729.564	4862
729.679	4886
729.794	4798
729.908	6386
730.023	5797
730.138	4828
730.253	4483
730.367	4680
730.482	5239
730.596	5252
730.711	5791
730.826	4895
730.940	4791
731.055	4517
731.169	4684
731.284	4386
731.398	4467
731.513	5743
731.627	5959
731.742	5157
731.856	5636
731.970	4516
732.085	5306
732.199	4387
732.313	4089
732.428	6357
732.542	11682
732.656	9753
732.771	5772
732.885	4258
732.999	4314
733.113	4994
733.227	4772
733.342	3737
733.456	4114
733.570	3893
733.684	3880
733.798	4814
733.912	3569
734.026	3904
734.140	4470
734.254	5155
734.368	7296
734.482	9736
734.596	4432
734.710	4560
734.824	5192
734.938	3476
735.052	4222
735.166	5763
735.280	4616
735.393	4805
735.507	4366
735.621	5009
735.735	8693
735.849	5340
735.962	4531
736.076	4628
736.190	4080
736.303	5887
736.417	7909
736.531	4367
736.644	3621
736.758	3783
736.872	3967
736.985	3903
737.099	3332
737.212	2657
737.326	4039
737.439	4517
737.553	4077
737.666	4784
737.780	3473
737.893	3756
738.007	3356
738.120	3968
738.233	4199
738.347	3827
738.460	4327
738.573	4104
738.687	4547
738.800	4365
738.913	4742
739.026	4284
739.140	4873
739.253	4173
739.366	3629
739.479	3673
739.592	3976
739.705	3831
739.818	3823
739.932	3204
740.045	4365
740.158	3788
740.271	3409
740.384	4200
740.497	4835
740.610	4974
740.723	4552
740.836	5076
740.949	6012
741.062	5814
741.174	5191
741.287	3703
741.400	3863
741.513	4182
741.626	6051
741.739	4892
741.851	4430
741.964	4019
742.077	3934
742.189	4333
742.302	6441
742.415	5787
742.527	4497
742.640	3608
742.753	3970
742.865	3054
742.978	3662
743.090	2800
743.203	3017
743.316	3684
743.428	3207
743.541	2611
743.653	3322
743.766	3248
743.878	3614
743.990	4152
744.103	5413
744.215	6966
744.327	3839
744.440	4233
744.552	6335
744.664	3474
744.777	3033
744.889	2300
745.001	2991
745.113	3224
745.226	2718
745.338	3628
745.450	2169
745.562	2477
745.674	3898
745.786	2887
745.898	3064
746.010	3945
746.122	3363
746.234	3472
746.347	3250
746.459	2833
746.570	3512
746.682	4689
746.794	8556
746.906	5517
747.018	3234
747.130	3284
747.242	3737
747.354	4084
747.466	3598
747.577	2478
747.689	3895
747.801	3138
747.913	2830
748.024	3018
748.136	2647
748.248	3463
748.359	3102
748.471	2790
748.583	2617
748.694	2911
748.806	4044
748.918	3765
749.029	3291
749.141	2890
749.252	3968
749.364	4086
749.475	5692
749.587	4017
749.698	2733
749.809	3549
749.921	3251
750.032	4358
750.144	2962
750.255	2617
750.366	2591
750.478	2378
750.589	3130
750.700	2698
750.811	4301
750.923	3862
751.034	5763
751.145	7560
751.256	3129
751.367	3027
751.479	3579
751.590	3159
751.701	2708
751.812	2438
751.923	2611
752.034	2736
752.145	3200
752.256	2860
752.367	2713
752.478	2436
752.589	2574
752.700	2413
752.811	2800
752.922	2545
753.032	2698
753.143	3918
753.254	3230
753.365	3375
753.476	2938
753.586	2806
753.697	3434
753.808	3151
753.919	2260
754.029	2691
754.140	3628
754.251	3114
754.361	2675
754.472	2589
754.582	2799
754.693	3146
754.804	2688
754.914	2545
755.025	2641
755.135	3079
755.246	2567
755.356	2474
755.466	2934
755.577	3261
755.687	2656
755.798	2902
755.908	3427
756.018	2351
756.129	2602
756.239	3154
756.349	2537
756.460	2592
756.570	2738
756.680	2775
756.790	2801
756.900	3620
757.011	2646
757.121	2422
757.231	3166
757.341	3083
757.451	2706
757.561	3118
757.671	2741
757.781	2400
757.891	3368
758.001	3771
758.111	3339
758.221	3335
758.331	3669
758.441	3420
758.551	3929
758.661	3922
758.771	3601
758.880	3161
758.990	3647
759.100	3109
759.210	3292
759.320	3751
759.429	4098
759.539	3828
759.649	3559
759.758	4262
759.868	3477
759.978	2593
760.087	4165
760.197	3613
760.307	3917
760.416	4111
760.526	3506
760.635	4198
760.745	4691
760.854	3928
760.964	3581
761.073	4458
761.182	4576
761.292	3707
761.401	4714
761.511	3607
761.620	3944
761.729	4041
761.839	5620
761.948	5147
762.057	5393
762.166	4393
762.276	3752
762.385	6015
762.494	5400
762.603	5195
762.712	6431
762.822	5611
762.931	6114
763.040	5852
763.149	5729
763.258	7361
763.367	8018
763.476	6824
763.585	6777
763.694	8359
763.803	8263
763.912	8830
764.021	8134
764.130	8692
764.238	9498
764.347	10026
764.456	10153
764.565	11404
764.674	12896
764.783	13239
764.891	13848
765.000	16812
765.109	18261
765.217	22098
765.326	25028
765.435	31110
765.543	37393
765.652	45762
765.761	59123
765.869	81162
765.978	121177
766.086	192812
766.195	336208
766.303	633326
766.412	971076
766.520	853640
766.629	661673
766.737	332343
766.846	187662
766.954	122119
767.062	86081
767.171	63423
767.279	49905
767.387	38491
767.496	31325
767.604	26989
767.712	23645
767.820	21730
767.928	19910
768.037	18103
768.145	17684
768.253	17148
768.361	15880
768.469	15330
768.577	15697
768.685	17838
768.793	18421
768.901	19423
769.009	23036
769.117	27492
769.225	34361
769.333	49121
769.441	73339
769.549	129096
769.657	261897
769.765	583753
769.873	823849
769.981	618259
770.088	265977
770.196	126664
770.304	77206
770.412	52571
770.519	38785
770.627	29847
770.735	23864
770.842	20065
770.950	18632
771.058	16181
771.165	14578
771.273	13229
771.380	11881
771.488	10348
771.595	10109
771.703	9182
771.810	8838
771.918	8314
772.025	7543
772.133	7223
772.240	6174
772.348	6407
772.455	6831
772.562	6242
772.670	5502
772.777	5387
772.884	5942
772.991	5186
773.099	5046
773.206	3839
773.313	5018
773.420	5426
773.528	3962
773.635	4094
773.742	4787
773.849	4169
773.956	3887
774.063	3664
774.170	3829
774.277	5042
774.384	3446
774.491	3488
774.598	3323
774.705	3677
774.812	4227
774.919	4343
775.026	4684
775.133	3555
775.239	2609
775.346	3009
775.453	3152
775.560	3116
775.667	3879
775.773	2983
775.880	3890
775.987	2553
776.093	4306
776.200	3588
776.307	2668
776.413	3334
776.520	3561
776.627	3276
776.733	3439
776.840	2894
776.946	5386
777.053	6488
777.159	12950
777.266	8479
777.372	11690
777.478	10495
777.585	6169
777.691	3090
777.798	3160
777.904	3064
778.010	4519
778.117	3528
778.223	2699
778.329	2973
778.435	3024
778.542	3275
778.648	2310
778.754	2337
778.860	1864
778.966	2309
779.072	2452
779.178	2462
779.284	2305
779.391	1804
779.497	2349
779.603	4854
779.708	4721
779.815	10702
779.920	33135
780.026	95747
780.132	18808
780.238	3710
780.344	2794
780.450	3375
780.556	2540
780.661	2499
780.767	2637
780.873	2573
780.979	2516
781.085	1724
781.190	1648
781.296	1690
781.402	2798
781.507	1737
781.613	2531
781.719	1047
781.824	1566
781.930	2120
782.035	1904
782.141	2050
782.246	1868
782.352	1381
782.457	1887
782.563	1796
782.668	2514
782.773	2720
782.879	1811
782.984	2266
783.090	1891
783.195	2466
783.300	2020
783.405	1884
783.511	1888
783.616	2069
783.721	2149
783.826	1954
783.932	1420
784.037	2052
784.142	2454
784.247	1492
784.352	1562
784.457	1521
784.562	1991
784.667	2046
784.772	1726
784.877	1385
784.982	1832
785.087	1700
785.192	1820
785.297	1201
785.402	1216
785.507	1850
785.611	1817
785.716	1614
785.821	1901
785.926	850
786.031	1042
786.135	1549
786.240	2582
786.345	862
786.450	2253
786.554	1757
786.659	1593
786.763	78
786.868	2918
786.973	1583
787.077	1296
787.182	1115
787.286	2007
787.391	1711
787.495	990
787.600	1508
787.704	1163
787.809	1473
787.913	1391
788.017	1161
788.122	2042
788.226	514
788.330	1151
788.435	881
788.539	1821
788.643	1015
788.747	785
788.852	1348
788.956	684
789.060	1764
789.164	1208
789.268	735
789.372	2155
789.476	1248
789.580	821
789.684	406
789.788	1280
789.892	508
789.996	1923
790.100	910
790.204	1276
790.308	1431
790.412	1286
790.516	1754
790.620	999
790.724	992
790.828	824
790.931	1359
791.035	2055
791.139	1394
791.242	1536
791.346	1352
791.450	531
791.554	1264
791.657	262
791.761	2111
791.864	1787
791.968	1716
792.072	1323
792.175	368
792.279	1658
792.382	1327
792.486	1289
792.589	1201
792.693	1947
792.796	735
792.899	1041
793.003	1607
793.106	59
793.209	207
793.313	3022
793.416	-229
793.519	1654
793.623	1744
793.726	2596
793.829	1801
793.932	2105
794.035	1181
794.138	1924
794.242	1921
794.345	2337
794.448	3792
794.551	5187
794.654	17743
794.757	49556
794.860	11882
794.963	2455
795.066	1415
795.169	1957
795.272	527
795.375	1711
795.477	243
795.580	1466
795.683	313
795.786	1192
795.889	65
795.991	2244
796.094	1696
796.197	192
796.300	1186
796.402	1044
796.505	73
796.608	615
796.710	1241
796.813	1137
796.915	351
797.018	621
797.120	638
797.223	-483
797.326	1692
797.428	740
797.530	647
797.633	287
797.735	1391
797.838	1308
797.940	1913
798.042	226
798.145	222
798.247	1066
798.349	233
798.452	2026
798.554	797
798.656	187
798.758	1554
798.860	982
798.962	1256
799.065	1239
799.167	639
799.269	1883
799.371	1282
799.473	1099
799.575	1212
799.677	1239
799.779	1523
799.881	818
799.983	1554
800.085	504
800.187	1171
800.289	702
800.390	801
800.492	1116
800.594	1554
800.696	635
800.798	1136
800.899	527
801.001	387
801.103	480
801.205	586
801.306	468
801.408	672
801.509	130
801.611	808
801.713	725
801.814	428
801.916	316
802.017	389
802.119	891
802.220	996
802.322	-512
802.423	1998
802.525	269
802.626	980
802.727	786
802.829	813
802.930	-627
803.031	1415
803.133	298
803.234	609
803.335	475
803.436	306
803.538	1044
803.639	25
803.740	259
803.841	83
803.942	628
804.043	929
804.144	43
804.245	737
804.346	-198
804.447	341
804.548	1230
804.649	1572
804.750	1036
804.851	599
804.952	-417
805.053	545
805.154	-674
805.255	992
805.355	108
805.456	783
805.557	-127
805.658	-347
805.758	1168
805.859	1189
805.960	482
806.061	482
806.161	-126
806.262	571
806.362	923
806.463	46
806.564	606
806.664	867
806.765	710
806.865	1167
806.966	480
807.066	-188
807.166	1114
807.267	860
807.367	-4
807.468	470
807.568	-982
807.668	786
807.769	1478
807.869	766
807.969	656
808.069	705
808.170	608
808.270	731
808.370	932
808.470	1396
808.570	194
808.670	539
808.770	672
808.870	585
808.970	711
809.070	262
809.170	-110
809.271	943
809.370	618
809.470	1327
809.570	297
809.670	653
809.770	1153
809.870	747
809.970	1233
810.070	633
810.169	661
810.269	-224
810.369	1823
810.469	-44
810.568	-298
810.668	493
810.768	962
810.867	188
810.967	573
811.066	274
811.166	561
811.265	765
811.365	-142
811.464	25
811.564	283
811.663	668
811.763	-443
811.862	836
811.962	1359
812.061	-47
812.160	623
812.260	477
812.359	1525
812.458	312
812.557	1763
812.657	3226
812.756	2601
812.855	1093
812.954	413
813.053	1787
813.153	1909
813.252	921
813.351	1252
813.450	1211
813.549	951
813.648	1299
813.747	337
813.846	1573
813.945	1187
814.044	1208
814.143	1420
814.242	2047
814.341	1334
814.439	1007
814.538	2029
814.637	1766
814.736	1243
814.835	1664
814.933	1732
815.032	2503
815.131	1824
815.229	2257
815.328	1665
815.427	1997
815.525	2890
815.624	2361
815.722	2437
815.821	2542
815.919	2925
816.018	2873
816.116	3147
816.215	3994
816.313	4088
816.412	4263
816.510	3857
816.609	5366
816.707	3991
816.805	4965
816.904	4547
817.002	6510
817.100	7733
817.198	8847
817.296	9289
817.395	11026
817.493	14255
817.591	17186
817.689	23296
817.787	31635
817.885	49403
817.983	82229
818.081	155307
818.179	322623
818.277	675712
818.375	728134
818.473	343160
818.571	150709
818.669	90774
818.767	74417
818.865	69967
818.963	77729
819.061	102730
819.158	158292
819.256	281447
819.354	540603
819.452	906064
819.549	815440
819.647	431949
819.745	208652
819.842	122077
819.940	79163
820.038	56454
820.135	42542
820.233	34649
820.330	27375
820.428	21356
820.525	18542
820.623	15440
820.720	13164
820.818	12877
820.915	10830
821.012	10943
821.110	8830
821.207	7970
821.304	7260
821.402	6345
821.499	8018
821.596	9491
821.693	7176
821.791	5297
821.888	5905
821.985	6198
822.082	5689
822.179	5827
822.276	4442
822.373	3603
822.470	2282
822.567	2881
822.664	1500
822.761	2982
822.858	1863
822.955	3182
823.052	2481
823.149	2362
823.246	1862
823.343	2013
823.440	2644
823.536	2294
823.633	553
823.730	1292
823.827	1270
823.923	1556
824.020	2129
824.117	1101
824.213	1885
824.310	2451
824.407	739
824.503	679
824.600	1454
824.696	1124
824.793	784
824.889	441
824.986	1297
825.082	1119
825.179	1216
825.275	178
825.371	685
825.468	883
825.564	171
825.660	429
825.757	591
825.853	1195
825.949	55
826.045	916
826.142	684
826.238	522
826.334	1370
826.430	-135
826.526	267
826.622	39
826.718	550
826.814	78
826.910	592
827.006	190
827.102	156
827.198	1192
827.294	-216
827.390	530
827.486	1221
827.582	-782
827.678	-536
827.774	667
827.869	-751
827.965	1203
828.061	-137
828.157	-194
828.252	-418
828.348	-398
828.444	573
828.539	-760
828.635	240
828.731	290
828.826	-882
828.922	312
829.017	158
829.113	137
829.208	-443
829.304	-209
829.399	675
829.495	-399
829.590	410
829.685	-491
829.781	-247
829.876	-679
829.971	-438
830.066	700
830.162	-897
830.257	-430
830.352	88
830.447	1174
830.543	-118
830.638	-957
830.733	499
830.828	-294
830.923	209
831.018	-669
831.113	547
831.208	-206
831.303	-628
831.398	66
831.493	-597
831.588	97
831.683	-316
831.778	-133
831.873	493
831.967	292
832.062	-974
832.157	146
832.252	731
832.346	-581
832.441	647
832.536	22
832.631	1753
832.725	2564
832.820	24
832.914	-53
833.009	-269
833.104	233
833.198	928
833.293	-286
833.387	924
833.482	58
833.576	-214
833.670	148
833.765	-123
833.859	119
833.954	357
834.048	131
834.142	390
834.237	-1256
834.331	0
834.425	-302
834.519	-1114
834.613	136
834.708	-577
834.802	-358
834.896	-417
834.990	-547
835.084	-30
835.178	-504
835.272	64
835.366	-604
835.460	448
835.554	411
835.648	-73
835.742	105
835.836	-632
835.930	-1096
836.024	-298
836.117	491
836.211	406
836.305	406
836.399	1140
836.493	-105
836.586	103
836.680	-957
836.774	-1162
836.867	147
836.961	-1244
837.055	-123
837.148	-821
837.242	-534
837.335	-372
837.429	-429
837.522	-353
837.616	-408
837.709	796
837.803	204
837.896	96
837.989	-520
838.083	318
838.176	1420
838.269	1309
838.363	327
838.456	-926
838.549	592
838.642	168
838.735	1522
838.829	890
838.922	-253
839.015	112
839.108	-412
839.201	-1081
839.294	-451
839.387	456
839.480	-1147
839.573	450
839.666	509
839.759	-206
839.852	-586
839.945	-465
840.038	-61
840.131	-1205
840.223	217
840.316	-10
840.409	-998
840.502	-495
840.594	-398
840.687	-754
840.780	-183
840.873	-1367
840.965	-894
841.058	1161
841.150	531
841.243	85
841.336	60
841.428	-425
841.521	-515
841.613	-976
841.706	624
841.798	-586
841.890	-259
841.983	-973
842.075	-182
842.167	-554
842.260	-773
842.352	162
842.444	196
842.537	1007
842.629	3031
842.721	315
842.813	-319
842.905	-716
842.997	385
843.090	-71
843.182	183
843.274	934
843.366	3420
843.458	8371
843.550	5967
843.642	777
843.734	14
843.826	-868
843.918	728
844.009	-172
844.101	-649
844.193	-754
844.285	-213
844.377	37
844.469	2319
844.560	2227
844.652	2598
844.744	452
844.835	437
844.927	166
845.019	27
845.110	-171
845.202	-570
845.293	-150
845.385	-236
845.476	-309
845.568	-72
845.659	-280
845.751	-128
845.842	-78
845.934	-928
846.025	-475
846.116	-434
846.208	-211
846.299	-590
846.390	93
846.482	-828
846.573	-257
846.664	-146
846.755	104
846.846	625
846.937	-1199
847.029	-698
847.120	-947
847.211	-9
847.302	760
847.393	-818
847.484	604
847.575	-1047
847.666	-939
847.757	-920
847.847	-653
847.938	497
848.029	-904
848.120	-767
848.211	-574
848.302	-812
848.392	-1206
848.483	208
848.574	-1358
848.664	-656
848.755	13
848.846	-281
848.936	-858
849.027	59
849.118	-661
849.208	-849
849.299	-295
849.389	-164
849.480	-422
849.570	-172
849.661	346
849.751	1339
849.841	421
849.932	-455
850.022	-769
850.112	-1183
850.203	-66
850.293	-1031
850.383	-640
850.474	-419
850.564	-849
850.654	-299
850.744	-688
850.834	-344
850.924	-409
851.014	-457
851.104	-731
851.194	-918
851.284	-277
851.374	60
851.464	-900
851.554	-1612
851.644	-91
851.734	-418
851.824	-312
851.914	-848
852.004	1123
852.094	1187
852.183	-534
852.273	-357
852.363	-106
852.452	-1104
852.542	-711
852.632	-826
852.721	-458
852.811	-998
852.901	-635
852.990	-936
853.080	-608
853.169	-548
853.259	-531
853.348	-1346
853.438	177
853.527	290
853.617	-856
853.706	563
853.795	699
853.885	2214
853.974	4688
854.063	9558
854.152	17589
854.242	7393
854.331	426
854.420	127
854.509	-419
854.598	-701
854.687	-763
854.777	-20
854.866	-728
854.955	43
855.044	-1085
855.133	-988
855.222	-30
855.311	-1029
855.400	-900
855.488	-880
855.577	-315
855.666	169
855.755	1188
855.844	-17
855.933	-224
856.021	-32
856.110	-36
856.199	-588
856.288	-1069
856.376	-325
856.465	-1131
856.554	-356
856.642	-1041
856.731	-560
856.819	-670
856.908	-1081
856.996	-744
857.085	-1005
857.173	-436
857.262	-941
857.350	97
857.438	-771
857.527	-461
857.615	-352
857.703	95
857.792	-593
857.880	-520
857.968	-1047
858.056	-1096
858.145	-885
858.233	-1086
858.321	-254
858.409	-678
858.497	-460
858.585	-1019
858.673	-246
858.761	-1187
858.849	-603
858.937	-1233
859.025	-252
859.113	-388
859.201	-928
859.289	281
859.377	-918
859.465	-935
859.552	-468
859.640	-485
859.728	-105
859.816	-687
859.903	-549
859.991	-974
860.079	-1018
860.166	-444
860.254	-663
860.342	-382
860.429	-1087
860.517	-1514
860.604	-379
860.692	-448
860.779	-957
860.867	-996
860.954	-898
861.042	-512
861.129	-444
861.216	-278
861.304	-789
861.391	120
861.478	-1068
861.565	-378
861.653	93
861.740	-2384
861.827	-843
861.914	-948
862.001	-686
862.089	-626
862.176	-204
862.263	-835
862.350	-1112
862.437	-1428
862.524	-1030
862.611	-310
862.698	-824
862.785	14
862.871	519
862.958	118
863.045	-179
863.132	-669
863.219	-1610
863.306	-949
863.392	-963
863.479	-196
863.566	-344
863.652	-761
863.739	-972
863.826	-406
863.912	-645
863.999	-1550
864.086	-787
864.172	-1082
864.259	-419
864.345	-1377
864.432	10
864.518	-1583
864.604	-759
864.691	-1065
864.777	-286
864.863	-85
864.950	-472
865.036	-959
865.122	-743
865.209	-329
865.295	-755
865.381	-635
865.467	-672
865.553	-339
865.639	-533
865.726	139
865.812	1077
865.898	2295
865.984	3170
866.070	6934
866.156	8784
866.242	881
866.328	-129
866.414	-811
866.499	-535
866.585	210
866.671	-164
866.757	-355
866.843	-994
866.928	-608
867.014	-23
867.100	-720
867.186	-1023
867.271	61
867.357	-330
867.442	-25
867.528	-335
867.614	-878
867.699	-483
867.785	507
867.870	1108
867.956	1778
868.041	1838
868.127	534
868.212	1594
868.297	1212
868.383	-311
868.468	400
868.553	926
868.639	943
868.724	2033
868.809	2841
868.894	-361
868.979	-375
869.065	-770
869.150	-1127
869.235	-1083
869.320	-1193
869.405	-1153
869.490	-927
869.575	-1777
869.660	-681
869.745	-709
869.830	-1016
869.915	-942
870.000	-723
870.085	-453
870.169	-853
870.254	-108
870.339	-1295
870.424	-1469
870.509	-1293
870.593	-916
870.678	-572
870.763	-453
870.847	-1011
870.932	-968
871.016	-761
871.101	389
871.186	-1152
871.270	-355
871.355	-951
871.439	-855
871.523	-313
871.608	-199
871.692	-1258
871.777	-278
871.861	-711
871.945	-1398
872.030	-1230
872.114	-794
872.198	-795
872.282	-633
872.367	-350
872.451	-680
872.535	-1038
872.619	-979
872.703	-148
872.787	-457
872.871	-1065
872.955	-1149
873.039	-1197
873.123	-1793
873.207	-205
873.291	78
873.375	-1019
873.459	-829
873.543	-1044
873.627	-1140
873.711	-1157
873.794	-1255
873.878	-1469
873.962	-1214
874.045	-1262
874.129	-1332
874.137	-1310
874.213	-1098
874.245	-831
874.296	-398
874.352	-1030
874.380	-1339
874.460	-286
874.464	-245
874.547	-1937
874.568	-1635
874.631	-746
874.676	-821
874.714	-871
874.784	-540
874.798	-480
874.881	34
874.892	-1
874.965	-236
874.999	-395
875.048	-636
875.107	-356
875.131	-221
875.215	-501
875.215	-501
875.298	-814
875.323	-766
875.381	-616
875.430	-689
875.465	-737
875.538	-1004
875.548	-1045
875.631	-828
875.646	-860
875.714	-1030
875.753	-1164
875.798	-1270
875.861	-656
875.881	-488
875.964	-1521
875.968	-1483
876.047	-695
876.076	-557
876.130	-392
876.183	-907
876.213	-1139
876.291	-283
876.296	-232
876.379	-839
876.398	-744
876.462	-385
876.506	-843
876.545	-1248
876.613	-672
876.628	-561
876.711	-1200
876.721	-1115
876.794	-476
876.828	-660
876.877	-863
876.935	-1020
876.960	-1044
877.043	-449
877.043	-448
877.125	-351
877.150	-342
877.208	-206
877.258	-344
877.291	-453
877.365	-112
877.374	-76
877.456	-259
877.472	-433
877.539	-1100
877.579	-796
877.622	-559
877.687	-456
877.704	-401
877.787	-356
877.794	-356
877.869	-420
877.901	-380
877.952	-309
878.008	-322
878.034	-254
878.115	59
878.117	59
878.199	-511
878.222	-473
878.282	-66
878.329	-96
878.364	-230
878.437	234
878.447	287
878.529	-783
878.544	-807
878.611	-830
878.651	-653
878.694	-377
878.758	-376
878.776	-414
878.858	-406
878.865	-446
878.941	-819
878.972	-607
879.023	-395
879.078	-606
879.105	-616
879.185	-360
879.187	-355
879.269	-387
879.292	-468
879.351	-761
879.399	-741
879.433	-682
879.506	-505
879.516	-472
879.598	-787
879.613	-745
879.680	-514
879.720	-602
879.762	-809
879.827	-612
879.844	-467
879.926	-427
879.933	-388
880.007	-416
880.040	-550
880.089	-553
880.147	-208
880.171	-173
880.253	-314
880.254	-317
880.335	-535
880.360	-413
880.417	152
880.467	736
880.499	1093
880.574	885
880.580	834
880.662	207
880.680	127
880.744	-436
880.787	-890
880.825	-868
880.893	-185
880.907	-134
880.989	-618
881.000	-602
881.070	-443
881.106	-442
881.152	-402
881.213	-456
881.233	-450
881.315	-902
881.319	-876
881.396	-124
881.426	3
881.478	-291
881.532	-784
881.559	-808
881.639	-662
881.641	-662
881.722	-374
881.745	-444
881.803	-301
881.852	-166
881.885	-378
881.958	-723
881.966	-710
882.047	-58
882.064	-85
882.129	-265
882.171	-308
882.210	-167
882.277	688
882.291	755
882.372	-159
882.383	-191
882.454	-205
882.489	-490
882.535	-740
882.596	-341
882.616	-214
882.697	-184
882.702	-187
882.778	-98
882.808	48
882.859	6
882.914	-370
882.940	-401
883.020	-247
883.021	-245
883.102	-650
883.127	-465
883.183	-25
883.233	-418
883.264	-649
883.339	-417
883.345	-401
883.426	-870
883.445	-854
883.507	-286
883.551	-87
883.587	-330
883.657	-325
883.668	-267
883.749	-256
883.763	-280
883.830	-214
883.869	-129
883.910	-133
883.975	-211
883.991	-275
884.072	-389
884.081	-410
884.152	-460
884.187	-538
884.233	-514
884.292	-281
884.314	-221
884.394	-633
884.398	-622
884.475	-309
884.504	-294
884.555	-259
884.610	-352
884.636	-211
884.716	329
884.716	330
884.797	-416
884.821	-671
884.877	-539
884.927	-406
884.958	-370
885.033	-181
885.038	-188
885.118	-446
885.139	-520
885.199	-244
885.244	38
885.279	-73
885.350	-567
885.359	-546
885.439	-169
885.456	-123
885.520	-214
885.561	-174
885.600	-112
885.667	-215
885.680	-222
885.760	5
885.773	-9
885.840	-377
885.878	-608
885.920	-509
885.984	-122
886.000	-124
886.080	-177
886.089	-237
886.160	-283
886.195	-97
886.240	-34
886.300	-85
886.320	-53
886.400	112
886.406	120
886.480	-52
886.511	-219
886.560	-69
886.616	311
886.640	238
886.720	-383
886.722	-395
886.800	89
886.827	217
886.879	251
886.932	93
886.959	-40
887.038	118
887.039	120
887.119	-327
887.143	-402
887.198	-165
887.248	-88
887.278	-38
887.354	243
887.358	237
887.437	-59
887.459	-152
887.517	210
887.564	492
887.596	345
887.669	17
887.676	27
887.755	183
887.774	188
887.835	67
887.880	47
887.914	-7
887.985	-333
887.994	-327
888.073	-191
888.090	-149
888.153	-151
888.195	-194
888.232	-199
888.300	-189
888.311	-115
888.391	323
888.405	403
888.470	117
888.510	-70
888.549	-3
888.615	213
888.628	196
888.708	-93
888.720	-124
888.787	73
888.825	170
888.866	141
888.930	21
888.945	99
889.024	585
889.035	643
889.103	127
889.140	-163
889.182	-24
889.245	225
889.261	300
889.340	595
889.349	630
889.419	558
889.454	514
889.498	678
889.559	904
889.577	785
889.656	246
889.664	192
889.735	500
889.768	644
889.814	378
889.873	23
889.978	59
890.083	909
890.187	91
890.292	141
890.397	-574
890.501	196
890.606	228
890.710	232
890.815	271
890.919	588
891.024	-508
891.128	545
891.233	-195
891.337	26
891.442	293
891.546	168
891.650	-291
891.755	736
891.859	378
891.963	1291
892.068	-602
892.172	75
892.276	285
892.380	228
892.484	-38
892.589	280
892.693	-229
892.797	-213
892.901	229
893.005	262
893.109	-15
893.213	480
893.317	-96
893.421	932
893.525	285
893.629	242
893.733	260
893.837	279
893.941	-31
894.045	609
894.148	-568
894.252	490
894.356	88
894.460	377
894.564	-64
894.667	-174
894.771	929
894.875	415
894.978	61
895.082	649
895.186	85
895.289	841
895.393	582
895.496	373
895.600	-30
895.703	59
895.807	-127
895.910	242
896.014	-84
896.117	502
896.221	515
896.324	165
896.427	413
896.531	81
896.634	-463
896.737	793
896.840	348
896.944	282
897.047	-64
897.150	-291
897.253	-141
897.356	-20
897.460	128
897.563	88
897.666	215
897.769	338
897.872	93
897.975	-93
898.078	114
898.181	614
898.284	-179
898.387	813
898.490	311
898.593	-11
898.695	29
898.798	198
898.901	-188
899.004	-34
899.107	145
899.209	91
899.312	63
899.415	9
899.518	883
899.620	-56
899.723	-49
899.826	1041
899.928	519
900.031	-314
900.133	199
900.236	-50
900.338	-24
900.441	-233
900.543	-124
900.646	-489
900.748	23
900.851	-214
900.953	-374
901.055	647
901.158	317
901.260	551
901.362	317
901.465	805
901.567	75
901.669	310
901.771	-64
901.873	185
901.976	8
902.078	672
902.180	547
902.282	-409
902.384	694
902.486	561
902.588	826
902.690	294
902.792	294
902.894	691
902.996	164
903.098	-300
903.200	-317
903.302	260
903.404	525
903.505	419
903.607	-140
903.709	306
903.811	-144
903.913	-45
904.014	197
904.116	146
904.218	728
904.319	956
904.421	1212
904.523	1535
904.624	1412
904.726	700
904.827	737
904.929	792
905.030	435
905.132	85
905.233	596
905.335	214
905.436	208
905.537	476
905.639	591
905.740	310
905.841	-194
905.943	1041
906.044	943
906.145	949
906.247	653
906.348	294
906.449	659
906.550	303
906.651	738
906.752	-105
906.854	636
906.955	22
907.056	110
907.157	108
907.258	845
907.359	686
907.460	-236
907.561	107
907.662	-475
907.762	88
907.863	229
907.964	508
908.065	408
908.166	-236
908.267	403
908.367	23
908.468	-582
908.569	573
908.670	276
908.770	786
908.871	504
908.971	174
909.072	527
909.173	346
909.273	-643
909.374	338
909.474	15
909.575	594
909.675	44
909.776	836
909.876	401
909.977	142
910.077	106
910.177	-851
910.278	114
910.378	99
910.478	379
910.579	745
910.679	-196
910.779	66
910.879	-147
910.980	862
911.080	309
911.180	194
911.280	175
911.380	262
911.480	725
911.580	-453
911.680	-69
911.780	155
911.880	422
911.980	233
912.080	-9
912.180	766
912.280	432
912.380	684
912.480	-344
912.580	145
912.679	-122
912.779	41
912.879	-233
912.979	455
913.078	646
913.178	-270
913.278	207
913.377	545
913.477	-13
913.577	-193
913.676	401
913.776	150
913.875	-249
913.975	1090
914.074	-367
914.174	-214
914.273	-174
914.373	834
914.472	-175
914.572	-189
914.671	-22
914.770	341
914.870	244
914.969	-109
915.068	-148
915.167	699
915.267	-529
915.366	27
915.465	-242
915.564	195
915.663	-17
915.763	440
915.862	248
915.961	89
916.060	210
916.159	-19
916.258	-635
916.357	-247
916.456	858
916.555	247
916.654	-261
916.752	203
916.851	-292
916.950	394
917.049	-493
917.148	551
917.247	433
917.345	-243
917.444	116
917.543	-41
917.642	-705
917.740	262
917.839	474
917.937	542
918.036	3
918.135	748
918.233	382
918.332	409
918.430	-276
918.529	513
918.627	171
918.726	898
918.824	234
918.923	1051
919.021	63
919.119	615
919.218	-420
919.316	219
919.414	-143
919.512	-186
919.611	-145
919.709	96
919.807	-542
919.905	346
920.003	43
920.102	-81
920.200	431
920.298	-136
920.396	-320
920.494	-122
920.592	-304
920.690	491
920.788	-108
920.886	-186
920.984	-447
921.082	436
921.180	423
921.277	703
921.375	-257
921.473	-146
921.571	-266
921.669	320
921.766	-470
921.864	79
921.962	-1074
922.060	-69
922.157	-135
922.255	287
922.352	535
922.450	1143
922.548	-157
922.645	441
922.743	126
922.840	-97
922.938	-640
923.035	728
923.133	-612
923.230	440
923.327	313
923.425	546
923.522	-163
923.619	-437
923.717	-441
923.814	237
923.911	474
924.008	727
924.106	-284
924.203	81
924.300	50
924.397	-389
924.494	442
924.591	488
924.688	12
924.786	-234
924.883	79
924.979	-326
925.077	-179
925.173	320
925.270	-493
925.367	-90
925.464	363
925.561	176
925.658	613
925.755	834
925.852	-273
925.948	522
926.045	1143
926.142	1896
926.239	2067
926.335	1997
926.432	1193
926.529	2127
926.625	2379
926.722	2418
926.818	1045
926.915	1390
927.011	-65
927.108	676
927.204	757
927.301	-263
927.397	323
927.494	-77
927.590	143
927.687	89
927.783	-227
927.879	-247
927.976	-347
928.072	339
928.168	25
928.264	-201
928.361	-395
928.457	-140
928.553	-231
928.649	300
928.745	-296
928.841	-429
928.937	-428
929.033	-959
929.129	-7
929.225	-369
929.321	-329
929.417	-326
929.513	-163
929.609	544
929.705	106
929.801	-314
929.897	-442
929.993	-40
930.089	-506
930.184	176
930.280	-776
930.376	276
930.471	-204
930.567	-625
930.663	-182
930.758	-109
930.854	-220
930.950	-588
931.045	-798
931.141	95
931.236	-176
931.332	-235
931.427	-562
931.523	-27
931.618	350
931.714	-277
931.809	-600
931.905	621
932.000	-224
932.095	-492
932.191	-64
932.286	44
932.381	-338
932.476	-224
932.572	-408
932.667	739
932.762	-722
932.857	15
932.952	-389
933.047	602
933.142	-305
933.237	-735
933.332	-1124
933.427	-349
933.522	-163
933.617	-119
933.712	-281
933.807	143
933.902	-435
933.997	209
934.092	1
934.187	-620
934.282	-303
934.376	-316
934.471	-324
934.566	-322
934.661	-284
934.755	-237
934.850	330
934.945	-167
935.039	-1016
935.134	-312
935.228	-824
935.323	148
935.417	-114
935.512	-764
935.606	-628
935.701	17
935.795	-478
935.890	-470
935.984	-572
936.079	-488
936.173	464
936.267	-1139
936.362	-1220
936.456	-329
936.550	-92
936.644	35
936.738	-698
936.833	-391
936.927	-610
937.021	49
937.115	-501
937.209	-340
937.303	-159
937.397	-1002
937.491	-294
937.585	-410
937.679	-792
937.773	-741
937.867	-690
937.961	-346
938.055	-1041
938.149	150
938.243	16
938.337	935
938.430	210
938.524	615
938.618	1895
938.712	2823
938.805	1551
938.899	789
938.993	-15
939.086	1243
939.180	2454
939.274	4626
939.367	1950
939.461	267
939.554	-682
939.648	131
939.741	-436
939.835	289
939.928	-422
940.022	-192
940.115	-728
940.208	-194
940.302	-402
940.395	-198
940.488	-184
940.582	-609
940.675	-1504
940.768	-273
940.861	-544
940.954	68
941.048	-460
941.141	-178
941.234	77
941.327	785
941.420	1505
941.513	153
941.606	-884
941.699	693
941.792	-109
941.885	-575
941.978	-403
942.071	-154
942.164	-111
942.257	-570
942.349	-646
942.442	-444
942.535	-1060
942.628	27
942.721	-638
942.813	-943
942.906	-423
942.999	154
943.091	-329
943.184	-648
943.277	-569
943.369	-895
943.462	-411
943.554	128
943.647	-529
943.739	-6
943.832	-278
943.924	189
944.017	-622
944.109	-545
944.201	-464
944.294	-173
944.386	-878
944.478	61
944.571	-862
944.663	-645
944.755	-402
944.847	-505
944.940	64
945.032	-552
945.124	-650
945.216	45
945.308	69
945.400	-828
945.492	-741
945.584	265
945.676	146
945.768	337
945.860	140
945.952	-602
946.044	112
946.136	-23
946.228	-197
946.320	-847
946.412	-1123
946.503	-55
946.595	-45
946.687	-533
946.779	-333
946.870	-521
946.962	-875
947.054	-734
947.145	41
947.237	-715
947.329	-1177
947.420	-796
947.512	-388
947.603	-670
947.695	-626
947.786	-220
947.878	-435
947.969	478
948.061	-1341
948.152	-355
948.243	-367
948.335	-937
948.426	-288
948.517	-1258
948.609	-786
948.700	-988
948.791	-740
948.882	-354
948.973	148
949.065	-891
949.156	-408
949.247	-1440
949.338	-175
949.429	-221
949.520	-473
949.611	-917
949.702	4
949.793	-54
949.884	137
949.975	-892
950.066	-703
950.157	-626
950.247	-925
950.338	-1338
950.429	-777
950.520	-231
950.611	-1007
950.701	16
950.792	-1236
950.883	142
950.973	-344
951.064	-205
951.155	-860
951.245	-72
951.336	-334
951.427	-1603
951.517	-275
951.608	104
951.698	-841
951.788	-657
951.879	-1034
951.969	-1092
952.060	-1237
952.150	-753
952.240	-817
952.331	-1487
952.421	1131
952.511	-1762
952.602	-741
952.692	-1213
952.782	-483
952.872	333
952.962	-686
953.052	-543
953.143	-878
953.233	-52
953.323	-711
953.413	93
953.503	-111
953.593	-1006
953.683	-676
953.773	-702
953.863	-1296
953.953	-517
954.042	-962
954.132	-243
954.222	-815
954.312	-438
954.402	-464
954.492	-483
954.581	-402
954.671	112
954.761	-1133
954.850	48
954.940	-1195
955.030	-452
955.119	-1001
955.209	-702
955.298	-1824
955.388	-223
955.477	-379
955.567	-837
955.656	-573
955.746	267
955.835	-278
955.925	-951
956.014	-964
956.103	-907
956.193	-234
956.282	-534
956.371	407
956.461	-784
956.550	-838
956.639	-718
956.728	-1022
956.817	-508
956.906	-727
956.995	-271
957.085	-399
957.174	-683
957.263	98
957.352	-486
957.441	-203
957.530	-577
957.619	-396
957.708	-1350
957.796	-1055
957.885	-178
957.974	-1117
958.063	-239
958.152	-889
958.241	-480
958.329	-540
958.418	-592
958.507	-460
958.596	-253
958.684	-1188
958.773	-406
958.861	-925
958.950	-113
959.039	-55
959.127	106
959.216	-1037
959.304	-1025
959.393	-742
959.481	-161
959.570	-1152
959.658	71
959.746	-144
959.835	322
959.923	99
960.011	-888
960.100	-991
960.188	125
960.276	-969
960.365	-615
960.453	-758
960.541	-1193
960.629	-412
960.717	-1654
960.805	-1170
960.893	-23
960.981	-613
961.069	-87
961.158	-438
961.245	-366
961.333	-624
961.421	-1136
961.509	-997
961.597	-677
961.685	-989
961.773	-1356
961.861	-1008
961.949	310
962.036	-987
962.124	-214
962.212	-489
962.299	-546
962.387	-591
962.475	-468
962.562	-653
962.650	-50
962.738	95
962.825	-635
962.913	-725
963.000	-339
963.088	-1023
963.175	45
963.263	233
963.350	-476
963.438	-1305
963.525	-623
963.612	-333
963.700	161
963.787	3471
963.874	2085
963.962	-683
964.049	-604
964.136	-795
964.223	-341
964.310	-367
964.398	-403
964.485	-1641
964.572	-861
964.659	-281
964.746	-366
964.833	-1087
964.920	-1740
965.007	-526
965.094	-366
965.181	-632
965.268	-327
965.355	-958
965.441	-574
965.528	-899
965.615	144
965.702	-812
965.789	-1292
965.875	-1308
965.962	-877
966.049	-1682
966.136	-994
966.222	-1419
966.309	-464
966.395	-1244
966.482	-598
966.569	-1018
966.655	-1087
966.742	-572
966.828	-1043
966.915	-1314
967.001	-707
967.087	-682
967.174	-287
967.260	-186
967.347	-290
967.433	-124
967.519	2314
967.605	-50
967.692	-809
967.778	-1122
967.864	-1071
967.950	-836
968.036	-1176
968.123	-834
968.209	-1534
968.295	-1818
968.381	-55
968.467	-510
968.553	-1637
968.639	-468
968.725	-1417
968.811	-379
968.897	-203
968.983	-1065
969.069	-1457
969.154	-249
969.240	-556
969.326	-679
969.412	-946
969.497	-794
969.583	-935
969.669	-1154
969.755	-231
969.840	-749
969.926	-1182
970.012	-1705
970.097	-906
970.183	-622
970.268	-1011
970.354	-654
970.439	-797
970.525	1471
970.610	-565
970.696	-248
970.781	-759
970.866	-1576
970.952	-936
971.037	-1526
971.122	-727
971.208	-346
971.293	-417
971.378	-2148
971.463	-870
971.549	-592
971.634	-1157
971.719	-650
971.804	-570
971.889	-660
971.974	-1639
972.059	-1162
972.144	-1038
972.229	-1176
972.314	-851
972.399	-894
972.484	-537
972.569	-1011
972.654	-1640
972.739	323
972.824	-480
972.908	-555
972.993	-827
973.078	-678
973.163	-623
973.247	-81
973.332	-1638
973.417	-443
973.501	-1165
973.586	-1080
973.671	-826
973.755	-565
973.840	-623
973.924	-234
974.009	-844
974.093	-1403
974.178	459
974.262	-54
974.346	-153
974.431	-1260
974.515	-550
974.600	-1272
974.684	-403
974.768	-697
974.852	-418
974.937	-2082
975.021	-382
975.105	-816
975.189	-912
975.273	-676
975.358	-1468
975.442	-1580
975.526	-843
975.610	-1764
975.694	-1891
975.778	-346
975.862	-595
975.946	-2332
976.030	-17
976.114	-1498
976.198	-782
976.281	-1345
976.365	-284
976.449	-1031
976.533	-931
976.617	-799
976.700	-626
976.784	-703
976.868	-831
976.951	-386
977.035	-674
977.119	-1160
977.202	-1294
977.286	-1434
977.369	-1383
977.453	-344
977.536	-939
977.620	-1769
977.703	-623
977.787	-1529
977.870	305
977.953	-463
978.037	-1172
978.120	-328
978.203	-884
978.287	349
978.370	-814
978.453	-845
978.536	-585
978.620	-508
978.703	366
978.786	-944
978.869	-1303
978.952	-1411
979.035	634
979.118	-980
979.201	-1043
979.284	-740
979.367	-951
979.450	-706
979.533	-517
979.616	-832
979.699	-592
979.782	-462
979.865	-1413
979.948	-761
980.030	-1267
980.113	-1641
980.196	-1726
980.279	-451
980.361	-1510
980.444	-1506
980.526	-527
980.609	-1213
980.692	-1857
980.774	-1199
980.857	-1642
980.939	-293
981.022	-1552
981.104	-1652
981.187	-1503
981.269	-97
981.352	-1293
981.434	-1311
981.516	-898
981.599	-783
981.681	-1121
981.763	-1183
981.846	-1691
981.928	-814
982.010	-777
982.092	-952
982.174	-81
982.256	-1076
982.339	-710
982.421	-1313
982.503	-1377
982.585	-1606
982.667	-371
982.749	-448
982.831	-699
982.913	-2472
982.995	-428
983.077	-955
983.158	-1031
983.240	-1636
983.322	-1005
983.404	-1024
983.486	-1078
983.568	-683
983.649	-906
983.731	-971
983.813	-1344
983.894	-395
983.976	-1639
984.058	-797
984.139	-280
984.221	-1578
984.302	385
984.384	-628
984.465	-932
984.547	-1191
984.628	-1357
984.710	-467
984.791	-758
984.872	-1322
984.954	-1613
985.035	-514
985.116	-1198
985.198	-2249
985.279	692
985.360	-1612
985.441	-754
985.522	-921
985.604	-1439
985.685	-2031
985.766	38
985.847	-399
985.928	-1189
986.009	-991
986.090	-574
986.171	-338
986.252	-662
986.333	-590
986.414	-1325
986.495	-791
986.576	-873
986.656	-1115
986.737	18
986.818	-1408
986.899	-1164
986.980	-1254
987.060	-188
987.141	-1788
987.222	-781
987.302	-907
987.383	-1593
987.464	-2107
987.544	-501
987.625	-882
987.705	-908
987.786	-1309
987.866	-1115
987.947	-849
988.027	-1047
988.108	-1456
988.188	-309
988.268	-989
988.349	-973
988.429	-1478
988.509	-433
988.589	-951
988.670	-2675
988.750	-918
988.830	-1156
988.910	-1434
988.990	-313
989.070	-707
989.151	-1095
989.231	-1316
989.311	400
989.391	-1163
989.471	-1153
989.551	-824
989.631	-893
989.711	-571
989.791	-750
989.870	-1463
989.950	124
990.030	-1396
990.110	-1309
990.190	-1841
990.269	-706
990.349	-1236
990.429	-721
990.509	-1089
990.588	-815
990.668	-767
990.747	-203
990.827	-1599
990.907	-525
990.986	-931
991.066	-653
991.145	-1372
991.225	295
991.304	-1308
991.383	-4
991.463	-1142
991.542	-990
991.622	-1616
991.701	-481
991.780	-1470
991.859	-1568
991.939	-967
992.018	-834
992.097	-1127
992.176	-1280
992.256	-621
992.335	-437
992.414	-1042
992.493	-762
992.572	-1194
992.651	-292
992.730	-1182
992.809	-1076
992.888	-1581
992.967	-1186
993.046	-429
993.125	-832
993.203	-945
993.282	-960
993.361	-678
993.440	-627
993.519	-1770
993.597	-1294
993.676	-910
993.755	-324
993.834	-1235
993.912	-1341
993.991	-121
994.069	-1060
994.148	-1124
994.226	-1097
994.305	-1295
994.384	-1398
994.462	-834
994.540	-1318
994.619	-621
994.697	-562
994.776	-1873
994.854	163
994.932	-1145
995.011	-675
995.089	-1202
995.167	-290
995.245	-952
995.324	-1858
995.402	73
995.480	-2046
995.558	-671
995.636	-2087
995.714	-2085
995.792	-505
995.870	-1711
995.948	-914
996.026	-1191
996.104	-2260
996.182	-1321
996.260	-955
996.338	-1031
996.416	-1004
996.494	-1917
996.572	-550
996.649	-1523
996.727	-1800
996.805	-809
996.883	-751
996.960	-1421
997.038	-924
997.116	-363
997.193	-1136
997.271	-703
997.348	-1326
997.426	-1199
997.504	-2060
997.581	-1496
997.658	-729
997.736	-1050
997.813	-1265
997.891	-1451
997.968	-1546
998.046	-1243
998.123	-465
998.200	-1292
998.277	-2595
998.355	-1489
998.432	-1743
998.509	-1595
998.586	24
998.663	-1183
998.741	-1151
998.818	-2352
998.895	-737
998.972	-1205
999.049	-1715
999.126	-2071
999.203	-1025
999.280	-1486
999.357	-1664
999.434	-1720
999.511	-1119
999.587	-1120
999.664	-956
999.741	-2032
999.818	-656
999.895	-1990
999.971	-1016
1000.048	-966
1000.125	-133
1000.202	-2012
1000.278	-725
1000.355	-1154
1000.431	-1358
1000.508	-1356
1000.584	-1948
1000.661	-1228
1000.738	-1565
1000.814	-1554
1000.890	-930
1000.967	-1155
1001.043	-1633
1001.120	-1639
1001.196	-659
1001.272	-2498
1001.349	-1280
1001.425	-1111
1001.501	-1112
1001.577	-1472
1001.654	-1318
1001.730	-1910
1001.806	-623
1001.882	-2014
1001.958	-1243
1002.034	-1019
1002.110	-1572
1002.186	-1161
1002.262	-1204
1002.338	-2588
1002.414	-901
1002.490	-1606
1002.566	-1824
1002.642	-2352
1002.718	-1085
1002.794	-1495
1002.870	-1158
1002.945	-1309
1003.021	-1829
1003.097	-1854
1003.173	-1720
1003.248	-1380
1003.324	-1781
1003.400	-1976
1003.475	-875
1003.551	-1660
1003.626	-1197
1003.702	-2234
1003.777	-1318
1003.853	-1868
1003.928	-1001
1004.004	-1196
1004.079	-1144
1004.155	-1998
1004.230	-2128
1004.305	-1363
1004.381	-1261
1004.456	-1387
1004.531	-948
1004.607	-1538
1004.682	-1050
1004.757	-1934
1004.832	-1527
1004.907	-2071
1004.982	-1075
1005.057	-1444
1005.133	-1953
1005.208	-1139
1005.283	-1087
1005.358	-1067
1005.433	-1486
1005.508	-1251
1005.583	-1355
1005.657	-1600
1005.732	-654
1005.807	-1803
1005.882	-1832
1005.957	-979
1006.032	-1593
1006.106	-1699
1006.181	-993
1006.256	-1519
1006.331	-2177
1006.405	-1796
1006.480	-1651
1006.554	-1805
1006.629	-2133
1006.704	-2133
1006.778	-1726
1006.853	-2000
1006.927	-1819
1007.002	-2352
1007.076	-1607
1007.150	-1832
1007.225	-1256
1007.299	-1678
1007.373	-2073
1007.448	-1912
1007.522	-886
1007.596	-1653
1007.671	-1078
1007.745	-1361
1007.819	-1854
1007.893	-1402
1007.967	-1462
1008.041	-2663
1008.115	-738
1008.190	-1956
1008.264	-1421
1008.338	-2346
1008.412	-1321
1008.486	-757
1008.560	-1498
1008.633	-2312
1008.707	-1615
1008.781	-1103
1008.855	-1938
1008.929	-1101
1009.003	-1253
1009.076	-1122
1009.150	-1640
1009.224	-2142
1009.298	-992
1009.371	-1349
1009.445	-721
1009.519	-2448
1009.592	-2461
1009.666	-1615
1009.739	-1168
1009.813	-2682
1009.886	-778
1009.960	-3468
1010.033	-1559
1010.107	-996
1010.180	-1720
1010.253	-1713
1010.327	-1918
1010.400	-1659
1010.473	-1494
1010.547	-130
1010.620	-1444
1010.693	-458
1010.766	-1717
1010.840	-1125
1010.913	-1000
1010.986	-2053
1011.059	-1613
1011.132	-1414
1011.205	-628
1011.278	-1418
1011.351	-914
1011.424	-297
1011.497	-2051
1011.570	-1442
1011.643	-1427
1011.716	-2090
1011.789	-1390
1011.862	-1008
1011.934	-1032
1012.007	-2451
1012.080	-565
1012.153	-1736
1012.225	-1259
1012.298	-2110
1012.371	-1355
1012.443	-859
1012.516	-2330
1012.588	-1966
1012.661	-1034
1012.733	-2432
1012.806	-169
1012.879	-2131
1012.951	-1366
1013.023	-1667
1013.096	-1329
1013.168	-2130
1013.241	-898
1013.313	-1869
1013.385	-2090
1013.458	-891
1013.530	-1936
1013.602	-2703
1013.674	-1033
1013.746	-2784
1013.819	-1954
1013.891	-1645
1013.963	-2487
1014.035	-1766
1014.107	-1824
1014.179	-1713
1014.251	-2197
1014.323	-2230
1014.395	-1741
1014.467	-1515
1014.539	-1398
1014.611	-2122
1014.683	-1990
1014.754	-868
1014.826	-1715
1014.898	-2092
1014.970	-2342
1015.042	-1191
1015.113	-1885
1015.185	-2193
1015.257	-1304
1015.328	-1510
1015.400	-1433
1015.471	-2192
1015.543	-2927
1015.615	-1318
1015.686	-1925
1015.757	-1774
1015.829	-1627
1015.901	-2560
1015.972	-1346
1016.043	-2158
1016.115	-1804
1016.186	-2111
1016.257	-1557
1016.328	-1718
1016.400	-899
1016.471	-2860
1016.542	-1678
1016.613	-1564
1016.685	-1663
1016.756	-1173
1016.827	-1549
1016.898	-1989
1016.969	-1112
1017.040	-1768
1017.111	-1953
1017.182	-2319
1017.253	-1351
1017.324	-2037
1017.395	-1891
1017.466	-1375
1017.537	-1870
1017.608	-1969
1017.678	-1738
1017.749	-1007
1017.820	-2255
1017.891	-1950
1017.961	-2374
1018.032	-1719
1018.103	-2056
1018.173	-1581
1018.244	-1657
1018.315	-1693
1018.385	-1465
1018.456	-1980
1018.526	-2123
1018.597	-2393
1018.667	-968
1018.738	-2009
1018.808	-2011
1018.878	-1666
1018.949	-978
1019.019	-1852
1019.089	-925
1019.160	-1402
1019.230	-2637
1019.300	-1625
1019.371	-2068
1019.441	-1528
1019.511	-1839
1019.581	-1970
1019.651	-1314
1019.721	-1361
1019.791	-1068
1019.861	-1451
1019.931	-2112
1020.001	-1649
1020.071	-2038
1020.141	-2038
1020.211	-2082
1020.281	-2266
1020.351	-1732
1020.421	-1396
1020.491	-1169
1020.560	-2361
1020.630	-1777
1020.700	-1904
1020.770	-1111
1020.839	-1660
1020.909	-1460
1020.979	-1327
1021.048	-786
1021.118	-1992
1021.187	-1996
1021.257	-1398
1021.326	-1162
1021.396	-1253
1021.465	-1665
1021.535	-1383
1021.604	-2089
1021.674	-1626
1021.743	-2203
1021.812	-1868
1021.882	-1966
1021.951	-2038
1022.020	-1599
1022.089	-1617
1022.159	-1277
1022.228	-1339
1022.297	-1938
1022.366	-1623
1022.435	-1410
1022.504	-782
1022.573	-2174
1022.642	-1178
1022.711	-1303
1022.781	-1648
1022.849	-1228
1022.918	-2181
1022.987	-709
1023.056	-1687
1023.125	-1188
1023.194	-1565
1023.263	-2000
1023.331	-2523
1023.400	-1984
1023.469	-2135
1023.538	-529
1023.606	-2451
1023.675	-1659
1023.744	-1744
1023.812	-1609
1023.881	-562
1023.949	-1279
1024.018	-1538
1024.086	-3115
1024.155	-1638
1024.223	-1539
1024.292	-1548
1024.360	-1314
1024.429	-1388
1024.497	-1629
1024.565	-1665
1024.634	-1719
1024.702	-2014
1024.770	-1145
1024.838	-2357
1024.907	-939
1024.975	-1605
1025.043	-1278
1025.111	-1497
1025.179	-1554
1025.247	-2573
1025.315	-1788
1025.383	-1969
1025.451	-971
1025.519	-969
1025.587	-2683
1025.655	-1049
1025.723	-1537
1025.791	-2029
1025.859	-1214
1025.927	-751
1025.995	-2137
1026.062	-1477
1026.130	-1157
1026.198	-1693
1026.266	-1182
1026.333	-992
1026.401	-265
1026.469	-2420
1026.536	-1295
1026.604	-2198
1026.671	-2315
1026.739	-1215
1026.806	-1087
1026.874	-1721
1026.941	-1510
1027.009	-1171
1027.076	-1528
1027.144	-2018
1027.211	-2356
1027.278	-2526
1027.345	-1421
1027.413	-1476
1027.480	-1512
1027.547	-1789
1027.614	-1538
1027.682	-1580
1027.749	-1287
1027.816	-1307
1027.883	-1672
1027.950	-1608
1028.017	-1561
1028.084	-1103
1028.151	-2149
1028.218	-1566
1028.285	-1057
1028.352	-846
1028.419	-933
1028.486	-1994
1028.553	-489
1028.619	-1742
1028.686	-2131
1028.753	-1954
1028.820	-1117
1028.886	-2010
1028.953	-1434
1029.020	-1124
1029.086	-1994
1029.153	-1138
1029.220	-1342
1029.286	-1335
1029.353	-1474
1029.419	-2117
1029.486	-1774
1029.552	-2483
1029.619	-1027
1029.685	-1633
1029.751	-992
1029.818	-781
1029.884	-1019
1029.951	-1057
1030.017	-1927
1030.083	-2079
1030.149	-1325
1030.216	-2319
1030.282	-1765
1030.348	-2135
1030.414	-1416
1030.480	-1559
1030.546	-1406
1030.612	-1992
1030.678	-2162
1030.744	-1889
1030.810	-2028
1030.876	-1275
1030.942	-1743
1031.008	-1947
1031.074	-1474
1031.140	-1927
1031.206	-807
1031.272	-1912
1031.337	-1168
1031.403	-1161
1031.469	-2062
1031.534	-1406
1031.600	-360
1031.666	-1928
1031.731	-1384
1031.797	-1416
1031.863	-2427
1031.928	-1760
1031.994	-1843
1032.059	-1732
1032.125	-759
1032.190	-2547
1032.256	-1576
1032.321	-2521
1032.386	-1410
1032.452	-1155
1032.517	-1371
1032.582	-2258
1032.647	-1482
1032.713	-1618
1032.778	-1701
1032.843	-2194
1032.908	-998
1032.974	-1450
1033.039	-1053
1033.104	-1210
1033.169	-1472
1033.234	-2054
1033.299	-1139
1033.364	-1086
1033.429	-1193
1033.494	-1513
1033.559	-1925
1033.624	-1490
1033.688	-1270
1033.753	-2364
1033.818	-1183
1033.883	-1553
1033.948	-1930
1034.013	-2264
1034.077	-1533
1034.142	-1653
1034.207	-1617
1034.271	-2356
1034.336	-1636
1034.400	-1897
1034.465	-1507
1034.530	-1472
1034.594	-1422
1034.658	-1897
1034.723	-909
1034.787	-1512
1034.852	-1125
1034.916	-1984
1034.981	-1703
1035.045	-2203
1035.109	-1681
1035.173	-1069
1035.238	-1781
1035.302	-1175
1035.366	-1840
1035.430	-1565
1035.495	-1234
1035.559	-1205
1035.623	-1541
1035.687	-2953
1035.751	-2057
1035.815	-1398
1035.879	-1221
1035.943	-1966
1036.007	-1429
1036.071	-1612
1036.135	-1525
1036.198	-1560
1036.262	-1338
1036.326	-1965
1036.390	-1689
1036.454	-1400
1036.517	-1081
1036.581	-1566
1036.645	-1270
1036.709	-1090
1036.772	-2133
1036.836	-1876
1036.900	-1379
1036.963	-1669
1037.026	-1728
1037.090	-1995
1037.154	-2008
1037.217	-1485
1037.280	-1850
1037.344	-2271
1037.407	-1771
1037.471	-1847
1037.534	-1797
1037.597	-999
1037.661	-1822
1037.724	-2102
1037.787	-1943
1037.850	-1746
1037.913	-1858
1037.977	-453
1038.040	-2168
1038.103	-1607
1038.166	-1615
1038.229	-1650
1038.292	-2753
1038.355	-1802
1038.418	-1464
1038.481	-1160
1038.544	-1029
1038.607	-2337
1038.670	-1667
1038.732	-1591
1038.795	-1668
1038.858	-2309
1038.921	-1424
1038.984	-1550
1039.046	-1717
1039.109	-1691
1039.172	-1832
1039.234	-1184
1039.297	-1622
1039.360	-1668
1039.422	-1750
1039.485	-2735
1039.547	-1572
1039.610	-2306
1039.672	-844
1039.734	-1415
1039.797	-2780
1039.859	-1883
1039.922	-2147
1039.984	-1453
1040.046	-1401
1040.109	-2146
1040.171	-1671
1040.233	-1716
1040.295	-1369
1040.358	-2644
1040.420	-1544
1040.482	-2417
1040.544	-2444
1040.606	-2515
1040.668	-1385
1040.730	-1960
1040.792	-1850
1040.854	-1745
1040.916	-1268
1040.978	-1930
1041.040	-1643
1041.102	-1103
1041.164	-1904
1041.225	-2605
1041.287	-1818
1041.349	-2259
1041.411	-1850
1041.472	-1513
1041.534	-2004
1041.596	-2739
1041.657	-1531
1041.719	-2611
1041.781	-2376
1041.842	-2048
1041.904	-1866
1041.965	-2063
1042.027	-586
1042.088	-1514
1042.150	-1567
1042.211	-1868
1042.272	-1608
1042.334	-2462
1042.395	-1748
1042.456	-2371
1042.518	-1284
1042.579	-1358
1042.640	-2295
1042.701	-1755
1042.763	-1425
1042.824	-1743
1042.885	-1607
1042.946	-2085
1043.007	-2056
1043.068	-1725
1043.129	-1355
1043.190	-1745
1043.251	-1323
1043.312	-1697
1043.373	-1358
1043.434	-1696
1043.495	-2190
1043.556	-2262
1043.616	-1570
1043.677	-2549
1043.738	-1772
1043.799	-2465
1043.859	-1844
1043.920	-1546
1043.981	-2600
1044.041	-1339
1044.102	-2209
1044.162	-988
1044.223	-1442
1044.284	-2160
1044.344	-1425
1044.405	-1746
1044.465	-2246
1044.525	-2381
1044.586	-1670
1044.646	-2196
1044.707	-1337
1044.767	-1715
1044.827	-1697
1044.887	-2218
1044.948	-1786
1045.008	-1371
1045.068	-1208
1045.128	-1173
1045.188	-1387
1045.249	-1138
1045.309	-1389
1045.369	-2051
1045.429	-1549
1045.489	-1536
1045.549	-1231
1045.609	-1603
1045.669	-1665
1045.729	-1568
1045.789	-1592
1045.848	-2374
1045.908	-1892
1045.968	-1494
1046.028	-1796
1046.088	-2047
1046.147	-947
1046.207	-2125
1046.267	-983
1046.326	-1012
1046.386	-1340
1046.446	-605
1046.505	-1618
1046.565	-816
1046.624	-804
1046.684	-298
1046.743	-787
1046.803	-641
1046.862	-44
1046.922	0
