'Start Wavelength	183.907
'End Wavelength	1046.922
'Gate Delay	5.000
'Gate Width (ms)	1.050
'Laser Output Level	0.000
'X Position	0.000
'Y Position	0.000
'Z Position	0.000
'Grid Point Number	1.000
'Shot Number	100.000
183.907	740.000
183.977	257.000
184.047	947
184.116	647
184.186	-214
184.256	244
184.325	-46
184.395	-1227
184.465	815
184.534	-520
184.604	-522
184.674	-130
184.743	-47
184.813	480
184.883	209
184.952	573
185.022	-454
185.092	314
185.161	-483
185.231	269
185.301	-535
185.370	342
185.440	-469
185.509	-171
185.579	229
185.649	298
185.718	575
185.788	280
185.857	-409
185.927	-462
185.996	435
186.066	231
186.136	-641
186.205	-290
186.275	347
186.344	737
186.414	-7
186.483	-325
186.553	160
186.622	662
186.692	328
186.761	396
186.831	387
186.900	-254
186.970	776
187.039	325
187.109	229
187.178	84
187.248	-318
187.317	48
187.387	-519
187.456	90
187.526	-97
187.595	541
187.664	425
187.734	126
187.803	310
187.873	-65
187.942	423
188.012	759
188.081	139
188.150	-26
188.220	353
188.289	285
188.358	45
188.428	169
188.497	-66
188.567	341
188.636	-317
188.705	-759
188.775	1295
188.844	-714
188.913	1061
188.983	-199
189.052	-59
189.121	175
189.191	159
189.260	172
189.329	85
189.399	-449
189.468	191
189.537	-206
189.606	418
189.676	458
189.745	-158
189.814	681
189.883	457
189.953	-405
190.022	-551
190.091	-145
190.161	448
190.230	-172
190.299	290
190.368	244
190.437	42
190.507	1
190.576	-371
190.645	1
190.714	456
190.783	312
190.853	862
190.922	-1
190.991	795
191.060	190
191.129	-403
191.198	228
191.268	-306
191.337	730
191.406	565
191.475	238
191.544	-100
191.613	275
191.682	469
191.752	458
191.821	-201
191.890	121
191.959	578
192.028	682
192.097	403
192.166	62
192.235	29
192.304	124
192.373	-357
192.442	-214
192.511	509
192.580	81
192.650	-22
192.719	-142
192.788	540
192.857	358
192.926	-125
192.995	185
193.064	594
193.133	223
193.202	-45
193.271	-35
193.340	-248
193.409	-55
193.478	456
193.547	-524
193.615	592
193.684	233
193.753	563
193.822	894
193.891	27
193.960	118
194.029	-507
194.098	-77
194.167	-532
194.236	1140
194.305	-41
194.374	353
194.443	27
194.512	390
194.580	272
194.649	-63
194.718	302
194.787	-438
194.856	-341
194.925	201
194.994	-269
195.062	449
195.131	141
195.200	-346
195.269	23
195.338	-297
195.407	46
195.475	-352
195.544	81
195.613	265
195.682	1006
195.751	766
195.819	-190
195.888	86
195.957	273
196.026	140
196.094	1391
196.163	479
196.232	166
196.301	391
196.369	-348
196.438	-310
196.507	537
196.576	-375
196.644	338
196.713	122
196.782	576
196.850	275
196.919	-142
196.988	-576
197.056	-570
197.125	248
197.194	-340
197.262	-36
197.331	985
197.400	-229
197.468	-267
197.537	403
197.606	217
197.674	125
197.743	310
197.812	-27
197.880	315
197.949	-47
198.017	238
198.086	-426
198.155	-26
198.223	-72
198.292	69
198.360	836
198.429	64
198.497	-17
198.566	-571
198.635	-27
198.703	494
198.772	151
198.840	653
198.909	110
198.977	337
199.046	-9
199.114	-582
199.183	-43
199.251	-209
199.320	61
199.388	-100
199.457	262
199.525	771
199.594	-368
199.662	435
199.731	641
199.799	85
199.867	157
199.936	172
200.004	1033
200.073	685
200.141	-840
200.210	513
200.278	-313
200.346	560
200.415	-127
200.483	146
200.552	-381
200.620	134
200.688	25
200.757	236
200.825	-100
200.893	189
200.962	-168
201.030	254
201.098	-243
201.167	1259
201.235	-585
201.303	895
201.372	167
201.440	95
201.508	-39
201.577	-162
201.645	-373
201.713	-834
201.781	-259
201.850	218
201.918	433
201.986	761
202.055	822
202.123	927
202.191	222
202.259	393
202.327	-153
202.396	270
202.464	389
202.532	364
202.600	225
202.669	683
202.737	-824
202.805	112
202.873	-219
202.941	1074
203.009	211
203.078	209
203.146	469
203.214	-335
203.282	-984
203.350	213
203.418	138
203.487	502
203.555	229
203.623	-108
203.691	-320
203.759	-519
203.827	-39
203.895	192
203.963	517
204.031	611
204.099	46
204.168	-312
204.236	237
204.304	1129
204.372	-527
204.440	118
204.508	-270
204.576	-182
204.644	248
204.712	-134
204.780	-160
204.848	216
204.916	-396
204.984	216
205.052	55
205.120	322
205.188	-151
205.256	-130
205.324	-42
205.392	38
205.460	615
205.528	-28
205.596	357
205.664	31
205.732	-183
205.799	-35
205.867	-48
205.935	-533
206.003	920
206.071	-607
206.139	-497
206.207	-594
206.275	-117
206.343	-42
206.411	21
206.478	132
206.546	994
206.614	-670
206.682	124
206.750	-217
206.818	157
206.885	783
206.953	-1200
207.021	1476
207.089	372
207.157	8
207.225	1038
207.292	196
207.360	264
207.428	18
207.496	-410
207.563	913
207.631	379
207.699	58
207.767	-133
207.834	219
207.902	-48
207.970	423
208.038	225
208.105	-99
208.173	95
208.241	-7
208.309	664
208.376	107
208.444	46
208.512	207
208.579	-552
208.647	670
208.715	969
208.782	544
208.850	-125
208.918	198
208.985	-121
209.053	-47
209.120	312
209.188	10
209.256	-111
209.323	-1280
209.391	-257
209.459	1182
209.526	357
209.594	351
209.661	243
209.729	312
209.796	-270
209.864	412
209.932	-1066
209.999	1087
210.067	218
210.134	-146
210.202	143
210.269	1138
210.337	828
210.404	-51
210.472	142
210.539	106
210.607	-15
210.674	-509
210.742	187
210.809	238
210.877	556
210.944	575
211.012	-800
211.079	1042
211.146	468
211.214	1047
211.281	1166
211.349	587
211.416	725
211.484	297
211.551	-291
211.618	140
211.686	87
211.753	-156
211.821	1043
211.888	78
211.955	187
212.023	550
212.090	327
212.157	243
212.225	-624
212.292	217
212.359	778
212.427	2512
212.494	371
212.561	-206
212.629	-388
212.696	-307
212.763	-279
212.831	-141
212.898	331
212.965	-199
213.032	647
213.100	381
213.167	219
213.234	813
213.301	426
213.369	-407
213.436	400
213.503	21
213.570	-322
213.638	-512
213.705	383
213.772	-2
213.839	-72
213.906	170
213.973	159
214.041	-1300
214.108	741
214.175	114
214.242	-16
214.309	639
214.376	-97
214.444	-154
214.511	-277
214.578	-388
214.645	1213
214.712	466
214.779	216
214.846	52
214.913	178
214.980	55
215.048	254
215.115	728
215.182	813
215.249	364
215.316	-355
215.383	783
215.450	-512
215.517	208
215.584	104
215.651	-317
215.718	263
215.785	28
215.852	-908
215.919	-36
215.986	415
216.053	199
216.120	90
216.187	-195
216.254	505
216.321	-107
216.388	-1095
216.455	-197
216.522	89
216.589	-104
216.656	-165
216.722	194
216.789	702
216.856	382
216.923	-93
216.990	275
217.057	-340
217.124	-257
217.191	128
217.258	-296
217.324	78
217.391	181
217.458	-980
217.525	-329
217.592	-195
217.659	-742
217.725	403
217.792	315
217.859	41
217.926	-690
217.993	347
218.059	591
218.126	31
218.193	-417
218.260	-101
218.327	-257
218.393	-516
218.460	-451
218.527	-519
218.594	-208
218.660	-286
218.727	466
218.794	330
218.860	181
218.927	-1093
218.994	-145
219.061	-577
219.127	-904
219.194	87
219.261	588
219.327	-172
219.394	355
219.461	-657
219.527	504
219.594	-140
219.661	-4
219.727	-641
219.794	476
219.860	-40
219.927	878
219.994	1393
220.060	1218
220.127	2472
220.193	1143
220.260	155
220.326	695
220.393	-486
220.460	79
220.526	-347
220.593	-63
220.659	1175
220.726	-155
220.792	767
220.859	490
220.925	954
220.992	474
221.058	1446
221.125	295
221.191	1254
221.258	-192
221.324	-135
221.391	173
221.457	-180
221.524	384
221.590	427
221.657	1054
221.723	-10
221.789	-39
221.856	880
221.922	-384
221.989	495
222.055	-331
222.121	-27
222.188	1372
222.254	-121
222.321	497
222.387	-506
222.453	-29
222.520	139
222.586	-47
222.652	247
222.719	-236
222.785	117
222.851	139
222.918	-725
222.984	55
223.050	-453
223.116	-1928
223.183	1103
223.249	-856
223.315	-879
223.382	-104
223.448	-1185
223.514	-743
223.580	496
223.647	-309
223.713	-701
223.779	-86
223.845	-375
223.911	1118
223.978	-983
224.044	-65
224.110	-1147
224.176	469
224.242	-721
224.309	-1508
224.375	38
224.441	-730
224.507	-533
224.573	-1007
224.639	143
224.705	87
224.772	-24
224.838	-107
224.904	-342
224.970	390
225.036	181
225.102	-372
225.168	1
225.234	846
225.300	-595
225.366	749
225.432	-302
225.499	412
225.565	-590
225.631	-690
225.697	271
225.763	-105
225.829	52
225.895	183
225.961	-280
226.027	693
226.093	-220
226.159	390
226.225	998
226.291	948
226.357	1054
226.423	914
226.489	165
226.554	82
226.620	-44
226.686	-133
226.752	90
226.818	1460
226.884	3705
226.950	2185
227.016	1412
227.082	898
227.148	248
227.214	-315
227.279	387
227.345	334
227.411	742
227.477	2069
227.543	3192
227.609	4514
227.674	3120
227.740	554
227.806	999
227.872	-56
227.938	1052
228.003	50
228.069	-261
228.135	270
228.201	75
228.267	-150
228.332	-19
228.398	-1601
228.464	275
228.530	299
228.595	376
228.661	-531
228.727	-702
228.792	1300
228.858	-1078
228.924	-2358
228.990	1055
229.055	-1486
229.121	34
229.187	-190
229.252	-362
229.318	-144
229.384	291
229.449	-51
229.515	-1210
229.581	-920
229.646	1032
229.712	-31
229.777	-52
229.843	-780
229.909	520
229.974	608
230.040	-316
230.105	-718
230.171	-1450
230.236	590
230.302	-394
230.368	-1102
230.433	-10
230.499	134
230.564	45
230.630	-1119
230.695	-281
230.761	144
230.826	-1870
230.892	921
230.957	-661
231.023	-1297
231.088	306
231.154	-159
231.219	-193
231.284	-526
231.350	76
231.415	-1268
231.481	291
231.546	-188
231.612	225
231.677	-42
231.742	-1905
231.808	682
231.873	-603
231.939	-1154
232.004	508
232.069	739
232.135	-1016
232.200	-193
232.265	514
232.331	-464
232.396	62
232.461	-557
232.527	-866
232.592	-1384
232.657	325
232.723	-168
232.788	-884
232.853	23
232.918	-132
232.984	-488
233.049	-324
233.114	-255
233.179	34
233.245	555
233.310	42
233.375	-1463
233.440	605
233.506	-748
233.571	-275
233.636	309
233.701	-530
233.766	-460
233.832	-34
233.897	-141
233.962	-1111
234.027	170
234.092	-199
234.157	-446
234.222	385
234.288	-52
234.353	-605
234.418	762
234.483	20
234.548	-521
234.613	103
234.678	453
234.743	-942
234.808	1079
234.873	-1235
234.938	860
235.004	19
235.069	-1108
235.134	-1171
235.199	181
235.264	438
235.329	-1695
235.394	-434
235.459	-290
235.524	-1545
235.589	-445
235.654	-812
235.719	-1797
235.784	96
235.849	297
235.913	901
235.978	-346
236.043	-448
236.108	121
236.173	-730
236.238	-260
236.303	-455
236.368	-324
236.433	875
236.498	-479
236.563	310
236.627	1182
236.692	5517
236.757	3860
236.822	392
236.887	-1148
236.952	17
237.017	-537
237.081	1133
237.146	-14
237.211	1828
237.276	5265
237.341	9407
237.405	1790
237.470	830
237.535	522
237.600	459
237.664	150
237.729	-1357
237.794	-892
237.859	234
237.923	234
237.988	-55
238.053	347
238.118	-505
238.182	660
238.247	1463
238.312	-1211
238.376	936
238.441	-2065
238.506	320
238.570	-1801
238.635	412
238.700	-200
238.764	-1058
238.829	-342
238.893	-282
238.958	427
239.023	-110
239.087	-118
239.152	374
239.216	-351
239.281	351
239.346	141
239.410	-112
239.475	-303
239.539	1726
239.604	-57
239.668	1121
239.733	1142
239.797	4867
239.862	8132
239.926	7486
239.991	3391
240.055	1216
240.120	356
240.184	704
240.249	50
240.313	-147
240.378	237
240.442	487
240.507	108
240.571	-356
240.635	-761
240.700	-178
240.764	-577
240.829	52
240.893	-1296
240.957	458
241.022	447
241.086	-227
241.151	-1344
241.215	-1211
241.279	211
241.344	-855
241.408	72
241.472	-1301
241.537	394
241.601	32
241.665	-1362
241.730	-934
241.794	347
241.858	-1506
241.922	-653
241.987	64
242.051	-470
242.115	-647
242.179	-97
242.244	-1350
242.308	-558
242.372	-86
242.436	-299
242.501	178
242.565	-1546
242.629	-1071
242.693	970
242.757	-720
242.822	-1781
242.886	537
242.950	-115
243.014	-1303
243.078	-577
243.142	-505
243.206	-1229
243.271	461
243.335	-281
243.399	624
243.463	1518
243.527	5017
243.591	583
243.655	-169
243.719	-577
243.783	650
243.847	51
243.911	1105
243.975	-1246
244.040	-1895
244.104	486
244.168	-253
244.232	-796
244.296	-564
244.360	-19
244.424	-1091
244.488	-138
244.552	35
244.615	-1634
244.679	617
244.743	-1042
244.807	-1576
244.871	-705
244.935	-93
244.999	-1531
245.063	-768
245.127	242
245.191	-294
245.255	-160
245.319	-745
245.383	-1674
245.446	915
245.510	-1713
245.574	-568
245.638	159
245.702	-1609
245.766	192
245.829	646
245.893	-1346
245.957	-1825
246.021	377
246.085	-1002
246.149	35
246.212	1557
246.276	616
246.340	-410
246.404	263
246.467	518
246.531	-2567
246.595	396
246.659	1432
246.722	-792
246.786	78
246.850	-836
246.913	-910
246.977	-1307
247.041	60
247.104	-405
247.168	-154
247.232	-8
247.295	1327
247.359	-68
247.423	265
247.486	995
247.550	360
247.614	-689
247.677	-768
247.741	-274
247.804	-492
247.868	789
247.932	-113
247.995	2794
248.059	66
248.122	-626
248.186	518
248.249	379
248.313	3032
248.376	2910
248.440	482
248.503	-848
248.567	1039
248.630	-1889
248.694	54
248.757	1387
248.821	3449
248.884	1301
248.948	-88
249.011	2267
249.075	3149
249.138	3355
249.202	619
249.265	-1144
249.328	1581
249.392	-1023
249.455	79
249.519	-126
249.582	2
249.645	246
249.709	-152
249.772	31
249.835	245
249.899	-1087
249.962	167
250.025	-352
250.089	266
250.152	867
250.215	602
250.279	-890
250.342	117
250.405	-17
250.468	-582
250.532	-436
250.595	976
250.658	5982
250.721	11126
250.785	2127
250.848	2665
250.911	144
250.974	851
251.038	438
251.101	2152
251.164	-728
251.227	1251
251.290	254
251.354	2230
251.417	10390
251.480	8315
251.543	5433
251.606	19850
251.669	11889
251.732	3046
251.795	3712
251.859	3698
251.922	11924
251.985	4955
252.048	1583
252.111	1504
252.174	332
252.237	2073
252.300	4029
252.363	4508
252.426	15104
252.489	3566
252.552	1224
252.615	-613
252.678	1561
252.741	4148
252.804	3942
252.867	15873
252.930	5496
252.993	1922
253.056	275
253.119	-113
253.182	57
253.245	1183
253.308	755
253.371	-397
253.434	-202
253.497	688
253.559	2096
253.622	24
253.685	784
253.748	-168
253.811	-302
253.874	1303
253.937	-483
254.000	415
254.062	128
254.125	1038
254.188	1524
254.251	414
254.314	-255
254.376	-984
254.439	913
254.502	119
254.565	-420
254.628	2500
254.690	345
254.753	-564
254.816	-574
254.878	-29
254.941	-304
255.004	268
255.067	87
255.129	-940
255.192	203
255.255	-753
255.317	-328
255.380	-47
255.443	-112
255.505	89
255.568	-1202
255.631	-846
255.693	282
255.756	34
255.819	404
255.881	422
255.944	593
256.006	-759
256.069	-215
256.132	-274
256.194	-587
256.257	114
256.319	75
256.382	344
256.444	1979
256.507	1036
256.569	-352
256.632	-214
256.694	-385
256.757	2276
256.819	8386
256.882	1171
256.944	30
257.007	110
257.069	-610
257.132	66
257.194	901
257.257	-682
257.319	-1016
257.381	-777
257.444	1914
257.506	10237
257.569	8585
257.631	1411
257.693	562
257.756	-95
257.818	-596
257.880	-905
257.943	-51
258.005	-101
258.067	-764
258.130	-410
258.192	-737
258.254	-148
258.317	-597
258.379	-218
258.441	-68
258.503	472
258.566	-292
258.628	1392
258.690	-575
258.753	478
258.815	-59
258.877	-315
258.939	517
259.001	-121
259.064	-628
259.126	-566
259.188	-72
259.250	-627
259.312	-669
259.375	463
259.437	-62
259.499	-261
259.561	-293
259.623	372
259.685	-412
259.747	-303
259.809	189
259.872	1165
259.934	2115
259.996	1948
260.058	200
260.120	-966
260.182	-76
260.244	-680
260.306	-502
260.368	-88
260.430	-1090
260.492	251
260.554	-98
260.616	-285
260.678	574
260.740	939
260.802	468
260.864	256
260.926	-1519
260.988	1336
261.050	122
261.112	68
261.174	1252
261.236	1187
261.298	-15
261.359	379
261.421	980
261.483	-217
261.545	873
261.607	-644
261.669	119
261.731	-124
261.793	475
261.854	-643
261.916	-113
261.978	83
262.040	12
262.102	367
262.164	4
262.225	512
262.287	-369
262.349	150
262.411	-367
262.472	691
262.534	-591
262.596	263
262.658	296
262.719	-921
262.781	1242
262.843	-846
262.904	1113
262.966	402
263.028	-275
263.090	2185
263.151	4650
263.213	1706
263.275	-166
263.336	-706
263.398	-252
263.459	-590
263.521	66
263.583	1118
263.644	-45
263.706	156
263.767	-374
263.829	332
263.891	-148
263.952	-12
264.014	184
264.075	-526
264.137	44
264.198	68
264.260	-551
264.321	214
264.383	-534
264.444	1640
264.506	-509
264.567	49
264.629	896
264.690	-1290
264.752	77
264.813	-422
264.875	83
264.936	628
264.998	-2
265.059	104
265.120	371
265.182	-285
265.243	2029
265.305	2490
265.366	701
265.427	-456
265.489	625
265.550	-1662
265.611	334
265.673	-104
265.734	559
265.795	275
265.857	-382
265.918	-837
265.979	667
266.040	6187
266.102	3723
266.163	1372
266.224	-336
266.286	-317
266.347	-891
266.408	-325
266.469	534
266.530	17
266.592	-114
266.653	-377
266.714	-563
266.775	315
266.836	-526
266.898	-303
266.959	215
267.020	-1163
267.081	1048
267.142	235
267.203	-347
267.264	-1228
267.326	491
267.387	-19
267.448	-481
267.509	265
267.570	-36
267.631	-544
267.692	-1434
267.753	-177
267.814	-568
267.875	-308
267.936	156
267.997	-825
268.058	167
268.119	-331
268.180	-950
268.241	-294
268.302	-131
268.363	-347
268.424	-524
268.485	-366
268.546	-745
268.607	146
268.668	-505
268.729	-412
268.790	-74
268.851	-266
268.912	306
268.972	369
269.033	-620
269.094	-651
269.155	513
269.216	-614
269.277	-38
269.338	-165
269.398	-612
269.459	-833
269.520	300
269.581	-605
269.642	-327
269.702	-583
269.763	-595
269.824	-143
269.885	-701
269.945	294
270.006	530
270.067	139
270.128	-297
270.188	-757
270.249	-1493
270.310	-231
270.370	-777
270.431	-419
270.492	-335
270.553	-774
270.613	84
270.674	238
270.734	-825
270.795	-611
270.856	-654
270.916	-1075
270.977	-505
271.038	-179
271.098	-579
271.159	-2
271.219	-857
271.280	-5
271.340	-188
271.401	-264
271.462	-500
271.522	-247
271.583	395
271.643	-216
271.704	-221
271.764	52
271.825	-73
271.885	3103
271.946	3302
272.006	811
272.066	1806
272.127	3601
272.187	5357
272.248	1750
272.308	169
272.369	1905
272.429	999
272.489	-197
272.550	27
272.610	856
272.671	127
272.731	317
272.791	12
272.852	21
272.912	-758
272.972	796
273.033	-505
273.093	-27
273.153	550
273.214	162
273.274	-145
273.334	1186
273.394	1226
273.455	707
273.515	331
273.575	1340
273.635	947
273.696	1080
273.756	2078
273.816	1642
273.876	293
273.936	1089
273.997	555
274.057	262
274.117	197
274.177	-412
274.237	1790
274.297	2020
274.358	995
274.418	1605
274.478	767
274.538	337
274.598	-563
274.658	1306
274.718	533
274.778	1060
274.838	62
274.898	-404
274.958	1827
275.018	2363
275.078	927
275.138	-15
275.198	30
275.258	-215
275.318	-466
275.378	11
275.438	-281
275.498	613
275.558	963
275.618	1561
275.678	1048
275.738	549
275.798	472
275.858	-1028
275.918	-695
275.978	95
276.038	-141
276.098	645
276.157	-45
276.217	889
276.277	450
276.337	77
276.397	-272
276.457	438
276.517	638
276.576	460
276.636	-116
276.696	-359
276.756	933
276.815	321
276.875	-203
276.935	-230
276.995	292
277.055	1056
277.114	538
277.174	508
277.234	-185
277.293	-111
277.353	-62
277.413	-238
277.472	-283
277.532	366
277.592	1270
277.651	3292
277.711	4942
277.771	1526
277.830	6744
277.890	4022
277.950	3725
278.009	12193
278.069	3820
278.128	4467
278.188	5105
278.248	2029
278.307	7534
278.367	3749
278.426	749
278.486	1178
278.545	816
278.605	1751
278.664	429
278.724	691
278.783	1579
278.843	2562
278.902	821
278.962	537
279.021	125
279.081	2186
279.140	1249
279.199	1332
279.259	1732
279.318	2525
279.378	3287
279.437	4118
279.496	9709
279.556	35277
279.615	23576
279.675	6508
279.734	4339
279.793	4480
279.853	5968
279.912	2828
279.971	2152
280.031	2041
280.090	2529
280.149	5211
280.208	4481
280.268	25682
280.327	21364
280.386	4495
280.445	3253
280.505	855
280.564	1245
280.623	1832
280.682	1260
280.742	1748
280.801	739
280.860	1030
280.919	733
280.978	321
281.037	401
281.097	-144
281.156	873
281.215	1363
281.274	1003
281.333	1507
281.392	842
281.451	-137
281.510	-97
281.569	377
281.628	-394
281.688	740
281.747	702
281.806	183
281.865	543
281.924	531
281.983	26
282.042	23
282.101	-100
282.160	386
282.219	384
282.278	802
282.337	404
282.396	-627
282.454	727
282.513	438
282.572	516
282.631	34
282.690	520
282.749	450
282.808	1015
282.867	1079
282.926	638
282.985	703
283.043	-172
283.102	-177
283.161	782
283.220	1099
283.279	944
283.338	834
283.396	860
283.455	684
283.514	706
283.573	408
283.631	-159
283.690	1089
283.749	252
283.808	1024
283.866	4
283.925	651
283.984	1289
284.043	640
284.101	214
284.160	305
284.219	1233
284.277	1534
284.336	638
284.395	2113
284.453	880
284.512	799
284.570	1056
284.629	1178
284.688	1444
284.746	1154
284.805	2021
284.863	1876
284.922	2646
284.981	4111
285.039	6117
285.098	9767
285.156	22150
285.215	37359
285.273	35328
285.332	20608
285.390	10610
285.449	6576
285.507	4402
285.566	2904
285.624	2690
285.683	3058
285.741	1009
285.799	1703
285.858	1130
285.916	742
285.975	1160
286.033	576
286.091	1172
286.150	312
286.208	589
286.267	952
286.325	540
286.383	961
286.442	246
286.500	40
286.558	884
286.616	986
286.675	1188
286.733	714
286.791	411
286.850	1556
286.908	53
286.966	-266
287.024	-8
287.083	803
287.141	-3
287.199	577
287.257	1016
287.315	500
287.374	1039
287.432	1376
287.490	350
287.548	294
287.606	-127
287.664	888
287.723	1203
287.781	1348
287.839	1602
287.897	1108
287.955	1627
288.013	1226
288.071	3270
288.129	13148
288.187	34890
288.245	12911
288.303	4529
288.361	2400
288.419	2018
288.477	713
288.535	1388
288.593	1011
288.651	785
288.709	884
288.767	1073
288.825	283
288.883	1012
288.941	878
288.999	1048
289.057	173
289.115	1121
289.173	877
289.231	186
289.289	562
289.346	413
289.404	911
289.462	1181
289.520	955
289.578	314
289.636	552
289.694	-224
289.751	826
289.809	-155
289.867	265
289.925	1193
289.983	1074
290.040	403
290.098	798
290.156	485
290.214	493
290.271	346
290.329	913
290.387	604
290.444	357
290.502	-168
290.560	1429
290.617	117
290.675	121
290.733	-236
290.790	892
290.848	968
290.906	539
290.963	172
291.021	836
291.078	774
291.136	637
291.194	378
291.251	1309
291.309	295
291.366	351
291.424	-658
291.481	494
291.539	-173
291.596	1272
291.654	464
291.711	771
291.769	722
291.826	601
291.884	823
291.941	943
291.999	178
292.056	785
292.114	-342
292.171	815
292.228	1127
292.286	128
292.343	698
292.401	107
292.458	1873
292.515	119
292.573	1021
292.630	293
292.687	-178
292.745	631
292.802	221
292.859	790
292.917	2007
292.974	404
293.031	687
293.089	567
293.146	837
293.203	227
293.260	-148
293.318	202
293.375	534
293.432	87
293.489	631
293.546	320
293.604	742
293.661	1256
293.718	3336
293.775	1071
293.832	1433
293.889	1198
293.947	888
294.004	964
294.061	349
294.118	780
294.175	1339
294.232	2019
294.289	430
294.346	960
294.403	1504
294.460	390
294.517	1402
294.574	531
294.631	580
294.688	849
294.745	1066
294.802	4044
294.859	2936
294.916	1179
294.973	129
295.030	379
295.087	-236
295.144	912
295.201	1306
295.258	1219
295.315	-278
295.372	1650
295.429	1640
295.486	100
295.542	-39
295.599	1137
295.656	1560
295.713	1340
295.770	1655
295.827	1179
295.883	291
295.940	-141
295.997	276
296.054	322
296.111	958
296.167	837
296.224	52
296.281	199
296.338	130
296.394	673
296.451	120
296.508	1271
296.564	1437
296.621	2134
296.678	3450
296.734	3988
296.791	1052
296.848	689
296.904	625
296.961	1197
297.018	2299
297.074	1427
297.131	568
297.187	564
297.244	196
297.301	2933
297.357	4224
297.414	1551
297.470	877
297.527	149
297.583	126
297.640	601
297.696	1082
297.753	-3
297.809	-3
297.866	202
297.922	-76
297.979	441
298.035	-141
298.092	651
298.148	1440
298.204	1657
298.261	715
298.317	1276
298.374	3796
298.430	2293
298.486	1356
298.543	151
298.599	917
298.656	369
298.712	903
298.768	2481
298.824	1548
298.881	962
298.937	710
298.993	461
299.050	-127
299.106	254
299.162	-136
299.218	700
299.275	302
299.331	937
299.387	2210
299.443	5454
299.500	11749
299.556	9234
299.612	4612
299.668	3462
299.724	9833
299.780	12189
299.837	5329
299.893	3477
299.949	8401
300.005	11484
300.061	9436
300.117	13617
300.173	6096
300.229	3121
300.285	1950
300.341	848
300.397	904
300.453	1553
300.510	1917
300.566	2021
300.622	4545
300.678	16524
300.734	17835
300.790	7894
300.845	6403
300.901	9241
300.957	13062
301.013	6727
301.069	2340
301.125	2040
301.181	1313
301.237	971
301.293	1134
301.349	1404
301.405	249
301.461	895
301.516	726
301.572	544
301.628	312
301.684	269
301.740	-18
301.796	665
301.851	1151
301.907	619
301.963	827
302.019	3053
302.074	9386
302.130	8942
302.186	3777
302.242	1896
302.297	1264
302.353	500
302.409	1163
302.464	1351
302.520	321
302.576	2425
302.631	2359
302.687	1303
302.743	383
302.798	203
302.854	554
302.910	301
302.965	465
303.021	373
303.076	863
303.132	371
303.187	951
303.243	784
303.299	394
303.354	-21
303.410	723
303.465	-450
303.521	153
303.576	339
303.632	578
303.687	1179
303.743	3002
303.798	3120
303.853	1009
303.909	-48
303.964	-195
304.020	458
304.075	744
304.130	422
304.186	503
304.241	1583
304.297	1249
304.352	730
304.358	690
304.407	367
304.449	367
304.463	365
304.518	655
304.539	512
304.573	282
304.629	211
304.630	224
304.684	816
304.720	1799
304.739	2238
304.794	2625
304.811	2588
304.850	2458
304.902	907
304.905	809
304.960	1099
304.992	727
305.015	449
305.071	692
305.083	595
305.126	245
305.173	15
305.181	-12
305.236	-65
305.264	455
305.292	917
305.347	595
305.354	670
305.402	1204
305.445	991
305.457	924
305.512	1152
305.535	1169
305.567	1235
305.622	367
305.626	370
305.678	896
305.716	2583
305.733	3047
305.788	3137
305.807	2763
305.843	2570
305.897	4268
305.898	4280
305.953	3410
305.988	2435
306.008	2064
306.063	1337
306.078	1266
306.118	1147
306.168	682
306.173	644
306.228	764
306.259	1028
306.283	1224
306.338	454
306.349	521
306.393	901
306.440	1245
306.448	1314
306.503	1278
306.530	1382
306.558	1599
306.613	2500
306.620	2546
306.668	2949
306.711	3555
306.723	3518
306.778	2299
306.801	1877
306.833	1475
306.888	1141
306.892	1099
306.943	1083
306.982	1150
306.997	1126
307.052	1084
307.072	1253
307.107	1619
307.162	1768
307.163	1760
307.217	1510
307.253	1857
307.272	2054
307.327	1957
307.343	2030
307.381	1846
307.434	1846
307.436	1907
307.491	2357
307.524	3104
307.546	3167
307.600	3904
307.614	3693
307.655	2996
307.704	1842
307.710	1787
307.765	2350
307.795	2262
307.819	2212
307.874	3254
307.885	3275
307.929	3406
307.975	4135
307.984	4573
308.038	6786
308.065	8468
308.093	17063
308.148	35650
308.156	39255
308.202	50463
308.246	56677
308.257	53501
308.312	25596
308.336	14399
308.366	10614
308.421	6017
308.426	5645
308.475	4285
308.517	3523
308.530	3350
308.585	3220
308.607	2777
308.639	2491
308.694	3132
308.697	3160
308.748	4664
308.787	5558
308.803	5453
308.857	4542
308.877	4350
308.912	4670
308.967	5268
308.967	5266
309.021	8196
309.058	10067
309.076	12824
309.130	21909
309.148	24958
309.185	51953
309.238	96254
309.239	96366
309.293	87203
309.328	73427
309.348	62094
309.402	27949
309.418	18997
309.457	14329
309.508	10088
309.511	10059
309.566	9596
309.598	9703
309.620	11061
309.674	14448
309.688	15413
309.729	14599
309.778	12356
309.783	12129
309.837	9607
309.868	8143
309.892	8300
309.946	8307
309.959	8399
310.001	8630
310.049	8677
310.055	8487
310.109	6472
310.139	5343
310.163	4939
310.218	4158
310.229	3929
310.272	3980
310.319	4371
310.326	4347
310.381	3861
310.409	3627
310.435	3552
310.489	3111
310.499	3075
310.543	3532
310.589	4040
310.598	4013
310.652	3654
310.679	3377
310.706	3670
310.760	4222
310.769	4314
310.814	4046
310.859	3728
310.868	3850
310.923	4429
310.948	4624
310.977	4600
311.031	4594
311.038	4583
311.085	4390
311.128	4046
311.139	3994
311.193	3828
311.218	3668
311.247	4073
311.301	4879
311.308	4943
311.356	4369
311.398	3966
311.410	3997
311.464	3933
311.488	3910
311.518	3950
311.572	3953
311.578	3941
311.626	4199
311.668	4409
311.680	4543
311.734	4992
311.758	5195
311.788	5031
311.842	4709
311.847	4651
311.896	5395
311.937	6064
311.950	5979
312.004	5441
312.027	5210
312.058	5171
312.112	5051
312.117	5021
312.165	5121
312.207	5176
312.297	5047
312.386	4914
312.476	4557
312.566	5923
312.656	5532
312.745	5024
312.835	6040
312.925	6604
313.015	5929
313.104	6440
313.194	6647
313.284	7001
313.374	7346
313.463	7369
313.553	7538
313.643	8184
313.732	8416
313.822	8540
313.912	9155
314.001	10466
314.091	9937
314.180	9352
314.270	10476
314.360	10071
314.449	10186
314.539	9783
314.628	9877
314.718	9742
314.808	10770
314.897	11237
314.987	11568
315.076	12217
315.166	11668
315.255	12765
315.345	11857
315.434	11981
315.524	12654
315.613	16397
315.703	24558
315.792	75771
315.881	217608
315.971	64415
316.060	21164
316.150	15518
316.239	13767
316.328	12433
316.418	13053
316.507	14020
316.597	15607
316.686	16159
316.775	14328
316.865	14491
316.954	11549
317.043	10914
317.133	10306
317.222	10566
317.311	9495
317.400	9960
317.490	12080
317.579	14467
317.668	18458
317.757	33996
317.847	122378
317.936	290174
318.025	95324
318.114	101889
318.203	39311
318.293	17916
318.382	23856
318.471	23654
318.560	20857
318.649	18483
318.738	10765
318.828	9245
318.917	7511
319.006	9383
319.095	9260
319.184	13310
319.273	9806
319.362	8213
319.451	7991
319.540	7595
319.629	8283
319.718	9513
319.807	7782
319.896	9747
319.985	15409
320.074	9386
320.163	8816
320.252	9749
320.341	10012
320.430	9264
320.519	11026
320.608	11784
320.697	13592
320.786	14261
320.875	15855
320.964	16669
321.053	18462
321.142	20232
321.230	22098
321.319	22712
321.408	24752
321.497	22498
321.586	21477
321.675	19927
321.764	18744
321.852	20179
321.941	20963
322.030	20441
322.119	22428
322.207	27539
322.296	28501
322.385	28133
322.474	30564
322.562	31207
322.651	25555
322.740	21432
322.829	19770
322.917	17878
323.006	15562
323.095	14840
323.183	13242
323.272	13787
323.361	13955
323.449	18197
323.538	12464
323.626	14888
323.715	11765
323.804	10333
323.892	12949
323.981	10620
324.069	9436
324.158	10991
324.246	10071
324.335	9538
324.424	8320
324.512	9321
324.601	8871
324.689	9033
324.778	9974
324.866	8346
324.954	7271
325.043	7625
325.131	8075
325.220	8708
325.308	8642
325.397	8654
325.485	7926
325.574	6460
325.662	7389
325.750	6458
325.839	8060
325.927	6716
326.015	7132
326.104	7339
326.192	6626
326.280	6783
326.369	6184
326.457	6527
326.545	7258
326.634	7292
326.722	7182
326.810	6874
326.898	8111
326.987	9072
327.075	8286
327.163	8766
327.251	7458
327.340	9778
327.428	12547
327.516	14161
327.604	11316
327.692	9185
327.781	7539
327.869	7362
327.957	6831
328.045	5738
328.133	5955
328.221	5098
328.309	5316
328.397	6214
328.485	7838
328.574	12747
328.662	16190
328.750	12659
328.838	7836
328.926	7095
329.014	6483
329.102	5932
329.190	6591
329.278	5447
329.366	6122
329.454	4736
329.542	6413
329.630	6101
329.718	5869
329.806	5579
329.893	6549
329.981	6238
330.069	6588
330.157	11716
330.245	18723
330.333	9776
330.421	6695
330.509	5710
330.597	7765
330.684	6568
330.772	5912
330.860	6052
330.948	6371
331.036	6101
331.123	5797
331.211	6271
331.299	6277
331.387	7242
331.475	6195
331.562	5822
331.650	6760
331.738	5163
331.825	6203
331.913	6538
332.001	6560
332.089	6970
332.176	6488
332.264	8753
332.352	6680
332.439	6922
332.527	7370
332.614	6526
332.702	7095
332.790	6896
332.877	7736
332.965	9726
333.052	7908
333.140	9637
333.228	12263
333.315	8786
333.403	8647
333.490	9856
333.578	11279
333.665	17127
333.753	13642
333.840	12331
333.928	13896
334.015	17924
334.103	22267
334.190	31084
334.278	32891
334.365	39329
334.452	36186
334.540	32165
334.627	34548
334.715	41487
334.802	55023
334.889	78630
334.977	81211
335.064	52342
335.151	33066
335.239	27335
335.326	24581
335.413	28388
335.501	28248
335.588	27897
335.675	32607
335.762	38799
335.850	50666
335.937	68371
336.024	93921
336.111	118671
336.199	91708
336.286	52995
336.373	35279
336.460	25553
336.547	20874
336.635	17706
336.722	15847
336.809	14435
336.896	13383
336.983	14098
337.070	17805
337.157	18893
337.245	16408
337.332	15095
337.419	11188
337.506	11609
337.593	11446
337.680	12234
337.767	13902
337.854	10369
337.941	10277
338.028	10576
338.115	8484
338.202	10513
338.289	10125
338.376	12636
338.463	9464
338.550	10360
338.637	9425
338.724	8558
338.811	8742
338.898	7702
338.984	7115
339.071	7213
339.158	7849
339.245	8339
339.332	8194
339.419	8060
339.506	8162
339.593	7477
339.679	7592
339.766	6810
339.853	8086
339.940	7889
340.027	7234
340.113	6945
340.200	7008
340.287	5811
340.374	7098
340.460	6990
340.547	5614
340.634	7611
340.720	9499
340.807	7360
340.894	6750
340.980	7096
341.067	6138
341.154	7877
341.240	6668
341.327	7690
341.414	7092
341.500	6860
341.587	7019
341.674	7245
341.760	7376
341.847	7260
341.933	6677
342.020	6214
342.106	6176
342.193	6272
342.279	6982
342.366	5639
342.452	7134
342.539	6778
342.625	7346
342.712	8143
342.798	6454
342.885	6678
342.971	5061
343.058	6552
343.144	6303
343.230	6333
343.317	7106
343.403	6097
343.490	6006
343.576	5648
343.662	6173
343.749	6862
343.835	6415
343.921	8027
344.008	22953
344.094	32426
344.180	9659
344.267	7680
344.353	10565
344.439	9557
344.525	7348
344.612	7194
344.698	6633
344.784	6575
344.870	6865
344.957	6449
345.043	7054
345.129	6305
345.215	6471
345.301	6963
345.387	5528
345.474	6339
345.560	6799
345.646	5883
345.732	6278
345.818	6115
345.904	6240
345.990	6654
346.076	6243
346.162	7652
346.249	6962
346.335	7089
346.421	7663
346.507	9142
346.593	13967
346.679	6860
346.765	9210
346.851	13371
346.937	11618
347.023	8873
347.108	8099
347.194	7488
347.280	7532
347.366	11317
347.452	28269
347.538	36774
347.624	20210
347.710	13379
347.796	8266
347.882	8267
347.967	7721
348.053	6679
348.139	6703
348.225	6915
348.311	6340
348.397	7823
348.482	9221
348.568	9108
348.654	14993
348.740	37233
348.825	40709
348.911	19752
348.997	16409
349.083	17779
349.168	8856
349.254	7941
349.340	6796
349.425	7153
349.511	7196
349.597	8007
349.682	8325
349.768	10738
349.854	8841
349.939	7230
350.025	6599
350.110	7341
350.196	6538
350.282	6007
350.367	6823
350.453	6963
350.538	7207
350.624	6347
350.709	7476
350.795	6132
350.880	5921
350.966	7715
351.051	6857
351.137	6457
351.222	6710
351.308	8088
351.393	9358
351.479	7228
351.564	5615
351.649	6719
351.735	6527
351.820	7302
351.906	6386
351.991	6493
352.076	8613
352.162	9181
352.247	6835
352.332	6526
352.418	6579
352.503	7637
352.588	10590
352.673	8270
352.759	7509
352.844	6988
352.929	6630
353.014	6199
353.100	7058
353.185	8076
353.270	7376
353.355	7723
353.441	6608
353.526	6798
353.611	7840
353.696	6638
353.781	7216
353.866	6291
353.952	6174
354.037	6902
354.122	8427
354.207	8226
354.292	7119
354.377	6853
354.462	7433
354.547	6608
354.632	7753
354.717	7013
354.802	6315
354.887	6797
354.972	6245
355.057	6631
355.142	5816
355.227	6846
355.312	6283
355.397	7875
355.482	9432
355.567	7439
355.652	8225
355.737	8312
355.822	11979
355.907	8757
355.991	7961
356.076	7117
356.161	7520
356.246	6747
356.331	6992
356.416	9280
356.501	22177
356.585	16993
356.670	7530
356.755	9221
356.840	8845
356.924	19695
357.009	39520
357.094	16902
357.179	8247
357.263	7176
357.348	8595
357.433	7771
357.517	7319
357.602	7479
357.687	8179
357.771	8873
357.856	12094
357.941	11133
358.025	19394
358.110	49987
358.195	22280
358.279	9213
358.364	8971
358.448	12922
358.533	17267
358.617	14159
358.702	13619
358.787	9144
358.871	8020
358.956	8718
359.040	8411
359.125	8165
359.209	8666
359.294	11225
359.378	17230
359.462	13417
359.547	9167
359.631	7609
359.716	6776
359.800	7273
359.885	8358
359.969	7124
360.053	8208
360.138	7386
360.222	8271
360.306	7671
360.391	8557
360.475	10233
360.559	11566
360.644	10174
360.728	9422
360.812	18684
360.896	27204
360.981	14346
361.065	10155
361.149	10001
361.233	9126
361.318	8936
361.402	10175
361.486	11718
361.570	11440
361.654	12147
361.739	14332
361.823	28461
361.907	34254
361.991	20469
362.075	26004
362.159	36646
362.243	66268
362.327	116905
362.411	124230
362.495	59116
362.580	39464
362.664	39919
362.748	50453
362.832	80791
362.916	148522
363.000	267034
363.084	271093
363.168	132688
363.252	57561
363.336	37153
363.420	31237
363.503	32091
363.587	28625
363.671	24450
363.755	25792
363.839	31176
363.923	34538
364.007	46351
364.091	64092
364.175	103386
364.258	191365
364.342	324237
364.426	379848
364.510	217678
364.594	93858
364.677	55574
364.761	50046
364.845	35182
364.929	22147
365.013	19233
365.096	16744
365.180	15549
365.264	16772
365.347	21981
365.431	15413
365.515	11678
365.598	10964
365.682	13794
365.766	11269
365.849	10924
365.933	11479
366.017	13499
366.100	11179
366.184	11096
366.267	11835
366.351	11652
366.435	10460
366.518	10115
366.602	10805
366.685	10693
366.769	9824
366.852	11918
366.936	11527
367.019	10873
367.103	9754
367.186	10982
367.270	10087
367.353	11471
367.436	12828
367.520	12392
367.603	12778
367.687	11349
367.770	11574
367.853	12675
367.937	15526
368.020	15074
368.104	9929
368.187	10302
368.270	10585
368.353	8915
368.437	10136
368.520	11840
368.603	10414
368.687	11172
368.770	13749
368.853	9356
368.936	10167
369.020	8846
369.103	8439
369.186	8214
369.269	8723
369.352	8950
369.436	8130
369.519	8684
369.602	7391
369.685	9924
369.768	7822
369.851	8933
369.934	8065
370.018	8185
370.101	7592
370.184	10483
370.267	10099
370.350	10936
370.433	14316
370.516	49255
370.599	123768
370.682	57945
370.765	18564
370.848	15520
370.931	17136
371.014	12446
371.097	8372
371.180	8558
371.263	8609
371.346	7550
371.429	8312
371.511	8207
371.594	8357
371.677	9033
371.760	9576
371.843	10336
371.926	25084
372.009	38967
372.091	16583
372.174	12673
372.257	18690
372.340	11699
372.423	10971
372.505	11202
372.588	9530
372.671	13201
372.754	16248
372.836	12635
372.919	12749
373.002	13769
373.085	9970
373.167	10945
373.250	13287
373.332	20873
373.415	35964
373.498	57776
373.580	56782
373.663	176540
373.746	154624
373.828	34212
373.911	18204
373.993	14608
374.076	16020
374.159	15253
374.241	13989
374.324	18067
374.406	16884
374.489	23995
374.571	39113
374.654	19736
374.736	18425
374.819	29922
374.901	43086
374.983	38607
375.066	16219
375.148	13822
375.231	17612
375.313	20210
375.395	14928
375.478	14089
375.560	13837
375.643	13805
375.725	19573
375.807	34889
375.890	26045
375.972	13750
376.054	13084
376.136	14178
376.219	12352
376.301	18789
376.383	25673
376.465	14733
376.548	10885
376.630	13272
376.712	21313
376.794	13937
376.877	9826
376.959	8667
377.041	9026
377.123	8758
377.205	9595
377.287	8800
377.369	9814
377.452	9256
377.534	9615
377.616	9381
377.698	8973
377.780	9402
377.862	9220
377.944	9924
378.026	7869
378.108	9836
378.190	8708
378.272	9012
378.354	8523
378.436	8352
378.518	8615
378.600	9369
378.682	11347
378.764	12599
378.846	11286
378.928	8967
379.010	8975
379.091	9525
379.173	9103
379.255	7838
379.337	9166
379.419	11180
379.501	14762
379.583	10426
379.664	9904
379.746	9080
379.828	13382
379.910	12847
379.991	13893
380.073	7976
380.155	8910
380.237	8201
380.318	9322
380.400	8421
380.482	10278
380.564	9661
380.645	9636
380.727	9325
380.809	10403
380.890	9050
380.972	7811
381.053	9772
381.135	10464
381.217	11232
381.298	13353
381.380	11037
381.461	12919
381.543	23513
381.624	23623
381.706	11686
381.787	11064
381.869	11653
381.951	21014
382.032	41809
382.113	27843
382.195	12162
382.276	13890
382.358	15748
382.439	23116
382.521	29818
382.602	37845
382.684	24211
382.765	33945
382.846	52496
382.928	79067
383.009	50020
383.090	56890
383.172	140812
383.253	153402
383.334	56483
383.416	39973
383.497	29046
383.578	28976
383.659	53943
383.741	147789
383.822	248102
383.903	118999
383.984	42387
384.066	39880
384.147	28622
384.228	21963
384.309	22263
384.390	22782
384.471	22256
384.553	20118
384.634	18778
384.715	19097
384.796	16894
384.877	17109
384.958	21032
385.039	20289
385.120	17464
385.201	17118
385.282	17771
385.363	19626
385.444	20505
385.525	23032
385.606	27471
385.687	26787
385.768	20863
385.849	21435
385.930	36514
386.011	42503
386.092	25110
386.173	22005
386.254	19218
386.335	19364
386.416	18947
386.496	20506
386.577	21801
386.658	19608
386.739	18786
386.820	20724
386.901	20834
386.981	23879
387.062	27001
387.143	27809
387.224	28944
387.304	29966
387.385	28962
387.466	26953
387.547	30136
387.627	29163
387.708	33296
387.789	38583
387.869	36092
387.950	30234
388.031	26676
388.111	24657
388.192	29475
388.273	30983
388.353	26614
388.434	19176
388.514	19729
388.595	30090
388.676	28493
388.756	20024
388.837	20276
388.917	17326
388.998	14058
389.078	16772
389.159	16228
389.239	14426
389.320	16995
389.400	13816
389.480	17046
389.561	19428
389.641	17400
389.722	15219
389.802	14794
389.883	18102
389.963	21490
390.043	17966
390.124	15550
390.204	16808
390.284	20235
390.365	18141
390.445	22386
390.525	33428
390.605	30317
390.686	17486
390.766	18155
390.846	19127
390.927	17219
391.007	17441
391.087	19678
391.167	18505
391.247	18595
391.328	20666
391.408	21755
391.488	22542
391.568	21253
391.648	23569
391.728	25782
391.808	26891
391.888	28265
391.969	31241
392.049	34162
392.129	35856
392.209	38823
392.289	45128
392.369	45153
392.449	49103
392.529	53700
392.609	62723
392.689	74234
392.769	89477
392.849	109298
392.929	140877
393.009	193825
393.089	278547
393.169	447411
393.248	664724
393.328	755650
393.408	745709
393.488	621761
393.568	385743
393.648	236411
393.728	158952
393.807	112748
393.887	90156
393.967	72173
394.047	61249
394.127	51582
394.206	50499
394.286	78311
394.366	175547
394.446	159768
394.525	54520
394.605	35328
394.685	32116
394.764	38443
394.844	58144
394.924	63191
395.003	37768
395.083	28578
395.163	27167
395.242	26946
395.322	27036
395.402	26085
395.481	30020
395.561	39130
395.640	84358
395.720	133866
395.799	80972
395.879	45475
395.958	45069
396.038	89965
396.117	218588
396.197	214118
396.276	89292
396.356	74918
396.435	92985
396.515	125042
396.594	193025
396.673	344346
396.753	587006
396.832	712769
396.912	639557
396.991	379429
397.070	202189
397.150	123999
397.229	102553
397.308	143183
397.388	200182
397.467	113129
397.546	53339
397.625	37740
397.705	35564
397.784	29336
397.863	26554
397.942	25044
398.022	22830
398.101	23067
398.180	24840
398.259	20081
398.338	19128
398.417	17948
398.497	15545
398.576	15819
398.655	14028
398.734	15566
398.813	14133
398.892	15795
398.971	19361
399.050	14163
399.129	12626
399.208	12973
399.287	12327
399.366	11789
399.445	11926
399.524	11904
399.603	10585
399.682	12023
399.761	13709
399.840	17788
399.919	14383
399.998	11002
400.077	9804
400.156	9973
400.235	12355
400.313	9476
400.392	8051
400.471	12628
400.550	11807
400.629	8684
400.708	9470
400.786	8751
400.865	9216
400.944	8103
401.023	9583
401.102	8194
401.180	8180
401.259	8450
401.338	8075
401.416	8662
401.495	6678
401.574	8658
401.652	7765
401.731	8430
401.810	6003
401.888	8015
401.967	6904
402.046	7831
402.124	7659
402.203	6712
402.281	7872
402.360	7286
402.438	8173
402.517	6293
402.596	7405
402.674	6860
402.753	7077
402.831	8091
402.910	8230
402.988	9604
403.066	14268
403.145	12259
403.223	11621
403.302	14128
403.380	13284
403.459	12731
403.537	10148
403.615	10453
403.694	8881
403.772	10447
403.850	8855
403.929	8473
404.007	8200
404.085	10876
404.164	8870
404.242	9382
404.320	13914
404.398	19314
404.477	18517
404.555	29417
404.633	23989
404.711	15102
404.789	11242
404.868	8270
404.946	7386
405.024	7591
405.102	6856
405.180	6907
405.258	5173
405.336	7254
405.415	5805
405.493	7504
405.571	7393
405.649	6629
405.727	6506
405.805	9642
405.883	8464
405.961	8521
406.039	6889
406.117	6471
406.195	7498
406.273	9556
406.351	18756
406.429	12508
406.507	6866
406.585	5826
406.663	6487
406.740	6882
406.818	6171
406.896	5870
406.974	8011
407.052	7251
407.130	14185
407.208	15786
407.285	8994
407.363	6807
407.441	8045
407.519	7740
407.596	10358
407.674	29430
407.752	75528
407.830	49464
407.907	12520
407.985	7894
408.063	7434
408.141	6969
408.218	8237
408.296	6353
408.373	7992
408.451	9311
408.529	9418
408.606	9336
408.684	10098
408.762	11107
408.839	11218
408.917	12128
408.994	12976
409.072	14503
409.149	18600
409.227	26351
409.304	34416
409.382	41548
409.459	47051
409.537	55047
409.614	53073
409.692	48633
409.769	49247
409.846	59196
409.924	65232
410.001	55186
410.079	44700
410.156	35911
410.233	29038
410.311	25781
410.388	22358
410.465	20570
410.543	17613
410.620	17387
410.697	15158
410.775	13992
410.852	14059
410.929	15586
411.006	14364
411.083	13357
411.161	12605
411.238	13390
411.315	12306
411.392	11677
411.469	12245
411.547	10276
411.624	9140
411.701	9364
411.778	9551
411.855	9594
411.932	8325
412.009	7784
412.086	9260
412.163	8561
412.240	6781
412.317	8674
412.394	7735
412.471	7896
412.548	6671
412.625	7053
412.702	7703
412.779	7839
412.856	7160
412.933	6333
413.010	7380
413.087	7129
413.164	7082
413.241	7645
413.318	6812
413.395	7060
413.471	6306
413.548	6035
413.625	6560
413.702	4162
413.779	5635
413.855	6293
413.932	5266
414.009	6123
414.086	5869
414.162	6386
414.239	6072
414.316	7761
414.393	10284
414.469	5625
414.546	4620
414.623	5729
414.699	5348
414.776	5748
414.853	5238
414.929	5314
415.006	5750
415.082	5995
415.159	5288
415.236	6174
415.312	5807
415.389	5409
415.465	5043
415.542	5072
415.618	4983
415.695	5867
415.771	4925
415.848	5579
415.924	5534
416.000	5071
416.077	6031
416.153	5114
416.230	4306
416.306	4560
416.383	5332
416.459	5653
416.535	4934
416.612	5043
416.688	6077
416.764	5300
416.841	5273
416.917	5385
416.993	5643
417.069	5502
417.146	5304
417.222	5338
417.298	4577
417.374	4537
417.451	5824
417.527	4903
417.603	4280
417.679	5247
417.755	5595
417.831	4763
417.908	5310
417.984	6282
418.060	4431
418.136	6336
418.212	5415
418.288	5954
418.364	6495
418.440	5499
418.516	6447
418.592	5797
418.668	5848
418.744	6228
418.820	6280
418.896	5676
418.972	4418
419.048	6286
419.124	7513
419.200	6105
419.276	6790
419.352	6082
419.428	7093
419.504	7160
419.579	7312
419.655	8370
419.731	7763
419.807	8365
419.883	9308
419.959	8384
420.034	9172
420.110	9747
420.186	11498
420.262	11849
420.337	10628
420.413	10910
420.489	11154
420.565	13479
420.640	11497
420.716	14691
420.792	12970
420.867	15596
420.943	15023
421.019	17240
421.094	16921
421.170	18945
421.245	20993
421.321	22978
421.397	26034
421.472	41732
421.548	65133
421.623	49636
421.699	37812
421.774	42686
421.850	48299
421.925	57136
422.001	67834
422.076	81373
422.152	98852
422.227	127710
422.302	164948
422.378	216190
422.453	272730
422.529	285804
422.604	213021
422.679	148793
422.755	235106
422.830	313963
422.905	277296
422.981	216722
423.056	166316
423.131	130850
423.207	103030
423.282	83031
423.357	69099
423.432	58068
423.508	51780
423.583	44099
423.658	39419
423.733	36557
423.808	33651
423.883	32311
423.959	34664
424.034	35573
424.109	33095
424.184	26337
424.259	23132
424.334	20304
424.409	17127
424.484	17923
424.559	15322
424.634	14549
424.709	13774
424.784	14293
424.859	12521
424.934	11420
425.009	12796
425.084	14203
425.159	11014
425.234	10983
425.309	9284
425.384	10342
425.459	10283
425.534	9875
425.609	7672
425.683	8311
425.758	8543
425.833	8938
425.908	9128
425.983	8202
426.058	10707
426.132	8432
426.207	7067
426.282	8871
426.357	6892
426.431	7204
426.506	7201
426.581	6797
426.655	6802
426.730	6309
426.805	5737
426.879	6974
426.954	6448
427.029	6931
427.103	10235
427.178	14936
427.253	8281
427.327	6835
427.402	5709
427.476	7771
427.551	5746
427.625	6792
427.700	7338
427.774	6041
427.849	7398
427.923	7649
427.998	8845
428.072	12188
428.147	28435
428.221	95800
428.296	189359
428.370	101317
428.444	23175
428.519	12295
428.593	11620
428.667	11961
428.742	17416
428.816	46435
428.890	139053
428.965	161145
429.039	48704
429.113	14813
429.188	8906
429.262	7718
429.336	8076
429.410	8958
429.485	8997
429.559	10374
429.633	11279
429.707	15455
429.781	41595
429.855	131258
429.930	147780
430.004	55409
430.078	50940
430.152	124715
430.226	257072
430.300	222065
430.374	73070
430.448	28272
430.522	21219
430.596	26608
430.670	64442
430.744	163501
430.818	142800
430.892	35281
430.966	11912
431.040	9179
431.114	6556
431.188	6539
431.262	5674
431.336	6129
431.410	6578
431.484	6432
431.557	8022
431.631	11127
431.705	23201
431.779	81300
431.853	185298
431.927	113584
432.000	25356
432.074	9567
432.148	5571
432.222	5353
432.295	4657
432.369	3209
432.443	4301
432.516	8146
432.590	12420
432.664	5544
432.737	3470
432.811	2604
432.885	1962
432.958	3766
433.032	2840
433.106	3173
433.179	3550
433.253	2992
433.326	2856
433.400	2895
433.473	3496
433.547	2782
433.620	3935
433.694	3766
433.767	4342
433.841	4014
433.914	3919
433.988	4209
434.061	3781
434.134	3376
434.208	4452
434.281	3426
434.355	3583
434.428	4123
434.501	3771
434.575	3813
434.648	4153
434.721	3660
434.795	3381
434.868	4377
434.941	4884
435.014	4410
435.088	5333
435.161	6243
435.234	7525
435.307	8657
435.381	10821
435.454	16228
435.527	22382
435.600	25058
435.673	24264
435.746	20494
435.819	16834
435.892	13580
435.966	11012
436.039	9274
436.112	9034
436.185	7081
436.258	5711
436.331	6516
436.404	5795
436.477	4839
436.550	5623
436.623	4300
436.696	4431
436.769	3860
436.842	4200
436.915	3891
436.987	3399
437.060	3528
437.133	2770
437.206	2864
437.279	3795
437.352	2525
437.425	2319
437.498	3319
437.570	3075
437.643	2693
437.716	2933
437.789	2620
437.861	3184
437.934	2443
438.007	2205
438.080	1577
438.152	2592
438.225	3208
438.298	10753
438.370	18828
438.443	8011
438.516	3205
438.588	2788
438.661	1535
438.734	2026
438.806	3020
438.879	2698
438.951	2566
439.024	2470
439.096	2047
439.169	2621
439.241	2275
439.314	2513
439.386	2616
439.459	3588
439.531	2691
439.604	2420
439.676	3176
439.749	1546
439.821	2058
439.893	2479
439.966	1417
440.038	2574
440.110	2485
440.183	2257
440.255	2889
440.327	3536
440.400	4617
440.472	10264
440.544	6085
440.617	3009
440.689	3742
440.761	2870
440.833	2714
440.905	2831
440.978	2600
441.050	2792
441.122	3657
441.194	2069
441.266	3415
441.338	2840
441.411	3919
441.483	5060
441.555	5430
441.627	4693
441.699	4075
441.771	4201
441.843	4288
441.915	4748
441.987	5143
442.059	5920
442.131	8396
442.203	10135
442.275	14581
442.347	26588
442.419	66270
442.491	187760
442.563	269117
442.635	122421
442.706	36851
442.778	18890
442.850	14298
442.922	13416
442.994	13979
443.066	15562
443.137	20249
443.209	27649
443.281	46228
443.353	96500
443.425	224422
443.496	377298
443.568	372867
443.640	189541
443.711	64743
443.783	31227
443.855	20158
443.926	14423
443.998	11182
444.070	10134
444.141	9144
444.213	8206
444.285	8154
444.356	7796
444.428	7424
444.499	7154
444.571	8428
444.642	7709
444.714	9434
444.785	9301
444.857	11565
444.928	13578
445.000	16656
445.071	21623
445.143	30154
445.214	47168
445.285	80544
445.357	169941
445.428	319102
445.500	405211
445.571	388048
445.642	270457
445.714	114512
445.785	46523
445.856	26663
445.928	18391
445.999	13853
446.070	11209
446.141	9233
446.213	7922
446.284	6105
446.355	5932
446.426	5107
446.497	4545
446.569	5006
446.640	3307
446.711	4205
446.782	3489
446.853	3918
446.924	2648
446.995	2497
447.066	2622
447.138	2332
447.209	2424
447.280	1666
447.351	1464
447.422	1733
447.493	1748
447.564	2133
447.635	953
447.706	679
447.777	1620
447.847	1609
447.918	686
447.989	2024
448.060	1971
448.131	2007
448.202	1193
448.273	1771
448.344	1870
448.414	1576
448.485	1030
448.556	2063
448.627	1075
448.698	2273
448.768	1064
448.839	601
448.910	763
448.981	1558
449.051	1211
449.122	1044
449.193	1561
449.263	1822
449.334	1758
449.405	1329
449.475	1002
449.546	2335
449.616	2475
449.687	2438
449.758	1342
449.828	1977
449.899	1074
449.969	1028
450.040	880
450.110	1520
450.181	1356
450.251	1326
450.322	1458
450.392	1431
450.463	1359
450.533	1779
450.604	1419
450.674	1368
450.744	3028
450.815	2652
450.885	3071
450.955	3599
451.026	3349
451.096	2660
451.166	2389
451.237	5041
451.307	5318
451.377	3993
451.447	2367
451.518	2745
451.588	1654
451.658	2223
451.728	1833
451.799	2489
451.869	2359
451.939	1932
452.009	1756
452.079	1838
452.149	2921
452.219	2666
452.289	3628
452.360	3468
452.430	4486
452.500	7160
452.570	11552
452.640	25672
452.710	49189
452.780	53097
452.850	32833
452.920	18521
452.990	11109
453.060	8368
453.129	4292
453.199	3889
453.269	5441
453.339	5393
453.409	5351
453.479	6472
453.549	7046
453.619	5786
453.688	2458
453.758	1859
453.828	1411
453.898	534
453.968	1397
454.037	543
454.087	830
454.107	934
454.168	795
454.177	759
454.247	826
454.249	835
454.316	653
454.330	687
454.386	771
454.411	847
454.456	865
454.492	1264
454.525	1640
454.574	1442
454.595	1323
454.655	620
454.665	494
454.734	970
454.736	1011
454.804	1868
454.817	1891
454.873	1826
454.898	1968
454.943	2192
454.979	1382
455.013	658
455.060	825
455.082	894
455.141	1282
455.152	1353
455.221	2639
455.222	2656
455.291	2016
455.303	2520
455.360	4605
455.384	5812
455.430	7690
455.465	5341
455.499	3161
455.546	2348
455.569	1929
455.627	1664
455.638	1658
455.707	1429
455.708	1444
455.777	867
455.789	943
455.846	1337
455.869	1233
455.916	946
455.950	1196
455.985	1387
456.031	1074
456.054	985
456.112	1697
456.124	1814
456.193	2080
456.193	2064
456.262	1647
456.274	1729
456.332	2147
456.355	2249
456.401	2381
456.436	1817
456.470	1167
456.516	1933
456.540	2309
456.597	1813
456.609	1743
456.678	2185
456.678	2170
456.747	2041
456.759	1955
456.817	1825
456.840	1968
456.886	2190
456.920	2571
456.955	2930
457.001	2787
457.024	2672
457.082	2936
457.093	2943
457.162	2491
457.163	2510
457.232	3643
457.243	3710
457.301	4258
457.324	4166
457.370	3805
457.405	4241
457.439	4779
457.485	5626
457.508	6140
457.566	7568
457.577	8291
457.646	14176
457.647	14284
457.715	29949
457.727	34087
457.784	55245
457.808	72506
457.853	95715
457.889	108840
457.922	111973
457.969	82623
457.991	79395
458.050	89506
458.060	91472
458.129	149889
458.130	151366
458.198	156767
458.211	142884
458.267	86068
458.292	64554
458.336	45061
458.372	42226
458.405	52031
458.453	75315
458.474	88047
458.533	143258
458.543	147659
458.611	222619
458.614	223082
458.680	153483
458.694	128293
458.749	64668
458.775	47174
458.818	28266
458.855	21370
458.887	16958
458.936	13434
458.955	12272
459.016	9524
459.024	9277
459.093	8013
459.097	7983
459.162	7069
459.177	6859
459.230	6126
459.257	6036
459.299	5937
459.338	5372
459.368	4973
459.418	4856
459.437	4750
459.499	4591
459.505	4627
459.574	5195
459.579	5214
459.643	4615
459.659	4414
459.711	4461
459.740	4587
459.780	4388
459.820	4548
459.849	4642
459.900	4199
459.917	4038
459.981	4341
459.986	4354
460.054	3562
460.061	3604
460.123	4246
460.141	4368
460.191	4787
460.222	4693
460.260	4272
460.302	4157
460.328	4275
460.382	4425
460.397	4535
460.462	5366
460.465	5595
460.534	10958
460.543	11668
460.602	23984
460.623	29407
460.671	42277
460.703	55877
460.739	51518
460.783	34813
460.808	29231
460.864	9186
460.876	6840
460.944	4617
460.945	4593
461.013	4126
461.024	4139
461.081	4301
461.104	4295
461.150	4333
461.184	4307
461.218	4179
461.264	4218
461.286	4325
461.345	4295
461.355	4269
461.423	4597
461.425	4603
461.491	4112
461.505	3953
461.559	4215
461.585	4532
461.628	4858
461.665	4991
461.696	5217
461.745	5651
461.764	5377
461.825	4272
461.832	4294
461.901	4725
461.905	4755
461.969	3691
461.985	3299
462.037	4007
462.065	4644
462.105	4248
462.145	3999
462.173	4485
462.225	4893
462.241	4932
462.305	5495
462.310	5477
462.378	4694
462.385	4677
462.446	4688
462.465	4641
462.514	4830
462.545	4793
462.582	4517
462.625	4205
462.650	3997
462.705	3631
462.718	3706
462.785	4231
462.786	4233
462.854	3998
462.865	3978
462.922	4393
462.945	4604
462.990	4654
463.025	4508
463.058	4529
463.104	4629
463.126	4460
463.184	4134
463.194	4152
463.262	3823
463.264	3825
463.330	3832
463.344	3815
463.398	4452
463.424	4643
463.466	4060
463.504	3849
463.533	4222
463.583	4310
463.601	4184
463.663	4074
463.669	4096
463.737	4210
463.743	4200
463.805	4717
463.823	4977
463.873	6089
463.903	6679
463.940	6236
463.982	5674
464.008	5439
464.062	4894
464.076	4688
464.142	3592
464.144	3627
464.211	4979
464.221	5134
464.279	4840
464.301	4775
464.347	4846
464.381	4923
464.414	4897
464.461	4829
464.482	4995
464.540	5175
464.550	5075
464.617	4395
464.620	4371
464.685	4799
464.699	4870
464.753	4876
464.779	4872
464.820	4821
464.859	4726
464.888	4637
464.938	4451
464.956	4709
465.018	5718
465.023	5629
465.091	4235
465.098	4078
465.158	4919
465.177	5228
465.226	5314
465.257	5307
465.293	5101
465.336	4810
465.361	5035
465.416	5618
465.428	5542
465.495	4985
465.496	5000
465.563	5933
465.575	6095
465.631	6883
465.654	7211
465.698	6048
465.734	5100
465.765	5293
465.813	5392
465.833	5361
465.893	5364
465.900	5360
465.968	5248
465.972	5229
466.035	5059
466.052	5000
466.102	4934
466.131	4865
466.170	4762
466.210	4657
466.237	5116
466.290	6010
466.304	5900
466.369	5285
466.372	5313
466.439	5872
466.449	5946
466.506	6210
466.528	6249
466.573	6653
466.607	7013
466.641	7560
466.687	8206
466.708	8240
466.766	8345
466.775	8144
466.842	6468
466.845	6378
466.909	6173
466.925	6096
466.977	6481
467.004	6671
467.044	6721
467.083	6768
467.111	6776
467.163	6745
467.178	6908
467.242	7506
467.245	7503
467.312	7161
467.321	7104
467.379	7715
467.400	7913
467.446	7819
467.480	7724
467.559	8481
467.638	7828
467.717	8569
467.796	8954
467.875	9451
467.955	9775
468.034	12652
468.113	15960
468.192	19910
468.271	22829
468.350	29969
468.429	36182
468.508	36877
468.588	23296
468.667	16075
468.746	12107
468.825	11387
468.904	9904
468.983	9766
469.062	9030
469.141	8840
469.220	7332
469.299	7555
469.378	7317
469.456	8576
469.535	8186
469.614	6898
469.693	6797
469.772	8291
469.851	7862
469.930	6904
470.009	7388
470.088	7958
470.166	8721
470.245	9159
470.324	10448
470.403	9024
470.482	8493
470.560	7526
470.639	8162
470.718	6986
470.797	7298
470.875	7243
470.954	6147
471.033	7578
471.111	6934
471.190	6089
471.269	5738
471.347	6314
471.426	6298
471.505	6332
471.583	7069
471.662	7066
471.740	5548
471.819	6493
471.898	6464
471.976	6870
472.055	6317
472.133	7840
472.212	8639
472.290	7319
472.369	6003
472.447	6266
472.526	6119
472.604	6860
472.683	6866
472.761	6163
472.839	6392
472.918	7559
472.996	6699
473.075	7643
473.153	7372
473.231	7441
473.310	7278
473.388	7017
473.466	7497
473.545	7299
473.623	6819
473.701	7733
473.780	7637
473.858	6319
473.936	8492
474.014	8017
474.093	8194
474.171	9060
474.249	9017
474.327	7646
474.405	6841
474.484	7829
474.562	6953
474.640	7250
474.718	6863
474.796	7156
474.874	6658
474.952	6647
475.030	6670
475.108	6848
475.187	6569
475.265	7860
475.343	8105
475.421	6833
475.499	6043
475.577	7209
475.655	7936
475.733	8443
475.811	8030
475.889	8853
475.966	7855
476.044	7281
476.122	6288
476.200	6695
476.278	5860
476.356	6530
476.434	6819
476.512	7528
476.590	7069
476.667	7371
476.745	6313
476.823	6743
476.901	6357
476.979	6055
477.056	6796
477.134	6589
477.212	6170
477.290	6759
477.367	5834
477.445	6255
477.523	5838
477.601	6442
477.678	5967
477.756	7050
477.834	5580
477.911	6625
477.989	5988
478.066	6553
478.144	6543
478.222	6973
478.299	7532
478.377	8205
478.454	8054
478.532	6897
478.609	6469
478.687	6663
478.764	6532
478.842	5723
478.919	5520
478.997	6362
479.074	6590
479.152	5570
479.229	7078
479.307	5929
479.384	6489
479.461	6193
479.539	6401
479.616	7041
479.694	6397
479.771	6514
479.848	6675
479.926	6486
480.003	7744
480.080	6847
480.157	6834
480.235	7618
480.312	7557
480.389	7366
480.467	8306
480.544	9203
480.621	8942
480.698	9059
480.775	8746
480.853	8143
480.930	8331
481.007	8972
481.084	11560
481.161	13804
481.238	8955
481.315	8623
481.392	7901
481.470	9060
481.547	8133
481.624	8448
481.701	8419
481.778	10225
481.855	9877
481.932	11413
482.009	12627
482.086	14081
482.163	14291
482.240	16287
482.317	15517
482.393	13222
482.470	12780
482.547	13284
482.624	12541
482.701	12581
482.778	11374
482.855	11346
482.932	12388
483.009	12936
483.085	16762
483.162	19136
483.239	19039
483.316	15940
483.393	16664
483.469	15481
483.546	13560
483.623	12133
483.699	11345
483.776	10515
483.853	10233
483.930	10697
484.006	11283
484.083	15242
484.160	12302
484.236	14318
484.313	13514
484.389	14230
484.466	16985
484.543	19828
484.619	23840
484.696	23607
484.772	16531
484.849	14213
484.925	11714
485.002	12019
485.078	10723
485.155	10127
485.231	9015
485.308	9176
485.384	9365
485.461	10442
485.537	10499
485.614	11571
485.690	9205
485.766	9108
485.843	8920
485.919	8646
485.995	8871
486.072	8845
486.148	7508
486.224	8711
486.301	9207
486.377	9077
486.453	9208
486.530	10012
486.606	10466
486.682	10453
486.758	11909
486.835	13610
486.911	12769
486.987	15558
487.063	16429
487.139	19828
487.215	22420
487.292	25193
487.368	26238
487.444	34476
487.520	47798
487.596	81256
487.672	206482
487.748	512720
487.824	712577
487.900	315115
487.976	105797
488.052	53748
488.128	36496
488.204	25066
488.280	22184
488.356	17314
488.432	17346
488.508	17717
488.584	12001
488.660	12612
488.736	10824
488.812	9668
488.888	11557
488.964	10021
489.039	12163
489.115	14321
489.191	13562
489.267	10333
489.343	9321
489.418	9049
489.494	9498
489.570	8056
489.646	10344
489.722	9040
489.797	9624
489.873	10440
489.949	12255
490.024	10819
490.100	9547
490.176	9236
490.251	8374
490.327	9567
490.403	8844
490.478	9530
490.554	8958
490.629	9330
490.705	8512
490.781	9403
490.856	9114
490.932	9287
491.007	8223
491.083	7346
491.158	7382
491.234	8900
491.309	11148
491.385	8795
491.460	6905
491.536	8651
491.611	7638
491.686	7902
491.762	7846
491.837	8840
491.913	10488
491.988	12481
492.063	11987
492.139	8757
492.214	7316
492.289	7151
492.365	6283
492.440	7688
492.515	6493
492.590	6276
492.666	5983
492.741	6687
492.816	7230
492.891	6552
492.967	7375
493.042	7608
493.117	6408
493.192	7286
493.267	9424
493.342	18046
493.418	19392
493.493	7391
493.568	5939
493.643	6486
493.718	6298
493.793	7314
493.868	6234
493.943	6485
494.018	6611
494.093	5143
494.168	6573
494.243	5648
494.318	6846
494.393	6829
494.468	5943
494.543	6430
494.618	5993
494.693	5507
494.768	5857
494.842	6932
494.917	5929
494.992	6195
495.067	5779
495.142	5330
495.217	6384
495.292	5925
495.366	6304
495.441	6110
495.516	6927
495.591	7872
495.665	12156
495.740	17284
495.815	9449
495.890	6074
495.964	5146
496.039	8895
496.114	8306
496.188	12417
496.263	10195
496.338	5613
496.412	5254
496.487	6478
496.561	7007
496.636	6559
496.710	7206
496.785	6990
496.860	6598
496.934	6215
497.009	6495
497.083	6345
497.158	6033
497.232	6431
497.307	7641
497.381	6234
497.455	6586
497.530	7567
497.604	7183
497.679	6757
497.753	7637
497.827	7372
497.902	7333
497.976	9742
498.050	15064
498.125	35690
498.199	29151
498.273	8856
498.348	7167
498.422	8194
498.496	7584
498.570	8526
498.645	7876
498.719	7038
498.793	7585
498.867	8393
498.941	9505
499.016	19340
499.090	32380
499.164	13725
499.238	7094
499.312	7580
499.386	7797
499.460	7848
499.534	7567
499.609	8020
499.683	8677
499.757	9342
499.831	12274
499.905	26069
499.979	20388
500.053	8094
500.127	7335
500.201	7186
500.275	8167
500.349	7163
500.422	7056
500.496	8196
500.570	11124
500.644	18990
500.718	23758
500.792	9505
500.866	8341
500.940	8313
501.013	8411
501.087	8223
501.161	9522
501.235	8644
501.309	15876
501.382	24022
501.456	19865
501.530	9095
501.603	10491
501.677	8007
501.751	5789
501.825	9165
501.898	9370
501.972	13669
502.046	10129
502.119	6848
502.193	10264
502.266	11825
502.340	9023
502.413	9438
502.487	11850
502.561	9820
502.634	8639
502.708	8869
502.781	7116
502.855	9062
502.928	7594
503.002	8243
503.075	6916
503.149	9090
503.222	8674
503.295	9429
503.369	11805
503.442	10603
503.516	19026
503.589	26633
503.662	23919
503.736	23769
503.809	32744
503.882	40057
503.956	67392
504.029	138275
504.102	317706
504.175	416746
504.249	202672
504.322	86666
504.395	47783
504.468	32432
504.542	21450
504.615	16844
504.688	14279
504.761	11325
504.834	11708
504.907	10480
504.980	9896
505.053	7930
505.127	5624
505.200	10863
505.273	7895
505.346	7366
505.419	7404
505.492	8233
505.565	6722
505.638	7212
505.711	5586
505.784	5599
505.857	5476
505.930	7853
506.003	5090
506.076	7599
506.149	5877
506.221	4546
506.294	6366
506.367	7200
506.440	12549
506.513	9082
506.586	5892
506.659	5683
506.731	5407
506.804	4906
506.877	4630
506.950	4667
507.022	5622
507.095	3873
507.168	5875
507.241	6069
507.313	4806
507.386	4342
507.459	5417
507.531	4100
507.604	3388
507.677	5294
507.749	3755
507.822	6857
507.894	5200
507.967	6764
508.040	4744
508.112	5457
508.185	5169
508.257	3713
508.330	7076
508.402	4825
508.475	4024
508.547	5385
508.620	5989
508.692	5866
508.765	5535
508.837	4744
508.909	5268
508.982	5060
509.054	5715
509.127	4697
509.199	4641
509.271	4866
509.344	4310
509.416	5104
509.488	4243
509.560	5404
509.633	5002
509.705	5110
509.777	4960
509.849	5636
509.922	3852
509.994	4143
510.066	6112
510.138	2874
510.210	8561
510.283	5005
510.355	5983
510.427	5698
510.499	5111
510.571	5700
510.643	5146
510.715	5686
510.787	3650
510.859	5554
510.931	3836
511.003	6160
511.076	5574
511.148	4097
511.219	4789
511.291	6178
511.363	5213
511.435	5329
511.507	4095
511.579	6242
511.651	5949
511.723	5297
511.795	4439
511.867	4680
511.939	4674
512.010	5620
512.082	6283
512.154	4446
512.226	5033
512.298	6762
512.369	5139
512.441	5929
512.513	5931
512.585	4119
512.656	5783
512.728	5792
512.800	5310
512.871	5541
512.943	6023
513.015	4099
513.086	5262
513.158	5378
513.230	4261
513.301	4807
513.373	5588
513.444	5134
513.516	5620
513.588	5090
513.659	5346
513.731	5613
513.802	4630
513.874	7872
513.945	6144
514.016	5535
514.088	6072
514.159	4275
514.231	6313
514.302	5688
514.374	5442
514.445	4819
514.516	7756
514.588	6076
514.659	5342
514.730	5490
514.802	7037
514.873	3770
514.944	7651
515.016	6566
515.087	5184
515.158	6205
515.229	6863
515.301	4994
515.372	7195
515.443	5467
515.514	5872
515.585	4732
515.656	7285
515.728	6822
515.799	4757
515.870	6331
515.941	7072
516.012	5285
516.083	8283
516.154	6157
516.225	7660
516.296	9009
516.367	7906
516.438	7869
516.509	9588
516.580	13372
516.651	40993
516.722	95945
516.793	41304
516.864	12165
516.935	10653
517.006	13531
517.077	16521
517.148	41388
517.219	154861
517.289	202711
517.360	37306
517.431	15463
517.502	9453
517.573	11055
517.643	9885
517.714	10796
517.785	12410
517.856	12833
517.926	16140
517.997	18304
518.068	19184
518.138	27647
518.209	41521
518.280	136074
518.350	353751
518.421	149707
518.492	50799
518.562	57674
518.633	82157
518.703	137056
518.774	301117
518.845	588635
518.915	497961
518.986	187453
519.056	85425
519.127	53728
519.197	39357
519.268	35688
519.338	25766
519.408	18177
519.479	15341
519.549	13179
519.620	13194
519.690	12056
519.760	11102
519.831	10593
519.901	8629
519.971	9023
520.042	9054
520.112	7650
520.182	8725
520.253	8570
520.323	6846
520.393	7645
520.463	10700
520.534	6115
520.604	12519
520.674	9020
520.744	7279
520.814	10914
520.885	10415
520.955	10621
521.025	16436
521.095	8722
521.165	7602
521.235	6626
521.305	5576
521.375	6906
521.445	8446
521.515	5998
521.585	8376
521.655	5220
521.725	7427
521.795	8487
521.865	5181
521.935	9181
522.005	5325
522.075	6944
522.145	7697
522.215	6663
522.285	7925
522.355	8912
522.424	9306
522.494	8967
522.564	8097
522.634	7808
522.704	12638
522.774	7083
522.843	7665
522.913	8085
522.983	7321
523.053	6745
523.122	7049
523.192	7277
523.262	9662
523.331	7788
523.401	7474
523.471	7401
523.540	7865
523.610	7862
523.680	8459
523.749	8859
523.819	9796
523.888	9528
523.958	9090
524.027	7937
524.097	8510
524.166	8815
524.236	7092
524.305	10335
524.375	6694
524.444	7556
524.514	9941
524.583	8117
524.653	8235
524.722	10709
524.791	9048
524.861	11052
524.930	8982
524.999	9464
525.069	11686
525.138	10787
525.207	11759
525.277	12867
525.346	14311
525.415	16132
525.484	18146
525.554	20658
525.623	25759
525.692	32170
525.761	36064
525.830	43606
525.900	60362
525.969	103155
526.038	204355
526.107	446062
526.176	990346
526.245	714075
526.314	279486
526.383	560960
526.452	697062
526.522	891045
526.591	699135
526.660	172250
526.729	96516
526.797	101880
526.867	165361
526.935	469678
527.004	1105570
527.073	684172
527.142	159568
527.211	67649
527.280	42785
527.349	32790
527.418	23269
527.487	20820
527.555	16560
527.624	14859
527.693	12680
527.762	14821
527.831	11611
527.899	12951
527.968	10790
528.037	9428
528.106	11112
528.174	10665
528.243	9134
528.312	11374
528.380	9968
528.449	9047
528.518	10209
528.586	8226
528.655	11019
528.723	9536
528.792	7862
528.861	7637
528.929	7433
528.998	10124
529.066	9111
529.135	13495
529.203	12319
529.272	14410
529.340	16491
529.409	15940
529.477	13188
529.545	13086
529.614	16582
529.682	16098
529.751	17241
529.819	22053
529.887	20918
529.956	19294
530.024	18684
530.092	16427
530.161	17361
530.229	18340
530.297	17937
530.365	18821
530.434	19730
530.502	18693
530.570	17623
530.638	15659
530.707	15806
530.775	17182
530.843	15899
530.911	17764
530.979	17565
531.047	20292
531.115	18983
531.183	18429
531.252	18290
531.320	17138
531.388	15943
531.456	18252
531.524	18058
531.592	21382
531.660	22238
531.728	19567
531.796	17723
531.864	18479
531.932	19365
532.000	17947
532.067	20527
532.135	21322
532.203	23880
532.271	23370
532.339	23985
532.407	24183
532.475	22350
532.542	21410
532.610	21694
532.678	22293
532.746	29087
532.814	34820
532.881	25883
532.949	23211
533.017	21405
533.084	20404
533.152	20937
533.220	20576
533.287	20436
533.355	21362
533.423	22883
533.490	22437
533.558	21919
533.625	21322
533.693	19880
533.761	21336
533.828	20792
533.896	19820
533.963	24063
534.031	23878
534.098	26960
534.166	27898
534.233	26722
534.300	29693
534.368	28597
534.435	28671
534.503	30486
534.570	33502
534.637	36439
534.705	42444
534.772	56431
534.840	131578
534.907	496602
534.974	477218
535.041	81166
535.109	37824
535.176	28162
535.243	27850
535.310	25459
535.378	24057
535.445	24604
535.512	23741
535.579	22955
535.646	21860
535.714	23157
535.781	24310
535.848	25148
535.915	23790
535.982	23246
536.049	23442
536.116	24115
536.183	21301
536.250	20768
536.317	21080
536.384	22117
536.451	23158
536.518	22691
536.585	20473
536.652	23727
536.719	23611
536.786	19818
536.853	20294
536.920	23355
536.987	21873
537.053	21209
537.120	27699
537.187	27091
537.254	23542
537.321	22145
537.388	24108
537.454	22283
537.521	21033
537.588	21466
537.654	23262
537.721	23143
537.788	23572
537.855	22275
537.921	22319
537.988	21928
538.055	21857
538.121	19356
538.188	18829
538.254	20410
538.321	20820
538.388	21933
538.454	22960
538.521	24398
538.587	24303
538.654	22331
538.720	21386
538.787	21347
538.853	22544
538.920	20788
538.986	19617
539.053	18539
539.119	20598
539.185	20325
539.252	22059
539.318	21616
539.385	24869
539.451	21141
539.517	22229
539.583	21872
539.650	23038
539.716	24318
539.782	20963
539.849	19629
539.915	21777
539.981	20741
540.047	19931
540.114	20256
540.180	22599
540.246	21545
540.312	23292
540.378	23089
540.444	22241
540.510	24006
540.576	25935
540.643	21049
540.709	20985
540.775	20791
540.841	20429
540.907	20131
540.973	22080
541.039	20514
541.105	21920
541.171	22402
541.237	22274
541.303	22584
541.369	24894
541.435	23191
541.500	21791
541.566	18954
541.632	20119
541.698	20651
541.764	23017
541.830	21473
541.896	20295
541.961	21949
542.027	19801
542.093	23615
542.159	23926
542.224	20467
542.290	22381
542.356	20705
542.421	22140
542.487	20086
542.553	20852
542.618	21457
542.684	20427
542.750	20555
542.815	22265
542.881	21436
542.947	25772
543.012	24035
543.078	20829
543.143	20141
543.209	21280
543.274	19559
543.340	21439
543.405	22755
543.471	22291
543.536	21951
543.602	22388
543.667	20757
543.732	22855
543.798	20966
543.863	22462
543.928	21550
543.994	22032
544.059	21402
544.124	23782
544.190	22412
544.255	24051
544.320	23250
544.386	23234
544.451	24871
544.516	23220
544.581	23578
544.646	25946
544.712	27791
544.777	24771
544.842	25044
544.907	24825
544.972	25559
545.037	25634
545.102	27027
545.168	27057
545.233	26257
545.298	27646
545.363	27436
545.428	29371
545.493	30841
545.558	31549
545.623	28625
545.688	29278
545.753	30863
545.818	30829
545.883	33459
545.947	33687
546.012	35565
546.077	35656
546.142	38006
546.207	37990
546.272	41609
546.337	40979
546.401	43341
546.466	45151
546.531	45855
546.596	50471
546.661	50676
546.725	55238
546.790	56790
546.855	62771
546.919	67294
546.984	76884
547.049	81777
547.113	92184
547.178	101961
547.243	115067
547.307	133236
547.372	145761
547.436	143871
547.501	154318
547.565	160764
547.630	149350
547.695	143630
547.759	145788
547.823	148964
547.888	151701
547.952	154691
548.017	162797
548.081	166766
548.146	161570
548.210	167140
548.274	179786
548.339	173315
548.403	158039
548.468	150503
548.532	151209
548.596	153310
548.660	155545
548.725	169513
548.789	183113
548.853	174639
548.917	166889
548.982	161752
549.046	147348
549.110	134325
549.174	140899
549.238	164451
549.303	177454
549.367	180056
549.431	169538
549.495	161670
549.559	164586
549.623	190352
549.687	200863
549.751	200798
549.815	237760
549.879	234492
549.943	227531
550.007	240142
550.071	234057
550.135	212865
550.199	206114
550.263	203583
550.327	193397
550.391	199698
550.455	219454
550.519	232801
550.582	248104
550.646	277222
550.710	274870
550.774	275366
550.838	281940
550.901	292477
550.965	313539
551.029	327635
551.093	364060
551.156	407369
551.220	462801
551.284	466280
551.347	369436
551.411	317819
551.475	297274
551.538	297825
551.602	275251
551.666	260633
551.729	245181
551.793	241297
551.856	238484
551.920	231399
551.983	232891
552.047	229935
552.110	235016
552.174	237379
552.237	238671
552.301	223508
552.364	214958
552.428	208330
552.491	217050
552.554	218593
552.618	218881
552.681	220079
552.745	212252
552.808	223519
552.871	232269
552.934	226066
552.998	219239
553.061	213924
553.124	206779
553.187	206681
553.251	214828
553.314	214211
553.377	217855
553.440	232092
553.503	242118
553.567	242383
553.630	231339
553.693	230485
553.756	231714
553.819	224608
553.882	218387
553.945	219860
554.008	219608
554.071	223762
554.134	222898
554.197	211339
554.260	207377
554.323	211211
554.386	215113
554.449	224100
554.512	221366
554.575	215367
554.638	213771
554.701	213217
554.764	211345
554.827	202395
554.889	197172
554.952	187237
555.015	186042
555.078	187292
555.141	189360
555.203	185326
555.266	184513
555.329	181175
555.391	178623
555.454	174916
555.517	169277
555.580	165842
555.642	160666
555.705	157492
555.768	155079
555.830	151386
555.893	144424
555.955	140327
556.018	137702
556.080	139048
556.143	144143
556.206	141107
556.268	137086
556.330	135123
556.393	131314
556.455	127749
556.518	126852
556.580	122009
556.643	118332
556.705	116462
556.767	114004
556.830	112132
556.892	112215
556.955	110300
557.017	107133
557.079	105832
557.142	103546
557.204	103055
557.266	107231
557.328	97797
557.391	90717
557.453	91679
557.515	89361
557.577	91128
557.639	91937
557.701	92161
557.764	90828
557.826	94168
557.888	96730
557.950	101870
558.012	114138
558.074	159183
558.136	377910
558.198	666671
558.260	238718
558.322	113949
558.384	108228
558.446	109692
558.508	118459
558.570	131557
558.632	152612
558.694	207812
558.756	378337
558.818	915405
558.880	1300557
558.942	756238
559.003	758705
559.065	343009
559.127	156295
559.189	143596
559.251	157764
559.312	241117
559.374	565109
559.436	1101944
559.498	563303
559.559	191896
559.621	146750
559.683	166874
559.744	288442
559.806	762955
559.868	821935
559.929	250136
559.991	172073
560.052	306922
560.114	685667
560.176	408040
560.237	469190
560.299	567090
560.360	140981
560.422	64855
560.483	54608
560.545	50918
560.606	46896
560.667	44445
560.729	41784
560.790	40099
560.852	39513
560.913	38674
560.974	35621
561.036	35732
561.097	36075
561.158	34028
561.220	35318
561.281	32097
561.342	32701
561.403	33164
561.465	31106
561.526	33154
561.587	32849
561.648	30056
561.709	29970
561.771	29570
561.832	28159
561.893	29068
561.954	27508
562.015	27350
562.076	28339
562.137	27194
562.198	26463
562.259	26905
562.320	27905
562.381	27554
562.442	27900
562.503	26492
562.564	26093
562.625	25075
562.686	25352
562.747	24525
562.808	25306
562.869	23870
562.930	24086
562.991	24445
563.051	24109
563.112	23312
563.173	24114
563.234	22297
563.294	23427
563.355	21438
563.416	22306
563.477	23005
563.537	21828
563.598	22137
563.659	21368
563.720	21770
563.780	22184
563.841	22022
563.901	22726
563.962	22572
564.023	20251
564.083	21163
564.144	20180
564.204	21377
564.265	20588
564.325	20090
564.386	22168
564.446	20187
564.507	19540
564.567	19257
564.628	20276
564.688	19145
564.749	18676
564.809	20231
564.869	19611
564.930	18614
564.990	20004
565.050	18967
565.111	19342
565.171	19009
565.231	18671
565.292	19869
565.352	18344
565.412	19328
565.472	18843
565.532	19181
565.593	18774
565.653	19031
565.713	18098
565.773	18996
565.833	19321
565.893	20202
565.953	18190
566.013	17288
566.074	17956
566.134	17726
566.194	18237
566.254	18591
566.314	18020
566.374	17029
566.434	18337
566.494	16566
566.554	18503
566.614	18234
566.673	18798
566.733	18552
566.793	19247
566.853	18500
566.913	18393
566.973	18063
567.033	17546
567.092	17847
567.152	18741
567.212	17957
567.272	19277
567.331	19438
567.391	18899
567.451	19637
567.511	20332
567.570	20794
567.630	20005
567.690	18391
567.749	18153
567.809	19349
567.868	18463
567.928	18658
567.988	18343
568.047	19360
568.107	20032
568.166	20053
568.226	22216
568.285	23723
568.345	22897
568.404	21981
568.464	21373
568.523	20568
568.582	20711
568.642	21628
568.701	21663
568.761	22949
568.820	26011
568.879	25092
568.939	24879
568.998	22246
569.057	21684
569.116	20365
569.176	21201
569.235	20410
569.294	19433
569.353	17732
569.413	18147
569.472	17455
569.531	17177
569.590	16972
569.649	17871
569.708	17062
569.767	17895
569.827	18510
569.886	17273
569.945	16392
570.004	17864
570.063	17125
570.122	18196
570.181	17822
570.240	18263
570.299	18980
570.358	18233
570.417	17963
570.475	18948
570.534	18875
570.593	18485
570.652	17430
570.711	18098
570.770	17163
570.829	18076
570.887	17670
570.946	19383
571.005	18204
571.064	18486
571.122	18504
571.181	19228
571.240	18020
571.299	17027
571.357	17179
571.416	17547
571.475	18215
571.533	19663
571.592	20153
571.650	19416
571.709	21123
571.768	25069
571.826	25083
571.885	23461
571.943	20075
572.002	18304
572.060	18185
572.119	18555
572.177	17579
572.236	17995
572.294	18303
572.352	20569
572.411	20636
572.469	19193
572.528	17449
572.586	16918
572.644	17472
572.703	17280
572.761	16655
572.819	17165
572.877	16725
572.936	15796
572.994	16043
573.052	16321
573.110	17298
573.169	18619
573.227	17619
573.285	18546
573.343	16861
573.401	16921
573.459	17564
573.517	18767
573.576	19671
573.634	19827
573.692	18744
573.750	19647
573.808	18163
573.866	17477
573.924	16792
573.982	17078
574.040	16402
574.098	16538
574.155	16758
574.213	16734
574.271	17349
574.329	20235
574.387	17529
574.445	16381
574.503	15249
574.560	14799
574.618	14809
574.676	16377
574.734	15495
574.792	15405
574.849	14061
574.907	12906
574.965	12444
575.022	11975
575.080	12219
575.138	13350
575.195	11790
575.253	11090
575.311	11540
575.368	12515
575.426	11865
575.483	12753
575.541	12688
575.598	12354
575.656	12608
575.713	14493
575.771	14659
575.828	14827
575.886	13165
575.943	12823
576.001	11019
576.058	11467
576.115	11679
576.173	13314
576.230	12976
576.287	13359
576.345	12814
576.402	13051
576.459	13094
576.517	12690
576.574	10997
576.631	12194
576.688	11288
576.746	10944
576.803	9990
576.860	10656
576.917	11386
576.974	11396
577.031	11334
577.089	11716
577.146	9923
577.203	10347
577.260	10573
577.317	10715
577.374	10677
577.431	10128
577.488	10044
577.545	9721
577.602	11747
577.659	10638
577.716	10278
577.773	10935
577.830	9809
577.886	10105
577.943	9603
578.000	10568
578.057	9475
578.114	10411
578.171	11247
578.227	11573
578.284	10861
578.341	10139
578.398	11258
578.454	11220
578.511	10280
578.568	11503
578.625	11187
578.681	10702
578.738	10056
578.794	10875
578.851	10726
578.908	10469
578.964	10450
579.021	11289
579.077	10370
579.134	11264
579.190	10461
579.247	10552
579.303	9685
579.360	10603
579.416	10694
579.473	10315
579.529	10179
579.586	10573
579.642	10450
579.698	11270
579.755	11568
579.811	11276
579.867	12238
579.924	11149
579.980	10540
580.036	12049
580.093	12135
580.149	14508
580.205	13346
580.261	12674
580.317	11674
580.374	12659
580.430	12069
580.486	12667
580.542	12788
580.598	12987
580.619	12944
580.654	12886
580.692	12539
580.710	12390
580.765	11861
580.767	11856
580.823	12912
580.838	13150
580.879	13828
580.911	13271
580.935	12883
580.984	13079
580.991	13123
581.047	14032
581.057	13772
581.103	12679
581.130	12912
581.159	13176
581.203	13239
581.215	13271
581.270	12163
581.276	12151
581.326	12178
581.349	12150
581.382	12132
581.422	12001
581.438	11949
581.494	11792
581.494	11782
581.550	11660
581.567	11607
581.606	11494
581.640	11333
581.661	11262
581.713	12725
581.717	12852
581.773	11996
581.786	12108
581.829	12441
581.859	12340
581.885	12296
581.932	12515
581.940	12581
581.996	12290
582.004	12472
582.052	13286
582.077	12886
582.107	12493
582.150	12699
582.163	12770
582.219	12208
582.223	12200
582.274	12153
582.296	12137
582.330	12146
582.368	12333
582.386	12486
582.441	12944
582.441	12947
582.497	12857
582.514	12849
582.552	13083
582.587	13124
582.608	13117
582.659	12452
582.663	12411
582.719	13581
582.732	13487
582.774	13104
582.805	13376
582.830	13638
582.877	13589
582.885	13551
582.941	13741
582.950	13863
582.996	14685
583.023	15274
583.052	15909
583.095	15603
583.107	15529
583.162	16346
583.168	16254
583.218	15296
583.240	14548
583.273	13465
583.313	14035
583.328	14323
583.384	13551
583.385	13535
583.439	12775
583.458	13048
583.494	13631
583.531	13046
583.549	12838
583.603	13186
583.605	13181
583.660	12863
583.676	12680
583.715	12524
583.748	12559
583.770	12463
583.820	12925
583.825	12983
583.881	13159
583.893	13073
583.936	12869
583.965	13053
583.991	13077
584.038	12838
584.046	12820
584.101	13433
584.110	13457
584.156	13637
584.183	13535
584.211	13335
584.255	13541
584.266	13639
584.321	14058
584.328	14133
584.376	14648
584.400	14802
584.431	14967
584.472	15301
584.486	15378
584.541	15733
584.545	15750
584.596	16051
584.617	16393
584.651	17203
584.689	17729
584.706	17753
584.761	16967
584.762	16979
584.816	18398
584.834	18946
584.871	19843
584.906	20064
584.926	20320
584.978	22342
584.980	22408
585.035	24078
585.051	24488
585.090	26207
585.123	28764
585.145	30256
585.195	32855
585.200	33245
585.254	38578
585.267	40136
585.309	45513
585.340	49872
585.364	53969
585.412	64153
585.419	65995
585.473	86693
585.484	92424
585.528	122997
585.556	157161
585.583	213458
585.628	347448
585.637	392843
585.692	771804
585.700	816174
585.747	955121
585.772	863549
585.801	599108
585.845	275807
585.856	229794
585.910	110891
585.917	99504
585.965	68866
585.989	58128
586.019	50752
586.061	42215
586.074	40289
586.128	35706
586.133	35253
586.183	31717
586.205	30627
586.237	29183
586.277	27474
586.292	27025
586.346	26055
586.349	26026
586.401	25352
586.421	24987
586.455	24601
586.493	24684
586.509	24804
586.564	24957
586.565	25005
586.618	28233
586.637	28946
586.672	31362
586.709	36249
586.727	38744
586.781	43782
586.781	43775
586.835	34903
586.853	32733
586.889	28584
586.925	25345
586.944	24531
586.996	23037
586.998	22999
587.052	21521
587.068	21372
587.106	21592
587.140	21786
587.161	21856
587.212	21572
587.215	21561
587.269	22140
587.284	22207
587.323	22800
587.356	23300
587.377	23284
587.427	23477
587.431	23523
587.485	24074
587.499	24139
587.539	24145
587.571	24745
587.593	25539
587.643	26836
587.648	26863
587.702	26815
587.715	26852
587.755	27057
587.786	27319
587.810	27580
587.858	27827
587.864	27868
587.917	28640
587.930	28771
587.971	29189
588.001	29423
588.025	29564
588.073	30083
588.079	30158
588.133	30595
588.145	30855
588.187	31966
588.217	32476
588.241	33168
588.288	35008
588.295	35240
588.348	37260
588.360	37756
588.402	39920
588.431	41011
588.456	42318
588.503	45614
588.510	46175
588.564	51101
588.575	52340
588.617	58562
588.646	63287
588.671	68300
588.718	80376
588.725	83572
588.778	112847
588.789	120631
588.832	182428
588.861	231432
588.886	307727
588.932	455065
588.939	465733
588.993	503261
589.004	504135
589.047	341200
589.075	230886
589.100	179778
589.147	101194
589.154	97631
589.207	76549
589.218	73108
589.261	71291
589.290	71020
589.314	73632
589.361	81939
589.368	85582
589.421	120523
589.433	129588
589.475	212086
589.504	276985
589.528	344163
589.576	455194
589.582	441951
589.635	278645
589.647	244012
589.689	142942
589.718	80189
589.742	69026
589.790	50472
589.795	49518
589.849	42445
589.861	40909
589.902	38147
589.932	35935
589.955	34846
590.004	33168
590.009	33091
590.062	32456
590.075	32347
590.115	31112
590.146	30012
590.168	29999
590.218	29896
590.222	29837
590.275	29612
590.289	29447
590.328	29760
590.360	30293
590.381	30430
590.431	30429
590.435	30428
590.488	30502
590.503	30562
590.541	30451
590.574	30227
590.594	30651
590.645	31837
590.647	31856
590.700	32339
590.716	32494
590.753	32792
590.787	32976
590.806	33236
590.859	34310
590.859	34323
590.912	34787
590.930	35129
590.965	35259
591.001	34993
591.018	34738
591.071	34294
591.072	34291
591.124	33685
591.143	33494
591.177	34016
591.214	34740
591.230	34796
591.283	34978
591.285	34973
591.336	34715
591.356	34701
591.389	34670
591.427	34483
591.442	34264
591.495	33617
591.498	33568
591.547	34389
591.569	34767
591.600	34791
591.640	34773
591.653	34974
591.706	35917
591.711	36005
591.759	36319
591.782	36565
591.811	37415
591.853	38591
591.864	38646
591.917	38821
591.924	38842
591.969	38813
591.995	38858
592.022	39207
592.066	39682
592.075	39808
592.127	40641
592.137	40784
592.180	40832
592.208	40880
592.233	41434
592.279	42478
592.285	42683
592.338	44402
592.350	44786
592.390	43231
592.421	42061
592.443	42759
592.491	44338
592.495	44386
592.548	45084
592.562	45281
592.600	45408
592.633	45521
592.653	45089
592.704	43732
592.705	44000
592.775	44963
592.846	46597
592.916	47136
592.987	47817
593.058	47061
593.128	48726
593.199	47614
593.270	48340
593.341	49953
593.411	51203
593.482	53886
593.553	55395
593.623	55282
593.694	57825
593.764	58304
593.835	57290
593.906	58258
593.976	59107
594.047	61360
594.117	63290
594.188	66193
594.258	65804
594.329	67117
594.399	68280
594.470	69087
594.540	71852
594.611	72500
594.681	72332
594.751	72635
594.822	76323
594.892	77861
594.963	80581
595.033	83118
595.103	85140
595.174	84657
595.244	87797
595.314	90645
595.384	93652
595.455	96477
595.525	98067
595.595	102402
595.665	102880
595.736	100034
595.806	101170
595.876	102831
595.946	103605
596.016	109291
596.087	111029
596.157	112574
596.227	112891
596.297	119657
596.367	127057
596.437	133501
596.507	132904
596.577	133345
596.647	136499
596.717	144038
596.787	145937
596.857	145513
596.927	148673
596.997	147450
597.067	149524
597.137	152842
597.207	151481
597.277	154251
597.347	148536
597.417	142757
597.487	142119
597.557	145481
597.626	150524
597.696	150787
597.766	150762
597.836	142266
597.906	135565
597.975	132938
598.045	136119
598.115	141370
598.185	152436
598.254	168868
598.324	181328
598.394	185418
598.464	179903
598.533	176985
598.603	166203
598.672	161167
598.742	165727
598.812	167639
598.881	170816
598.951	169428
599.020	170948
599.090	177999
599.159	181105
599.229	174132
599.299	170475
599.368	176216
599.437	172544
599.507	161032
599.576	155047
599.646	151437
599.715	150636
599.785	149765
599.854	146128
599.924	143502
599.993	142491
600.062	147311
600.132	150129
600.201	158602
600.270	184560
600.340	191748
600.409	188437
600.478	187311
600.547	189729
600.617	173647
600.686	140959
600.755	128956
600.824	122998
600.894	120511
600.963	120802
601.032	120727
601.101	117189
601.170	112289
601.239	107578
601.308	108578
601.378	108797
601.447	111150
601.516	109444
601.585	112521
601.654	114683
601.723	114665
601.792	118009
601.861	121245
601.930	125441
601.999	128701
602.068	126977
602.137	130632
602.206	132008
602.275	132733
602.343	133933
602.412	134842
602.481	136750
602.550	138541
602.619	141188
602.688	141907
602.756	143325
602.825	145123
602.894	148626
602.963	149680
603.032	153508
603.100	153382
603.169	153073
603.238	153877
603.307	155730
603.375	157780
603.444	159762
603.513	158980
603.581	162742
603.650	165065
603.719	158909
603.787	162396
603.856	168185
603.924	171350
603.993	177825
604.061	183850
604.130	192104
604.198	194853
604.267	198254
604.335	201231
604.404	204635
604.472	207187
604.541	207715
604.609	212072
604.678	212033
604.746	210917
604.815	221194
604.883	221837
604.951	221505
605.020	225788
605.088	226500
605.156	231675
605.225	234749
605.293	233414
605.361	234588
605.429	237683
605.498	240521
605.566	244915
605.634	257278
605.702	265082
605.771	273488
605.839	273671
605.907	267956
605.975	258241
606.043	254826
606.111	253489
606.180	254074
606.248	249350
606.316	245800
606.384	247958
606.452	245632
606.520	248348
606.588	256727
606.656	259042
606.724	253723
606.792	240824
606.860	216899
606.928	198074
606.996	191077
607.064	189431
607.132	193029
607.200	204605
607.267	212773
607.335	215689
607.403	220166
607.471	212333
607.539	207335
607.607	206855
607.674	184559
607.742	185546
607.810	182595
607.878	183816
607.946	187378
608.013	197794
608.081	198955
608.149	199516
608.216	206643
608.284	213741
608.352	213885
608.419	210047
608.487	208017
608.555	205260
608.622	211247
608.690	225642
608.757	246460
608.825	249392
608.893	243505
608.960	230012
609.028	217534
609.095	221659
609.163	219408
609.230	195841
609.298	181836
609.365	192075
609.432	208534
609.500	222229
609.567	254271
609.635	288838
609.702	299805
609.769	288472
609.837	229541
609.904	205342
609.971	217992
610.039	251229
610.106	332630
610.173	598947
610.241	1218058
610.308	813809
610.375	313567
610.442	236466
610.509	215138
610.577	211768
610.644	214830
610.711	217229
610.778	222421
610.845	231101
610.912	245055
610.980	253437
611.047	249830
611.114	247360
611.181	240072
611.248	237617
611.315	253289
611.382	257239
611.449	267240
611.516	271746
611.583	269054
611.650	273353
611.717	276153
611.784	287031
611.851	302856
611.918	330456
611.984	391095
612.051	536309
612.118	924768
612.185	1681995
612.252	1343735
612.319	562757
612.386	404826
612.452	347552
612.519	322711
612.586	307311
612.653	307957
612.719	315987
612.786	303191
612.853	281761
612.919	274229
612.986	278203
613.053	262207
613.120	247737
613.186	238879
613.253	242601
613.319	239043
613.386	242545
613.453	245310
613.519	245635
613.586	241008
613.652	246554
613.719	243030
613.785	247489
613.852	251495
613.918	245313
613.985	249044
614.051	260141
614.118	258415
614.184	250224
614.250	246102
614.317	252694
614.383	250360
614.449	252656
614.516	250050
614.582	252874
614.648	246674
614.715	247024
614.781	239840
614.847	241600
614.914	240081
614.980	235010
615.046	237009
615.112	241338
615.179	241885
615.245	245281
615.311	246233
615.377	248041
615.443	253375
615.509	257632
615.575	268516
615.642	267104
615.708	273521
615.774	291525
615.840	314162
615.906	350226
615.972	430708
616.038	624576
616.104	1105866
616.170	1821921
616.236	1683827
616.302	837246
616.368	603143
616.434	433642
616.500	374271
616.565	411077
616.631	526347
616.697	451666
616.763	445885
616.829	653024
616.895	1118312
616.961	1122951
617.026	563997
617.092	344027
617.158	290063
617.224	271751
617.289	245628
617.355	231439
617.421	225293
617.487	223836
617.552	213106
617.618	208116
617.684	208848
617.749	208834
617.815	199141
617.880	195538
617.946	194817
618.012	200130
618.077	202251
618.143	194457
618.208	194216
618.274	208657
618.339	208594
618.405	174362
618.470	174797
618.536	174479
618.601	171314
618.667	159456
618.732	152985
618.798	150718
618.863	150350
618.928	148574
618.994	150317
619.059	149969
619.124	150326
619.190	149054
619.255	147047
619.320	148254
619.386	147701
619.451	145515
619.516	142519
619.581	144014
619.647	148670
619.712	149308
619.777	142829
619.842	143578
619.907	146280
619.972	148061
620.038	146972
620.103	143321
620.168	143954
620.233	146274
620.298	144348
620.363	148181
620.428	150881
620.493	155979
620.558	156864
620.623	158723
620.688	158218
620.753	156428
620.818	160457
620.883	160804
620.948	160671
621.013	158099
621.078	154947
621.143	156259
621.207	160967
621.272	156730
621.337	152506
621.402	150072
621.467	148398
621.532	148777
621.596	150555
621.661	145244
621.726	143809
621.791	146195
621.855	145031
621.920	143751
621.985	146977
622.049	149288
622.114	150495
622.179	152022
622.243	155606
622.308	159492
622.373	166641
622.437	161434
622.502	154383
622.566	152114
622.631	151892
622.695	156461
622.760	153915
622.824	153675
622.889	153788
622.953	153539
623.018	163201
623.082	165200
623.147	161534
623.211	158970
623.276	159007
623.340	151056
623.404	150408
623.469	147621
623.533	149986
623.597	146321
623.662	146006
623.726	136049
623.790	128951
623.854	124972
623.919	128953
623.983	129421
624.047	131288
624.111	131308
624.176	133011
624.240	133899
624.304	139157
624.368	134236
624.432	134652
624.496	137378
624.560	143955
624.625	144931
624.689	145891
624.753	150626
624.817	145236
624.881	138988
624.945	128570
625.009	123377
625.073	126275
625.137	129119
625.201	135014
625.265	135726
625.329	129074
625.393	130444
625.456	132554
625.520	135565
625.584	136958
625.648	139289
625.712	143893
625.776	142515
625.839	136395
625.903	115251
625.967	107559
626.031	115851
626.095	133731
626.158	124635
626.222	99601
626.286	93739
626.349	88778
626.413	84661
626.477	83615
626.540	85255
626.604	85229
626.668	83987
626.731	81379
626.795	81562
626.858	82568
626.922	80845
626.986	80582
627.049	79211
627.113	85176
627.176	81665
627.240	78194
627.303	78958
627.366	77852
627.430	79900
627.493	77422
627.557	76536
627.620	80046
627.684	80794
627.747	82509
627.810	76150
627.874	68042
627.937	65897
628.000	69288
628.064	66070
628.127	57890
628.190	59275
628.253	57553
628.317	54162
628.380	52652
628.443	50439
628.506	50603
628.569	49625
628.632	45665
628.696	47528
628.759	46191
628.822	44112
628.885	42798
628.948	42634
629.011	41788
629.074	39866
629.137	38903
629.200	38286
629.263	39292
629.326	37650
629.389	38122
629.452	37100
629.515	37669
629.578	36535
629.641	37831
629.704	37692
629.767	37239
629.830	35346
629.892	34389
629.955	34531
630.018	38276
630.081	34061
630.144	36044
630.207	33255
630.269	35566
630.332	34037
630.395	34516
630.458	32656
630.520	32069
630.583	32636
630.646	32944
630.708	32827
630.771	33550
630.834	36360
630.896	34951
630.959	35455
631.021	34281
631.084	34071
631.146	35948
631.209	36345
631.272	35157
631.334	38704
631.397	38514
631.459	38940
631.522	44727
631.584	45019
631.646	48971
631.709	52137
631.771	52681
631.834	49502
631.896	46778
631.958	43454
632.021	41184
632.083	36154
632.145	36288
632.208	35768
632.270	35880
632.332	34017
632.395	32553
632.457	33798
632.519	32307
632.581	34466
632.643	31668
632.706	32918
632.768	30749
632.830	32653
632.892	33105
632.954	32779
633.016	34851
633.078	32678
633.141	33052
633.203	33155
633.265	32841
633.327	33267
633.389	33830
633.451	34798
633.513	34046
633.575	35938
633.637	35248
633.698	37283
633.760	40271
633.822	41756
633.884	44068
633.946	45703
634.008	48650
634.070	52301
634.132	57201
634.193	63911
634.255	70725
634.317	71876
634.379	70232
634.441	60723
634.502	53561
634.564	48278
634.626	43823
634.687	40939
634.749	39157
634.811	38115
634.873	36041
634.934	36872
634.996	37980
635.057	35733
635.119	35979
635.181	38540
635.242	40347
635.304	36972
635.365	41420
635.427	39119
635.488	39182
635.550	39145
635.611	40146
635.673	40553
635.734	47695
635.796	49980
635.857	57967
635.918	62570
635.980	71852
636.041	76160
636.102	84329
636.164	84908
636.225	80006
636.286	66871
636.348	58259
636.409	51420
636.470	45597
636.531	42436
636.593	39734
636.654	37333
636.715	34810
636.776	34098
636.838	32344
636.899	32349
636.960	30329
637.021	29577
637.082	29366
637.143	28794
637.204	27168
637.265	28647
637.326	28850
637.387	29035
637.448	28705
637.509	29278
637.570	29436
637.631	28488
637.692	25163
637.753	24612
637.814	26246
637.875	25227
637.936	26332
637.997	25224
638.058	25994
638.119	25088
638.179	24723
638.240	25571
638.301	25275
638.362	22691
638.423	22413
638.483	24107
638.544	21867
638.605	22885
638.666	22734
638.726	23171
638.787	23182
638.848	23346
638.908	21953
638.969	22483
639.030	20359
639.090	21076
639.151	20478
639.211	22432
639.272	23186
639.332	24218
639.393	24857
639.453	27380
639.514	29977
639.574	24047
639.635	21177
639.695	22288
639.756	20088
639.816	21020
639.877	21228
639.937	21474
639.997	23033
640.058	20310
640.118	19931
640.178	22284
640.239	21526
640.299	21349
640.359	22897
640.420	26145
640.480	28983
640.540	36015
640.600	36842
640.661	32290
640.721	29829
640.781	31568
640.841	26713
640.901	24160
640.961	22261
641.021	25821
641.082	27753
641.142	24289
641.202	21360
641.262	18220
641.322	20451
641.382	19528
641.442	19899
641.502	20035
641.562	20900
641.622	21504
641.682	25259
641.742	31115
641.802	27464
641.861	23624
641.921	19981
641.981	19737
642.041	18274
642.101	17646
642.161	17589
642.221	18275
642.280	18519
642.340	17944
642.400	19119
642.460	20150
642.519	19469
642.579	20159
642.639	20458
642.698	18864
642.758	23205
642.818	21542
642.877	19334
642.937	20563
642.997	21456
643.056	20597
643.116	19658
643.175	21595
643.235	22090
643.294	23897
643.354	26624
643.414	29971
643.473	36310
643.532	46773
643.592	63811
643.651	98429
643.711	164124
643.770	297251
643.830	640815
643.889	1086106
643.948	423572
644.008	110885
644.067	59136
644.126	41722
644.186	33834
644.245	29996
644.304	24792
644.363	27305
644.423	23253
644.482	25011
644.541	26581
644.600	29007
644.659	37347
644.719	50383
644.778	75671
644.837	124843
644.896	253502
644.955	539959
645.014	208971
645.073	51648
645.132	35034
645.191	30638
645.250	28351
645.309	30840
645.368	34802
645.427	48818
645.486	86357
645.545	157140
645.604	48012
645.663	25329
645.722	25283
645.781	28375
645.840	33962
645.898	43334
645.957	62132
646.016	90956
646.075	153548
646.134	282644
646.192	656443
646.251	882076
646.310	237010
646.369	74146
646.427	55187
646.486	40173
646.545	29111
646.603	24636
646.662	22886
646.721	22349
646.779	23127
646.838	25446
646.896	33824
646.955	46532
647.014	74163
647.072	144241
647.131	381137
647.189	202301
647.248	34455
647.306	21402
647.365	19256
647.423	15998
647.481	17219
647.540	13536
647.598	13638
647.657	15005
647.715	14969
647.773	12775
647.832	14215
647.890	11727
647.948	11741
648.007	13380
648.065	11701
648.123	11128
648.181	12513
648.240	11819
648.298	10535
648.356	10225
648.414	12229
648.472	11716
648.531	11652
648.589	11297
648.647	11087
648.705	11109
648.763	11935
648.821	13690
648.879	14542
648.937	16876
648.995	22335
649.053	30943
649.111	45638
649.169	74672
649.227	127582
649.285	262213
649.343	646152
649.401	364883
649.459	63251
649.516	32804
649.574	25413
649.632	26074
649.690	30504
649.748	37985
649.806	55179
649.863	105068
649.921	281569
649.979	203491
650.037	30248
650.094	13809
650.152	13455
650.210	11349
650.268	11195
650.325	11315
650.383	11174
650.440	8979
650.498	9079
650.556	8917
650.613	8528
650.671	8387
650.728	10012
650.786	10278
650.843	16230
650.901	11289
650.958	8148
651.016	7982
651.073	7163
651.131	6566
651.188	6014
651.246	6442
651.303	6522
651.360	6894
651.418	6468
651.475	6575
651.532	6376
651.590	6294
651.647	5325
651.704	5798
651.762	6006
651.819	6489
651.876	5823
651.933	5600
651.990	6717
652.048	5052
652.105	4877
652.162	6399
652.219	5426
652.276	5470
652.333	6092
652.390	4040
652.448	5276
652.505	5273
652.562	4898
652.619	5254
652.676	5132
652.733	5953
652.790	4954
652.847	3696
652.904	5620
652.961	4118
653.017	4244
653.074	5810
653.131	4721
653.188	3752
653.245	4668
653.302	4703
653.359	5051
653.415	5630
653.472	4538
653.529	5233
653.586	4371
653.642	4868
653.699	6614
653.756	5543
653.813	5090
653.869	6106
653.926	5531
653.983	5077
654.039	5630
654.096	4650
654.152	5379
654.209	4538
654.266	4530
654.322	3978
654.379	5399
654.435	4234
654.492	4212
654.548	4444
654.605	3865
654.661	4906
654.717	4645
654.774	5274
654.830	5154
654.887	5058
654.943	4371
655.000	5890
655.056	5364
655.112	4864
655.168	4108
655.225	5961
655.281	6194
655.337	4485
655.394	4640
655.450	4896
655.506	3768
655.562	4335
655.618	6625
655.675	3772
655.731	4656
655.787	3893
655.843	5023
655.899	4072
655.955	5745
656.011	5049
656.067	4381
656.123	5421
656.179	5455
656.235	6751
656.291	4152
656.347	7347
656.403	5376
656.459	4557
656.515	4342
656.571	3615
656.627	4817
656.683	4674
656.739	6037
656.795	4617
656.850	4495
656.906	5468
656.962	5169
657.018	5068
657.074	6497
657.129	9918
657.185	16252
657.241	38126
657.297	22625
657.352	6012
657.408	3740
657.464	4438
657.519	4221
657.575	2932
657.630	4345
657.686	3217
657.742	3217
657.797	3819
657.853	3746
657.908	5018
657.964	3382
658.019	4372
658.075	4143
658.130	4207
658.186	3332
658.241	4167
658.297	3341
658.352	3427
658.407	4262
658.463	3139
658.518	3799
658.573	3604
658.629	2608
658.684	3297
658.739	4899
658.795	3490
658.850	3639
658.905	3134
658.960	3767
659.016	2582
659.071	2913
659.126	3691
659.181	2679
659.236	3686
659.291	3749
659.346	3673
659.401	3164
659.457	3748
659.512	2930
659.567	3151
659.622	3455
659.677	3440
659.732	2178
659.787	3050
659.842	2703
659.897	3380
659.952	3699
660.007	2724
660.061	3248
660.116	1713
660.171	2639
660.226	2981
660.281	3791
660.336	2614
660.391	3387
660.445	2517
660.500	3730
660.555	3130
660.610	2688
660.664	3871
660.719	2839
660.774	2841
660.828	2457
660.883	2892
660.938	3153
660.992	1651
661.047	3103
661.101	2726
661.156	2413
661.211	3075
661.265	3284
661.320	2656
661.374	3253
661.429	2467
661.483	4004
661.538	2171
661.592	3254
661.647	3272
661.701	4018
661.755	2989
661.810	2883
661.864	2375
661.919	3007
661.973	3431
662.027	2140
662.081	2953
662.136	3416
662.190	3056
662.244	2619
662.299	2559
662.353	3150
662.407	2708
662.461	2758
662.515	3283
662.569	2614
662.624	3285
662.678	2416
662.732	2700
662.786	2393
662.840	2828
662.894	2689
662.948	2487
663.002	2741
663.056	3189
663.110	2044
663.164	3052
663.218	2859
663.272	3646
663.326	2847
663.380	3268
663.434	2710
663.488	2391
663.542	2842
663.595	2775
663.649	2639
663.703	3025
663.757	3194
663.811	3111
663.864	2039
663.918	2916
663.972	2658
664.026	3400
664.079	3329
664.133	2902
664.187	3779
664.240	3236
664.294	4323
664.348	3207
664.401	3358
664.455	3062
664.508	3051
664.562	2627
664.615	2424
664.669	2082
664.722	2936
664.776	2223
664.829	3238
664.883	3269
664.936	2981
664.990	2776
665.043	3250
665.097	3292
665.150	3251
665.203	2457
665.257	2837
665.310	3062
665.363	2761
665.417	3125
665.470	3355
665.523	3618
665.576	2658
665.630	3245
665.683	3602
665.736	3149
665.789	3704
665.842	3105
665.895	3849
665.949	2863
666.002	2996
666.055	3267
666.108	3354
666.161	3444
666.214	3437
666.267	4043
666.320	3797
666.373	3921
666.426	4527
666.479	4535
666.532	4262
666.585	3574
666.638	3873
666.691	3517
666.744	3789
666.796	2642
666.849	3326
666.902	3653
666.955	3409
667.008	2369
667.060	2746
667.113	2793
667.166	4091
667.219	3562
667.271	3903
667.324	3298
667.377	3554
667.430	3403
667.482	3837
667.535	3560
667.587	3736
667.640	3428
667.693	3375
667.745	3435
667.798	3902
667.850	3851
667.903	3027
667.955	2517
668.008	3485
668.060	4150
668.113	3663
668.165	3431
668.218	2689
668.270	4178
668.322	3658
668.375	2540
668.427	3430
668.479	3605
668.532	2742
668.584	3684
668.636	2857
668.689	3114
668.741	2093
668.793	3259
668.845	2675
668.898	3093
668.950	3382
669.002	2952
669.054	2496
669.106	3473
669.158	3430
669.211	2827
669.263	2592
669.315	3416
669.367	3225
669.419	2585
669.471	3687
669.523	3071
669.575	2206
669.627	2761
669.679	2660
669.731	3064
669.783	3132
669.835	2884
669.886	2259
669.938	3408
669.990	3065
670.042	3004
670.094	3139
670.146	2685
670.197	3353
670.249	4259
670.301	4652
670.353	5439
670.404	6953
670.456	8508
670.508	11490
670.560	18641
670.611	27727
670.663	44388
670.715	101949
670.766	168404
670.818	60063
670.869	12334
670.921	8789
670.972	7200
671.024	6127
671.075	5112
671.127	5075
671.178	4655
671.230	6297
671.281	6538
671.333	8293
671.384	10666
671.436	14919
671.487	21232
671.538	30294
671.590	45918
671.641	71797
671.692	122246
671.744	219925
671.795	189886
671.846	84520
671.897	40181
671.949	23191
672.000	16893
672.051	11767
672.102	10031
672.153	6951
672.204	5675
672.256	6091
672.307	5926
672.358	4165
672.409	4565
672.460	3822
672.511	3029
672.562	2555
672.613	2915
672.664	3214
672.715	3047
672.766	2423
672.817	2128
672.868	2871
672.919	2375
672.970	1980
673.021	2454
673.071	1919
673.122	2039
673.173	1782
673.224	2648
673.275	2274
673.326	2334
673.376	2372
673.427	2329
673.478	1688
673.528	2532
673.579	2816
673.630	2394
673.680	2360
673.731	1847
673.782	2247
673.832	2242
673.883	2790
673.934	2170
673.984	1502
674.035	2144
674.085	2822
674.136	2671
674.186	2966
674.237	2397
674.287	2700
674.338	3161
674.388	2451
674.438	2238
674.489	4278
674.539	3331
674.589	3366
674.640	2956
674.690	3227
674.740	2760
674.791	2398
674.841	2541
674.891	3191
674.942	2372
674.992	2047
675.042	1785
675.092	1874
675.142	1768
675.193	1994
675.243	2141
675.293	2770
675.343	2847
675.393	1739
675.443	2185
675.493	2030
675.543	2006
675.593	2063
675.643	2574
675.693	2216
675.743	1824
675.793	1866
675.843	930
675.893	1348
675.943	1534
675.993	1901
676.043	1194
676.093	1458
676.142	1136
676.192	1714
676.242	753
676.292	915
676.341	707
676.391	762
676.441	893
676.491	860
676.540	679
676.590	1217
676.640	633
676.689	1098
676.739	822
676.789	588
676.838	783
676.888	1416
676.937	1420
676.987	874
677.037	750
677.086	235
677.136	1466
677.185	580
677.235	819
677.284	1274
677.333	1045
677.383	583
677.432	243
677.482	1005
677.531	310
677.580	679
677.630	701
677.679	830
677.728	997
677.778	1623
677.827	965
677.876	363
677.925	-91
677.975	1332
678.024	1510
678.073	1395
678.122	990
678.171	1495
678.220	1988
678.269	3802
678.319	3610
678.368	3788
678.417	3419
678.466	1568
678.515	2237
678.564	796
678.613	697
678.662	398
678.711	902
678.760	580
678.809	1312
678.857	1452
678.906	1629
678.955	1474
679.004	986
679.053	503
679.102	907
679.151	1052
679.199	534
679.248	687
679.297	889
679.346	96
679.394	61
679.443	1202
679.492	1159
679.540	750
679.589	519
679.638	825
679.686	977
679.735	2075
679.784	1590
679.832	3441
679.881	2142
679.929	1120
679.978	861
680.026	484
680.075	860
680.123	538
680.172	815
680.220	690
680.268	95
680.317	1054
680.365	1003
680.414	514
680.462	-168
680.510	905
680.559	343
680.607	881
680.655	979
680.703	1012
680.752	553
680.800	964
680.848	771
680.896	202
680.945	-19
680.993	64
681.041	940
681.089	-208
681.137	1172
681.185	677
681.233	657
681.258	593
681.281	522
681.329	547
681.377	274
681.380	276
681.425	122
681.473	1083
681.502	1027
681.521	971
681.569	1206
681.617	726
681.624	707
681.665	518
681.713	1078
681.745	1504
681.761	1693
681.809	92
681.857	1210
681.867	1203
681.904	1144
681.952	1570
681.989	890
682.000	673
682.048	1171
682.096	622
682.111	544
682.143	348
682.191	1334
682.233	1488
682.239	1499
682.286	621
682.334	1724
682.354	1518
682.382	1228
682.430	1180
682.476	1312
682.477	1307
682.525	1385
682.572	680
682.598	1030
682.620	1313
682.667	884
682.715	1279
682.720	1273
682.763	1127
682.810	611
682.841	404
682.857	291
682.905	1041
682.952	1172
682.963	1205
683.000	1256
683.047	316
683.085	1915
683.095	2356
683.142	973
683.190	1048
683.206	1117
683.237	1195
683.284	1828
683.328	1290
683.332	1237
683.379	638
683.426	1217
683.449	1351
683.473	1472
683.521	1071
683.568	1904
683.571	1874
683.615	1411
683.662	1323
683.693	1556
683.709	1648
683.757	1909
683.804	1610
683.814	1458
683.851	936
683.898	712
683.936	1424
683.945	1600
683.992	1323
684.039	1223
684.057	1145
684.086	985
684.133	1375
684.179	1586
684.180	1586
684.227	1359
684.274	2360
684.300	1896
684.321	1537
684.368	1399
684.415	1629
684.422	1575
684.462	1205
684.509	1512
684.543	1641
684.556	1681
684.603	1771
684.649	1357
684.665	1660
684.696	2288
684.743	1790
684.786	1467
684.790	1427
684.837	1988
684.883	1446
684.908	1480
684.930	1557
684.977	1734
685.023	1594
685.029	1590
685.070	1491
685.117	2416
685.150	2078
685.164	1922
685.210	2040
685.257	1760
685.272	1992
685.303	2568
685.350	2273
685.393	2243
685.396	2221
685.443	2100
685.490	2009
685.514	1763
685.536	1612
685.583	1897
685.629	2026
685.636	1953
685.675	1594
685.722	2000
685.757	2410
685.768	2495
685.815	1715
685.861	1770
685.878	1871
685.908	2051
685.954	1592
686.000	2268
686.000	2279
686.047	2545
686.093	1865
686.121	2169
686.139	2303
686.185	1975
686.232	1840
686.242	1883
686.278	2133
686.324	2134
686.363	1823
686.370	1757
686.416	2140
686.463	2355
686.484	2365
686.509	2339
686.555	2292
686.601	2753
686.606	2714
686.647	2438
686.693	2579
686.727	2428
686.739	2348
686.785	2165
686.831	2471
686.848	2505
686.877	2568
686.923	1885
686.969	1747
686.969	1747
687.015	2416
687.061	2483
687.090	2816
687.107	2914
687.153	3106
687.199	3206
687.211	2979
687.245	2334
687.291	2805
687.332	2562
687.336	2560
687.382	3065
687.428	3044
687.453	2961
687.474	2801
687.520	2980
687.565	3083
687.574	2948
687.611	2454
687.657	2747
687.695	3346
687.702	3524
687.748	3739
687.794	4585
687.816	4723
687.839	4510
687.885	3826
687.931	3431
687.937	3460
687.976	3687
688.022	3339
688.058	3253
688.067	3279
688.113	3113
688.158	2889
688.179	2957
688.204	3019
688.249	2942
688.295	3020
688.300	3051
688.340	3217
688.386	2655
688.421	2590
688.431	2617
688.477	2670
688.522	3353
688.542	3314
688.567	3287
688.613	3180
688.658	3611
688.663	3643
688.703	3693
688.749	3109
688.784	3049
688.794	3100
688.839	2972
688.884	3706
688.905	3741
688.930	3566
688.975	3449
689.020	2919
689.026	2905
689.065	3114
689.110	2986
689.146	3414
689.155	3542
689.201	3766
689.246	3442
689.267	3625
689.291	3649
689.336	3288
689.381	2790
689.388	2838
689.426	3398
689.471	3469
689.509	3398
689.516	3349
689.561	3398
689.606	3563
689.630	3390
689.651	3320
689.696	3672
689.741	3804
689.750	3709
689.785	3409
689.830	3901
689.871	3755
689.875	3726
689.920	3867
689.965	3170
689.992	3387
690.010	3557
690.054	3148
690.099	3111
690.112	3086
690.144	3186
690.189	3074
690.233	3598
690.233	3604
690.278	2978
690.323	3547
690.354	3456
690.367	3500
690.412	3552
690.457	3835
690.474	3863
690.501	3694
690.546	3641
690.590	3173
690.595	3155
690.635	3257
690.680	3290
690.716	3155
690.724	3146
690.769	3893
690.813	3637
690.836	3653
690.857	3720
690.902	4022
690.946	4271
690.957	4419
690.991	5220
691.035	5723
691.077	6472
691.080	6480
691.124	6063
691.168	5946
691.198	5519
691.213	5205
691.257	4659
691.301	3942
691.318	3748
691.346	3784
691.390	3870
691.434	3456
691.439	3467
691.478	3771
691.522	3998
691.559	3889
691.567	3882
691.611	4361
691.655	4263
691.680	4274
691.699	4124
691.743	4222
691.787	3710
691.800	3658
691.831	3801
691.875	3762
691.919	3790
691.921	3789
691.964	3808
692.008	3703
692.041	3438
692.052	3448
692.096	3665
692.139	3975
692.162	3977
692.183	3892
692.227	3900
692.271	4154
692.282	4088
692.315	3824
692.359	3665
692.402	3804
692.403	3817
692.447	4037
692.490	4331
692.523	4444
692.534	4318
692.578	4030
692.622	3745
692.643	3392
692.666	3387
692.709	3902
692.753	3913
692.763	4002
692.797	3955
692.840	3451
692.884	3392
692.884	3402
692.928	3420
692.971	3588
693.004	3678
693.015	3771
693.059	3845
693.102	4286
693.124	4345
693.146	4217
693.189	4187
693.233	4096
693.245	3978
693.276	3987
693.320	4275
693.363	4316
693.365	4313
693.407	4437
693.450	4615
693.485	4816
693.493	4865
693.537	5003
693.580	4801
693.605	5004
693.624	5294
693.667	5489
693.710	6108
693.725	6208
693.753	7161
693.797	8758
693.840	10503
693.845	10675
693.883	9841
693.926	8485
693.966	7617
693.970	7574
694.013	6572
694.056	5911
694.086	5473
694.099	5410
694.142	5173
694.185	4605
694.206	4478
694.229	4694
694.272	4860
694.315	5034
694.326	5147
694.358	5102
694.401	4895
694.444	4644
694.446	4614
694.487	4638
694.530	4729
694.566	4836
694.573	4840
694.616	4593
694.659	4699
694.686	4664
694.702	4775
694.745	4887
694.787	5255
694.806	5298
694.830	5093
694.873	4780
694.916	4458
694.926	4406
694.959	4848
695.002	5157
695.044	5567
695.046	5577
695.087	5532
695.130	5248
695.166	5096
695.172	5161
695.215	5354
695.258	5646
695.286	5922
695.301	5927
695.343	5473
695.386	5376
695.406	5335
695.428	5658
695.471	6151
695.514	6676
695.526	6805
695.556	7236
695.599	7955
695.641	8312
695.646	8356
695.684	7907
695.726	7360
695.766	6730
695.769	6744
695.811	6858
695.854	6888
695.886	6881
695.896	6905
695.938	7035
695.981	6908
696.005	6911
696.023	7079
696.065	7548
696.108	8064
696.125	8130
696.150	8130
696.192	8399
696.235	8532
696.245	8505
696.277	8431
696.319	8550
696.361	8552
696.365	8528
696.404	8251
696.446	8035
696.485	7800
696.488	7830
696.530	7799
696.572	7905
696.604	7940
696.614	7995
696.656	8406
696.698	8544
696.724	8553
696.740	8468
696.783	8308
696.825	8242
696.844	8081
696.867	8017
696.909	8161
696.951	8052
696.964	8063
696.992	8421
697.034	8690
697.076	9106
697.083	9150
697.118	9299
697.160	9460
697.202	9562
697.203	9541
697.244	9336
697.286	9091
697.323	8797
697.327	8821
697.369	8974
697.411	8949
697.442	8945
697.453	9053
697.494	9428
697.536	9803
697.562	9969
697.578	9952
697.620	9952
697.661	9834
697.682	9790
697.703	9816
697.744	9758
697.786	9865
697.801	9819
697.828	9937
697.869	10016
697.911	10253
697.921	10267
697.952	10055
697.994	9755
698.035	9471
698.040	9411
698.077	9590
698.118	9715
698.160	9950
698.160	9926
698.201	10210
698.243	10539
698.279	10809
698.284	10880
698.325	11249
698.367	11688
698.399	11923
698.408	11969
698.449	12132
698.491	12205
698.518	12277
698.532	12385
698.573	12586
698.614	12785
698.638	12871
698.656	12738
698.697	12348
698.738	11965
698.757	11752
698.779	11764
698.820	11728
698.862	11700
698.877	11659
698.903	11862
698.944	12148
698.985	12428
698.996	12477
699.026	12382
699.067	12210
699.116	11976
699.235	11769
699.354	11871
699.474	10859
699.593	10729
699.713	11964
699.832	10782
699.951	11619
700.070	11891
700.190	10807
700.309	10678
700.428	9872
700.547	9885
700.667	9510
700.786	10210
700.905	10062
701.024	9995
701.143	9960
701.262	11501
701.381	9952
701.500	10747
701.619	10589
701.738	10606
701.857	10716
701.976	9987
702.095	9648
702.214	9643
702.333	10848
702.452	10066
702.571	11385
702.690	10800
702.809	9846
702.928	9420
703.047	9356
703.165	8833
703.284	9087
703.403	8837
703.522	8518
703.640	8786
703.759	8709
703.878	8058
703.997	8848
704.115	9266
704.234	8737
704.353	9455
704.471	8832
704.590	8527
704.708	8521
704.827	8826
704.946	7988
705.064	8923
705.183	8293
705.301	8425
705.420	7587
705.538	6600
705.656	7285
705.775	8106
705.893	8232
706.012	9160
706.130	6892
706.249	8294
706.367	6829
706.485	7387
706.604	6531
706.722	7670
706.840	8208
706.958	11306
707.077	8045
707.195	6331
707.313	6589
707.431	6377
707.549	6728
707.668	6045
707.786	7580
707.904	6372
708.022	7247
708.140	6372
708.258	6721
708.376	7190
708.494	6151
708.612	8010
708.730	7643
708.848	7143
708.966	7986
709.084	6938
709.202	7358
709.320	5716
709.438	5932
709.556	5990
709.674	5594
709.791	6246
709.909	5010
710.027	6447
710.145	5944
710.263	5951
710.380	6144
710.498	6409
710.616	5281
710.733	5329
710.851	5796
710.969	5912
711.086	5060
711.204	5670
711.322	5652
711.439	5523
711.557	5135
711.674	5554
711.792	5028
711.909	4977
712.027	4823
712.144	4379
712.262	4657
712.379	5297
712.497	4963
712.614	5648
712.732	5307
712.849	6082
712.966	5460
713.084	6498
713.201	4735
713.318	6114
713.436	4958
713.553	6370
713.670	7728
713.787	7741
713.905	7235
714.022	8200
714.139	8948
714.256	12817
714.373	21754
714.490	49701
714.608	149612
714.725	606590
714.842	503469
714.959	50209
715.076	18699
715.193	13376
715.310	10407
715.427	6994
715.544	6699
715.661	7250
715.778	6674
715.895	5943
716.011	5869
716.128	5580
716.245	5401
716.362	5180
716.479	5014
716.596	6437
716.713	4780
716.829	4939
716.946	4477
717.063	3798
717.180	3798
717.296	4745
717.413	4121
717.530	3846
717.646	4716
717.763	3552
717.880	4095
717.996	3908
718.113	3822
718.229	3996
718.346	3271
718.462	2775
718.579	3786
718.695	4153
718.812	3931
718.928	4512
719.045	4387
719.161	4457
719.277	4211
719.394	4886
719.510	4433
719.626	6837
719.743	9818
719.859	19661
719.975	52774
720.092	233267
720.208	429058
720.324	47202
720.440	10502
720.557	6989
720.673	5993
720.789	5350
720.905	4920
721.021	4564
721.137	3393
721.253	3619
721.369	3229
721.486	3685
721.602	2969
721.718	3907
721.834	3504
721.950	3488
722.066	3147
722.181	3479
722.297	3347
722.413	3165
722.529	2964
722.645	4070
722.761	2404
722.877	3837
722.993	4050
723.108	7306
723.224	6412
723.340	3999
723.456	3138
723.571	2996
723.687	2906
723.803	3252
723.918	2378
724.034	2357
724.150	1897
724.265	3221
724.381	2418
724.497	2596
724.612	1891
724.728	2118
724.843	2184
724.959	2671
725.074	2524
725.190	2782
725.305	2074
725.421	2582
725.536	2851
725.651	2345
725.767	2792
725.882	2864
725.997	2173
726.113	3685
726.228	2772
726.343	2923
726.459	2977
726.574	2504
726.689	2434
726.804	2688
726.920	2070
727.035	2462
727.150	2607
727.265	2349
727.380	2345
727.495	2581
727.610	2815
727.725	2263
727.841	2518
727.956	2937
728.071	2628
728.186	2850
728.301	2631
728.416	2938
728.531	2539
728.645	2424
728.760	2283
728.875	1813
728.990	2333
729.105	2711
729.220	2694
729.335	2862
729.449	2083
729.564	1447
729.679	2292
729.794	2800
729.908	2802
730.023	2423
730.138	2583
730.253	2701
730.367	2718
730.482	2667
730.596	2696
730.711	2691
730.826	5389
730.940	5519
731.055	4258
731.169	4508
731.284	4184
731.398	4791
731.513	4504
731.627	6461
731.742	7862
731.856	8780
731.970	10983
732.085	15954
732.199	27013
732.313	57990
732.428	162496
732.542	426108
732.656	207146
732.771	38590
732.885	18486
732.999	15177
733.113	13922
733.227	11584
733.342	9789
733.456	9448
733.570	8402
733.684	8818
733.798	8040
733.912	8266
734.026	7427
734.140	7986
734.254	7530
734.368	8139
734.482	7361
734.596	7629
734.710	7922
734.824	7088
734.938	7087
735.052	7656
735.166	7403
735.280	7085
735.393	6463
735.507	6874
735.621	6361
735.735	5911
735.849	6543
735.962	6037
736.076	6843
736.190	6074
736.303	6675
736.417	5997
736.531	5520
736.644	6337
736.758	6901
736.872	5179
736.985	5658
737.099	6080
737.212	5170
737.326	5976
737.439	5317
737.553	4563
737.666	5680
737.780	4809
737.893	6554
738.007	5280
738.120	5219
738.233	5141
738.347	5090
738.460	5061
738.573	6231
738.687	5158
738.800	5517
738.913	5767
739.026	6193
739.140	5325
739.253	4475
739.366	4856
739.479	3242
739.592	4448
739.705	3614
739.818	5347
739.932	4638
740.045	5196
740.158	4989
740.271	5691
740.384	4474
740.497	4813
740.610	4879
740.723	4518
740.836	4213
740.949	4453
741.062	4635
741.174	5015
741.287	4809
741.400	5193
741.513	4184
741.626	4241
741.739	4467
741.851	3848
741.964	4780
742.077	3562
742.189	4441
742.302	5116
742.415	4211
742.527	4883
742.640	4217
742.753	3676
742.865	4577
742.978	3563
743.090	4249
743.203	3825
743.316	3797
743.428	3953
743.541	3492
743.653	2879
743.766	4007
743.878	4489
743.990	3240
744.103	4799
744.215	4205
744.327	3701
744.440	5310
744.552	3754
744.664	3250
744.777	3539
744.889	3494
745.001	3833
745.113	3494
745.226	3824
745.338	3717
745.450	3971
745.562	3454
745.674	3249
745.786	3573
745.898	4337
746.010	3464
746.122	4177
746.234	3235
746.347	4268
746.459	3152
746.570	3045
746.682	3589
746.794	5642
746.906	4018
747.018	3246
747.130	3620
747.242	2542
747.354	2675
747.466	4182
747.577	2750
747.689	3109
747.801	2881
747.913	2444
748.024	3181
748.136	2441
748.248	2597
748.359	3036
748.471	3022
748.583	2583
748.694	2493
748.806	3497
748.918	2264
749.029	2469
749.141	2416
749.252	3117
749.364	2122
749.475	2978
749.587	2943
749.698	2775
749.809	2592
749.921	2453
750.032	2777
750.144	1983
750.255	1642
750.366	3007
750.478	2363
750.589	2291
750.700	1398
750.811	2642
750.923	1946
751.034	1979
751.145	3060
751.256	2472
751.367	1924
751.479	2453
751.590	1864
751.701	2120
751.812	1654
751.923	2775
752.034	2473
752.145	2644
752.256	2625
752.367	3249
752.478	2379
752.589	2948
752.700	2204
752.811	2953
752.922	2205
753.032	2270
753.143	2908
753.254	2652
753.365	3606
753.476	3068
753.586	2803
753.697	2353
753.808	1910
753.919	1568
754.029	2211
754.140	2127
754.251	2430
754.361	3060
754.472	2508
754.582	2055
754.693	1761
754.804	3215
754.914	1118
755.025	2226
755.135	1856
755.246	2507
755.356	1846
755.466	1401
755.577	2768
755.687	2058
755.798	2653
755.908	1569
756.018	1606
756.129	1708
756.239	2271
756.349	2668
756.460	2957
756.570	3220
756.680	1793
756.790	1782
756.900	2608
757.011	2574
757.121	2414
757.231	1464
757.341	1742
757.451	1212
757.561	1916
757.671	2232
757.781	1261
757.891	2772
758.001	806
758.111	2409
758.221	2643
758.331	2746
758.441	3055
758.551	3196
758.661	3579
758.771	4041
758.880	2872
758.990	2442
759.100	2312
759.210	2560
759.320	2843
759.429	3500
759.539	4083
759.649	4811
759.758	5955
759.868	6629
759.978	5919
760.087	7353
760.197	6660
760.307	5941
760.416	5633
760.526	4671
760.635	5498
760.745	6111
760.854	7889
760.964	8682
761.073	8354
761.182	7353
761.292	5483
761.401	4828
761.511	3234
761.620	3943
761.729	2828
761.839	2407
761.948	2680
762.057	2355
762.166	2910
762.276	1455
762.385	2813
762.494	2819
762.603	2362
762.712	2285
762.822	1937
762.931	2360
763.040	1398
763.149	2007
763.258	1793
763.367	1911
763.476	1988
763.585	1437
763.694	2386
763.803	2661
763.912	2840
764.021	2421
764.130	1731
764.238	2598
764.347	2708
764.456	3048
764.565	2850
764.674	2762
764.783	1927
764.891	2438
765.000	3898
765.109	4137
765.217	3269
765.326	4065
765.435	4602
765.543	5159
765.652	5880
765.761	8938
765.869	10992
765.978	18317
766.086	32526
766.195	63718
766.303	150726
766.412	300338
766.520	240779
766.629	90197
766.737	37772
766.846	21078
766.954	13007
767.062	10917
767.171	8176
767.279	6451
767.387	5043
767.496	4343
767.604	4428
767.712	4366
767.820	2930
767.928	3851
768.037	2132
768.145	2863
768.253	4096
768.361	2428
768.469	2275
768.577	2815
768.685	3212
768.793	3833
768.901	2020
769.009	4046
769.117	3993
769.225	5374
769.333	8305
769.441	13716
769.549	24123
769.657	56763
769.765	159531
769.873	243476
769.981	97164
770.088	28466
770.196	14228
770.304	9718
770.412	7413
770.519	6036
770.627	5070
770.735	4121
770.842	2775
770.950	3768
771.058	3249
771.165	4271
771.273	3554
771.380	4241
771.488	4981
771.595	5941
771.703	4740
771.810	4680
771.918	4958
772.025	6349
772.133	7034
772.240	5792
772.348	7802
772.455	6348
772.562	5713
772.670	5791
772.777	5898
772.884	5675
772.991	4987
773.099	6339
773.206	5014
773.313	5331
773.420	4963
773.528	4613
773.635	4869
773.742	5363
773.849	5073
773.956	5010
774.063	5010
774.170	5262
774.277	5218
774.384	3890
774.491	4535
774.598	4937
774.705	4236
774.812	5161
774.919	4504
775.026	5178
775.133	5027
775.239	4905
775.346	3859
775.453	4292
775.560	4094
775.667	5175
775.773	3483
775.880	4634
775.987	3321
776.093	4399
776.200	4641
776.307	3296
776.413	4188
776.520	4562
776.627	3731
776.733	2861
776.840	3350
776.946	6642
777.053	4953
777.159	6215
777.266	3482
777.372	6245
777.478	5735
777.585	5146
777.691	2800
777.798	3712
777.904	4100
778.010	3061
778.117	3834
778.223	3675
778.329	2805
778.435	3215
778.542	4386
778.648	3292
778.754	2348
778.860	3690
778.966	3022
779.072	3520
779.178	2881
779.284	2610
779.391	3569
779.497	2642
779.603	4283
779.708	2745
779.815	4599
779.920	8435
780.026	10668
780.132	3186
780.238	2973
780.344	2884
780.450	4267
780.556	2326
780.661	2143
780.767	2844
780.873	1604
780.979	3182
781.085	2654
781.190	2743
781.296	2371
781.402	2237
781.507	2058
781.613	1961
781.719	2436
781.824	3686
781.930	2114
782.035	2973
782.141	2668
782.246	807
782.352	2204
782.457	2490
782.563	2557
782.668	2211
782.773	2042
782.879	1634
782.984	2526
783.090	2604
783.195	2453
783.300	2596
783.405	2083
783.511	2362
783.616	2510
783.721	2226
783.826	1344
783.932	2019
784.037	1862
784.142	1915
784.247	2132
784.352	1274
784.457	1101
784.562	2598
784.667	1876
784.772	1407
784.877	771
784.982	2602
785.087	1487
785.192	2166
785.297	1520
785.402	1903
785.507	2484
785.611	1895
785.716	1126
785.821	1884
785.926	977
786.031	1672
786.135	875
786.240	1910
786.345	-57
786.450	3172
786.554	1454
786.659	527
786.763	935
786.868	1655
786.973	2615
787.077	1153
787.182	1006
787.286	2281
787.391	2119
787.495	292
787.600	897
787.704	865
787.809	2161
787.913	936
788.017	844
788.122	1695
788.226	903
788.330	457
788.435	1198
788.539	1200
788.643	1076
788.747	698
788.852	1097
788.956	1573
789.060	1100
789.164	2172
789.268	1003
789.372	1881
789.476	890
789.580	749
789.684	215
789.788	1385
789.892	529
789.996	1387
790.100	576
790.204	1280
790.308	1960
790.412	-329
790.516	536
790.620	592
790.724	1470
790.828	974
790.931	-206
791.035	1829
791.139	984
791.242	102
791.346	1757
791.450	770
791.554	195
791.657	92
791.761	1131
791.864	1175
791.968	1425
792.072	1316
792.175	639
792.279	685
792.382	388
792.486	-154
792.589	632
792.693	1456
792.796	-329
792.899	1145
793.003	1376
793.106	-353
793.209	699
793.313	1208
793.416	-709
793.519	2163
793.623	1753
793.726	1199
793.829	-166
793.932	552
794.035	-102
794.138	1581
794.242	1868
794.345	590
794.448	-75
794.551	-17
794.654	4349
794.757	5034
794.860	1034
794.963	1021
795.066	314
795.169	1592
795.272	671
795.375	1415
795.477	-443
795.580	479
795.683	-1449
795.786	1457
795.889	716
795.991	1159
796.094	578
796.197	-124
796.300	1304
796.402	1032
796.505	-25
796.608	419
796.710	781
796.813	1236
796.915	1048
797.018	1892
797.120	1066
797.223	-515
797.326	1633
797.428	155
797.530	407
797.633	554
797.735	1720
797.838	335
797.940	1477
798.042	17
798.145	218
798.247	769
798.349	-688
798.452	495
798.554	1078
798.656	491
798.758	2030
798.860	212
798.962	812
799.065	1072
799.167	-456
799.269	1430
799.371	2117
799.473	2626
799.575	902
799.677	350
799.779	1631
799.881	-840
799.983	1142
800.085	273
800.187	530
800.289	-1354
800.390	290
800.492	1545
800.594	1318
800.696	-836
800.798	420
800.899	370
801.001	692
801.103	897
801.205	142
801.306	1105
801.408	-229
801.509	31
801.611	718
801.713	999
801.814	-687
801.916	174
802.017	-384
802.119	-913
802.220	417
802.322	-1491
802.423	1601
802.525	-1375
802.626	-764
802.727	-154
802.829	541
802.930	-1779
803.031	1280
803.133	-453
803.234	33
803.335	-60
803.436	-1005
803.538	248
803.639	-1319
803.740	800
803.841	-464
803.942	801
804.043	511
804.144	-19
804.245	284
804.346	-97
804.447	-602
804.548	1110
804.649	121
804.750	-139
804.851	-782
804.952	-588
805.053	203
805.154	-666
805.255	343
805.355	-141
805.456	-151
805.557	-1105
805.658	-971
805.758	782
805.859	104
805.960	34
806.061	-409
806.161	-125
806.262	588
806.362	-1022
806.463	-314
806.564	539
806.664	228
806.765	-1031
806.865	-563
806.966	-748
807.066	-805
807.166	144
807.267	471
807.367	-399
807.468	168
807.568	-1397
807.668	742
807.769	-625
807.869	-887
807.969	50
808.069	266
808.170	-120
808.270	-172
808.370	-480
808.470	285
808.570	-1228
808.670	-328
808.770	648
808.870	-321
808.970	740
809.070	41
809.170	-113
809.271	113
809.370	-530
809.470	-554
809.570	-943
809.670	-537
809.770	-171
809.870	690
809.970	-208
810.070	-165
810.169	413
810.269	-1774
810.369	420
810.469	-639
810.568	191
810.668	-948
810.768	-117
810.867	869
810.967	-86
811.066	-254
811.166	125
811.265	428
811.365	-379
811.464	-404
811.564	-146
811.663	-226
811.763	-835
811.862	270
811.962	-72
812.061	-594
812.160	-1250
812.260	-225
812.359	338
812.458	-393
812.557	314
812.657	-285
812.756	-376
812.855	-125
812.954	-1013
813.053	-173
813.153	105
813.252	-1420
813.351	-375
813.450	-213
813.549	-854
813.648	756
813.747	-419
813.846	518
813.945	-780
814.044	-419
814.143	25
814.242	138
814.341	-415
814.439	34
814.538	459
814.637	674
814.736	132
814.835	774
814.933	-258
815.032	1574
815.131	1619
815.229	2934
815.328	4775
815.427	2382
815.525	3565
815.624	2723
815.722	1693
815.821	3238
815.919	2979
816.018	1611
816.116	3169
816.215	2407
816.313	2758
816.412	4235
816.510	4013
816.609	4584
816.707	5190
816.805	4116
816.904	4209
817.002	5048
817.100	5193
817.198	5199
817.296	3964
817.395	4457
817.493	4744
817.591	3914
817.689	4340
817.787	3639
817.885	3524
817.983	5324
818.081	6319
818.179	12097
818.277	24358
818.375	19619
818.473	6804
818.571	4489
818.669	4449
818.767	4853
818.865	3094
818.963	3720
819.061	4612
819.158	6655
819.256	12470
819.354	21203
819.452	45485
819.549	26855
819.647	8884
819.745	5101
819.842	4032
819.940	3700
820.038	3401
820.135	3303
820.233	4153
820.330	2828
820.428	2789
820.525	3897
820.623	3108
820.720	2202
820.818	3517
820.915	2614
821.012	2546
821.110	2134
821.207	3232
821.304	1514
821.402	3181
821.499	2662
821.596	3101
821.693	3146
821.791	2730
821.888	1841
821.985	3024
822.082	1353
822.179	2691
822.276	2398
822.373	2974
822.470	2086
822.567	2323
822.664	2003
822.761	2471
822.858	2044
822.955	1869
823.052	1869
823.149	2205
823.246	2476
823.343	625
823.440	2163
823.536	2794
823.633	2221
823.730	2132
823.827	2918
823.923	2037
824.020	2167
824.117	2703
824.213	2194
824.310	2263
824.407	1021
824.503	1952
824.600	2538
824.696	1714
824.793	3208
824.889	1922
824.986	1890
825.082	249
825.179	1511
825.275	2710
825.371	2232
825.468	2221
825.564	881
825.660	3325
825.757	3087
825.853	2218
825.949	325
826.045	1703
826.142	1776
826.238	1912
826.334	2272
826.430	1371
826.526	465
826.622	177
826.718	2504
826.814	1832
826.910	2041
827.006	579
827.102	-67
827.198	2542
827.294	1494
827.390	1327
827.486	1452
827.582	391
827.678	-274
827.774	2810
827.869	207
827.965	1882
828.061	711
828.157	1795
828.252	1205
828.348	688
828.444	918
828.539	1060
828.635	980
828.731	2352
828.826	900
828.922	2022
829.017	1873
829.113	2610
829.208	1036
829.304	1010
829.399	3186
829.495	1623
829.590	2097
829.685	638
829.781	2264
829.876	2105
829.971	467
830.066	377
830.162	770
830.257	2705
830.352	622
830.447	2002
830.543	1698
830.638	1122
830.733	2707
830.828	1305
830.923	2831
831.018	2203
831.113	1284
831.208	127
831.303	-189
831.398	1398
831.493	1537
831.588	2144
831.683	392
831.778	675
831.873	542
831.967	2225
832.062	1176
832.157	-10
832.252	1746
832.346	715
832.441	1220
832.536	1007
832.631	1870
832.725	-133
832.820	960
832.914	1112
833.009	-36
833.104	493
833.198	1054
833.293	997
833.387	1983
833.482	1429
833.576	135
833.670	1862
833.765	1901
833.859	1783
833.954	1117
834.048	1338
834.142	428
834.237	-349
834.331	728
834.425	1194
834.519	-435
834.613	1026
834.708	-116
834.802	390
834.896	12
834.990	851
835.084	208
835.178	188
835.272	41
835.366	1244
835.460	1241
835.554	866
835.648	9
835.742	2
835.836	651
835.930	175
836.024	-212
836.117	714
836.211	704
836.305	807
836.399	1179
836.493	-91
836.586	1133
836.680	221
836.774	331
836.867	624
836.961	-431
837.055	-184
837.148	513
837.242	211
837.335	517
837.429	1261
837.522	-570
837.616	-286
837.709	506
837.803	-92
837.896	884
837.989	-265
838.083	-493
838.176	-70
838.269	-1310
838.363	872
838.456	98
838.549	708
838.642	-287
838.735	677
838.829	1077
838.922	-350
839.015	-283
839.108	-238
839.201	128
839.294	705
839.387	-60
839.480	-277
839.573	268
839.666	12
839.759	96
839.852	-489
839.945	477
840.038	722
840.131	-238
840.223	127
840.316	518
840.409	-166
840.502	437
840.594	1241
840.687	-1184
840.780	164
840.873	-712
840.965	-554
841.058	33
841.150	1012
841.243	-1493
841.336	3
841.428	-621
841.521	-1294
841.613	-566
841.706	559
841.798	-30
841.890	224
841.983	-880
842.075	631
842.167	-240
842.260	851
842.352	721
842.444	529
842.537	351
842.629	-634
842.721	-549
842.813	44
842.905	-824
842.997	199
843.090	64
843.182	89
843.274	-1946
843.366	25
843.458	-112
843.550	818
843.642	-360
843.734	-419
843.826	-603
843.918	-681
844.009	-68
844.101	-904
844.193	-25
844.285	430
844.377	519
844.469	238
844.560	33
844.652	-392
844.744	677
844.835	-462
844.927	-141
845.019	-903
845.110	-295
845.202	182
845.293	-612
845.385	-742
845.476	50
845.568	659
845.659	-1374
845.751	-142
845.842	-858
845.934	-1040
846.025	-270
846.116	6
846.208	-563
846.299	-311
846.390	-1044
846.482	-2
846.573	-36
846.664	-26
846.755	-804
846.846	232
846.937	-1170
847.029	-607
847.120	418
847.211	80
847.302	1064
847.393	-124
847.484	787
847.575	-776
847.666	-867
847.757	127
847.847	-452
847.938	613
848.029	-443
848.120	-437
848.211	-504
848.302	-214
848.392	-1073
848.483	100
848.574	-186
848.664	123
848.755	-31
848.846	315
848.936	-391
849.027	628
849.118	335
849.208	707
849.299	3428
849.389	7581
849.480	16086
849.570	30115
849.661	59772
849.751	86411
849.841	28211
849.932	4459
850.022	1269
850.112	1350
850.203	882
850.293	-96
850.383	393
850.474	547
850.564	-773
850.654	19
850.744	-812
850.834	-408
850.924	-1199
851.014	30
851.104	223
851.194	-847
851.284	165
851.374	239
851.464	-314
851.554	638
851.644	242
851.734	124
851.824	217
851.914	-552
852.004	285
852.094	-586
852.183	246
852.273	952
852.363	256
852.452	-180
852.542	-340
852.632	-177
852.721	684
852.811	114
852.901	1599
852.990	811
853.080	1904
853.169	1181
853.259	1512
853.348	2597
853.438	3120
853.527	5546
853.617	8914
853.706	18149
853.795	33486
853.885	64225
853.974	108778
854.063	182972
854.152	218511
854.242	101028
854.331	31525
854.420	13869
854.509	9215
854.598	6270
854.687	4715
854.777	2855
854.866	1995
854.955	2734
855.044	625
855.133	765
855.222	1044
855.311	892
855.400	488
855.488	875
855.577	890
855.666	14
855.755	165
855.844	102
855.933	-330
856.021	-107
856.110	613
856.199	-731
856.288	-316
856.376	-159
856.465	-1128
856.554	662
856.642	-287
856.731	271
856.819	292
856.908	-486
856.996	-425
857.085	-713
857.173	-381
857.262	42
857.350	-648
857.438	-376
857.527	-1069
857.615	-53
857.703	391
857.792	-515
857.880	-1475
857.968	-471
858.056	-164
858.145	-348
858.233	-1020
858.321	-751
858.409	-660
858.497	-477
858.585	-1355
858.673	-110
858.761	-833
858.849	-378
858.937	-813
859.025	118
859.113	-716
859.201	-82
859.289	298
859.377	240
859.465	306
859.552	24
859.640	-1192
859.728	-563
859.816	-859
859.903	-175
859.991	-932
860.079	-502
860.166	476
860.254	-116
860.342	-469
860.429	-460
860.517	-721
860.604	-643
860.692	-701
860.779	-922
860.867	-770
860.954	-324
861.042	383
861.129	-72
861.216	-285
861.304	-251
861.391	-315
861.478	-47
861.565	61
861.653	918
861.740	-868
861.827	-424
861.914	128
862.001	-414
862.089	-302
862.176	49
862.263	-454
862.350	519
862.437	-1042
862.524	157
862.611	4
862.698	340
862.785	498
862.871	530
862.958	-660
863.045	427
863.132	422
863.219	243
863.306	-1240
863.392	53
863.479	-351
863.566	-734
863.652	-440
863.739	-226
863.826	-67
863.912	143
863.999	-875
864.086	-286
864.172	237
864.259	410
864.345	-74
864.432	832
864.518	110
864.604	1041
864.691	650
864.777	1007
864.863	2159
864.950	3096
865.036	3929
865.122	8480
865.209	8476
865.295	7784
865.381	7317
865.467	7535
865.553	10268
865.639	14076
865.726	21624
865.812	37216
865.898	62692
865.984	90650
866.070	149185
866.156	139452
866.242	50865
866.328	19690
866.414	11077
866.499	9920
866.585	6823
866.671	7286
866.757	7371
866.843	5569
866.928	4935
867.014	5552
867.100	5323
867.186	4818
867.271	4896
867.357	5020
867.442	4281
867.528	4818
867.614	4654
867.699	3967
867.785	4079
867.870	4445
867.956	4512
868.041	4329
868.127	3450
868.212	3564
868.297	4026
868.383	4618
868.468	3378
868.553	4544
868.639	4786
868.724	3881
868.809	4148
868.894	3892
868.979	3895
869.065	3770
869.150	1981
869.235	3336
869.320	2860
869.405	3307
869.490	4395
869.575	3455
869.660	1940
869.745	3980
869.830	3666
869.915	3073
870.000	2964
870.085	2679
870.169	4106
870.254	4441
870.339	2171
870.424	2749
870.509	4411
870.593	3920
870.678	3931
870.763	2821
870.847	2623
870.932	3809
871.016	3738
871.101	2232
871.186	2547
871.270	4807
871.355	1774
871.439	2678
871.523	3244
871.608	2092
871.692	2466
871.777	4038
871.861	3051
871.945	2404
872.030	3388
872.114	2804
872.198	1227
872.282	1910
872.367	2257
872.451	2626
872.535	2043
872.619	2357
872.703	2868
872.787	3747
872.871	3506
872.955	2484
873.039	1723
873.123	3194
873.207	2711
873.291	2380
873.375	2246
873.459	3129
873.543	2041
873.627	1551
873.711	1544
873.794	3643
873.878	1241
873.962	1540
874.045	1786
874.129	1779
874.137	1840
874.213	2446
874.245	2249
874.296	1930
874.352	1259
874.380	926
874.460	2257
874.464	2309
874.547	1175
874.568	1539
874.631	2620
874.676	2239
874.714	1901
874.784	2649
874.798	2799
874.881	3239
874.892	3024
874.965	1662
874.999	2128
875.048	2605
875.107	2655
875.131	2708
875.215	1635
875.215	1636
875.298	1866
875.323	1865
875.381	1926
875.430	2668
875.465	3047
875.538	2945
875.548	2944
875.631	1679
875.646	1679
875.714	1722
875.753	1632
875.798	1651
875.861	2749
875.881	2982
875.964	2399
875.968	2363
876.047	2089
876.076	2206
876.130	2448
876.183	3134
876.213	3467
876.291	3743
876.296	3751
876.379	2671
876.398	2454
876.462	1729
876.506	2067
876.545	2497
876.613	2433
876.628	2462
876.711	2909
876.721	3113
876.794	4494
876.828	4053
876.877	3083
876.935	1993
876.960	1762
877.043	1845
877.043	1848
877.125	3240
877.150	3599
877.208	4002
877.258	3117
877.291	2591
877.365	2069
877.374	2007
877.456	2121
877.472	2076
877.539	2366
877.579	3123
877.622	3812
877.687	3974
877.704	3991
877.787	4063
877.794	4075
877.869	4364
877.901	4284
877.952	3710
878.008	2636
878.034	2367
878.115	2775
878.117	2794
878.199	3155
878.222	3428
878.282	4146
878.329	4511
878.364	4603
878.437	4726
878.447	4719
878.529	3102
878.544	3003
878.611	2854
878.651	3223
878.694	3973
878.758	4866
878.776	5002
878.858	4218
878.865	4227
878.941	3658
878.972	3167
879.023	3114
879.078	3634
879.105	3985
879.185	4419
879.187	4431
879.269	5410
879.292	5342
879.351	4705
879.399	4238
879.433	4031
879.506	4146
879.516	4177
879.598	4136
879.613	4044
879.680	4180
879.720	4642
879.762	4936
879.827	4441
879.844	4246
879.926	4229
879.933	4201
880.007	4343
880.040	4237
880.089	4178
880.147	4293
880.171	4563
880.253	6205
880.254	6193
880.335	5197
880.360	5367
880.417	6712
880.467	7475
880.499	7545
880.574	7517
880.580	7548
880.662	6738
880.680	6631
880.744	4996
880.787	4164
880.825	4423
880.893	4750
880.907	4700
880.989	4592
881.000	4591
881.070	5804
881.106	6169
881.152	5460
881.213	4385
881.233	4449
881.315	5045
881.319	5068
881.396	5643
881.426	5543
881.478	5477
881.532	6462
881.559	6833
881.639	6016
881.641	5992
881.722	5222
881.745	5045
881.803	6140
881.852	6535
881.885	5804
881.958	4408
881.966	4497
882.047	6130
882.064	6120
882.129	4570
882.171	4272
882.210	4500
882.277	4244
882.291	4448
882.372	5980
882.383	6127
882.454	7092
882.489	7494
882.535	7395
882.596	7533
882.616	7513
882.697	6799
882.702	6731
882.778	4904
882.808	4250
882.859	4250
882.914	4299
882.940	4417
883.020	5027
883.021	5060
883.102	6717
883.127	7276
883.183	8358
883.233	9010
883.264	7845
883.339	4743
883.345	4673
883.426	3714
883.445	3643
883.507	4871
883.551	5677
883.587	6642
883.657	7990
883.668	8082
883.749	8461
883.763	8505
883.830	6172
883.869	4971
883.910	5063
883.975	5019
883.991	5270
884.072	6444
884.081	6559
884.152	8236
884.187	8835
884.233	9059
884.292	9380
884.314	8461
884.394	4845
884.398	4659
884.475	4265
884.504	4084
884.555	4499
884.610	4752
884.636	5279
884.716	7031
884.716	7072
884.797	9859
884.821	10591
884.877	9274
884.927	7960
884.958	7246
885.033	5469
885.038	5458
885.118	5325
885.139	5111
885.199	4956
885.244	5186
885.279	6256
885.350	8394
885.359	8666
885.439	10518
885.456	10806
885.520	8503
885.561	7067
885.600	6672
885.667	6088
885.680	6350
885.760	7789
885.773	7938
885.840	5953
885.878	5042
885.920	5939
885.984	6828
886.000	6922
886.080	7580
886.089	7636
886.160	8296
886.195	8504
886.240	8503
886.300	8262
886.320	8222
886.400	8392
886.406	8353
886.480	7200
886.511	6705
886.560	6599
886.616	6418
886.640	6392
886.720	6137
886.722	6113
886.800	6808
886.827	7006
886.879	7302
886.932	7341
886.959	7820
887.038	9374
887.039	9401
887.119	8617
887.143	8397
887.198	8413
887.248	8291
887.278	8050
887.354	7273
887.358	7333
887.437	7993
887.459	8174
887.517	8793
887.564	9220
887.596	8209
887.669	5820
887.676	5799
887.755	5195
887.774	5040
887.835	5681
887.880	6204
887.914	7009
887.985	8453
887.994	8693
888.073	10667
888.090	11021
888.153	12385
888.195	13173
888.232	11363
888.300	8110
888.311	8045
888.391	7179
888.405	7014
888.470	6523
888.510	6133
888.549	6745
888.615	7834
888.628	8263
888.708	10612
888.720	10942
888.787	10550
888.825	10243
888.866	8330
888.930	5338
888.945	5838
889.024	8351
889.035	8651
889.103	9842
889.140	10444
889.182	9486
889.245	8046
889.261	8192
889.340	8711
889.349	8739
889.419	8666
889.454	8595
889.498	8099
889.559	7354
889.577	7873
889.656	10032
889.664	10213
889.735	9819
889.768	9582
889.814	9313
889.873	8878
889.978	8226
890.083	8178
890.187	9563
890.292	9710
890.397	8699
890.501	7390
890.606	7166
890.710	7879
890.815	12363
890.919	9479
891.024	9358
891.128	7315
891.233	6608
891.337	11373
891.442	10092
891.546	9125
891.650	6896
891.755	7955
891.859	9551
891.963	11616
892.068	8642
892.172	6807
892.276	5157
892.380	8084
892.484	11700
892.589	11938
892.693	9074
892.797	5065
892.901	6457
893.005	7042
893.109	12404
893.213	11273
893.317	8222
893.421	6786
893.525	5934
893.629	6427
893.733	11524
893.837	8123
893.941	8210
894.045	5809
894.148	4573
894.252	6338
894.356	11402
894.460	11970
894.564	7670
894.667	7598
894.771	4900
894.875	4867
894.978	7293
895.082	9705
895.186	8790
895.289	7322
895.393	6306
895.496	10278
895.600	7269
895.703	5268
895.807	6902
895.910	7505
896.014	8463
896.117	5963
896.221	9644
896.324	8693
896.427	4963
896.531	5506
896.634	7020
896.737	6221
896.840	8887
896.944	9562
897.047	9805
897.150	7731
897.253	5162
897.356	4571
897.460	4770
897.563	5999
897.666	9600
897.769	8726
897.872	4574
897.975	6492
898.078	6565
898.181	6038
898.284	6538
898.387	9643
898.490	8206
898.593	5390
898.695	6193
898.798	5880
898.901	5342
899.004	6784
899.107	6506
899.209	7748
899.312	10091
899.415	5788
899.518	4427
899.620	3720
899.723	5468
899.826	6009
899.928	5102
900.031	6984
900.133	9464
900.236	5336
900.338	4722
900.441	5484
900.543	6315
900.646	6624
900.748	6409
900.851	8328
900.953	5791
901.055	4354
901.158	6125
901.260	5225
901.362	3665
901.465	5242
901.567	7804
901.669	8704
901.771	5518
901.873	5837
901.976	6475
902.078	5708
902.180	4529
902.282	5102
902.384	6468
902.486	10398
902.588	6953
902.690	4554
902.792	4638
902.894	5924
902.996	7322
903.098	7777
903.200	4778
903.302	4549
903.404	4730
903.505	4778
903.607	5988
903.709	8755
903.811	8764
903.913	5293
904.014	3495
904.116	4345
904.218	4582
904.319	6514
904.421	9807
904.523	7811
904.624	4641
904.726	4649
904.827	4156
904.929	4642
905.030	5605
905.132	8843
905.233	6163
905.335	4517
905.436	4875
905.537	4525
905.639	5754
905.740	5968
905.841	8130
905.943	6297
906.044	4979
906.145	4681
906.247	4071
906.348	4155
906.449	6324
906.550	7059
906.651	5493
906.752	5629
906.854	4970
906.955	4958
907.056	5910
907.157	8489
907.258	6663
907.359	4311
907.460	3406
907.561	3618
907.662	4305
907.762	5350
907.863	7518
907.964	6697
908.065	5240
908.166	5449
908.267	5000
908.367	4065
908.468	5359
908.569	5852
908.670	6976
908.770	5486
908.871	6613
908.971	6071
909.072	5008
909.173	4995
909.273	5074
909.374	8123
909.474	6020
909.575	4363
909.675	5656
909.776	6191
909.876	5567
909.977	4676
910.077	6247
910.177	7736
910.278	6425
910.378	4105
910.478	5426
910.579	7313
910.679	6465
910.779	7210
910.879	6768
910.980	7087
911.080	6552
911.180	4755
911.280	4133
911.380	4026
911.480	4678
911.580	4955
911.680	5746
911.780	6377
911.880	6474
911.980	3469
912.080	4929
912.180	5674
912.280	5951
912.380	4699
912.480	3980
912.580	3476
912.679	5257
912.779	6890
912.879	5785
912.979	4768
913.078	4160
913.178	4172
913.278	4039
913.377	3345
913.477	4609
913.577	5604
913.676	7192
913.776	6506
913.875	5581
913.975	4871
914.074	5240
914.174	6105
914.273	5083
914.373	5534
914.472	5165
914.572	4978
914.671	3929
914.770	4473
914.870	4781
914.969	5096
915.068	7194
915.167	6659
915.267	4833
915.366	5341
915.465	5528
915.564	5237
915.663	5492
915.763	5433
915.862	6732
915.961	6641
916.060	4436
916.159	5053
916.258	3745
916.357	4190
916.456	5589
916.555	6118
916.654	5609
916.752	7787
916.851	6272
916.950	5292
917.049	4678
917.148	4451
917.247	4854
917.345	4432
917.444	4496
917.543	5353
917.642	5606
917.740	6874
917.839	8522
917.937	9295
918.036	7366
918.135	5625
918.233	5506
918.332	5359
918.430	5141
918.529	5000
918.627	5553
918.726	7591
918.824	5870
918.923	5600
919.021	5965
919.119	5123
919.218	4628
919.316	5621
919.414	6097
919.512	7640
919.611	7464
919.709	6519
919.807	9143
919.905	9802
920.003	9366
920.102	8025
920.200	7961
920.298	8815
920.396	7778
920.494	7239
920.592	7457
920.690	8514
920.788	7811
920.886	8646
920.984	10763
921.082	9837
921.180	10339
921.277	9881
921.375	12079
921.473	17378
921.571	15583
921.669	13390
921.766	12976
921.864	14434
921.962	14344
922.060	13066
922.157	14296
922.255	14636
922.352	14364
922.450	15697
922.548	15496
922.645	18170
922.743	24137
922.840	36544
922.938	39417
923.035	33749
923.133	34476
923.230	40042
923.327	46172
923.425	41842
923.522	42825
923.619	36967
923.717	34695
923.814	34835
923.911	34625
924.008	35291
924.106	32977
924.203	33302
924.300	35225
924.397	34680
924.494	33531
924.591	33063
924.688	32309
924.786	32404
924.883	33995
924.979	33484
925.077	32358
925.173	31828
925.270	32235
925.367	32417
925.464	34420
925.561	35600
925.658	33780
925.755	30539
925.852	34734
925.948	32066
926.045	31163
926.142	33848
926.239	31499
926.335	28091
926.432	31057
926.529	33141
926.625	34010
926.722	26886
926.818	30070
926.915	32201
927.011	29395
927.108	30433
927.204	29849
927.301	27149
927.397	33862
927.494	33897
927.590	22561
927.687	27839
927.783	34442
927.879	32627
927.976	26003
928.072	25706
928.168	31059
928.264	28664
928.361	28104
928.457	31648
928.553	24648
928.649	28852
928.745	27580
928.841	26185
928.937	28138
929.033	25895
929.129	27276
929.225	30891
929.321	25327
929.417	24654
929.513	29456
929.609	24538
929.705	25371
929.801	28171
929.897	24164
929.993	25658
930.089	26055
930.184	22648
930.280	27417
930.376	30921
930.471	22667
930.567	21587
930.663	23903
930.758	22830
930.854	23815
930.950	23497
931.045	21339
931.141	23357
931.236	28642
931.332	22445
931.427	21635
931.523	28750
931.618	23794
931.714	17911
931.809	22788
931.905	25313
932.000	16447
932.095	19647
932.191	27667
932.286	28630
932.381	20824
932.476	19758
932.572	21128
932.667	18722
932.762	19563
932.857	22963
932.952	26449
933.047	19946
933.142	18688
933.237	22950
933.332	22684
933.427	23648
933.522	19795
933.617	17928
933.712	20390
933.807	25540
933.902	26181
933.997	23835
934.092	18403
934.187	21267
934.282	20775
934.376	22383
934.471	22572
934.566	18067
934.661	19183
934.755	24318
934.850	24032
934.945	19029
935.039	16772
935.134	15555
935.228	22804
935.323	27665
935.417	16451
935.512	13702
935.606	16882
935.701	21316
935.795	22583
935.890	19357
935.984	15718
936.079	15705
936.173	17832
936.267	17152
936.362	15651
936.456	20354
936.550	23428
936.644	17426
936.738	15343
936.833	14788
936.927	13130
937.021	17440
937.115	19593
937.209	19115
937.303	16928
937.397	14621
937.491	18299
937.585	20676
937.679	17610
937.773	14411
937.867	13312
937.961	15935
938.055	21201
938.149	15664
938.243	11824
938.337	12148
938.430	16129
938.524	20148
938.618	14259
938.712	13665
938.805	15642
938.899	20354
938.993	19669
939.086	12635
939.180	10030
939.274	13815
939.367	18987
939.461	17470
939.554	13873
939.648	12876
939.741	14184
939.835	18276
939.928	21021
940.022	18017
940.115	16031
940.208	18470
940.302	21662
940.395	20495
940.488	13362
940.582	13816
940.675	13008
940.768	13026
940.861	18479
940.954	17747
941.048	10945
941.141	10147
941.234	13773
941.327	14702
941.420	16367
941.513	16176
941.606	12553
941.699	12999
941.792	17587
941.885	14047
941.978	15328
942.071	15163
942.164	11048
942.257	10997
942.349	14510
942.442	14952
942.535	10327
942.628	12086
942.721	14074
942.813	13594
942.906	14114
942.999	11635
943.091	10944
943.184	13968
943.277	12039
943.369	8965
943.462	9083
943.554	12837
943.647	13150
943.739	17092
943.832	15086
943.924	8790
944.017	9376
944.109	10990
944.201	11494
944.294	11263
944.386	12132
944.478	10996
944.571	9947
944.663	9770
944.755	12727
944.847	13911
944.940	11779
945.032	7471
945.124	9705
945.216	11858
945.308	12635
945.400	11611
945.492	12048
945.584	15234
945.676	15146
945.768	12147
945.860	14862
945.952	15128
946.044	11307
946.136	10410
946.228	9847
946.320	9715
946.412	11959
946.503	15262
946.595	12945
946.687	9522
946.779	7640
946.870	9310
946.962	9578
947.054	10054
947.145	12557
947.237	10497
947.329	10929
947.420	12152
947.512	8925
947.603	8191
947.695	8444
947.786	8999
947.878	9001
947.969	11540
948.061	12667
948.152	9536
948.243	6418
948.335	7392
948.426	8594
948.517	10807
948.609	12091
948.700	10447
948.791	8547
948.882	6427
948.973	7887
949.065	10772
949.156	8876
949.247	7827
949.338	8484
949.429	6929
949.520	7519
949.611	10732
949.702	10847
949.793	8938
949.884	9795
949.975	7952
950.066	6563
950.157	8035
950.247	8445
950.338	6929
950.429	7993
950.520	8019
950.611	7148
950.701	10315
950.792	11663
950.883	9670
950.973	9623
951.064	10535
951.155	10602
951.245	10750
951.336	11323
951.427	11575
951.517	12469
951.608	10706
951.698	7211
951.788	6287
951.879	6552
951.969	7833
952.060	7734
952.150	9792
952.240	12598
952.331	8834
952.421	9837
952.511	6470
952.602	5824
952.692	6412
952.782	6405
952.872	8606
952.962	8811
953.052	7100
953.143	7019
953.233	8217
953.323	7745
953.413	9503
953.503	9232
953.593	8885
953.683	6899
953.773	6094
953.863	5699
953.953	6146
954.042	8592
954.132	8864
954.222	8566
954.312	7102
954.402	7206
954.492	7552
954.581	8615
954.671	7329
954.761	7740
954.850	7830
954.940	4542
955.030	6139
955.119	6308
955.209	5948
955.298	7850
955.388	9000
955.477	8674
955.567	5026
955.656	6853
955.746	7064
955.835	5889
955.925	6297
956.014	7791
956.103	9523
956.193	11437
956.282	7930
956.371	6711
956.461	6754
956.550	7016
956.639	7357
956.728	6425
956.817	7083
956.906	7322
956.995	8841
957.085	6801
957.174	7188
957.263	5256
957.352	5868
957.441	6681
957.530	6426
957.619	6448
957.708	6742
957.796	5850
957.885	6648
957.974	5910
958.063	6322
958.152	3955
958.241	5129
958.329	5075
958.418	6265
958.507	6675
958.596	8142
958.684	6748
958.773	6411
958.861	4620
958.950	5096
959.039	5011
959.127	6128
959.216	7200
959.304	6315
959.393	7154
959.481	6786
959.570	5067
959.658	4853
959.746	4471
959.835	6434
959.923	5387
960.011	5070
960.100	5984
960.188	7405
960.276	6032
960.365	4210
960.453	4665
960.541	4531
960.629	5934
960.717	3406
960.805	4053
960.893	5600
960.981	6853
961.069	8146
961.158	9535
961.245	9822
961.333	8359
961.421	6652
961.509	6909
961.597	6811
961.685	5566
961.773	6195
961.861	7113
961.949	8115
962.036	4719
962.124	4676
962.212	4381
962.299	4588
962.387	3891
962.475	5931
962.562	5283
962.650	6589
962.738	4761
962.825	4258
962.913	5106
963.000	4739
963.088	6660
963.175	5239
963.263	4682
963.350	5413
963.438	4492
963.525	4316
963.612	4997
963.700	4956
963.787	6591
963.874	5473
963.962	3701
964.049	3895
964.136	3931
964.223	3573
964.310	4274
964.398	4694
964.485	4684
964.572	5416
964.659	4541
964.746	3875
964.833	4408
964.920	4424
965.007	3871
965.094	4655
965.181	4982
965.268	5823
965.355	4326
965.441	4928
965.528	4293
965.615	5026
965.702	5320
965.789	4564
965.875	5842
965.962	5772
966.049	5009
966.136	7674
966.222	6992
966.309	7739
966.395	5774
966.482	6790
966.569	6204
966.655	6323
966.742	4961
966.828	4997
966.915	4947
967.001	3873
967.087	2909
967.174	3700
967.260	4692
967.347	5674
967.433	4421
967.519	5476
967.605	4857
967.692	5453
967.778	4143
967.864	4822
967.950	4154
968.036	5218
968.123	5059
968.209	4272
968.295	4141
968.381	5150
968.467	3426
968.553	2979
968.639	4988
968.725	5687
968.811	7835
968.897	7442
968.983	4883
969.069	3023
969.154	4124
969.240	4069
969.326	3080
969.412	4086
969.497	4490
969.583	3828
969.669	5816
969.755	5303
969.840	5836
969.926	10411
970.012	12898
970.097	14032
970.183	10796
970.268	6787
970.354	5153
970.439	3862
970.525	5267
970.610	5059
970.696	5135
970.781	4028
970.866	2395
970.952	5124
971.037	3897
971.122	5244
971.208	5892
971.293	4356
971.378	3660
971.463	4808
971.549	4375
971.634	3903
971.719	4851
971.804	3373
971.889	4760
971.974	3962
972.059	4058
972.144	3703
972.229	4874
972.314	4430
972.399	3289
972.484	3320
972.569	3842
972.654	3565
972.739	3819
972.824	4689
972.908	3596
972.993	2815
973.078	3801
973.163	4139
973.247	4549
973.332	3370
973.417	4994
973.501	3517
973.586	4846
973.671	4326
973.755	3788
973.840	4813
973.924	7040
974.009	8055
974.093	7671
974.178	6886
974.262	5827
974.346	5162
974.431	4507
974.515	4456
974.600	5514
974.684	4751
974.768	4414
974.852	5482
974.937	4491
975.021	5689
975.105	4813
975.189	3659
975.273	4486
975.358	4132
975.442	3451
975.526	4232
975.610	3328
975.694	3479
975.778	5399
975.862	3629
975.946	2941
976.030	5764
976.114	3889
976.198	4535
976.281	3964
976.365	4511
976.449	3551
976.533	4558
976.617	3809
976.700	2758
976.784	3987
976.868	3851
976.951	3836
977.035	3788
977.119	4236
977.202	4029
977.286	6039
977.369	7532
977.453	9981
977.536	8656
977.620	7326
977.703	5761
977.787	5243
977.870	6401
977.953	5529
978.037	4764
978.120	5227
978.203	5664
978.287	4627
978.370	4200
978.453	3287
978.536	3099
978.620	5000
978.703	5090
978.786	4051
978.869	3673
978.952	3588
979.035	6193
979.118	4098
979.201	3600
979.284	4601
979.367	4563
979.450	4767
979.533	3574
979.616	2986
979.699	4085
979.782	3943
979.865	4653
979.948	4541
980.030	4109
980.113	3628
980.196	3965
980.279	4756
980.361	4476
980.444	5553
980.526	7265
980.609	9205
980.692	10719
980.774	9307
980.857	5824
980.939	7346
981.022	5752
981.104	5827
981.187	5563
981.269	6070
981.352	5493
981.434	4670
981.516	5432
981.599	6814
981.681	5017
981.763	5339
981.846	5464
981.928	5946
982.010	5268
982.092	5822
982.174	6436
982.256	4327
982.339	5183
982.421	4640
982.503	4592
982.585	4159
982.667	4729
982.749	4484
982.831	4605
982.913	4754
982.995	5917
983.077	5559
983.158	6704
983.240	5482
983.322	9182
983.404	11052
983.486	9671
983.568	8800
983.649	6906
983.731	7926
983.813	6555
983.894	6617
983.976	7166
984.058	6656
984.139	6691
984.221	5673
984.302	7423
984.384	6749
984.465	6235
984.547	6151
984.628	6384
984.710	7208
984.791	6611
984.872	5755
984.954	6676
985.035	7630
985.116	5963
985.198	6651
985.279	8219
985.360	6391
985.441	5950
985.522	7132
985.604	7027
985.685	5066
985.766	6786
985.847	7432
985.928	6510
986.009	6814
986.090	6845
986.171	7167
986.252	6394
986.333	6291
986.414	7333
986.495	7000
986.576	7886
986.656	8362
986.737	7902
986.818	7952
986.899	6916
986.980	6982
987.060	8571
987.141	8147
987.222	9183
987.302	10460
987.383	10604
987.464	10153
987.544	9766
987.625	9080
987.705	11240
987.786	9963
987.866	8971
987.947	9290
988.027	8876
988.108	7949
988.188	8756
988.268	8247
988.349	9681
988.429	8316
988.509	9132
988.589	8205
988.670	7226
988.750	8365
988.830	7629
988.910	8138
988.990	8239
989.070	7598
989.151	7785
989.231	6679
989.311	6830
989.391	7027
989.471	7255
989.551	6406
989.631	6389
989.711	8835
989.791	7003
989.870	7347
989.950	7892
990.030	6818
990.110	6970
990.190	5769
990.269	6351
990.349	7209
990.429	7688
990.509	6452
990.588	5672
990.668	6905
990.747	6556
990.827	5216
990.907	7069
990.986	6573
991.066	6180
991.145	4929
991.225	7140
991.304	6441
991.383	6582
991.463	6221
991.542	6981
991.622	4913
991.701	5233
991.780	4998
991.859	4909
991.939	6032
992.018	6373
992.097	5784
992.176	4781
992.256	4654
992.335	5173
992.414	5210
992.493	4954
992.572	5105
992.651	6658
992.730	4706
992.809	4582
992.888	4531
992.967	4827
993.046	4288
993.125	3379
993.203	4440
993.282	6042
993.361	4742
993.440	5018
993.519	3686
993.597	5008
993.676	4022
993.755	5749
993.834	4336
993.912	2861
993.991	4888
994.069	3807
994.148	4040
994.226	4150
994.305	4015
994.384	4726
994.462	6337
994.540	3469
994.619	3250
994.697	4531
994.776	4497
994.854	4978
994.932	3208
995.011	4012
995.089	3472
995.167	2804
995.245	4371
995.324	3868
995.402	3875
995.480	3215
995.558	3081
995.636	2789
995.714	3958
995.792	4167
995.870	2512
995.948	3114
996.026	2709
996.104	2582
996.182	3194
996.260	2204
996.338	3473
996.416	3424
996.494	2753
996.572	3742
996.649	2596
996.727	2377
996.805	3435
996.883	2870
996.960	2632
997.038	3698
997.116	3696
997.193	1976
997.271	2334
997.348	1736
997.426	3214
997.504	3086
997.581	3496
997.658	2746
997.736	1263
997.813	1780
997.891	3529
997.968	3231
998.046	1652
998.123	3086
998.200	3368
998.277	1847
998.355	2597
998.432	1536
998.509	2416
998.586	2642
998.663	2506
998.741	2233
998.818	1161
998.895	1760
998.972	2539
999.049	3152
999.126	1795
999.203	1910
999.280	2209
999.357	2008
999.434	2412
999.511	1828
999.587	2568
999.664	1308
999.741	2201
999.818	3059
999.895	1432
999.971	875
1000.048	1534
1000.125	2084
1000.202	988
1000.278	2719
1000.355	1879
1000.431	1173
1000.508	1162
1000.584	266
1000.661	1097
1000.738	1361
1000.814	1632
1000.890	2239
1000.967	1758
1001.043	1961
1001.120	855
1001.196	1983
1001.272	379
1001.349	1340
1001.425	1382
1001.501	1921
1001.577	665
1001.654	1836
1001.730	1496
1001.806	1106
1001.882	564
1001.958	1627
1002.034	1736
1002.110	1047
1002.186	-486
1002.262	753
1002.338	977
1002.414	1959
1002.490	2165
1002.566	720
1002.642	564
1002.718	2607
1002.794	453
1002.870	789
1002.945	679
1003.021	1501
1003.097	522
1003.173	658
1003.248	-100
1003.324	1056
1003.400	686
1003.475	191
1003.551	943
1003.626	689
1003.702	-105
1003.777	479
1003.853	400
1003.928	-99
1004.004	-159
1004.079	1255
1004.155	739
1004.230	99
1004.305	1134
1004.381	288
1004.456	-152
1004.531	917
1004.607	199
1004.682	550
1004.757	1340
1004.832	1235
1004.907	434
1004.982	554
1005.057	435
1005.133	811
1005.208	86
1005.283	-789
1005.358	369
1005.433	-574
1005.508	310
1005.583	100
1005.657	613
1005.732	583
1005.807	-947
1005.882	-28
1005.957	908
1006.032	-211
1006.106	94
1006.181	-359
1006.256	1286
1006.331	-2
1006.405	-338
1006.480	-632
1006.554	-903
1006.629	456
1006.704	-41
1006.778	341
1006.853	445
1006.927	-256
1007.002	-355
1007.076	-634
1007.150	-698
1007.225	-365
1007.299	428
1007.373	-1067
1007.448	-138
1007.522	523
1007.596	48
1007.671	-738
1007.745	209
1007.819	-1099
1007.893	360
1007.967	54
1008.041	-578
1008.115	-178
1008.190	-378
1008.264	436
1008.338	-1562
1008.412	-1082
1008.486	-722
1008.560	291
1008.633	359
1008.707	-267
1008.781	459
1008.855	180
1008.929	-87
1009.003	-361
1009.076	-712
1009.150	-199
1009.224	-318
1009.298	-812
1009.371	-1611
1009.445	-95
1009.519	277
1009.592	-761
1009.666	-552
1009.739	134
1009.813	-851
1009.886	662
1009.960	-957
1010.033	-324
1010.107	-553
1010.180	-1367
1010.253	-578
1010.327	-199
1010.400	-493
1010.473	-205
1010.547	595
1010.620	-866
1010.693	265
1010.766	-68
1010.840	-92
1010.913	-178
1010.986	-1287
1011.059	-661
1011.132	-1892
1011.205	-540
1011.278	-1438
1011.351	-273
1011.424	-639
1011.497	-1806
1011.570	-666
1011.643	-417
1011.716	-1040
1011.789	-676
1011.862	-911
1011.934	-704
1012.007	-2351
1012.080	-337
1012.153	-613
1012.225	-489
1012.298	-1561
1012.371	-1031
1012.443	-839
1012.516	-1033
1012.588	-196
1012.661	-405
1012.733	-1667
1012.806	-471
1012.879	-1428
1012.951	-415
1013.023	132
1013.096	-364
1013.168	-1064
1013.241	-648
1013.313	-1057
1013.385	-1182
1013.458	-1045
1013.530	-316
1013.602	-1958
1013.674	-620
1013.746	-1216
1013.819	-1320
1013.891	-379
1013.963	-518
1014.035	-1469
1014.107	-602
1014.179	-636
1014.251	-1640
1014.323	-483
1014.395	-691
1014.467	-1416
1014.539	4
1014.611	-1694
1014.683	-1192
1014.754	-1014
1014.826	-1962
1014.898	-1240
1014.970	-1366
1015.042	-424
1015.113	-605
1015.185	-1825
1015.257	-1423
1015.328	-495
1015.400	-506
1015.471	-850
1015.543	-1816
1015.615	-320
1015.686	-755
1015.757	-1581
1015.829	-701
1015.901	-1604
1015.972	-975
1016.043	-1661
1016.115	-283
1016.186	-644
1016.257	-2012
1016.328	-677
1016.400	-354
1016.471	-1483
1016.542	-1728
1016.613	-1661
1016.685	-963
1016.756	-132
1016.827	-1367
1016.898	-2471
1016.969	-707
1017.040	-1008
1017.111	-1113
1017.182	-1675
1017.253	-341
1017.324	-1248
1017.395	-1755
1017.466	-862
1017.537	-1072
1017.608	-893
1017.678	-1113
1017.749	-852
1017.820	-1099
1017.891	-2139
1017.961	-1186
1018.032	-1100
1018.103	-1135
1018.173	-1182
1018.244	-1184
1018.315	-1413
1018.385	-800
1018.456	-1499
1018.526	-1687
1018.597	-1422
1018.667	-80
1018.738	-1357
1018.808	-1405
1018.878	-1156
1018.949	-1420
1019.019	-1516
1019.089	-1320
1019.160	-1151
1019.230	-1835
1019.300	-1207
1019.371	-1628
1019.441	-1253
1019.511	-1228
1019.581	-1454
1019.651	-1676
1019.721	-891
1019.791	-1388
1019.861	-1099
1019.931	-1780
1020.001	-1604
1020.071	-948
1020.141	-1261
1020.211	-1265
1020.281	-1483
1020.351	-1363
1020.421	-935
1020.491	-1063
1020.560	-1350
1020.630	-1290
1020.700	-1886
1020.770	-1469
1020.839	-1872
1020.909	-1531
1020.979	-1667
1021.048	-963
1021.118	-1343
1021.187	-1677
1021.257	-1812
1021.326	-1178
1021.396	-1238
1021.465	-1371
1021.535	-1459
1021.604	-1581
1021.674	-1358
1021.743	-1599
1021.812	-1158
1021.882	-902
1021.951	-963
1022.020	-1822
1022.089	-986
1022.159	-2027
1022.228	-1088
1022.297	-1607
1022.366	-1989
1022.435	-1225
1022.504	-1649
1022.573	-1383
1022.642	-1125
1022.711	-1368
1022.781	-1612
1022.849	-1899
1022.918	-1962
1022.987	-1457
1023.056	-1258
1023.125	-1445
1023.194	-1404
1023.263	-1176
1023.331	-992
1023.400	-1648
1023.469	-2209
1023.538	-1018
1023.606	-2633
1023.675	-1800
1023.744	-2091
1023.812	-1237
1023.881	-1505
1023.949	-1791
1024.018	-809
1024.086	-1970
1024.155	-1635
1024.223	-1533
1024.292	-190
1024.360	-1626
1024.429	-1695
1024.497	-1377
1024.565	-1490
1024.634	-1127
1024.702	-1306
1024.770	-1564
1024.838	-776
1024.907	-1298
1024.975	-1634
1025.043	-1364
1025.111	-1606
1025.179	-1113
1025.247	-926
1025.315	-1054
1025.383	-1918
1025.451	-1684
1025.519	-1187
1025.587	-1451
1025.655	-1025
1025.723	-1700
1025.791	-1471
1025.859	-993
1025.927	-1575
1025.995	-1691
1026.062	-1137
1026.130	-1110
1026.198	-1718
1026.266	-938
1026.333	-1240
1026.401	-492
1026.469	-1905
1026.536	-1326
1026.604	-1413
1026.671	-1593
1026.739	-1257
1026.806	-1294
1026.874	-996
1026.941	-1550
1027.009	-1804
1027.076	-1257
1027.144	-620
1027.211	-2037
1027.278	-1427
1027.345	-1418
1027.413	-1166
1027.480	-1274
1027.547	-1411
1027.614	-1687
1027.682	-534
1027.749	-1135
1027.816	-1979
1027.883	-1040
1027.950	-1328
1028.017	-848
1028.084	-1052
1028.151	-1504
1028.218	-1436
1028.285	-1565
1028.352	-1442
1028.419	-1219
1028.486	-807
1028.553	-779
1028.619	-1665
1028.686	-997
1028.753	-1215
1028.820	-1516
1028.886	-678
1028.953	-689
1029.020	-1456
1029.086	-1483
1029.153	-1927
1029.220	-1910
1029.286	-1945
1029.353	-1432
1029.419	-1994
1029.486	-779
1029.552	-1567
1029.619	-1678
1029.685	-1713
1029.751	-1325
1029.818	-575
1029.884	-1899
1029.951	-871
1030.017	-953
1030.083	-1131
1030.149	-1580
1030.216	-2177
1030.282	-845
1030.348	-572
1030.414	-1452
1030.480	-2201
1030.546	-1463
1030.612	-1165
1030.678	-2032
1030.744	-1599
1030.810	-1809
1030.876	-811
1030.942	-1284
1031.008	-1150
1031.074	-1104
1031.140	-767
1031.206	-540
1031.272	-1576
1031.337	-1348
1031.403	-1815
1031.469	-1792
1031.534	-1513
1031.600	-1045
1031.666	-697
1031.731	-1590
1031.797	-1297
1031.863	-1041
1031.928	-1387
1031.994	-1801
1032.059	-1340
1032.125	-1485
1032.190	-1251
1032.256	-2356
1032.321	-1508
1032.386	-1025
1032.452	-1530
1032.517	-1021
1032.582	-1710
1032.647	-1262
1032.713	-1539
1032.778	-1567
1032.843	-1364
1032.908	-1156
1032.974	-542
1033.039	-1480
1033.104	-1428
1033.169	-1687
1033.234	-887
1033.299	-1012
1033.364	-1440
1033.429	-2184
1033.494	-634
1033.559	-1532
1033.624	-1241
1033.688	-306
1033.753	-1358
1033.818	-1100
1033.883	-207
1033.948	-399
1034.013	100
1034.077	2052
1034.142	2079
1034.207	3269
1034.271	5879
1034.336	5883
1034.400	3814
1034.465	1712
1034.530	-453
1034.594	-1103
1034.658	-436
1034.723	-1294
1034.787	-1952
1034.852	-1249
1034.916	-1203
1034.981	-738
1035.045	-1276
1035.109	-1922
1035.173	-1729
1035.238	-2203
1035.302	-1184
1035.366	-477
1035.430	-867
1035.495	-1127
1035.559	-661
1035.623	-1523
1035.687	-1926
1035.751	-1686
1035.815	-1236
1035.879	-1545
1035.943	-1851
1036.007	-1391
1036.071	-1067
1036.135	-1605
1036.198	-1878
1036.262	-1785
1036.326	-1804
1036.390	-1092
1036.454	-1832
1036.517	-1501
1036.581	-1830
1036.645	-1121
1036.709	-2833
1036.772	-1806
1036.836	-1631
1036.900	-2139
1036.963	-1421
1037.026	-1312
1037.090	-2132
1037.154	-1253
1037.217	-1926
1037.280	-1107
1037.344	-1258
1037.407	-1109
1037.471	-1539
1037.534	-1234
1037.597	-1528
1037.661	-1694
1037.724	-1168
1037.787	-1786
1037.850	-1340
1037.913	-1159
1037.977	-895
1038.040	-963
1038.103	-2469
1038.166	-1846
1038.229	-1153
1038.292	-1498
1038.355	-1854
1038.418	-711
1038.481	-2048
1038.544	-1496
1038.607	-1633
1038.670	-1759
1038.732	-1126
1038.795	-1845
1038.858	-1597
1038.921	-1456
1038.984	-1530
1039.046	-1481
1039.109	-1099
1039.172	-2052
1039.234	-2147
1039.297	-1369
1039.360	-1658
1039.422	-1997
1039.485	-1909
1039.547	-1675
1039.610	-1743
1039.672	-2027
1039.734	-1669
1039.797	-2720
1039.859	-1857
1039.922	-2198
1039.984	-1369
1040.046	-1767
1040.109	-1093
1040.171	-2608
1040.233	-1811
1040.295	-1392
1040.358	-2180
1040.420	-2204
1040.482	-1622
1040.544	-1738
1040.606	-1617
1040.668	-1982
1040.730	-1533
1040.792	-1730
1040.854	-1363
1040.916	-1759
1040.978	-1811
1041.040	-888
1041.102	-1203
1041.164	-1643
1041.225	-1687
1041.287	-1607
1041.349	-2106
1041.411	-2394
1041.472	-1742
1041.534	-1757
1041.596	-2739
1041.657	-2139
1041.719	-1929
1041.781	-1905
1041.842	-2475
1041.904	-2096
1041.965	-1582
1042.027	-1186
1042.088	-2166
1042.150	-1371
1042.211	-2618
1042.272	-1390
1042.334	-1812
1042.395	-1093
1042.456	-1903
1042.518	-1682
1042.579	-1116
1042.640	-1232
1042.701	-2756
1042.763	-2103
1042.824	-1662
1042.885	-2213
1042.946	-2250
1043.007	-2815
1043.068	-2137
1043.129	-2170
1043.190	-1945
1043.251	-1337
1043.312	-2196
1043.373	-939
1043.434	-2187
1043.495	-1707
1043.556	-1555
1043.616	-1578
1043.677	-2258
1043.738	-1683
1043.799	-2272
1043.859	-1612
1043.920	-1516
1043.981	-2493
1044.041	-1619
1044.102	-2129
1044.162	-1527
1044.223	-2325
1044.284	-1590
1044.344	-2517
1044.405	-1611
1044.465	-1964
1044.525	-2191
1044.586	-1078
1044.646	-1501
1044.707	-1622
1044.767	-1571
1044.827	-2187
1044.887	-1565
1044.948	-1695
1045.008	-2130
1045.068	-1886
1045.128	-1837
1045.188	-1480
1045.249	-1644
1045.309	-1413
1045.369	-1760
1045.429	-1797
1045.489	-2009
1045.549	-1814
1045.609	-1288
1045.669	-1660
1045.729	-1807
1045.789	-1568
1045.848	-1715
1045.908	-2131
1045.968	-2034
1046.028	-1957
1046.088	-1158
1046.147	-826
1046.207	-1768
1046.267	-1606
1046.326	-1826
1046.386	-1681
1046.446	-873
1046.505	-1368
1046.565	-915
1046.624	-1168
1046.684	-1305
1046.743	-209
1046.803	-499
1046.862	-512
1046.922	0
