'Start Wavelength	183.907
'End Wavelength	1046.922
'Gate Delay	5.000
'Gate Width (ms)	1.050
'Laser Output Level	0.000
'X Position	0.000
'Y Position	0.000
'Z Position	0.000
'Grid Point Number	1.000
'Shot Number	100.000
183.907	671.000
183.977	663.000
184.047	228
184.116	709
184.186	938
184.256	442
184.325	459
184.395	-320
184.465	743
184.534	479
184.604	-305
184.674	583
184.743	-542
184.813	1417
184.883	300
184.952	428
185.022	91
185.092	276
185.161	432
185.231	819
185.301	166
185.370	1145
185.440	136
185.509	209
185.579	-183
185.649	772
185.718	855
185.788	1598
185.857	304
185.927	184
185.996	1247
186.066	422
186.136	-537
186.205	664
186.275	485
186.344	344
186.414	173
186.483	602
186.553	1390
186.622	2212
186.692	1396
186.761	424
186.831	164
186.900	-423
186.970	949
187.039	1147
187.109	1146
187.178	956
187.248	58
187.317	1581
187.387	628
187.456	1275
187.526	1349
187.595	1032
187.664	405
187.734	685
187.803	1493
187.873	783
187.942	1571
188.012	1315
188.081	304
188.150	1265
188.220	2132
188.289	2392
188.358	1162
188.428	1847
188.497	481
188.567	2167
188.636	763
188.705	1453
188.775	691
188.844	1313
188.913	1154
188.983	1377
189.052	918
189.121	1280
189.191	1638
189.260	1014
189.329	587
189.399	1216
189.468	416
189.537	512
189.606	493
189.676	1140
189.745	769
189.814	1708
189.883	733
189.953	1581
190.022	665
190.091	2195
190.161	2460
190.230	1906
190.299	1172
190.368	284
190.437	749
190.507	652
190.576	1095
190.645	474
190.714	825
190.783	666
190.853	1291
190.922	1068
190.991	1426
191.060	1435
191.129	-265
191.198	970
191.268	1361
191.337	1065
191.406	531
191.475	1006
191.544	923
191.613	2160
191.682	1779
191.752	1101
191.821	1139
191.890	2032
191.959	923
192.028	1688
192.097	1133
192.166	1051
192.235	1049
192.304	1701
192.373	521
192.442	1363
192.511	138
192.580	538
192.650	1015
192.719	934
192.788	1662
192.857	1168
192.926	1297
192.995	967
193.064	1536
193.133	2037
193.202	1861
193.271	2984
193.340	2355
193.409	2691
193.478	2846
193.547	3377
193.615	3297
193.684	3880
193.753	2271
193.822	2138
193.891	1522
193.960	1746
194.029	1155
194.098	2573
194.167	1156
194.236	1640
194.305	1236
194.374	1541
194.443	1249
194.512	2105
194.580	1238
194.649	2442
194.718	2236
194.787	2014
194.856	1242
194.925	2282
194.994	1888
195.062	2586
195.131	2286
195.200	2480
195.269	3174
195.338	2851
195.407	1122
195.475	1331
195.544	2661
195.613	2803
195.682	2004
195.751	3071
195.819	2993
195.888	2945
195.957	3119
196.026	2619
196.094	2793
196.163	3077
196.232	2611
196.301	2934
196.369	2150
196.438	2990
196.507	1064
196.576	1226
196.644	1376
196.713	2038
196.782	702
196.850	2067
196.919	1080
196.988	2093
197.056	1070
197.125	1869
197.194	2081
197.262	1550
197.331	1280
197.400	1805
197.468	1744
197.537	1500
197.606	1764
197.674	1946
197.743	3514
197.812	1795
197.880	2763
197.949	2673
198.017	3118
198.086	2164
198.155	1696
198.223	2534
198.292	3686
198.360	2065
198.429	2130
198.497	2447
198.566	2745
198.635	4789
198.703	3026
198.772	2474
198.840	3453
198.909	4298
198.977	1816
199.046	1940
199.114	2543
199.183	2798
199.251	1766
199.320	2165
199.388	1357
199.457	1319
199.525	1787
199.594	1761
199.662	1905
199.731	1956
199.799	1760
199.867	2545
199.936	2166
200.004	2427
200.073	1776
200.141	1863
200.210	917
200.278	1989
200.346	1746
200.415	3562
200.483	3412
200.552	4209
200.620	1835
200.688	2554
200.757	1674
200.825	1816
200.893	2319
200.962	2189
201.030	1270
201.098	1788
201.167	2454
201.235	2485
201.303	2491
201.372	3340
201.440	2292
201.508	3473
201.577	2681
201.645	2839
201.713	2244
201.781	2321
201.850	3465
201.918	3019
201.986	2019
202.055	2937
202.123	2251
202.191	2452
202.259	1797
202.327	2933
202.396	2309
202.464	3471
202.532	3814
202.600	7421
202.669	5665
202.737	3311
202.805	2517
202.873	2524
202.941	2787
203.009	1970
203.078	1301
203.146	3003
203.214	2257
203.282	1858
203.350	2356
203.418	2629
203.487	2614
203.555	2500
203.623	1916
203.691	2141
203.759	1818
203.827	2456
203.895	3191
203.963	2652
204.031	2267
204.099	2908
204.168	2338
204.236	3483
204.304	3228
204.372	3361
204.440	3216
204.508	2611
204.576	2529
204.644	2370
204.712	1701
204.780	3227
204.848	2937
204.916	3266
204.984	1828
205.052	2604
205.120	1829
205.188	2655
205.256	2726
205.324	2936
205.392	2340
205.460	3104
205.528	2755
205.596	3411
205.664	2818
205.732	2928
205.799	4066
205.867	5859
205.935	3133
206.003	3719
206.071	2700
206.139	1930
206.207	3518
206.275	2566
206.343	2585
206.411	2749
206.478	2823
206.546	2911
206.614	3079
206.682	3021
206.750	2410
206.818	4251
206.885	4195
206.953	2428
207.021	3589
207.089	2815
207.157	1764
207.225	3075
207.292	2737
207.360	2955
207.428	3001
207.496	3057
207.563	2949
207.631	3291
207.699	2107
207.767	3658
207.834	2827
207.902	3291
207.970	3529
208.038	2914
208.105	2560
208.173	4004
208.241	3709
208.309	4732
208.376	3676
208.444	6766
208.512	4480
208.579	3126
208.647	3864
208.715	4080
208.782	4012
208.850	3313
208.918	3200
208.985	3164
209.053	2720
209.120	4278
209.188	3072
209.256	3871
209.323	2934
209.391	5334
209.459	5377
209.526	3541
209.594	3505
209.661	4549
209.729	3403
209.796	4382
209.864	4126
209.932	3559
209.999	4890
210.067	4894
210.134	4352
210.202	4172
210.269	6062
210.337	5913
210.404	3960
210.472	4272
210.539	4079
210.607	4710
210.674	5032
210.742	4739
210.809	3664
210.877	5290
210.944	5842
211.012	4121
211.079	5019
211.146	4080
211.214	4040
211.281	6121
211.349	5057
211.416	4756
211.484	4564
211.551	5028
211.618	3975
211.686	3830
211.753	3190
211.821	4395
211.888	4980
211.955	4812
212.023	4522
212.090	4666
212.157	4236
212.225	4742
212.292	6152
212.359	10264
212.427	15997
212.494	10559
212.561	6047
212.629	5696
212.696	5975
212.763	5542
212.831	4859
212.898	5288
212.965	4499
213.032	4429
213.100	5551
213.167	4842
213.234	6138
213.301	4888
213.369	4694
213.436	4808
213.503	4385
213.570	5402
213.638	4732
213.705	5266
213.772	4386
213.839	5064
213.906	5405
213.973	6069
214.041	4545
214.108	5767
214.175	5750
214.242	5367
214.309	4763
214.376	5229
214.444	5573
214.511	6014
214.578	4907
214.645	6327
214.712	6459
214.779	6635
214.846	5274
214.913	7130
214.980	6291
215.048	7394
215.115	9530
215.182	8169
215.249	6152
215.316	5348
215.383	5763
215.450	6225
215.517	5161
215.584	6468
215.651	5227
215.718	5728
215.785	6156
215.852	6811
215.919	7668
215.986	7229
216.053	5580
216.120	4942
216.187	6229
216.254	7782
216.321	5449
216.388	6607
216.455	5914
216.522	6612
216.589	8878
216.656	10930
216.722	10790
216.789	8262
216.856	8144
216.923	6809
216.990	6745
217.057	7347
217.124	9212
217.191	8419
217.258	9200
217.324	10510
217.391	10310
217.458	8327
217.525	6925
217.592	6284
217.659	5762
217.725	8516
217.792	8629
217.859	8818
217.926	7148
217.993	5651
218.059	5071
218.126	6064
218.193	4894
218.260	5592
218.327	4952
218.393	5301
218.460	4879
218.527	5053
218.594	6231
218.660	10182
218.727	8853
218.794	5670
218.860	6025
218.927	4993
218.994	4885
219.061	5172
219.127	7323
219.194	8885
219.261	5671
219.327	4714
219.394	5470
219.461	4408
219.527	5579
219.594	6884
219.661	5673
219.727	4391
219.794	5568
219.860	4809
219.927	6385
219.994	8473
220.060	13382
220.127	11397
220.193	8230
220.260	7991
220.326	9491
220.393	12020
220.460	13585
220.526	10369
220.593	8132
220.659	8796
220.726	8557
220.792	13551
220.859	15097
220.925	17221
220.992	21627
221.058	19234
221.125	17147
221.191	13894
221.258	7948
221.324	8010
221.391	6754
221.457	6093
221.524	6091
221.590	8028
221.657	15323
221.723	12777
221.789	9998
221.856	10970
221.922	8052
221.989	7532
222.055	6202
222.121	6797
222.188	8270
222.254	8405
222.321	6689
222.387	6270
222.453	6308
222.520	6071
222.586	4640
222.652	6659
222.719	5826
222.785	5845
222.851	5764
222.918	5091
222.984	6005
223.050	5828
223.116	4782
223.183	6130
223.249	4186
223.315	4865
223.382	4561
223.448	5200
223.514	4368
223.580	4255
223.647	5224
223.713	5491
223.779	5196
223.845	5430
223.911	6017
223.978	4948
224.044	5206
224.110	5765
224.176	5493
224.242	5377
224.309	4255
224.375	4865
224.441	5378
224.507	5328
224.573	4901
224.639	5271
224.705	4364
224.772	5501
224.838	4465
224.904	5604
224.970	5431
225.036	5048
225.102	4542
225.168	6113
225.234	5647
225.300	4594
225.366	4742
225.432	5586
225.499	5836
225.565	6416
225.631	7399
225.697	7535
225.763	7656
225.829	8636
225.895	8987
225.961	11653
226.027	9944
226.093	9431
226.159	10410
226.225	14842
226.291	23774
226.357	33558
226.423	21786
226.489	15459
226.554	11992
226.620	10834
226.686	13051
226.752	19560
226.818	23881
226.884	41647
226.950	37268
227.016	20286
227.082	14505
227.148	11919
227.214	12196
227.279	11313
227.345	9728
227.411	9787
227.477	12670
227.543	22504
227.609	22575
227.674	14726
227.740	11373
227.806	9944
227.872	7932
227.938	7837
228.003	11102
228.069	8414
228.135	6340
228.201	6822
228.267	6321
228.332	8584
228.398	8224
228.464	7441
228.530	5954
228.595	6823
228.661	4762
228.727	10140
228.792	9403
228.858	6535
228.924	6183
228.990	8514
229.055	7620
229.121	9736
229.187	6475
229.252	6913
229.318	5948
229.384	7072
229.449	7608
229.515	4476
229.581	4525
229.646	7542
229.712	6801
229.777	12246
229.843	14200
229.909	12706
229.974	12768
230.040	11803
230.105	10279
230.171	10236
230.236	10710
230.302	13739
230.368	13743
230.433	8937
230.499	8667
230.564	10749
230.630	8463
230.695	8459
230.761	8616
230.826	7471
230.892	10617
230.957	7742
231.023	7315
231.088	8370
231.154	7879
231.219	7371
231.284	9070
231.350	10295
231.415	7876
231.481	8095
231.546	6095
231.612	6900
231.677	6333
231.742	5488
231.808	8477
231.873	7007
231.939	4910
232.004	10450
232.069	10972
232.135	6776
232.200	6439
232.265	6616
232.331	5584
232.396	6440
232.461	6044
232.527	5643
232.592	6367
232.657	7300
232.723	7270
232.788	7180
232.853	5949
232.918	6143
232.984	5566
233.049	6238
233.114	6860
233.179	8821
233.245	9281
233.310	10704
233.375	5658
233.440	6195
233.506	5713
233.571	4838
233.636	6097
233.701	6058
233.766	7836
233.832	8655
233.897	7632
233.962	6999
234.027	9467
234.092	8074
234.157	7333
234.222	9201
234.288	9085
234.353	15783
234.418	14688
234.483	14195
234.548	12471
234.613	11429
234.678	10973
234.743	10960
234.808	18605
234.873	16132
234.938	10845
235.004	10010
235.069	8984
235.134	8549
235.199	9188
235.264	8144
235.329	7384
235.394	9009
235.459	8692
235.524	8940
235.589	8996
235.654	7792
235.719	6285
235.784	8232
235.849	8135
235.913	11374
235.978	11042
236.043	12255
236.108	8904
236.173	7503
236.238	9780
236.303	7875
236.368	7621
236.433	10151
236.498	12706
236.563	13128
236.627	20406
236.692	53232
236.757	47069
236.822	23731
236.887	17248
236.952	17060
237.017	12369
237.081	15030
237.146	18047
237.211	28920
237.276	51547
237.341	77003
237.405	43428
237.470	23280
237.535	16340
237.600	13523
237.664	10605
237.729	10171
237.794	12642
237.859	20589
237.923	13543
237.988	9887
238.053	11765
238.118	11666
238.182	21645
238.247	21007
238.312	11708
238.376	10459
238.441	8572
238.506	9822
238.570	6185
238.635	8611
238.700	7435
238.764	7528
238.829	12762
238.893	13911
238.958	11467
239.023	12681
239.087	9267
239.152	9839
239.216	8057
239.281	8900
239.346	7824
239.410	7907
239.475	8272
239.539	18971
239.604	15908
239.668	9020
239.733	9798
239.797	16256
239.862	38509
239.926	30518
239.991	14334
240.055	10549
240.120	8801
240.184	9531
240.249	7769
240.313	7950
240.378	7343
240.442	14181
240.507	17822
240.571	9622
240.635	10188
240.700	13707
240.764	9427
240.829	8320
240.893	5744
240.957	7271
241.022	12311
241.086	18462
241.151	10965
241.215	6992
241.279	8935
241.344	12362
241.408	11440
241.472	11444
241.537	12455
241.601	11923
241.665	10924
241.730	10635
241.794	11218
241.858	12074
241.922	10778
241.987	11373
242.051	9893
242.115	9361
242.179	10107
242.244	9928
242.308	10903
242.372	11786
242.436	10995
242.501	10886
242.565	8874
242.629	9407
242.693	9813
242.757	8435
242.822	8814
242.886	9835
242.950	9469
243.014	9653
243.078	11206
243.142	12296
243.206	9385
243.271	11716
243.335	10191
243.399	13637
243.463	28369
243.527	62759
243.591	26918
243.655	16853
243.719	11724
243.783	13613
243.847	17043
243.911	20347
243.975	25630
244.040	21724
244.104	13577
244.168	11173
244.232	15999
244.296	19804
244.360	18426
244.424	14019
244.488	10259
244.552	11181
244.615	7512
244.679	9170
244.743	11645
244.807	13754
244.871	9295
244.935	9626
244.999	7537
245.063	10084
245.127	11541
245.191	14101
245.255	14442
245.319	14289
245.383	14137
245.446	11647
245.510	9230
245.574	11419
245.638	10417
245.702	10395
245.766	20421
245.829	15506
245.893	11773
245.957	11509
246.021	13065
246.085	12281
246.149	14332
246.212	27580
246.276	40863
246.340	23207
246.404	17265
246.467	15997
246.531	21409
246.595	15844
246.659	13966
246.722	15602
246.786	18062
246.850	18081
246.913	20771
246.977	12222
247.041	12108
247.104	14091
247.168	13934
247.232	27457
247.295	52422
247.359	30194
247.423	15611
247.486	24790
247.550	17017
247.614	14885
247.677	20574
247.741	14347
247.804	11455
247.868	14748
247.932	25470
247.995	50923
248.059	23571
248.122	14793
248.186	18126
248.249	31405
248.313	73043
248.376	82414
248.440	60099
248.503	28342
248.567	22814
248.630	30747
248.694	40095
248.757	51488
248.821	81496
248.884	62242
248.948	53435
249.011	71198
249.075	91678
249.138	84456
249.202	42040
249.265	28996
249.328	26067
249.392	23556
249.455	22271
249.519	17951
249.582	22967
249.645	31108
249.709	25266
249.772	18000
249.835	16780
249.899	17709
249.962	17046
250.025	17722
250.089	34567
250.152	49648
250.215	28123
250.279	20607
250.342	19735
250.405	18402
250.468	17222
250.532	22475
250.595	28412
250.658	66450
250.721	99841
250.785	50532
250.848	31171
250.911	21934
250.974	20379
251.038	28439
251.101	52151
251.164	30449
251.227	30076
251.290	27287
251.354	32938
251.417	87148
251.480	93414
251.543	70088
251.606	141807
251.669	121070
251.732	62339
251.795	66855
251.859	64759
251.922	102086
251.985	71998
252.048	34998
252.111	28076
252.174	29114
252.237	51827
252.300	94587
252.363	92123
252.426	128328
252.489	70395
252.552	40388
252.615	30067
252.678	33944
252.741	71063
252.804	80624
252.867	130781
252.930	101630
252.993	62613
253.056	40584
253.119	31255
253.182	24306
253.245	31987
253.308	29719
253.371	30031
253.434	28459
253.497	26028
253.559	47838
253.622	37883
253.685	46835
253.748	54295
253.811	26515
253.874	26666
253.937	26679
254.000	23963
254.062	37445
254.125	54533
254.188	46729
254.251	41597
254.314	23715
254.376	36747
254.439	44607
254.502	40277
254.565	40227
254.628	65485
254.690	44734
254.753	25593
254.816	23560
254.878	23829
254.941	38165
255.004	40222
255.067	20761
255.129	22751
255.192	15558
255.255	14105
255.317	17326
255.380	11586
255.443	10361
255.505	9984
255.568	11042
255.631	11392
255.693	13068
255.756	11230
255.819	11254
255.881	10788
255.944	9852
256.006	9460
256.069	10595
256.132	9932
256.194	13487
256.257	20333
256.319	15700
256.382	16210
256.444	15636
256.507	13794
256.569	13208
256.632	12414
256.694	16209
256.757	35362
256.819	92142
256.882	44512
256.944	23438
257.007	20083
257.069	21510
257.132	14806
257.194	13994
257.257	12600
257.319	13902
257.381	14044
257.444	28319
257.506	96932
257.569	117365
257.631	56490
257.693	38016
257.756	20531
257.818	17479
257.880	14172
257.943	14162
258.005	13584
258.067	13741
258.130	12462
258.192	16168
258.254	27295
258.317	19004
258.379	13771
258.441	26436
258.503	26512
258.566	23231
258.628	27438
258.690	14346
258.753	15152
258.815	30309
258.877	19856
258.939	13827
259.001	13255
259.064	11954
259.126	13404
259.188	15957
259.250	13946
259.312	14149
259.375	23415
259.437	21451
259.499	12716
259.561	11982
259.623	13152
259.685	14002
259.747	12385
259.809	21835
259.872	36726
259.934	53686
259.996	58366
260.058	23798
260.120	13493
260.182	11407
260.244	11276
260.306	10181
260.368	11574
260.430	11914
260.492	21023
260.554	30970
260.616	21104
260.678	37153
260.740	41238
260.802	17039
260.864	15931
260.926	14721
260.988	14413
261.050	14616
261.112	26865
261.174	48431
261.236	32862
261.298	18607
261.359	20871
261.421	26478
261.483	14451
261.545	13753
261.607	10538
261.669	11552
261.731	14927
261.793	32016
261.854	23758
261.916	17800
261.978	13230
262.040	15230
262.102	11022
262.164	14223
262.225	13874
262.287	11773
262.349	28448
262.411	22855
262.472	12138
262.534	14418
262.596	23434
262.658	13290
262.719	9764
262.781	12608
262.843	22752
262.904	14530
262.966	13180
263.028	15237
263.090	38936
263.151	93488
263.213	43504
263.275	34763
263.336	16716
263.398	13838
263.459	9460
263.521	11419
263.583	25968
263.644	21757
263.706	11399
263.767	8957
263.829	8369
263.891	7892
263.952	7907
264.014	7620
264.075	13638
264.137	32448
264.198	18960
264.260	10064
264.321	9918
264.383	21821
264.444	48784
264.506	18846
264.567	14355
264.629	19707
264.690	39110
264.752	20220
264.813	14783
264.875	10843
264.936	11688
264.998	9869
265.059	10052
265.120	11483
265.182	16096
265.243	50319
265.305	54664
265.366	17703
265.427	12024
265.489	11331
265.550	10328
265.611	12480
265.673	13914
265.734	11519
265.795	9246
265.857	9522
265.918	10182
265.979	18897
266.040	77042
266.102	72407
266.163	26536
266.224	25015
266.286	15696
266.347	11898
266.408	11377
266.469	12491
266.530	9977
266.592	10529
266.653	21095
266.714	33919
266.775	15211
266.836	12529
266.898	10537
266.959	17268
267.020	14069
267.081	11103
267.142	9678
267.203	10632
267.264	9999
267.326	13741
267.387	10772
267.448	9273
267.509	10623
267.570	11665
267.631	9649
267.692	10110
267.753	10384
267.814	9925
267.875	17657
267.936	35988
267.997	21630
268.058	20938
268.119	13544
268.180	14262
268.241	11538
268.302	10119
268.363	9900
268.424	11826
268.485	11190
268.546	9319
268.607	8164
268.668	9363
268.729	8772
268.790	10478
268.851	11028
268.912	24301
268.972	31202
269.033	20939
269.094	10927
269.155	9842
269.216	9865
269.277	11374
269.338	9381
269.398	10881
269.459	11630
269.520	17866
269.581	22164
269.642	27013
269.702	18902
269.763	15032
269.824	12383
269.885	16027
269.945	24682
270.006	12437
270.067	9237
270.128	9874
270.188	9133
270.249	9853
270.310	9322
270.370	9459
270.431	9580
270.492	8672
270.553	10564
270.613	21839
270.674	38949
270.734	20738
270.795	12718
270.856	16797
270.916	15857
270.977	11173
271.038	14128
271.098	15278
271.159	21548
271.219	21675
271.280	10768
271.340	10714
271.401	11524
271.462	17316
271.522	15424
271.583	12782
271.643	11748
271.704	13156
271.764	16019
271.825	32316
271.885	87523
271.946	114363
272.006	48399
272.066	57168
272.127	89377
272.187	39148
272.248	23141
272.308	22773
272.369	56417
272.429	37137
272.489	29807
272.550	33575
272.610	34384
272.671	29146
272.731	18669
272.791	25928
272.852	23332
272.912	21542
272.972	13580
273.033	12620
273.093	18999
273.153	22018
273.214	15679
273.274	17454
273.334	42641
273.394	81217
273.455	44446
273.515	38179
273.575	73065
273.635	36648
273.696	40369
273.756	78282
273.816	41316
273.876	23630
273.936	27551
273.997	40599
274.057	19522
274.117	19078
274.177	27890
274.237	93751
274.297	78928
274.358	47598
274.418	63411
274.478	55076
274.538	24757
274.598	18091
274.658	30381
274.718	41484
274.778	24606
274.838	15494
274.898	22034
274.958	51270
275.018	68776
275.078	54785
275.138	26938
275.198	16831
275.258	13629
275.318	15751
275.378	30152
275.438	37075
275.498	22687
275.558	29229
275.618	59662
275.678	55060
275.738	40254
275.798	33162
275.858	19595
275.918	12478
275.978	15713
276.038	16771
276.098	13343
276.157	24749
276.217	64390
276.277	34804
276.337	26850
276.397	17247
276.457	19258
276.517	15161
276.576	12462
276.636	12223
276.696	21481
276.756	39114
276.815	31190
276.875	16865
276.935	19749
276.995	18809
277.055	13079
277.114	13094
277.174	16555
277.234	48550
277.293	26067
277.353	17338
277.413	11899
277.472	14086
277.532	15279
277.592	16703
277.651	38971
277.711	69719
277.771	29990
277.830	81273
277.890	71845
277.950	49581
278.009	116130
278.069	55776
278.128	54137
278.188	78712
278.248	41221
278.307	78105
278.367	51582
278.426	20471
278.486	16116
278.545	14005
278.605	12421
278.664	12743
278.724	14717
278.783	30907
278.843	70673
278.902	26548
278.962	18307
279.021	19922
279.081	17951
279.140	19020
279.199	20018
279.259	19407
279.318	20271
279.378	24705
279.437	36394
279.496	102308
279.556	222711
279.615	182642
279.675	61952
279.734	40404
279.793	56127
279.853	76283
279.912	35452
279.971	22601
280.031	20924
280.090	34788
280.149	58942
280.208	46119
280.268	151040
280.327	158437
280.386	50285
280.445	44659
280.505	44484
280.564	23780
280.623	20221
280.682	28007
280.742	43131
280.801	18231
280.860	15586
280.919	14034
280.978	12576
281.037	12271
281.097	11457
281.156	12413
281.215	12048
281.274	15746
281.333	44815
281.392	37574
281.451	12917
281.510	11399
281.569	12536
281.628	10991
281.688	10074
281.747	12435
281.806	12331
281.865	11289
281.924	10936
281.983	11529
282.042	9295
282.101	9926
282.160	10289
282.219	10619
282.278	11805
282.337	33249
282.396	25337
282.454	13615
282.513	16543
282.572	50725
282.631	34826
282.690	15136
282.749	11913
282.808	16622
282.867	16382
282.926	16908
282.985	11113
283.043	11567
283.102	12162
283.161	13475
283.220	23547
283.279	49352
283.338	21740
283.396	15812
283.455	15962
283.514	17320
283.573	27053
283.631	20660
283.690	15566
283.749	15608
283.808	27700
283.866	32862
283.925	17259
283.984	17611
284.043	22640
284.101	24856
284.160	18452
284.219	20825
284.277	22053
284.336	31135
284.395	72258
284.453	62010
284.512	33292
284.570	44468
284.629	43081
284.688	41305
284.746	45386
284.805	54462
284.863	68871
284.922	88284
284.981	108006
285.039	150539
285.098	227170
285.156	338262
285.215	282051
285.273	283735
285.332	354902
285.390	260909
285.449	180727
285.507	130853
285.566	98685
285.624	78061
285.683	61527
285.741	50463
285.799	44209
285.858	38368
285.916	36329
285.975	30097
286.033	26020
286.091	23171
286.150	21496
286.208	21186
286.267	21730
286.325	23730
286.383	32852
286.442	29644
286.500	17838
286.558	16327
286.616	15544
286.675	20936
286.733	19710
286.791	18159
286.850	18966
286.908	23020
286.966	36046
287.024	18778
287.083	14886
287.141	12591
287.199	14320
287.257	21092
287.315	16620
287.374	16706
287.432	35367
287.490	27152
287.548	17099
287.606	13966
287.664	12836
287.723	18622
287.781	22236
287.839	13401
287.897	15106
287.955	16754
288.013	22195
288.071	43283
288.129	123040
288.187	284814
288.245	151065
288.303	56992
288.361	34210
288.419	27027
288.477	19946
288.535	16788
288.593	13723
288.651	13044
288.709	11211
288.767	11734
288.825	11827
288.883	10327
288.941	10472
288.999	11099
289.057	9204
289.115	8967
289.173	9932
289.231	11250
289.289	10670
289.346	11641
289.404	13672
289.462	22105
289.520	22702
289.578	12978
289.636	8704
289.694	8826
289.751	7376
289.809	7764
289.867	9504
289.925	12602
289.983	15099
290.040	9597
290.098	9301
290.156	12852
290.214	14556
290.271	11038
290.329	8489
290.387	8585
290.444	9023
290.502	7452
290.560	8233
290.617	9751
290.675	9112
290.733	9077
290.790	11457
290.848	8928
290.906	9673
290.963	10578
291.021	8916
291.078	9820
291.136	11568
291.194	26328
291.251	54367
291.309	19741
291.366	10607
291.424	11111
291.481	11157
291.539	11579
291.596	9611
291.654	8791
291.711	8245
291.769	10861
291.826	20898
291.884	16026
291.941	9336
291.999	9810
292.056	12710
292.114	14150
292.171	9678
292.228	12047
292.286	13980
292.343	23045
292.401	28598
292.458	18378
292.515	13021
292.573	15781
292.630	15319
292.687	12938
292.745	11338
292.802	14788
292.859	30648
292.917	56804
292.974	36772
293.031	16554
293.089	11903
293.146	10021
293.203	9385
293.260	8786
293.318	9602
293.375	15244
293.432	10882
293.489	10137
293.546	11018
293.604	15755
293.661	34707
293.718	84482
293.775	47774
293.832	27491
293.889	21889
293.947	19013
294.004	14621
294.061	16925
294.118	30308
294.175	56872
294.232	63718
294.289	30332
294.346	19377
294.403	18227
294.460	14513
294.517	13137
294.574	11683
294.631	12405
294.688	15124
294.745	30831
294.802	87782
294.859	97151
294.916	38038
294.973	22808
295.030	23737
295.087	20940
295.144	15133
295.201	14039
295.258	12780
295.315	15918
295.372	36571
295.429	67539
295.486	34495
295.542	21976
295.599	39419
295.656	64997
295.713	48193
295.770	65190
295.827	28896
295.883	17100
295.940	16157
295.997	25710
296.054	27661
296.111	15517
296.167	11549
296.224	11226
296.281	9928
296.338	10872
296.394	11139
296.451	14698
296.508	30386
296.564	58441
296.621	45268
296.678	79551
296.734	113889
296.791	48493
296.848	28002
296.904	30590
296.961	61169
297.018	77049
297.074	55885
297.131	26425
297.187	21395
297.244	28726
297.301	64525
297.357	113906
297.414	47209
297.470	22797
297.527	18111
297.583	16963
297.640	16923
297.696	13668
297.753	12182
297.809	10274
297.866	9152
297.922	9459
297.979	9544
298.035	13123
298.092	20789
298.148	43961
298.204	44964
298.261	25747
298.317	37653
298.374	92330
298.430	58502
298.486	28163
298.543	21022
298.599	23759
298.656	32263
298.712	39242
298.768	67141
298.824	45600
298.881	21226
298.937	15281
298.993	14579
299.050	18599
299.106	16422
299.162	14445
299.218	16036
299.275	14163
299.331	17024
299.387	28369
299.443	81303
299.500	97452
299.556	47892
299.612	25568
299.668	26375
299.724	34934
299.780	38114
299.837	22923
299.893	27696
299.949	73784
300.005	92658
300.061	75141
300.117	115184
300.173	61858
300.229	31233
300.285	37651
300.341	44927
300.397	26024
300.453	16827
300.510	17633
300.566	19479
300.622	23941
300.678	58886
300.734	101270
300.790	77105
300.845	84493
300.901	60935
300.957	87836
301.013	65464
301.069	27810
301.125	22802
301.181	23832
301.237	18913
301.293	15113
301.349	13972
301.405	15000
301.461	17368
301.516	27231
301.572	24567
301.628	33253
301.684	30600
301.740	36598
301.796	59465
301.851	42040
301.907	65795
301.963	69099
302.019	88292
302.074	191949
302.130	205549
302.186	111029
302.242	49921
302.297	35389
302.353	32530
302.409	55332
302.464	52021
302.520	40657
302.576	82094
302.631	96591
302.687	61077
302.743	28591
302.798	19793
302.854	16465
302.910	16725
302.965	20607
303.021	35914
303.076	35600
303.132	40763
303.187	51874
303.243	28404
303.299	16668
303.354	14114
303.410	14703
303.465	12364
303.521	12806
303.576	13555
303.632	17555
303.687	29032
303.743	69419
303.798	62620
303.853	28110
303.909	17272
303.964	18155
304.020	26648
304.075	42188
304.130	36862
304.186	62266
304.241	64487
304.297	51329
304.352	28330
304.358	27375
304.407	19638
304.449	17738
304.463	17108
304.518	19150
304.539	18284
304.573	16918
304.629	17499
304.630	17636
304.684	24464
304.720	43460
304.739	52987
304.794	80942
304.811	69540
304.850	42431
304.902	22026
304.905	20717
304.960	15419
304.992	15327
305.015	15292
305.071	16134
305.083	15821
305.126	14545
305.173	11386
305.181	10902
305.236	10490
305.264	11547
305.292	12680
305.347	16824
305.354	17304
305.402	20028
305.445	17908
305.457	17361
305.512	19815
305.535	20449
305.567	21302
305.622	22734
305.626	23156
305.678	32710
305.716	55478
305.733	63760
305.788	77646
305.807	67513
305.843	49886
305.897	64296
305.898	64444
305.953	67772
305.988	47682
306.008	36532
306.063	25712
306.078	23823
306.118	19168
306.168	14328
306.173	13921
306.228	11114
306.259	10854
306.283	10748
306.338	9711
306.349	9827
306.393	10327
306.440	10890
306.448	10991
306.503	12072
306.530	12608
306.558	14957
306.613	29730
306.620	31992
306.668	46857
306.711	63538
306.723	65891
306.778	54936
306.801	43360
306.833	29692
306.888	17071
306.892	16625
306.943	12994
306.982	11426
306.997	10879
307.052	9929
307.072	9903
307.107	10602
307.162	11983
307.163	12019
307.217	15123
307.253	17152
307.272	17632
307.327	18926
307.343	18286
307.381	17030
307.434	16863
307.436	17198
307.491	29461
307.524	42058
307.546	46247
307.600	54641
307.614	49113
307.655	30421
307.704	17704
307.710	17017
307.765	17737
307.795	20700
307.819	23293
307.874	31167
307.885	31114
307.929	26974
307.975	22691
307.984	23126
308.038	32310
308.065	39918
308.093	62472
308.148	123121
308.156	136907
308.202	203074
308.246	244508
308.257	241530
308.312	143444
308.336	109571
308.366	86700
308.421	60167
308.426	57466
308.475	37650
308.517	27090
308.530	25126
308.585	22085
308.607	21066
308.639	20559
308.694	21840
308.697	21994
308.748	29095
308.787	37928
308.803	38332
308.857	32423
308.877	29462
308.912	27858
308.967	30178
308.967	30270
309.021	42782
309.058	54437
309.076	66578
309.130	112885
309.148	130105
309.185	192788
309.238	294835
309.239	295493
309.293	324259
309.328	306668
309.348	274203
309.402	155968
309.418	126811
309.457	93603
309.508	64114
309.511	63460
309.566	63775
309.598	66598
309.620	77404
309.674	112743
309.688	122509
309.729	119924
309.778	100145
309.783	97811
309.837	68819
309.868	55140
309.892	59503
309.946	76798
309.959	83720
310.001	102064
310.049	115104
310.055	111663
310.109	68035
310.139	43647
310.163	34259
310.218	21351
310.229	19405
310.272	16222
310.319	13562
310.326	13195
310.381	11039
310.409	10280
310.435	9941
310.489	9527
310.499	9488
310.543	9731
310.589	10387
310.598	10337
310.652	9930
310.679	9643
310.706	9157
310.760	8453
310.769	8335
310.814	7819
310.859	7359
310.868	7347
310.923	7530
310.948	7782
310.977	8565
311.031	9759
311.038	9961
311.085	9505
311.128	8805
311.139	8745
311.193	8708
311.218	8655
311.247	8397
311.301	7876
311.308	7834
311.356	7677
311.398	7601
311.410	7593
311.464	7484
311.488	7492
311.518	7819
311.572	8381
311.578	8481
311.626	11679
311.668	14563
311.680	14211
311.734	12198
311.758	11359
311.788	11226
311.842	11077
311.847	11072
311.896	14212
311.937	17059
311.950	16677
312.004	14936
312.027	14133
312.058	12227
312.112	8902
312.117	8583
312.165	8504
312.207	8470
312.297	11644
312.386	9735
312.476	10638
312.566	23081
312.656	9926
312.745	7421
312.835	7821
312.925	9869
313.015	7958
313.104	7954
313.194	7963
313.284	9484
313.374	13455
313.463	11040
313.553	8913
313.643	8093
313.732	6962
313.822	7176
313.912	8973
314.001	10867
314.091	11017
314.180	14009
314.270	13695
314.360	14446
314.449	12722
314.539	9000
314.628	8651
314.718	10262
314.808	10460
314.897	9396
314.987	9379
315.076	13088
315.166	14600
315.255	13249
315.345	13483
315.434	12692
315.524	10529
315.613	14041
315.703	18750
315.792	24998
315.881	55648
315.971	22778
316.060	22745
316.150	24039
316.239	21328
316.328	11106
316.418	8509
316.507	10712
316.597	13505
316.686	12423
316.775	14368
316.865	21660
316.954	8547
317.043	8169
317.133	9692
317.222	9003
317.311	8695
317.400	7843
317.490	13990
317.579	15553
317.668	10510
317.757	18232
317.847	36175
317.936	96795
318.025	47261
318.114	29038
318.203	20302
318.293	29242
318.382	56214
318.471	43787
318.560	49309
318.649	68589
318.738	17646
318.828	15846
318.917	16486
319.006	16800
319.095	34006
319.184	89969
319.273	57328
319.362	34460
319.451	13379
319.540	13659
319.629	31399
319.718	47305
319.807	21342
319.896	37256
319.985	106909
320.074	43328
320.163	13905
320.252	18100
320.341	17744
320.430	18348
320.519	25677
320.608	15592
320.697	13291
320.786	14926
320.875	18497
320.964	24697
321.053	36004
321.142	50268
321.230	50338
321.319	39383
321.408	82826
321.497	35806
321.586	35609
321.675	32599
321.764	31029
321.852	25028
321.941	50720
322.030	33067
322.119	36617
322.207	81692
322.296	42204
322.385	30164
322.474	40627
322.562	104003
322.651	50109
322.740	39722
322.829	43687
322.917	36879
323.006	29096
323.095	26246
323.183	16463
323.272	25540
323.361	40800
323.449	81557
323.538	31852
323.626	62084
323.715	32903
323.804	20258
323.892	58023
323.981	37033
324.069	13803
324.158	29823
324.246	27597
324.335	19196
324.424	30629
324.512	12426
324.601	16561
324.689	17186
324.778	21692
324.866	23057
324.954	10370
325.043	11598
325.131	16926
325.220	23555
325.308	26670
325.397	23427
325.485	15636
325.574	9337
325.662	8280
325.750	11307
325.839	8643
325.927	8145
326.015	10251
326.104	12261
326.192	14360
326.280	8546
326.369	9742
326.457	15776
326.545	28091
326.634	11842
326.722	7712
326.810	8277
326.898	9932
326.987	16531
327.075	25111
327.163	19758
327.251	10366
327.340	17054
327.428	13845
327.516	9938
327.604	9045
327.692	7868
327.781	9224
327.869	12422
327.957	10540
328.045	12313
328.133	6311
328.221	8404
328.309	8235
328.397	9897
328.485	11721
328.574	20309
328.662	54202
328.750	25371
328.838	10288
328.926	8550
329.014	8586
329.102	13467
329.190	28519
329.278	19508
329.366	6891
329.454	6709
329.542	7393
329.630	6990
329.718	7740
329.806	11306
329.893	9790
329.981	9838
330.069	14217
330.157	48597
330.245	127132
330.333	64665
330.421	15873
330.509	20965
330.597	66057
330.684	38711
330.772	15197
330.860	16783
330.948	20999
331.036	11282
331.123	6929
331.211	7619
331.299	9724
331.387	20413
331.475	30861
331.562	11018
331.650	7477
331.738	8338
331.825	9558
331.913	7119
332.001	6871
332.089	9376
332.176	14984
332.264	27557
332.352	23272
332.439	12198
332.527	9064
332.614	7597
332.702	9128
332.790	9841
332.877	18386
332.965	31936
333.052	15652
333.140	18969
333.228	39912
333.315	14215
333.403	10216
333.490	20051
333.578	25720
333.665	55980
333.753	25160
333.840	10725
333.928	11789
334.015	22197
334.103	37363
334.190	96795
334.278	30860
334.365	22347
334.452	17923
334.540	12990
334.627	14114
334.715	19416
334.802	34063
334.889	107123
334.977	102831
335.064	30286
335.151	17068
335.239	15532
335.326	20075
335.413	60918
335.501	67905
335.588	16943
335.675	13651
335.762	18452
335.850	26547
335.937	26638
336.024	53516
336.111	135309
336.199	74627
336.286	25129
336.373	15100
336.460	10453
336.547	10391
336.635	12264
336.722	12037
336.809	10660
336.896	17563
336.983	44412
337.070	88249
337.157	103736
337.245	65309
337.332	39843
337.419	10247
337.506	9289
337.593	11779
337.680	33590
337.767	78466
337.854	27244
337.941	29572
338.028	28137
338.115	11949
338.202	15592
338.289	25025
338.376	63357
338.463	25596
338.550	51265
338.637	46178
338.724	17018
338.811	20417
338.898	8370
338.984	7865
339.071	10328
339.158	13775
339.245	32635
339.332	19499
339.419	18347
339.506	15482
339.593	6606
339.679	9345
339.766	8948
339.853	13306
339.940	25102
340.027	9909
340.113	11389
340.200	13812
340.287	10401
340.374	15806
340.460	22963
340.547	10267
340.634	20143
340.720	61780
340.807	32171
340.894	8447
340.980	8780
341.067	8033
341.154	10071
341.240	17133
341.327	32883
341.414	13563
341.500	14664
341.587	9932
341.674	9491
341.760	24510
341.847	27728
341.933	9041
342.020	6250
342.106	5508
342.193	11377
342.279	17709
342.366	16088
342.452	22806
342.539	14616
342.625	33279
342.712	66285
342.798	28304
342.885	11649
342.971	6566
343.058	5311
343.144	6865
343.230	8275
343.317	8378
343.403	8078
343.490	6201
343.576	6979
343.662	7828
343.749	8953
343.835	10760
343.921	23315
344.008	106778
344.094	197129
344.180	47461
344.267	24551
344.353	64343
344.439	58752
344.525	33917
344.612	17044
344.698	16164
344.784	11449
344.870	7093
344.957	9428
345.043	14292
345.129	12850
345.215	23001
345.301	13078
345.387	8316
345.474	5378
345.560	7248
345.646	7773
345.732	8321
345.818	11186
345.904	9359
345.990	9466
346.076	9480
346.162	14726
346.249	9006
346.335	6826
346.421	10080
346.507	30550
346.593	80238
346.679	20973
346.765	9821
346.851	11273
346.937	10053
347.023	8350
347.108	10627
347.194	9411
347.280	8562
347.366	12204
347.452	35388
347.538	106904
347.624	79385
347.710	59135
347.796	12428
347.882	7334
347.967	7104
348.053	10286
348.139	8454
348.225	7805
348.311	7576
348.397	7295
348.482	10920
348.568	11818
348.654	8487
348.740	17200
348.825	17298
348.911	17546
348.997	53426
349.083	84285
349.168	16466
349.254	10424
349.340	10283
349.425	8439
349.511	12655
349.597	12788
349.682	28178
349.768	69852
349.854	29951
349.939	9341
350.025	7166
350.110	7098
350.196	6838
350.282	5074
350.367	6391
350.453	10441
350.538	9762
350.624	12143
350.709	10760
350.795	7306
350.880	7712
350.966	8810
351.051	11428
351.137	8577
351.222	10376
351.308	29074
351.393	63701
351.479	19566
351.564	9407
351.649	8566
351.735	7277
351.820	6062
351.906	8214
351.991	11500
352.076	44863
352.162	58573
352.247	14681
352.332	12336
352.418	24088
352.503	30351
352.588	103161
352.673	76845
352.759	20555
352.844	10979
352.929	12410
353.014	15704
353.100	10794
353.185	15231
353.270	27268
353.355	26263
353.441	9919
353.526	11520
353.611	25743
353.696	27740
353.781	17376
353.866	9434
353.952	11063
354.037	26856
354.122	55155
354.207	48430
354.292	18481
354.377	9889
354.462	8575
354.547	13434
354.632	11698
354.717	12645
354.802	15015
354.887	9864
354.972	7645
355.057	6840
355.142	7488
355.227	12488
355.312	17952
355.397	38925
355.482	83218
355.567	38134
355.652	30326
355.737	33786
355.822	79787
355.907	58789
355.991	14261
356.076	9420
356.161	9449
356.246	9335
356.331	10155
356.416	24034
356.501	113557
356.585	104967
356.670	22505
356.755	18929
356.840	25454
356.924	94222
357.009	261028
357.094	101164
357.179	33222
357.263	25210
357.348	23142
357.433	21291
357.517	20483
357.602	18817
357.687	16449
357.771	28426
357.856	79321
357.941	46806
358.025	81282
358.110	254327
358.195	119093
358.279	28846
358.364	23308
358.448	70263
358.533	158923
358.617	114885
358.702	105595
358.787	43002
358.871	31743
358.956	26547
359.040	11268
359.125	9837
359.209	13378
359.294	46552
359.378	66287
359.462	27778
359.547	14350
359.631	9598
359.716	7782
359.800	9772
359.885	14170
359.969	11375
360.053	9625
360.138	9787
360.222	17483
360.306	28075
360.391	22485
360.475	50832
360.559	94312
360.644	66774
360.728	43392
360.812	71949
360.896	156342
360.981	77639
361.065	44031
361.149	16635
361.233	15210
361.318	15425
361.402	18510
361.486	14844
361.570	11354
361.654	15683
361.739	36472
361.823	121700
361.907	153911
361.991	35728
362.075	30286
362.159	55363
362.243	41910
362.327	55228
362.411	65439
362.495	31870
362.580	17200
362.664	14186
362.748	15372
362.832	21760
362.916	41802
363.000	123482
363.084	238101
363.168	209593
363.252	58063
363.336	28011
363.420	33983
363.503	86966
363.587	85314
363.671	24667
363.755	21460
363.839	28875
363.923	17650
364.007	34315
364.091	35476
364.175	48473
364.258	149772
364.342	168251
364.426	240136
364.510	124404
364.594	50600
364.677	50099
364.761	149350
364.845	98343
364.929	50303
365.013	39136
365.096	33105
365.180	37911
365.264	42382
365.347	117714
365.431	50663
365.515	19519
365.598	13598
365.682	12922
365.766	18575
365.849	22202
365.933	14663
366.017	17726
366.100	13529
366.184	8486
366.267	9891
366.351	10061
366.435	9419
366.518	7932
366.602	8180
366.685	10978
366.769	11986
366.852	20527
366.936	30520
367.019	19353
367.103	15728
367.186	23294
367.270	10608
367.353	8668
367.436	9610
367.520	9270
367.603	13450
367.687	20023
367.770	32667
367.853	20580
367.937	54243
368.020	73414
368.104	22925
368.187	26129
368.270	37213
368.353	32858
368.437	31435
368.520	46316
368.603	41078
368.687	66514
368.770	102564
368.853	29800
368.936	31483
369.020	27485
369.103	13047
369.186	11303
369.269	12196
369.352	23821
369.436	29680
369.519	20046
369.602	11469
369.685	12895
369.768	13106
369.851	11604
369.934	9473
370.018	13521
370.101	29011
370.184	21644
370.267	16300
370.350	30710
370.433	43116
370.516	89604
370.599	97440
370.682	40711
370.765	75927
370.848	81662
370.931	122071
371.014	49065
371.097	16061
371.180	13121
371.263	10173
371.346	8811
371.429	9468
371.511	11714
371.594	20870
371.677	28218
371.760	30058
371.843	33218
371.926	119697
372.009	221850
372.091	83133
372.174	61554
372.257	110574
372.340	48399
372.423	44454
372.505	43420
372.588	24301
372.671	53161
372.754	126388
372.836	60707
372.919	50045
373.002	79033
373.085	31996
373.167	31189
373.250	68385
373.332	119966
373.415	162055
373.498	283165
373.580	116892
373.663	163343
373.746	189597
373.828	52463
373.911	26359
373.993	27364
374.076	78332
374.159	66261
374.241	43578
374.324	113699
374.406	71866
374.489	101598
374.571	235362
374.654	96993
374.736	58764
374.819	152170
374.901	213403
374.983	196283
375.066	42856
375.148	23143
375.231	67044
375.313	110913
375.395	46926
375.478	15429
375.560	13524
375.643	19404
375.725	56578
375.807	179266
375.890	122045
375.972	48941
376.054	35292
376.136	38164
376.219	23113
376.301	63327
376.383	149725
376.465	59560
376.548	47596
376.630	57707
376.712	135946
376.794	57542
376.877	12758
376.959	10081
377.041	11291
377.123	21068
377.205	22283
377.287	8570
377.369	9749
377.452	10781
377.534	10173
377.616	9701
377.698	9987
377.780	8410
377.862	10710
377.944	10196
378.026	7164
378.108	8574
378.190	8637
378.272	7556
378.354	6723
378.436	6613
378.518	15696
378.600	43389
378.682	41595
378.764	84896
378.846	59191
378.928	24087
379.010	33326
379.091	18482
379.173	9399
379.255	10027
379.337	16139
379.419	47649
379.501	108220
379.583	41338
379.664	16143
379.746	36398
379.828	88956
379.910	112697
379.991	87117
380.073	18435
380.155	13837
380.237	12007
380.318	8822
380.400	12277
380.482	23398
380.564	31511
380.645	30152
380.727	28031
380.809	18556
380.890	14970
380.972	10862
381.053	12054
381.135	14039
381.217	36807
381.298	88039
381.380	43618
381.461	41828
381.543	143185
381.624	151266
381.706	35683
381.787	23877
381.869	27010
381.951	75624
382.032	223991
382.113	138661
382.195	39683
382.276	29719
382.358	57888
382.439	130459
382.521	145634
382.602	202563
382.684	110739
382.765	200701
382.846	265017
382.928	412443
383.009	223096
383.090	186987
383.172	541122
383.253	664871
383.334	254961
383.416	212014
383.497	113622
383.578	81212
383.659	160611
383.741	480711
383.822	888235
383.903	462435
383.984	199084
384.066	256122
384.147	151338
384.228	44190
384.309	37770
384.390	28297
384.471	23171
384.553	23651
384.634	30469
384.715	29854
384.796	19004
384.877	26404
384.958	83508
385.039	92449
385.120	39705
385.201	20576
385.282	24258
385.363	23055
385.444	23654
385.525	42051
385.606	107636
385.687	81748
385.768	28140
385.849	36503
385.930	123962
386.011	182414
386.092	53205
386.173	19721
386.254	15152
386.335	16153
386.416	19953
386.496	58913
386.577	82134
386.658	31945
386.739	22229
386.820	18877
386.901	16014
386.981	15774
387.062	13956
387.143	27328
387.224	86599
387.304	73021
387.385	32044
387.466	23374
387.547	27744
387.627	23013
387.708	42803
387.789	142976
387.869	150409
387.950	42301
388.031	14137
388.111	12464
388.192	26609
388.273	34719
388.353	21792
388.434	16952
388.514	34383
388.595	121339
388.676	152026
388.756	83723
388.837	84072
388.917	48770
388.998	13544
389.078	13337
389.159	12541
389.239	12175
389.320	19462
389.400	17279
389.480	36204
389.561	83844
389.641	37629
389.722	19370
389.802	33074
389.883	40931
389.963	92479
390.043	52156
390.124	20651
390.204	38753
390.284	98947
390.365	56723
390.445	60797
390.525	123228
390.605	108884
390.686	58056
390.766	34664
390.846	16481
390.927	11028
391.007	11369
391.087	18230
391.167	32582
391.247	21894
391.328	15082
391.408	22957
391.488	17088
391.568	9507
391.648	16882
391.728	24250
391.808	21766
391.888	26105
391.969	52722
392.049	74472
392.129	34154
392.209	44531
392.289	92145
392.369	50716
392.449	42563
392.529	30341
392.609	27413
392.689	37695
392.769	95535
392.849	79408
392.929	67072
393.009	135156
393.089	113010
393.169	126982
393.248	351624
393.328	875344
393.408	827159
393.488	309783
393.568	110457
393.648	58526
393.728	38662
393.807	27277
393.887	23925
393.967	21548
394.047	24635
394.127	27533
394.206	39642
394.286	120585
394.366	422671
394.446	407681
394.525	105606
394.605	34344
394.685	29913
394.764	59718
394.844	94660
394.924	68693
395.003	27162
395.083	19301
395.163	16659
395.242	16828
395.322	16457
395.402	12570
395.481	19335
395.561	45961
395.640	112317
395.720	106365
395.799	111128
395.879	77099
395.958	54298
396.038	174193
396.117	548446
396.197	535636
396.276	182461
396.356	73142
396.435	56446
396.515	45405
396.594	59864
396.673	113555
396.753	346164
396.832	789642
396.912	582652
396.991	178433
397.070	60754
397.150	36172
397.229	29773
397.308	49121
397.388	81773
397.467	39587
397.546	17517
397.625	13201
397.705	19051
397.784	20598
397.863	12415
397.942	9769
398.022	11726
398.101	35545
398.180	84624
398.259	41947
398.338	17066
398.417	13548
398.497	10057
398.576	10731
398.655	8041
398.734	9516
398.813	12224
398.892	33621
398.971	87618
399.050	40690
399.129	9071
399.208	7645
399.287	7526
399.366	6787
399.445	6078
399.524	7870
399.603	8224
399.682	18641
399.761	41412
399.840	97473
399.919	63885
399.998	11826
400.077	6233
400.156	6605
400.235	9598
400.313	7294
400.392	12351
400.471	50956
400.550	71045
400.629	19733
400.708	11244
400.786	10841
400.865	24888
400.944	26156
401.023	14660
401.102	5607
401.180	5495
401.259	5881
401.338	7837
401.416	11602
401.495	9566
401.574	7864
401.652	6640
401.731	9927
401.810	8280
401.888	6077
401.967	9546
402.046	18900
402.124	13946
402.203	13863
402.281	13481
402.360	28059
402.438	35938
402.517	19531
402.596	8851
402.674	8919
402.753	5503
402.831	5862
402.910	8373
402.988	28230
403.066	77678
403.145	41234
403.223	29033
403.302	63916
403.380	45574
403.459	44676
403.537	17562
403.615	9208
403.694	4215
403.772	6213
403.850	5753
403.929	4782
404.007	5745
404.085	11212
404.164	10765
404.242	7679
404.320	17730
404.398	52114
404.477	70782
404.555	174994
404.633	137026
404.711	45724
404.789	23474
404.868	9274
404.946	5499
405.024	5383
405.102	3800
405.180	4640
405.258	4184
405.336	5859
405.415	7697
405.493	14232
405.571	10535
405.649	5678
405.727	5338
405.805	10240
405.883	9773
405.961	9513
406.039	10026
406.117	6180
406.195	13295
406.273	52535
406.351	151986
406.429	80845
406.507	14836
406.585	7799
406.663	8855
406.740	12062
406.818	9312
406.896	5934
406.974	7935
407.052	19096
407.130	97855
407.208	118877
407.285	23370
407.363	6958
407.441	6980
407.519	5828
407.596	8495
407.674	17982
407.752	36378
407.830	34796
407.907	16912
407.985	8472
408.063	5280
408.141	4437
408.218	12243
408.296	10136
408.373	7706
408.451	9823
408.529	8803
408.606	5376
408.684	5045
408.762	4629
408.839	4247
408.917	5099
408.994	5280
409.072	6116
409.149	7017
409.227	14111
409.304	17207
409.382	15319
409.459	17650
409.537	23484
409.614	20780
409.692	15125
409.769	15494
409.846	23202
409.924	29393
410.001	24181
410.079	16343
410.156	13549
410.233	14033
410.311	9695
410.388	7322
410.465	10335
410.543	10413
410.620	7431
410.697	8863
410.775	9788
410.852	6734
410.929	11448
411.006	13281
411.083	10657
411.161	20777
411.238	19518
411.315	10435
411.392	7308
411.469	11966
411.547	12991
411.624	7300
411.701	6594
411.778	8565
411.855	17259
411.932	8526
412.009	5789
412.086	6375
412.163	7715
412.240	6852
412.317	10798
412.394	9968
412.471	5398
412.548	5091
412.625	5608
412.702	8095
412.779	17136
412.856	13081
412.933	5518
413.010	4410
413.087	11704
413.164	49574
413.241	62453
413.318	15782
413.395	11805
413.471	17368
413.548	7942
413.625	6010
413.702	7177
413.779	4916
413.855	2860
413.932	3651
414.009	3536
414.086	4271
414.162	4519
414.239	12559
414.316	50971
414.393	93025
414.469	30782
414.546	5357
414.623	4784
414.699	5248
414.776	7020
414.853	5094
414.929	4826
415.006	4996
415.082	5716
415.159	4957
415.236	5885
415.312	6227
415.389	13382
415.465	15800
415.542	8367
415.618	6502
415.695	10661
415.771	6981
415.848	7045
415.924	5697
416.000	4673
416.077	4864
416.153	3282
416.230	1726
416.306	3054
416.383	3458
416.459	4518
416.535	3388
416.612	2961
416.688	3750
416.764	5413
416.841	4395
416.917	4038
416.993	5043
417.069	6460
417.146	8921
417.222	11691
417.298	8004
417.374	5372
417.451	6558
417.527	8972
417.603	9944
417.679	6331
417.755	5893
417.831	3416
417.908	3407
417.984	3167
418.060	3998
418.136	14249
418.212	17734
418.288	6744
418.364	4868
418.440	5620
418.516	9448
418.592	11627
418.668	23724
418.744	33824
418.820	23155
418.896	6395
418.972	3624
419.048	6404
419.124	16885
419.200	11903
419.276	4578
419.352	2888
419.428	4317
419.504	5425
419.579	7560
419.655	5881
419.731	7862
419.807	24205
419.883	38669
419.959	25001
420.034	8725
420.110	19257
420.186	63944
420.262	43192
420.337	10122
420.413	8315
420.489	6132
420.565	6272
420.640	5932
420.716	7572
420.792	5410
420.867	8190
420.943	7580
421.019	13280
421.094	11030
421.170	7938
421.245	6364
421.321	8413
421.397	9197
421.472	12874
421.548	23154
421.623	22984
421.699	15586
421.774	15213
421.850	15311
421.925	23048
422.001	22739
422.076	23468
422.152	28588
422.227	43187
422.302	53327
422.378	81865
422.453	146794
422.529	306199
422.604	560086
422.679	610653
422.755	539642
422.830	303445
422.905	146290
422.981	85424
423.056	57207
423.131	41049
423.207	31989
423.282	30798
423.357	36972
423.432	26752
423.508	25457
423.583	43149
423.658	31588
423.733	15652
423.808	15426
423.883	17403
423.959	16649
424.034	15662
424.109	12363
424.184	9423
424.259	8445
424.334	7992
424.409	6745
424.484	8312
424.559	8237
424.634	9859
424.709	12456
424.784	11610
424.859	9163
424.934	14382
425.009	49911
425.084	71894
425.159	24893
425.234	7548
425.309	7844
425.384	31122
425.459	44527
425.534	13252
425.609	6551
425.683	4649
425.758	4730
425.833	6405
425.908	8745
425.983	31828
426.058	75376
426.132	30304
426.207	8029
426.282	10795
426.357	8186
426.431	5064
426.506	4236
426.581	4721
426.655	4533
426.730	4846
426.805	4545
426.879	6336
426.954	5684
427.029	15488
427.103	71789
427.178	138203
427.253	53993
427.327	10621
427.402	18786
427.476	47949
427.551	22882
427.625	7555
427.700	6905
427.774	4778
427.849	5581
427.923	3880
427.998	4768
428.072	6390
428.147	16737
428.221	70926
428.296	171213
428.370	80941
428.444	14208
428.519	13762
428.593	21608
428.667	19480
428.742	24157
428.816	31444
428.890	121383
428.965	178027
429.039	55905
429.113	26295
429.188	11253
429.262	6116
429.336	13788
429.410	38519
429.485	21470
429.559	19958
429.633	14090
429.707	8688
429.781	27229
429.855	127383
429.930	170103
430.004	75773
430.078	94256
430.152	102734
430.226	215481
430.300	189385
430.374	36657
430.448	15515
430.522	36299
430.596	86993
430.670	65907
430.744	184527
430.818	213436
430.892	43876
430.966	10191
431.040	5363
431.114	3408
431.188	3295
431.262	3587
431.336	4907
431.410	14037
431.484	30334
431.557	19625
431.631	5209
431.705	7609
431.779	42602
431.853	152500
431.927	94068
432.000	13593
432.074	5691
432.148	5700
432.222	4547
432.295	3082
432.369	4431
432.443	9775
432.516	60432
432.590	127640
432.664	44118
432.737	6928
432.811	3217
432.885	2250
432.958	3248
433.032	2742
433.106	1952
433.179	2012
433.253	2633
433.326	2519
433.400	1838
433.473	2029
433.547	1866
433.620	3315
433.694	10552
433.767	7998
433.841	2503
433.914	3987
433.988	4090
434.061	3190
434.134	3109
434.208	1803
434.281	1794
434.355	2556
434.428	4650
434.501	2630
434.575	2207
434.648	2287
434.721	1759
434.795	1786
434.868	2046
434.941	1703
435.014	2071
435.088	2992
435.161	8368
435.234	12909
435.307	13722
435.381	7542
435.454	7719
435.527	10689
435.600	12353
435.673	9303
435.746	6531
435.819	5175
435.892	4839
435.966	3309
436.039	3096
436.112	3672
436.185	2232
436.258	1511
436.331	1064
436.404	1425
436.477	1754
436.550	1134
436.623	1324
436.696	2774
436.769	3280
436.842	2840
436.915	3273
436.987	4700
437.060	3647
437.133	2809
437.206	1512
437.279	2092
437.352	1863
437.425	2502
437.498	5975
437.570	13084
437.643	10872
437.716	2625
437.789	2826
437.861	10961
437.934	26407
438.007	11059
438.080	2618
438.152	3540
438.225	12280
438.298	75446
438.370	168505
438.443	69802
438.516	22148
438.588	5748
438.661	2898
438.734	2754
438.806	4081
438.879	4587
438.951	8199
439.024	13716
439.096	4768
439.169	2721
439.241	2655
439.314	1476
439.386	4735
439.459	7543
439.531	12065
439.604	4873
439.676	2096
439.749	1825
439.821	2210
439.893	1952
439.966	1848
440.038	4686
440.110	5059
440.183	3991
440.255	2251
440.327	6552
440.400	34526
440.472	118905
440.544	67794
440.617	11447
440.689	10216
440.761	14900
440.833	22112
440.905	12312
440.978	3677
441.050	1396
441.122	2680
441.194	2016
441.266	2186
441.338	2114
441.411	8812
441.483	48548
441.555	60488
441.627	12814
441.699	7486
441.771	6183
441.843	3532
441.915	2371
441.987	2736
442.059	2942
442.131	5143
442.203	6893
442.275	9464
442.347	10228
442.419	20188
442.491	103452
442.563	210528
442.635	79924
442.706	37691
442.778	25451
442.850	8181
442.922	5002
442.994	6497
443.066	9734
443.137	7901
443.209	8086
443.281	13699
443.353	30515
443.425	121081
443.496	359265
443.568	333872
443.640	119332
443.711	25369
443.783	11329
443.855	7073
443.926	5219
443.998	5634
444.070	6168
444.141	7673
444.213	10594
444.285	11890
444.356	8333
444.428	7054
444.499	4037
444.571	3577
444.642	3175
444.714	6038
444.785	9751
444.857	10476
444.928	18090
445.000	11740
445.071	14388
445.143	16332
445.214	14095
445.285	27023
445.357	73487
445.428	239416
445.500	442878
445.571	305582
445.642	170721
445.714	59863
445.785	34666
445.856	14421
445.928	14970
445.999	13383
446.070	9619
446.141	11857
446.213	11763
446.284	5586
446.355	4886
446.426	4120
446.497	3702
446.569	6922
446.640	11750
446.711	9583
446.782	3325
446.853	4166
446.924	5833
446.995	4840
447.066	3755
447.138	6252
447.209	3569
447.280	1868
447.351	720
447.422	1865
447.493	3197
447.564	5810
447.635	8392
447.706	3508
447.777	1232
447.847	1426
447.918	1057
447.989	4256
448.060	5030
448.131	11355
448.202	12444
448.273	9722
448.344	3301
448.414	2827
448.485	2424
448.556	2168
448.627	735
448.698	1740
448.768	1337
448.839	2894
448.910	5398
448.981	6365
449.051	2493
449.122	1405
449.193	1067
449.263	2184
449.334	1916
449.405	5283
449.475	12017
449.546	6911
449.616	7706
449.687	5731
449.758	2642
449.828	1779
449.899	1512
449.969	1748
450.040	1022
450.110	2018
450.181	3308
450.251	1713
450.322	1895
450.392	2072
450.463	2016
450.533	1633
450.604	1407
450.674	1740
450.744	2402
450.815	1828
450.885	2379
450.955	1781
451.026	1329
451.096	2766
451.166	2657
451.237	8213
451.307	18043
451.377	6574
451.447	2189
451.518	2327
451.588	1647
451.658	2551
451.728	5244
451.799	19270
451.869	18923
451.939	5037
452.009	1535
452.079	2217
452.149	2307
452.219	6611
452.289	22259
452.360	13730
452.430	3401
452.500	4692
452.570	6987
452.640	12850
452.710	31432
452.780	36127
452.850	26257
452.920	22428
452.990	7138
453.060	5369
453.129	7605
453.199	8327
453.269	27905
453.339	46672
453.409	65484
453.479	75874
453.549	104209
453.619	105941
453.688	36240
453.758	6847
453.828	3056
453.898	2840
453.968	2110
454.037	2552
454.087	2309
454.107	2188
454.168	2020
454.177	1970
454.247	1159
454.249	1223
454.316	2192
454.330	2313
454.386	2626
454.411	5928
454.456	11044
454.492	12826
454.525	14394
454.574	7954
454.595	5184
454.655	2712
454.665	2333
454.734	3992
454.736	4131
454.804	7026
454.817	9802
454.873	20083
454.898	20007
454.943	19446
454.979	12743
455.013	6929
455.060	4814
455.082	4226
455.141	6276
455.152	6419
455.221	15871
455.222	16072
455.291	23626
455.303	21772
455.360	13031
455.384	14123
455.430	16344
455.465	14920
455.499	13073
455.546	17241
455.569	18631
455.627	11673
455.638	10512
455.707	3539
455.708	3560
455.777	2833
455.789	2918
455.846	3175
455.869	2896
455.916	2381
455.950	2799
455.985	3153
456.031	3240
456.054	3217
456.112	2788
456.124	2680
456.193	2469
456.193	2442
456.262	3158
456.274	3385
456.332	4098
456.355	4191
456.401	3941
456.436	3512
456.470	3200
456.516	2951
456.540	2851
456.597	3068
456.609	3073
456.678	2496
456.678	2473
456.747	2643
456.759	2561
456.817	2302
456.840	2384
456.886	2393
456.920	3043
456.955	3730
457.001	3053
457.024	2825
457.082	4535
457.093	4800
457.162	5329
457.163	5364
457.232	6056
457.243	5876
457.301	4589
457.324	3982
457.370	3301
457.405	3732
457.439	4135
457.485	4584
457.508	4868
457.566	5230
457.577	5414
457.646	7054
457.647	7114
457.715	14339
457.727	15874
457.784	24852
457.808	32163
457.853	42313
457.889	48341
457.922	46910
457.969	30908
457.991	30510
458.050	39257
458.060	40653
458.129	68007
458.130	68759
458.198	71845
458.211	65106
458.267	32911
458.292	22135
458.336	13848
458.372	13139
458.405	18621
458.453	29110
458.474	37144
458.533	67306
458.543	69989
458.611	115072
458.614	115492
458.680	69784
458.694	55536
458.749	23195
458.775	16085
458.818	10152
458.855	8340
458.887	7457
458.936	6370
458.955	6090
459.016	6244
459.024	6279
459.093	6962
459.097	6989
459.162	7420
459.177	7655
459.230	8414
459.257	8882
459.299	9370
459.338	9408
459.368	9601
459.418	10650
459.437	10117
459.499	7445
459.505	7352
459.574	6355
459.579	6309
459.643	5777
459.659	5713
459.711	5849
459.740	6121
459.780	6523
459.820	6929
459.849	6901
459.900	6667
459.917	6784
459.981	7491
459.986	7468
460.054	7200
460.061	7169
460.123	7882
460.141	7927
460.191	8628
460.222	9867
460.260	11003
460.302	12607
460.328	11893
460.382	8690
460.397	8404
460.462	6939
460.465	6966
460.534	9355
460.543	9534
460.602	19011
460.623	23078
460.671	31397
460.703	40789
460.739	42211
460.783	36975
460.808	30809
460.864	10068
460.876	8413
460.944	7386
460.945	7368
461.013	6996
461.024	6955
461.081	7768
461.104	8310
461.150	8141
461.184	7878
461.218	7698
461.264	7290
461.286	7363
461.345	7610
461.355	7540
461.423	7104
461.425	7097
461.491	7287
461.505	7350
461.559	12386
461.585	14903
461.628	21209
461.665	27655
461.696	30836
461.745	37939
461.764	33896
461.825	12830
461.832	12318
461.901	9042
461.905	9010
461.969	8145
461.985	7863
462.037	7553
462.065	7239
462.105	7773
462.145	8889
462.173	11566
462.225	16490
462.241	17936
462.305	25318
462.310	24850
462.378	16041
462.385	14691
462.446	9501
462.465	8606
462.514	8875
462.545	8989
462.582	9058
462.625	9198
462.650	8887
462.705	8256
462.718	8407
462.785	9059
462.786	9099
462.854	11337
462.865	11708
462.922	13921
462.945	15086
462.990	12822
463.025	10004
463.058	8669
463.104	7160
463.126	7185
463.184	7813
463.194	7946
463.262	8591
463.264	8615
463.330	8914
463.344	8981
463.398	9635
463.424	9718
463.466	9513
463.504	9745
463.533	10074
463.583	10253
463.601	10375
463.663	10972
463.669	11206
463.737	13620
463.743	13865
463.805	19464
463.823	21103
463.873	29358
463.903	34531
463.940	36507
463.982	39333
464.008	32472
464.062	15266
464.076	14366
464.142	9784
464.144	9756
464.211	9627
464.221	9671
464.279	10415
464.301	10674
464.347	12320
464.381	13696
464.414	13810
464.461	13702
464.482	14367
464.540	16365
464.550	16326
464.617	15607
464.620	15563
464.685	14825
464.699	14617
464.753	15657
464.779	16281
464.820	17106
464.859	17767
464.888	17240
464.938	16138
464.956	16386
465.018	17282
465.023	17165
465.091	15239
465.098	15029
465.158	15305
465.177	15363
465.226	15353
465.257	15305
465.293	15610
465.336	15882
465.361	16782
465.416	18856
465.428	19935
465.495	25809
465.496	25916
465.563	36303
465.575	38160
465.631	46878
465.654	50706
465.698	33679
465.734	18344
465.765	15882
465.813	12623
465.833	12680
465.893	13231
465.900	13239
465.968	13159
465.972	13124
466.035	13134
466.052	13132
466.102	13324
466.131	13421
466.170	13429
466.210	13405
466.237	14021
466.290	15086
466.304	15102
466.369	15059
466.372	15097
466.439	15452
466.449	15466
466.506	16628
466.528	17040
466.573	23073
466.607	27568
466.641	38417
466.687	53390
466.708	59670
466.766	77171
466.775	71958
466.842	31247
466.845	29259
466.909	21550
466.925	19751
466.977	18657
467.004	18092
467.044	18608
467.083	19065
467.111	20502
467.163	23094
467.178	23706
467.242	26051
467.245	26034
467.312	24650
467.321	24422
467.379	23980
467.400	23746
467.446	25942
467.480	27445
467.559	23786
467.638	19319
467.717	19682
467.796	24112
467.875	27223
467.955	24724
468.034	31211
468.113	65045
468.192	92331
468.271	35007
468.350	26034
468.429	31236
468.508	32926
468.588	26355
468.667	21015
468.746	21126
468.825	19091
468.904	19283
468.983	20911
469.062	29536
469.141	35292
469.220	20110
469.299	17699
469.378	19694
469.456	20908
469.535	21451
469.614	20119
469.693	20581
469.772	25508
469.851	32641
469.930	25990
470.009	21081
470.088	21546
470.166	27418
470.245	40454
470.324	50876
470.403	37628
470.482	25597
470.560	20953
470.639	23249
470.718	26766
470.797	21964
470.875	22634
470.954	28064
471.033	29904
471.111	17657
471.190	15995
471.269	15213
471.347	16178
471.426	17282
471.505	19818
471.583	21067
471.662	19444
471.740	18430
471.819	18556
471.898	17461
471.976	17416
472.055	16835
472.133	18239
472.212	23138
472.290	24186
472.369	18968
472.447	17134
472.526	16446
472.604	16552
472.683	18299
472.761	20191
472.839	20592
472.918	19950
472.996	18442
473.075	19758
473.153	19792
473.231	16196
473.310	21204
473.388	22281
473.466	19021
473.545	22124
473.623	29782
473.701	32529
473.780	21410
473.858	15663
473.936	19553
474.014	18888
474.093	21590
474.171	27303
474.249	32511
474.327	28007
474.405	20444
474.484	16666
474.562	17541
474.640	17908
474.718	17158
474.796	16411
474.874	17015
474.952	15303
475.030	15957
475.108	16302
475.187	17330
475.265	18409
475.343	23406
475.421	25089
475.499	17557
475.577	17068
475.655	21655
475.733	37011
475.811	57584
475.889	53555
475.966	42270
476.044	18488
476.122	20416
476.200	22908
476.278	20697
476.356	15887
476.434	16627
476.512	18559
476.590	22434
476.667	21810
476.745	16483
476.823	17182
476.901	16522
476.979	17415
477.056	17311
477.134	16774
477.212	17867
477.290	18941
477.367	15627
477.445	15665
477.523	15201
477.601	16405
477.678	16100
477.756	18053
477.834	20534
477.911	17021
477.989	15564
478.066	15874
478.144	17402
478.222	17953
478.299	24108
478.377	26476
478.454	15207
478.532	15933
478.609	17429
478.687	19229
478.764	16242
478.842	17005
478.919	19255
478.997	18621
479.074	15044
479.152	17847
479.229	20479
479.307	15907
479.384	13006
479.461	13845
479.539	15878
479.616	16904
479.694	16396
479.771	17193
479.848	18060
479.926	20616
480.003	25343
480.080	16641
480.157	15021
480.235	14168
480.312	15904
480.389	15863
480.467	23974
480.544	29023
480.621	18817
480.698	18748
480.775	20590
480.853	19897
480.930	16627
481.007	17034
481.084	17998
481.161	19283
481.238	18796
481.315	15599
481.392	14888
481.470	15664
481.547	15789
481.624	15915
481.701	16373
481.778	15798
481.855	18188
481.932	23264
482.009	36914
482.086	30565
482.163	18689
482.240	22258
482.317	31273
482.393	28871
482.470	17508
482.547	17813
482.624	17720
482.701	18595
482.778	18170
482.855	15613
482.932	16101
483.009	15968
483.085	18522
483.162	22469
483.239	22649
483.316	18116
483.393	18546
483.469	17226
483.546	19630
483.623	19956
483.699	15963
483.776	16992
483.853	19436
483.930	25169
484.006	55919
484.083	89419
484.160	54221
484.236	64149
484.313	54688
484.389	42066
484.466	39332
484.543	36692
484.619	41173
484.696	42017
484.772	40956
484.849	41249
484.925	35218
485.002	34207
485.078	36896
485.155	39850
485.231	33969
485.308	32693
485.384	33352
485.461	38809
485.537	57929
485.614	70051
485.690	36654
485.766	33274
485.843	36549
485.919	53851
485.995	60486
486.072	33578
486.148	29844
486.224	31557
486.301	31044
486.377	37648
486.453	39625
486.530	36675
486.606	41296
486.682	47696
486.758	53210
486.835	61799
486.911	50101
486.987	76714
487.063	107153
487.139	146635
487.215	103561
487.292	50614
487.368	39426
487.444	45362
487.520	56303
487.596	64026
487.672	94513
487.748	265770
487.824	436810
487.900	191462
487.976	62729
488.052	50407
488.128	56067
488.204	46230
488.280	36927
488.356	39454
488.432	66952
488.508	100050
488.584	50234
488.660	34565
488.736	34443
488.812	34623
488.888	43626
488.964	59226
489.039	131506
489.115	217078
489.191	144306
489.267	37693
489.343	31406
489.418	27172
489.494	27209
489.570	25344
489.646	29254
489.722	26910
489.797	28432
489.873	37502
489.949	72463
490.024	72982
490.100	28727
490.176	27366
490.251	35781
490.327	48950
490.403	32606
490.478	26652
490.554	23340
490.629	23556
490.705	24476
490.781	26223
490.856	25371
490.932	31186
491.007	32207
491.083	28561
491.158	25727
491.234	30137
491.309	56247
491.385	64350
491.460	29053
491.536	28393
491.611	28122
491.686	30437
491.762	41246
491.837	86498
491.913	150114
491.988	199752
492.063	278633
492.139	78234
492.214	39921
492.289	24237
492.365	23803
492.440	28736
492.515	28526
492.590	26769
492.666	21221
492.741	27347
492.816	37566
492.891	26001
492.967	22293
493.042	20826
493.117	19775
493.192	21451
493.267	26117
493.342	46797
493.418	62878
493.493	26933
493.568	19994
493.643	20149
493.718	25850
493.793	36959
493.868	46814
493.943	34413
494.018	24924
494.093	20090
494.168	20904
494.243	20625
494.318	19702
494.393	17988
494.468	19416
494.543	19923
494.618	23337
494.693	22511
494.768	19735
494.842	21373
494.917	18598
494.992	20565
495.067	19836
495.142	17977
495.217	21666
495.292	22296
495.366	26086
495.441	31892
495.516	38672
495.591	52766
495.665	178350
495.740	451165
495.815	241630
495.890	38552
495.964	25543
496.039	27255
496.114	24578
496.188	26646
496.263	28116
496.338	23618
496.412	25635
496.487	30339
496.561	34820
496.636	37715
496.710	28142
496.785	28888
496.860	31852
496.934	27603
497.009	28172
497.083	26181
497.158	26851
497.232	30353
497.307	37985
497.381	32334
497.455	34473
497.530	41653
497.604	32459
497.679	33062
497.753	45363
497.827	59294
497.902	53202
497.976	58801
498.050	114176
498.125	423360
498.199	524227
498.273	103409
498.348	68800
498.422	57165
498.496	55000
498.570	55746
498.645	38751
498.719	34294
498.793	39595
498.867	54706
498.941	71285
499.016	173088
499.090	481081
499.164	243363
499.238	33934
499.312	29862
499.386	38993
499.460	37326
499.534	31145
499.609	38091
499.683	48947
499.757	45389
499.831	78291
499.905	305242
499.979	360887
500.053	64689
500.127	61324
500.201	54537
500.275	34377
500.349	31835
500.422	35024
500.496	50282
500.570	104306
500.644	209454
500.718	363484
500.792	119973
500.866	30183
500.940	34038
501.013	32451
501.087	30755
501.161	57442
501.235	76275
501.309	104512
501.382	294889
501.456	321367
501.530	77524
501.603	103155
501.677	57813
501.751	23875
501.825	27045
501.898	43131
501.972	121028
502.046	101964
502.119	29672
502.193	58130
502.266	132959
502.340	87555
502.413	58628
502.487	120868
502.561	77785
502.634	32457
502.708	26123
502.781	25545
502.855	20625
502.928	18650
503.002	18606
503.075	17209
503.149	19751
503.222	19693
503.295	20089
503.369	24178
503.442	30219
503.516	84261
503.589	228760
503.662	180288
503.736	58378
503.809	106761
503.882	110520
503.956	137586
504.029	168753
504.102	172682
504.175	258573
504.249	118236
504.322	50192
504.395	34729
504.468	25375
504.542	21964
504.615	19348
504.688	17659
504.761	17778
504.834	22954
504.907	29385
504.980	51352
505.053	29775
505.127	32983
505.200	39805
505.273	26336
505.346	20160
505.419	16778
505.492	16387
505.565	13011
505.638	13599
505.711	13943
505.784	14186
505.857	14258
505.930	15305
506.003	14935
506.076	17272
506.149	20479
506.221	24650
506.294	22919
506.367	48135
506.440	167735
506.513	126275
506.586	28259
506.659	19850
506.731	16977
506.804	19958
506.877	32078
506.950	23760
507.022	18630
507.095	18380
507.168	24188
507.241	18948
507.313	15265
507.386	18028
507.459	26784
507.531	19667
507.604	16646
507.677	16527
507.749	13287
507.822	19318
507.894	36996
507.967	47737
508.040	26652
508.112	26285
508.185	27707
508.257	22794
508.330	37919
508.402	27686
508.475	20553
508.547	23558
508.620	21587
508.692	32353
508.765	24573
508.837	16621
508.909	17178
508.982	17183
509.054	20415
509.127	18259
509.199	16383
509.271	15656
509.344	15327
509.416	15395
509.488	15300
509.560	17563
509.633	18809
509.705	23928
509.777	21833
509.849	32593
509.922	27433
509.994	17578
510.066	18176
510.138	18424
510.210	29750
510.283	29573
510.355	26082
510.427	21827
510.499	20562
510.571	19675
510.643	21121
510.715	38190
510.787	39223
510.859	23212
510.931	26179
511.003	39265
511.076	40665
511.148	19695
511.219	18659
511.291	28729
511.363	35227
511.435	20415
511.507	17246
511.579	18604
511.651	19532
511.723	18064
511.795	17557
511.867	17264
511.939	20399
512.010	35218
512.082	36498
512.154	20606
512.226	20879
512.298	26561
512.369	43237
512.441	33546
512.513	33370
512.585	25767
512.656	27354
512.728	31169
512.800	23935
512.871	21035
512.943	21509
513.015	19163
513.086	21738
513.158	25534
513.230	25190
513.301	36187
513.373	44974
513.444	27127
513.516	21572
513.588	21428
513.659	24373
513.731	29782
513.802	28390
513.874	52548
513.945	108178
514.016	45748
514.088	22474
514.159	24153
514.231	32199
514.302	42148
514.374	28573
514.445	26492
514.516	42749
514.588	39099
514.659	25560
514.730	40326
514.802	39486
514.873	27346
514.944	27611
515.016	26932
515.087	32560
515.158	34859
515.229	46791
515.301	27345
515.372	31283
515.443	25304
515.514	22679
515.585	19807
515.656	21373
515.728	20904
515.799	20782
515.870	24413
515.941	24531
516.012	23396
516.083	31112
516.154	35599
516.225	47501
516.296	47088
516.367	42912
516.438	49739
516.509	62578
516.580	85561
516.651	251439
516.722	951975
516.793	593822
516.864	102866
516.935	84673
517.006	87570
517.077	116625
517.148	256809
517.219	864864
517.289	1581980
517.360	464938
517.431	142935
517.502	51072
517.573	42655
517.643	39332
517.714	41197
517.785	43706
517.856	46521
517.926	57958
517.997	68993
518.068	85877
518.138	111194
518.209	160981
518.280	539026
518.350	1913407
518.421	1101570
518.492	169347
518.562	83039
518.633	71746
518.703	74041
518.774	122001
518.845	292124
518.915	335974
518.986	124812
519.056	69483
519.127	94226
519.197	128984
519.268	228110
519.338	169746
519.408	50558
519.479	64232
519.549	53194
519.620	32683
519.690	25155
519.760	26049
519.831	27302
519.901	29469
519.971	22722
520.042	25212
520.112	29894
520.182	35377
520.253	43969
520.323	31703
520.393	47667
520.463	93682
520.534	59666
520.604	125532
520.674	61505
520.744	43945
520.814	125142
520.885	135069
520.955	68375
521.025	221027
521.095	129547
521.165	27666
521.235	23974
521.305	22350
521.375	21236
521.445	25355
521.515	34840
521.585	40105
521.655	44446
521.725	31914
521.795	27304
521.865	20786
521.935	29591
522.005	29438
522.075	20570
522.145	22802
522.215	24440
522.285	32366
522.355	38999
522.424	68461
522.494	67423
522.564	42028
522.634	73707
522.704	247256
522.774	135244
522.843	29596
522.913	26355
522.983	34224
523.053	27997
523.122	27062
523.192	35814
523.262	121053
523.331	154154
523.401	35081
523.471	20484
523.540	21785
523.610	17907
523.680	18524
523.749	19213
523.819	22005
523.888	24556
523.958	19294
524.027	20320
524.097	21852
524.166	20161
524.236	22984
524.305	25145
524.375	19298
524.444	18238
524.514	22541
524.583	19636
524.653	23162
524.722	28063
524.791	22313
524.861	21293
524.930	19270
524.999	20994
525.069	31218
525.138	25357
525.207	27443
525.277	23687
525.346	23571
525.415	22917
525.484	25028
525.554	26680
525.623	28231
525.692	28340
525.761	32817
525.830	38572
525.900	44776
525.969	63699
526.038	105709
526.107	195563
526.176	611337
526.245	622015
526.314	197908
526.383	297358
526.452	487708
526.522	623452
526.591	816030
526.660	234798
526.729	117006
526.797	101964
526.867	173781
526.935	690069
527.004	1364734
527.073	984498
527.142	132917
527.211	50397
527.280	41412
527.349	42244
527.418	24323
527.487	23545
527.555	21070
527.624	20292
527.693	18425
527.762	19699
527.831	17644
527.899	18738
527.968	19094
528.037	19513
528.106	24065
528.174	42963
528.243	35733
528.312	41245
528.380	66992
528.449	27100
528.518	20179
528.586	17068
528.655	17127
528.723	16858
528.792	16951
528.861	18080
528.929	17445
528.998	17916
529.066	18845
529.135	26148
529.203	25049
529.272	28766
529.340	36647
529.409	33736
529.477	30302
529.545	34806
529.614	39896
529.682	43112
529.751	51195
529.819	50847
529.887	52768
529.956	43958
530.024	42139
530.092	38569
530.161	42234
530.229	56042
530.297	48856
530.365	41176
530.434	41308
530.502	43202
530.570	39950
530.638	35154
530.707	36804
530.775	38002
530.843	34202
530.911	39092
530.979	37099
531.047	41258
531.115	41765
531.183	37487
531.252	36256
531.320	34526
531.388	35199
531.456	39132
531.524	39513
531.592	41178
531.660	47705
531.728	43082
531.796	40724
531.864	41783
531.932	41303
532.000	42349
532.067	44997
532.135	49695
532.203	51767
532.271	56039
532.339	69669
532.407	135469
532.475	108334
532.542	61735
532.610	61492
532.678	71763
532.746	185795
532.814	529146
532.881	205033
532.949	61755
533.017	50390
533.084	46480
533.152	43442
533.220	43558
533.287	47747
533.355	46719
533.423	44198
533.490	46128
533.558	44915
533.625	43671
533.693	43251
533.761	44127
533.828	43403
533.896	43065
533.963	63424
534.031	76923
534.098	99090
534.166	67658
534.233	44703
534.300	45397
534.368	45505
534.435	43027
534.503	44469
534.570	53856
534.637	53050
534.705	53599
534.772	58612
534.840	80604
534.907	264235
534.974	458144
535.041	92193
535.109	48266
535.176	39136
535.243	37855
535.310	39343
535.378	40023
535.445	34592
535.512	34393
535.579	35578
535.646	34671
535.714	33749
535.781	35520
535.848	37166
535.915	38197
535.982	38801
536.049	38328
536.116	38308
536.183	34561
536.250	34085
536.317	35193
536.384	38293
536.451	47445
536.518	52516
536.585	41844
536.652	45859
536.719	59957
536.786	54176
536.853	44090
536.920	52878
536.987	76887
537.053	76974
537.120	240438
537.187	283981
537.254	47911
537.321	35382
537.388	35759
537.454	30320
537.521	29487
537.588	29568
537.654	31641
537.721	32912
537.788	32818
537.855	30023
537.921	31485
537.988	31678
538.055	31074
538.121	29693
538.188	31806
538.254	40211
538.321	75058
538.388	55774
538.454	33904
538.521	31261
538.587	29293
538.654	30067
538.720	28788
538.787	28593
538.853	29897
538.920	33566
538.986	33774
539.053	30876
539.119	32038
539.185	33206
539.252	36589
539.318	52785
539.385	44906
539.451	37097
539.517	36692
539.583	40389
539.650	72825
539.716	219092
539.782	88498
539.849	33315
539.915	31692
539.981	31488
540.047	36908
540.114	35326
540.180	34824
540.246	35729
540.312	43667
540.378	72397
540.444	79616
540.510	78296
540.576	242239
540.643	109213
540.709	32216
540.775	31096
540.841	30471
540.907	36133
540.973	58408
541.039	50668
541.105	52449
541.171	34077
541.237	30890
541.303	32083
541.369	34909
541.435	42233
541.500	66242
541.566	50433
541.632	30173
541.698	27768
541.764	27730
541.830	26416
541.896	26496
541.961	27834
542.027	28361
542.093	30806
542.159	31723
542.224	33076
542.290	40973
542.356	62580
542.421	78793
542.487	42906
542.553	31667
542.618	34378
542.684	32853
542.750	33473
542.815	36607
542.881	53580
542.947	191236
543.012	190853
543.078	36573
543.143	29859
543.209	32068
543.274	32496
543.340	35371
543.405	73643
543.471	149206
543.536	45121
543.602	30430
543.667	28810
543.732	28980
543.798	27380
543.863	28486
543.928	25572
543.994	26380
544.059	28044
544.124	27342
544.190	29443
544.255	31426
544.320	31854
544.386	33208
544.451	41915
544.516	48778
544.581	46770
544.646	114850
544.712	229394
544.777	59253
544.842	36346
544.907	37431
544.972	33839
545.037	33874
545.102	35209
545.168	36540
545.233	38365
545.298	39117
545.363	42063
545.428	46873
545.493	72957
545.558	179187
545.623	95308
545.688	39569
545.753	35931
545.818	35964
545.883	38150
545.947	38069
546.012	39877
546.077	41220
546.142	41895
546.207	41960
546.272	50709
546.337	55248
546.401	46401
546.466	44479
546.531	43117
546.596	47830
546.661	50740
546.725	49323
546.790	47364
546.855	51443
546.919	51815
546.984	57291
547.049	62420
547.113	70625
547.178	72453
547.243	80611
547.307	90960
547.372	104403
547.436	108774
547.501	102577
547.565	110927
547.630	111850
547.695	108198
547.759	106580
547.823	104880
547.888	100057
547.952	101916
548.017	105732
548.081	112232
548.146	119379
548.210	121527
548.274	118916
548.339	116513
548.403	107398
548.468	102576
548.532	99113
548.596	100771
548.660	101086
548.725	108934
548.789	123525
548.853	124418
548.917	113126
548.982	116115
549.046	112501
549.110	91130
549.174	90664
549.238	101847
549.303	111394
549.367	118161
549.431	114095
549.495	106164
549.559	105380
549.623	117262
549.687	137641
549.751	152697
549.815	155870
549.879	156579
549.943	144555
550.007	153472
550.071	154715
550.135	155098
550.199	141187
550.263	132933
550.327	124767
550.391	134349
550.455	138174
550.519	145313
550.582	154698
550.646	186849
550.710	199953
550.774	173176
550.838	173315
550.901	178095
550.965	189058
551.029	196352
551.093	212914
551.156	235854
551.220	290805
551.284	343543
551.347	250525
551.411	239823
551.475	250015
551.538	191764
551.602	174780
551.666	162917
551.729	152260
551.793	146177
551.856	144780
551.920	141743
551.983	142430
552.047	141360
552.110	141913
552.174	139315
552.237	145931
552.301	137425
552.364	129337
552.428	126764
552.491	129810
552.554	134311
552.618	135570
552.681	141596
552.745	142276
552.808	168731
552.871	214413
552.934	173326
552.998	142206
553.061	135881
553.124	127773
553.187	124560
553.251	127778
553.314	130658
553.377	128002
553.440	136349
553.503	161645
553.567	198984
553.630	144372
553.693	134315
553.756	132931
553.819	129308
553.882	122908
553.945	123289
554.008	123727
554.071	122701
554.134	124884
554.197	118412
554.260	111906
554.323	118143
554.386	118832
554.449	123837
554.512	125476
554.575	118921
554.638	117978
554.701	116628
554.764	114379
554.827	112638
554.889	107878
554.952	101335
555.015	99058
555.078	100743
555.141	101962
555.203	100291
555.266	99694
555.329	101099
555.391	97314
555.454	96744
555.517	96548
555.580	91314
555.642	88424
555.705	86444
555.768	87125
555.830	85402
555.893	79380
555.955	79944
556.018	78980
556.080	79887
556.143	81883
556.206	82485
556.268	81877
556.330	82539
556.393	79169
556.455	77194
556.518	84648
556.580	86266
556.643	72616
556.705	70008
556.767	69160
556.830	70817
556.892	72216
556.955	91739
557.017	81125
557.079	67109
557.142	66642
557.204	70409
557.266	102827
557.328	100402
557.391	62267
557.453	58566
557.515	59358
557.577	67316
557.639	71545
557.701	62205
557.764	61217
557.826	63120
557.888	67340
557.950	70696
558.012	73579
558.074	89411
558.136	180851
558.198	522926
558.260	253783
558.322	83994
558.384	82109
558.446	88656
558.508	99478
558.570	115495
558.632	159501
558.694	228539
558.756	244537
558.818	633266
558.880	1733187
558.942	781796
559.003	560042
559.065	351036
559.127	122248
559.189	110050
559.251	116374
559.312	149838
559.374	328250
559.436	1171466
559.498	787702
559.559	153146
559.621	111719
559.683	116110
559.744	173842
559.806	536900
559.868	1016815
559.929	262455
559.991	120938
560.052	160406
560.114	470279
560.176	385986
560.237	253461
560.299	514488
560.360	154003
560.422	58750
560.483	48961
560.545	44267
560.606	42977
560.667	41989
560.729	40347
560.790	38725
560.852	38475
560.913	38245
560.974	37972
561.036	37457
561.097	38653
561.158	37418
561.220	38288
561.281	38512
561.342	39173
561.403	43702
561.465	50119
561.526	98585
561.587	149800
561.648	56314
561.709	38650
561.771	37030
561.832	36710
561.893	36159
561.954	36148
562.015	35153
562.076	34871
562.137	36063
562.198	35125
562.259	35985
562.320	36276
562.381	38973
562.442	52477
562.503	46811
562.564	35840
562.625	34722
562.686	35166
562.747	39015
562.808	37292
562.869	34961
562.930	38877
562.991	39292
563.051	36388
563.112	35023
563.173	35239
563.234	33242
563.294	32899
563.355	33772
563.416	35135
563.477	33590
563.537	32711
563.598	34017
563.659	34308
563.720	34605
563.780	34935
563.841	36074
563.901	34500
563.962	32422
564.023	33644
564.083	34352
564.144	34079
564.204	33520
564.265	32771
564.325	35505
564.386	50700
564.446	54247
564.507	33454
564.567	32607
564.628	31749
564.688	32770
564.749	32866
564.809	34768
564.869	38922
564.930	35199
564.990	33571
565.050	32893
565.111	32501
565.171	32027
565.231	31990
565.292	32316
565.352	30943
565.412	32995
565.472	33080
565.532	35051
565.593	33442
565.653	31649
565.713	33613
565.773	36153
565.833	39878
565.893	49054
565.953	35475
566.013	32133
566.074	34162
566.134	38380
566.194	50729
566.254	56452
566.314	43220
566.374	34872
566.434	33879
566.494	34341
566.554	34516
566.614	35408
566.673	35015
566.733	36306
566.793	38961
566.853	39183
566.913	37630
566.973	38192
567.033	39629
567.092	43498
567.152	46718
567.212	46838
567.272	38897
567.331	40910
567.391	39727
567.451	40928
567.511	46357
567.570	49077
567.630	39495
567.690	37800
567.749	38056
567.809	38180
567.868	41409
567.928	42446
567.988	46085
568.047	49335
568.107	53266
568.166	63743
568.226	84013
568.285	113180
568.345	107551
568.404	91665
568.464	81339
568.523	75392
568.582	75284
568.642	84079
568.701	97332
568.761	117308
568.820	170406
568.879	181127
568.939	150172
568.998	116840
569.057	92054
569.116	76668
569.176	67084
569.235	57263
569.294	52862
569.353	48533
569.413	45551
569.472	43521
569.531	40751
569.590	39571
569.649	38823
569.708	37349
569.767	38512
569.827	44056
569.886	41730
569.945	34567
570.004	39345
570.063	36735
570.122	35560
570.181	37662
570.240	36429
570.299	39671
570.358	41582
570.417	33417
570.475	31113
570.534	32434
570.593	34411
570.652	35766
570.711	37321
570.770	33740
570.829	34099
570.887	33979
570.946	38047
571.005	32391
571.064	32502
571.122	36734
571.181	40174
571.240	33682
571.299	29496
571.357	29394
571.416	31200
571.475	32600
571.533	35001
571.592	31144
571.650	31775
571.709	30709
571.768	31685
571.826	31377
571.885	30459
571.943	29036
572.002	28430
572.060	29170
572.119	27538
572.177	26937
572.236	26690
572.294	27719
572.352	27414
572.411	28516
572.469	27182
572.528	27213
572.586	26811
572.644	30193
572.703	39093
572.761	31989
572.819	27760
572.877	25735
572.936	24042
572.994	26093
573.052	25588
573.110	28301
573.169	27785
573.227	25470
573.285	25634
573.343	25430
573.401	24993
573.459	25216
573.517	24965
573.576	26642
573.634	26242
573.692	28487
573.750	28206
573.808	25400
573.866	26432
573.924	28838
573.982	29689
574.040	26679
574.098	24786
574.155	25089
574.213	24450
574.271	25196
574.329	27186
574.387	25436
574.445	24267
574.503	22867
574.560	22158
574.618	22926
574.676	23436
574.734	23669
574.792	23876
574.849	23172
574.907	22429
574.965	20769
575.022	21465
575.080	22823
575.138	22224
575.195	23411
575.253	23320
575.311	25184
575.368	22595
575.426	21253
575.483	21486
575.541	22415
575.598	21022
575.656	21851
575.713	22346
575.771	23414
575.828	22005
575.886	21552
575.943	22582
576.001	22660
576.058	22595
576.115	24165
576.173	25563
576.230	29024
576.287	31444
576.345	26811
576.402	22774
576.459	23331
576.517	23644
576.574	23599
576.631	24063
576.688	22144
576.746	22219
576.803	22575
576.860	21238
576.917	22810
576.974	22690
577.031	22071
577.089	21603
577.146	22241
577.203	21225
577.260	23814
577.317	24120
577.374	24638
577.431	24118
577.488	22778
577.545	22218
577.602	21505
577.659	22825
577.716	22140
577.773	22198
577.830	22194
577.886	21337
577.943	21171
578.000	22761
578.057	23097
578.114	23131
578.171	23776
578.227	25478
578.284	26196
578.341	25422
578.398	24290
578.454	23637
578.511	25384
578.568	26622
578.625	24256
578.681	22675
578.738	21409
578.794	21587
578.851	23474
578.908	22956
578.964	24291
579.021	25376
579.077	23352
579.134	24102
579.190	22978
579.247	22662
579.303	22727
579.360	22219
579.416	22488
579.473	22394
579.529	21362
579.586	22261
579.642	23213
579.698	22862
579.755	23317
579.811	23289
579.867	24344
579.924	23198
579.980	23130
580.036	25604
580.093	27126
580.149	32356
580.205	33725
580.261	30585
580.317	28895
580.374	27606
580.430	28609
580.486	28201
580.542	25568
580.598	25458
580.619	25883
580.654	26655
580.692	26337
580.710	26230
580.765	26134
580.767	26163
580.823	25298
580.838	25370
580.879	25655
580.911	25696
580.935	25777
580.984	25598
580.991	25607
581.047	26009
581.057	26144
581.103	26897
581.130	27125
581.159	27424
581.203	27879
581.215	28031
581.270	27475
581.276	27420
581.326	27157
581.349	27185
581.382	27314
581.422	27358
581.438	27390
581.494	27516
581.494	27482
581.550	26393
581.567	26861
581.606	27877
581.640	27667
581.661	27609
581.713	27777
581.717	27801
581.773	26978
581.786	27002
581.829	27303
581.859	26980
581.885	26730
581.932	28537
581.940	28874
581.996	28550
582.004	28447
582.052	27907
582.077	27789
582.107	27767
582.150	27703
582.163	27680
582.219	28052
582.223	27985
582.274	27405
582.296	27777
582.330	28366
582.368	28661
582.386	28877
582.441	28417
582.441	28425
582.497	28438
582.514	28289
582.552	28238
582.587	28625
582.608	28798
582.659	28811
582.663	28808
582.719	30014
582.732	29674
582.774	28924
582.805	29049
582.830	29100
582.877	30594
582.885	30863
582.941	31783
582.950	32057
582.996	33559
583.023	35020
583.052	36570
583.095	36589
583.107	36601
583.162	37145
583.168	37098
583.218	36236
583.240	35442
583.273	34440
583.313	33125
583.328	32631
583.384	31163
583.385	31141
583.439	30389
583.458	30264
583.494	30025
583.531	29690
583.549	29610
583.603	28529
583.605	28487
583.660	29108
583.676	29090
583.715	29049
583.748	29136
583.770	29295
583.820	29326
583.825	29284
583.881	28750
583.893	28702
583.936	28779
583.965	28513
583.991	28245
584.038	28796
584.046	28873
584.101	28682
584.110	28778
584.156	29522
584.183	29583
584.211	29303
584.255	28402
584.266	28263
584.321	28657
584.328	28815
584.376	30088
584.400	30275
584.431	30386
584.472	30198
584.486	30086
584.541	30494
584.545	30520
584.596	31054
584.617	30872
584.651	30627
584.689	31835
584.706	32334
584.761	33393
584.762	33400
584.816	32709
584.834	32984
584.871	33751
584.906	34256
584.926	34428
584.978	34183
584.980	34165
585.035	35737
585.051	36051
585.090	37057
585.123	38416
585.145	39163
585.195	40405
585.200	40542
585.254	42428
585.267	43384
585.309	46715
585.340	49260
585.364	51155
585.412	55239
585.419	55891
585.473	62204
585.484	64169
585.528	73751
585.556	85369
585.583	103919
585.628	159672
585.637	176916
585.692	353532
585.700	392787
585.747	567220
585.772	473923
585.801	316115
585.845	131542
585.856	99619
585.910	64005
585.917	61194
585.965	50645
585.989	47945
586.019	45536
586.061	43857
586.074	43426
586.128	43039
586.133	42968
586.183	42080
586.205	42555
586.237	42500
586.277	40637
586.292	40238
586.346	40017
586.349	40033
586.401	39529
586.421	39384
586.455	39287
586.493	40181
586.509	41211
586.564	45673
586.565	45954
586.618	58211
586.637	58833
586.672	55935
586.709	49398
586.727	46805
586.781	47639
586.781	47613
586.835	43988
586.853	43094
586.889	41456
586.925	40137
586.944	39843
586.996	40836
586.998	40861
587.052	42506
587.068	42864
587.106	42889
587.140	43328
587.161	43642
587.212	43717
587.215	43738
587.269	45688
587.284	45975
587.323	46344
587.356	47165
587.377	47942
587.427	49511
587.431	49557
587.485	50439
587.499	50714
587.539	51598
587.571	52937
587.593	54083
587.643	55858
587.648	56022
587.702	58930
587.715	59527
587.755	60883
587.786	62529
587.810	63930
587.858	66185
587.864	66513
587.917	71955
587.930	73021
587.971	76558
588.001	79616
588.025	82151
588.073	87559
588.079	88371
588.133	96595
588.145	98807
588.187	107025
588.217	113293
588.241	119320
588.288	132226
588.295	134161
588.348	153122
588.360	157541
588.402	174957
588.431	188812
588.456	201859
588.503	230629
588.510	235441
588.564	278823
588.575	289601
588.617	338776
588.646	377070
588.671	422027
588.718	524401
588.725	547900
588.778	759081
588.789	811166
588.832	1110413
588.861	1336089
588.886	1531110
588.932	1854035
588.939	1860624
588.993	1728215
589.004	1729222
589.047	1635810
589.075	1479961
589.100	1263873
589.147	847351
589.154	811322
589.207	599660
589.218	565212
589.261	513507
589.290	492514
589.314	503267
589.361	546717
589.368	565205
589.421	753336
589.433	802640
589.475	1116122
589.504	1358652
589.528	1499006
589.576	1653850
589.582	1627908
589.635	1373043
589.647	1295434
589.689	897517
589.718	628319
589.742	512250
589.790	331128
589.795	319807
589.849	240178
589.861	224695
589.902	193462
589.932	172098
589.955	158583
590.004	132456
590.009	130528
590.062	115281
590.075	111868
590.115	103299
590.146	97301
590.168	94157
590.218	87978
590.222	87469
590.275	82426
590.289	81186
590.328	77689
590.360	75123
590.381	73671
590.431	70654
590.435	70451
590.488	67786
590.503	67228
590.541	65670
590.574	64345
590.594	63406
590.645	61206
590.647	61103
590.700	59378
590.716	58941
590.753	58113
590.787	57265
590.806	57056
590.859	57179
590.859	57137
590.912	55790
590.930	55463
590.965	55128
591.001	55002
591.018	54810
591.071	53978
591.072	53992
591.124	53702
591.143	53652
591.177	53728
591.214	53917
591.230	53956
591.283	54080
591.285	54102
591.336	53771
591.356	53705
591.389	53408
591.427	52701
591.442	52127
591.495	50415
591.498	50311
591.547	49434
591.569	48999
591.600	48730
591.640	48450
591.653	48681
591.706	49743
591.711	49874
591.759	51184
591.782	51913
591.811	52383
591.853	53078
591.864	52665
591.917	50319
591.924	50011
591.969	50294
591.995	50499
592.022	50436
592.066	50401
592.075	50639
592.127	52202
592.137	52529
592.180	52862
592.208	52998
592.233	52249
592.279	50769
592.285	50870
592.338	52031
592.350	52291
592.390	51525
592.421	50994
592.443	51133
592.491	51455
592.495	51400
592.548	50800
592.562	50656
592.600	50502
592.633	50394
592.653	50056
592.704	48960
592.705	49248
592.775	49762
592.846	51402
592.916	52582
592.987	52938
593.058	52523
593.128	52112
593.199	53224
593.270	54143
593.341	54579
593.411	56883
593.482	58279
593.553	56902
593.623	55634
593.694	55284
593.764	56233
593.835	55317
593.906	54109
593.976	52961
594.047	54558
594.117	57268
594.188	57415
594.258	54080
594.329	53505
594.399	53178
594.470	55765
594.540	55345
594.611	57004
594.681	56363
594.751	55109
594.822	57453
594.892	59216
594.963	59154
595.033	60703
595.103	62034
595.174	62886
595.244	67462
595.314	72046
595.384	64270
595.455	64282
595.525	65827
595.595	68640
595.665	67932
595.736	66621
595.806	66671
595.876	67760
595.946	67502
596.016	69532
596.087	72027
596.157	72467
596.227	71831
596.297	75823
596.367	78474
596.437	83798
596.507	85854
596.577	88869
596.647	85049
596.717	86853
596.787	87584
596.857	87269
596.927	88093
596.997	88787
597.067	89422
597.137	92561
597.207	93481
597.277	93669
597.347	90326
597.417	88259
597.487	89898
597.557	91322
597.626	92234
597.696	94836
597.766	94690
597.836	96051
597.906	86098
597.975	84054
598.045	86532
598.115	88212
598.185	92858
598.254	102280
598.324	108466
598.394	110823
598.464	109191
598.533	106920
598.603	100448
598.672	100007
598.742	102255
598.812	102568
598.881	105634
598.951	103653
599.020	104676
599.090	109419
599.159	111836
599.229	107003
599.299	104571
599.368	107278
599.437	105935
599.507	101651
599.576	99250
599.646	98285
599.715	97353
599.785	97291
599.854	96893
599.924	98388
599.993	98192
600.062	99205
600.132	101856
600.201	106643
600.270	119708
600.340	124957
600.409	121616
600.478	123915
600.547	125897
600.617	118072
600.686	103872
600.755	99582
600.824	97215
600.894	97867
600.963	97743
601.032	96155
601.101	97235
601.170	95759
601.239	94755
601.308	96532
601.378	97931
601.447	98004
601.516	99740
601.585	103343
601.654	106067
601.723	105674
601.792	108236
601.861	113628
601.930	118890
601.999	123312
602.068	120201
602.137	119891
602.206	121536
602.275	123632
602.343	125440
602.412	126674
602.481	125344
602.550	125109
602.619	126895
602.688	128409
602.756	130221
602.825	130082
602.894	131293
602.963	131856
603.032	135449
603.100	134661
603.169	133766
603.238	136405
603.307	132884
603.375	134028
603.444	140799
603.513	132871
603.581	137210
603.650	144954
603.719	126517
603.787	122858
603.856	125624
603.924	129321
603.993	132197
604.061	135422
604.130	139864
604.198	142364
604.267	144375
604.335	146388
604.404	148109
604.472	151276
604.541	152564
604.609	158043
604.678	159795
604.746	161113
604.815	167510
604.883	163115
604.951	162269
605.020	165208
605.088	159267
605.156	153194
605.225	154911
605.293	151875
605.361	156107
605.429	155247
605.498	158854
605.566	159627
605.634	164568
605.702	168316
605.771	171512
605.839	174851
605.907	167524
605.975	167454
606.043	160999
606.111	157709
606.180	166068
606.248	156422
606.316	154890
606.384	163445
606.452	147059
606.520	140641
606.588	139215
606.656	137454
606.724	133636
606.792	125715
606.860	116542
606.928	105285
606.996	104062
607.064	101195
607.132	103432
607.200	109475
607.267	114366
607.335	115192
607.403	116711
607.471	113697
607.539	110253
607.607	109974
607.674	98661
607.742	98692
607.810	99292
607.878	98816
607.946	100704
608.013	103132
608.081	105661
608.149	106158
608.216	108318
608.284	112319
608.352	110445
608.419	110368
608.487	110912
608.555	106792
608.622	106792
608.690	112568
608.757	124090
608.825	126139
608.893	123577
608.960	119592
609.028	116172
609.095	116486
609.163	111881
609.230	101314
609.298	94457
609.365	97948
609.432	105639
609.500	114031
609.567	128214
609.635	146469
609.702	152913
609.769	145857
609.837	115720
609.904	100987
609.971	104624
610.039	116684
610.106	149129
610.173	261939
610.241	553625
610.308	340934
610.375	145808
610.442	111247
610.509	102898
610.577	102812
610.644	103530
610.711	107681
610.778	110470
610.845	113942
610.912	120324
610.980	124907
611.047	125249
611.114	121491
611.181	118611
611.248	119124
611.315	126306
611.382	127875
611.449	131574
611.516	134043
611.583	131681
611.650	134520
611.717	136352
611.784	138756
611.851	147178
611.918	159093
611.984	182541
612.051	247611
612.118	454666
612.185	1006760
612.252	649657
612.319	208927
612.386	175422
612.452	160510
612.519	152748
612.586	151926
612.653	152867
612.719	157490
612.786	150402
612.853	138071
612.919	136613
612.986	138846
613.053	129495
613.120	123335
613.186	120982
613.253	122494
613.319	121027
613.386	120666
613.453	124260
613.519	125958
613.586	127072
613.652	137576
613.719	129943
613.785	129164
613.852	125751
613.918	123796
613.985	124306
614.051	129837
614.118	133008
614.184	127251
614.250	121687
614.317	125239
614.383	123880
614.449	125943
614.516	125109
614.582	126769
614.648	124111
614.715	125152
614.781	122055
614.847	122923
614.914	121587
614.980	119568
615.046	119089
615.112	122109
615.179	121542
615.245	124861
615.311	126676
615.377	135578
615.443	138177
615.509	132233
615.575	132593
615.642	132496
615.708	135377
615.774	143466
615.840	152748
615.906	167883
615.972	203805
616.038	299604
616.104	551397
616.170	1152718
616.236	968483
616.302	287801
616.368	217418
616.434	169152
616.500	158795
616.565	169367
616.631	204819
616.697	174879
616.763	180764
616.829	250463
616.895	409439
616.961	387138
617.026	187868
617.092	141938
617.158	137057
617.224	133444
617.289	126259
617.355	122103
617.421	120066
617.487	121613
617.552	115489
617.618	114704
617.684	114794
617.749	118027
617.815	113587
617.880	113192
617.946	112221
618.012	114292
618.077	114812
618.143	110685
618.208	111148
618.274	116937
618.339	117207
618.405	98495
618.470	96408
618.536	96658
618.601	96354
618.667	91953
618.732	88474
618.798	88041
618.863	88915
618.928	89397
618.994	90991
619.059	91827
619.124	99830
619.190	91805
619.255	87186
619.320	87753
619.386	86111
619.451	84974
619.516	82595
619.581	84295
619.647	85781
619.712	86760
619.777	83259
619.842	85752
619.907	86876
619.972	88096
620.038	88166
620.103	85500
620.168	84607
620.233	87212
620.298	87329
620.363	88224
620.428	93233
620.493	95579
620.558	95866
620.623	95113
620.688	92950
620.753	91180
620.818	92219
620.883	92977
620.948	89905
621.013	90605
621.078	88722
621.143	86878
621.207	87369
621.272	85294
621.337	84099
621.402	84130
621.467	86253
621.532	86015
621.596	84126
621.661	81129
621.726	79954
621.791	81034
621.855	82780
621.920	82871
621.985	82477
622.049	86783
622.114	85216
622.179	85799
622.243	87231
622.308	88566
622.373	92460
622.437	89521
622.502	84482
622.566	84772
622.631	83055
622.695	86151
622.760	85802
622.824	85110
622.889	85368
622.953	87417
623.018	99997
623.082	101153
623.147	91132
623.211	88811
623.276	87452
623.340	82262
623.404	81746
623.469	81116
623.533	82900
623.597	81739
623.662	79677
623.726	74707
623.790	71348
623.854	70587
623.919	71779
623.983	72361
624.047	72737
624.111	72104
624.176	75423
624.240	76660
624.304	80904
624.368	74286
624.432	74038
624.496	76916
624.560	80748
624.625	83053
624.689	78856
624.753	81873
624.817	77524
624.881	76279
624.945	70865
625.009	68624
625.073	69270
625.137	73216
625.201	80030
625.265	78923
625.329	72759
625.393	73830
625.456	73165
625.520	74250
625.584	76121
625.648	81340
625.712	89087
625.776	109048
625.839	111551
625.903	75533
625.967	62403
626.031	74570
626.095	89973
626.158	70796
626.222	56218
626.286	53024
626.349	51195
626.413	47327
626.477	50844
626.540	49194
626.604	47995
626.668	48014
626.731	48176
626.795	48219
626.858	47791
626.922	46020
626.986	46018
627.049	44486
627.113	48226
627.176	47366
627.240	44914
627.303	45709
627.366	44458
627.430	46364
627.493	45917
627.557	43250
627.620	45485
627.684	47060
627.747	46240
627.810	41832
627.874	39757
627.937	38106
628.000	40623
628.064	40085
628.127	34253
628.190	35813
628.253	34948
628.317	34135
628.380	33610
628.443	32656
628.506	32465
628.569	31485
628.632	30101
628.696	29954
628.759	29543
628.822	27939
628.885	27711
628.948	28445
629.011	27958
629.074	27896
629.137	25939
629.200	25554
629.263	28346
629.326	26205
629.389	26736
629.452	25853
629.515	25552
629.578	25559
629.641	27862
629.704	26975
629.767	26790
629.830	25059
629.892	24825
629.955	24380
630.018	28000
630.081	25612
630.144	29699
630.207	26267
630.269	27192
630.332	25785
630.395	24212
630.458	24834
630.520	25587
630.583	25593
630.646	24545
630.708	23177
630.771	23517
630.834	25242
630.896	22950
630.959	23758
631.021	24096
631.084	23572
631.146	24836
631.209	24888
631.272	23091
631.334	24083
631.397	23138
631.459	24180
631.522	25928
631.584	25026
631.646	26311
631.709	27187
631.771	30264
631.834	27283
631.896	25507
631.958	23410
632.021	23804
632.083	22645
632.145	24311
632.208	22780
632.270	24210
632.332	21974
632.395	22351
632.457	23279
632.519	21901
632.581	22401
632.643	21572
632.706	21670
632.768	21133
632.830	22066
632.892	22264
632.954	22245
633.016	23420
633.078	22152
633.141	22343
633.203	22423
633.265	22723
633.327	21337
633.389	21940
633.451	24677
633.513	24828
633.575	24053
633.637	24368
633.698	24224
633.760	22658
633.822	23140
633.884	23728
633.946	23869
634.008	23174
634.070	24554
634.132	24983
634.193	25943
634.255	27003
634.317	28165
634.379	28939
634.441	25155
634.502	23453
634.564	21616
634.626	21282
634.687	20561
634.749	20612
634.811	19931
634.873	20596
634.934	19952
634.996	20980
635.057	19591
635.119	20024
635.181	20375
635.242	20499
635.304	19370
635.365	22047
635.427	19113
635.488	20247
635.550	19584
635.611	19492
635.673	19541
635.734	22231
635.796	21335
635.857	24537
635.918	23320
635.980	25278
636.041	25731
636.102	27993
636.164	28252
636.225	27536
636.286	23539
636.348	22458
636.409	21154
636.470	18903
636.531	20582
636.593	19001
636.654	19603
636.715	19023
636.776	17393
636.838	16960
636.899	18960
636.960	16700
637.021	17119
637.082	16698
637.143	17186
637.204	15589
637.265	16094
637.326	17890
637.387	16783
637.448	16846
637.509	16751
637.570	16988
637.631	16953
637.692	15201
637.753	14947
637.814	16031
637.875	14539
637.936	15604
637.997	15297
638.058	14936
638.119	16995
638.179	16318
638.240	15254
638.301	16450
638.362	15024
638.423	14169
638.483	15849
638.544	13685
638.605	15191
638.666	14523
638.726	15523
638.787	14269
638.848	14698
638.908	14790
638.969	14404
639.030	13981
639.090	13700
639.151	13999
639.211	15751
639.272	18310
639.332	23227
639.393	17414
639.453	15544
639.514	15338
639.574	14731
639.635	12968
639.695	13625
639.756	12134
639.816	14680
639.877	15934
639.937	20735
639.997	24645
640.058	15141
640.118	12701
640.178	13936
640.239	13356
640.299	13166
640.359	12682
640.420	13645
640.480	15048
640.540	16267
640.600	15771
640.661	14821
640.721	14932
640.781	17335
640.841	13690
640.901	14534
640.961	14487
641.021	15114
641.082	15460
641.142	18583
641.202	15962
641.262	11738
641.322	13190
641.382	12352
641.442	12705
641.502	12642
641.562	11858
641.622	12090
641.682	14007
641.742	14168
641.802	14629
641.861	13270
641.921	13911
641.981	14326
642.041	13962
642.101	14677
642.161	12530
642.221	11535
642.280	12221
642.340	11909
642.400	12311
642.460	13823
642.519	12473
642.579	12163
642.639	12692
642.698	10273
642.758	14910
642.818	12775
642.877	12655
642.937	13708
642.997	14884
643.056	17929
643.116	12962
643.175	14492
643.235	13264
643.294	13194
643.354	15331
643.414	16405
643.473	19657
643.532	22124
643.592	29095
643.651	43918
643.711	73281
643.770	136559
643.830	314493
643.889	640361
643.948	171758
644.008	35453
644.067	21840
644.126	16928
644.186	15721
644.245	14761
644.304	12122
644.363	14585
644.423	11661
644.482	12943
644.541	13710
644.600	12749
644.659	17132
644.719	20814
644.778	28586
644.837	46018
644.896	90009
644.955	200284
645.014	72264
645.073	18859
645.132	14386
645.191	14669
645.250	13764
645.309	15687
645.368	14132
645.427	19027
645.486	27465
645.545	45312
645.604	18125
645.663	13381
645.722	12683
645.781	15146
645.840	16780
645.898	19439
645.957	28172
646.016	41157
646.075	69726
646.134	129499
646.192	329862
646.251	486337
646.310	84649
646.369	24763
646.427	20265
646.486	14922
646.545	14540
646.603	13790
646.662	12176
646.721	12424
646.779	11295
646.838	11977
646.896	16867
646.955	19069
647.014	28100
647.072	49632
647.131	130304
647.189	68147
647.248	13051
647.306	11476
647.365	11570
647.423	8216
647.481	10644
647.540	8738
647.598	9739
647.657	8866
647.715	9105
647.773	8876
647.832	9492
647.890	7322
647.948	8939
648.007	8919
648.065	7420
648.123	8236
648.181	9286
648.240	8949
648.298	7438
648.356	7776
648.414	8432
648.472	8878
648.531	8080
648.589	8147
648.647	8252
648.705	7980
648.763	7991
648.821	8097
648.879	8886
648.937	10197
648.995	11902
649.053	16094
649.111	21783
649.169	34872
649.227	56918
649.285	113840
649.343	313065
649.401	161278
649.459	35610
649.516	21984
649.574	11865
649.632	14953
649.690	15870
649.748	16437
649.806	19871
649.863	36980
649.921	92519
649.979	65519
650.037	12795
650.094	7574
650.152	8653
650.210	7113
650.268	7556
650.325	7113
650.383	7099
650.440	6945
650.498	7377
650.556	6802
650.613	6056
650.671	6645
650.728	6961
650.786	7350
650.843	8296
650.901	5594
650.958	7029
651.016	6723
651.073	5931
651.131	5741
651.188	5589
651.246	6271
651.303	4396
651.360	6146
651.418	5609
651.475	5695
651.532	4909
651.590	5685
651.647	5295
651.704	4978
651.762	5669
651.819	6022
651.876	5330
651.933	5685
651.990	6108
652.048	4513
652.105	4962
652.162	5820
652.219	4790
652.276	5282
652.333	6178
652.390	4887
652.448	5923
652.505	5199
652.562	5708
652.619	5374
652.676	5687
652.733	6168
652.790	5506
652.847	4405
652.904	5215
652.961	4032
653.017	4415
653.074	5064
653.131	5921
653.188	4999
653.245	5447
653.302	4880
653.359	3874
653.415	4753
653.472	4880
653.529	4359
653.586	4927
653.642	4832
653.699	5492
653.756	4642
653.813	4940
653.869	5160
653.926	4195
653.983	4715
654.039	5417
654.096	5217
654.152	5488
654.209	3431
654.266	4501
654.322	4172
654.379	5562
654.435	5919
654.492	5038
654.548	6688
654.605	9230
654.661	6779
654.717	4535
654.774	5010
654.830	4669
654.887	4363
654.943	4526
655.000	4832
655.056	5289
655.112	5193
655.168	3956
655.225	4908
655.281	6034
655.337	5393
655.394	6980
655.450	6523
655.506	6141
655.562	6619
655.618	7934
655.675	4159
655.731	5175
655.787	4345
655.843	5746
655.899	5112
655.955	4640
656.011	4421
656.067	4787
656.123	5573
656.179	5291
656.235	6680
656.291	4803
656.347	6326
656.403	5029
656.459	5180
656.515	5670
656.571	5252
656.627	5337
656.683	4598
656.739	5551
656.795	4332
656.850	5788
656.906	5783
656.962	5835
657.018	4412
657.074	5304
657.129	6738
657.185	8852
657.241	15316
657.297	10792
657.352	5670
657.408	4557
657.464	5910
657.519	4421
657.575	4258
657.630	4586
657.686	4178
657.742	3393
657.797	4252
657.853	4228
657.908	5381
657.964	3700
658.019	5742
658.075	4215
658.130	4801
658.186	3862
658.241	4711
658.297	3844
658.352	4340
658.407	3665
658.463	3907
658.518	3879
658.573	4595
658.629	3386
658.684	4413
658.739	4476
658.795	3318
658.850	4227
658.905	3538
658.960	4260
659.016	3423
659.071	4015
659.126	4387
659.181	4719
659.236	7311
659.291	7289
659.346	5026
659.401	4753
659.457	5049
659.512	4428
659.567	5039
659.622	3851
659.677	3608
659.732	3786
659.787	4991
659.842	4030
659.897	5037
659.952	4472
660.007	4665
660.061	3483
660.116	3729
660.171	3543
660.226	3337
660.281	4512
660.336	3708
660.391	4607
660.445	3493
660.500	3661
660.555	4780
660.610	4333
660.664	4267
660.719	4027
660.774	4265
660.828	4299
660.883	4713
660.938	3912
660.992	3119
661.047	3959
661.101	3530
661.156	3974
661.211	3600
661.265	3947
661.320	3872
661.374	4167
661.429	3357
661.483	4844
661.538	3514
661.592	3805
661.647	3460
661.701	4916
661.755	3520
661.810	3953
661.864	2963
661.919	3104
661.973	4013
662.027	3203
662.081	2881
662.136	3372
662.190	4535
662.244	4869
662.299	3255
662.353	3998
662.407	3168
662.461	3764
662.515	4045
662.569	3806
662.624	4151
662.678	3777
662.732	3176
662.786	3993
662.840	5071
662.894	3519
662.948	3780
663.002	3444
663.056	3740
663.110	2899
663.164	4613
663.218	3829
663.272	4210
663.326	3948
663.380	3653
663.434	3613
663.488	3492
663.542	3426
663.595	4056
663.649	3908
663.703	4814
663.757	3787
663.811	3288
663.864	2821
663.918	3721
663.972	3607
664.026	3455
664.079	3802
664.133	4036
664.187	3522
664.240	2768
664.294	3650
664.348	4288
664.401	4330
664.455	3964
664.508	2560
664.562	3477
664.615	4338
664.669	2853
664.722	3890
664.776	3782
664.829	3683
664.883	3701
664.936	3144
664.990	4229
665.043	3666
665.097	3775
665.150	4584
665.203	3749
665.257	3670
665.310	4328
665.363	3326
665.417	4915
665.470	4185
665.523	3997
665.576	3719
665.630	3913
665.683	4643
665.736	4310
665.789	3733
665.842	3482
665.895	4474
665.949	4179
666.002	3925
666.055	4168
666.108	5011
666.161	4181
666.214	4534
666.267	4712
666.320	5494
666.373	5004
666.426	4628
666.479	3435
666.532	4062
666.585	3880
666.638	5004
666.691	3398
666.744	4601
666.796	4143
666.849	3513
666.902	4452
666.955	4347
667.008	4306
667.060	3867
667.113	3577
667.166	4450
667.219	4671
667.271	3933
667.324	3753
667.377	4743
667.430	3986
667.482	4228
667.535	4431
667.587	4053
667.640	4250
667.693	5165
667.745	6475
667.798	7730
667.850	4371
667.903	4802
667.955	4412
668.008	4038
668.060	3986
668.113	3959
668.165	4528
668.218	4496
668.270	4105
668.322	4119
668.375	4437
668.427	4315
668.479	3336
668.532	3957
668.584	4684
668.636	3254
668.689	3575
668.741	3582
668.793	4539
668.845	4231
668.898	4381
668.950	3313
669.002	3309
669.054	3932
669.106	4111
669.158	4164
669.211	4443
669.263	3494
669.315	4973
669.367	5211
669.419	4513
669.471	4642
669.523	5144
669.575	5569
669.627	4044
669.679	4415
669.731	4200
669.783	4103
669.835	4511
669.886	4819
669.938	5092
669.990	5181
670.042	3972
670.094	4625
670.146	5409
670.197	5178
670.249	7559
670.301	7816
670.353	10504
670.404	15112
670.456	20148
670.508	30133
670.560	45024
670.611	68556
670.663	113366
670.715	251745
670.766	421627
670.818	164190
670.869	28492
670.921	15146
670.972	10851
671.024	7658
671.075	7058
671.127	6535
671.178	5762
671.230	6338
671.281	5555
671.333	6315
671.384	7547
671.436	7280
671.487	8763
671.538	10808
671.590	14387
671.641	20724
671.692	35375
671.744	66257
671.795	45664
671.846	16304
671.897	8850
671.949	7811
672.000	5844
672.051	4578
672.102	6094
672.153	4579
672.204	4147
672.256	4569
672.307	3703
672.358	4541
672.409	4341
672.460	4808
672.511	3394
672.562	3960
672.613	3797
672.664	4348
672.715	4130
672.766	3600
672.817	3866
672.868	3899
672.919	3909
672.970	3260
673.021	3878
673.071	3054
673.122	3837
673.173	3317
673.224	3542
673.275	3796
673.326	2910
673.376	3942
673.427	3199
673.478	3069
673.528	4235
673.579	3662
673.630	3696
673.680	3340
673.731	4004
673.782	2313
673.832	2895
673.883	3612
673.934	2747
673.984	2414
674.035	3306
674.085	3673
674.136	4166
674.186	3828
674.237	4268
674.287	4894
674.338	3621
674.388	3396
674.438	2768
674.489	3909
674.539	3920
674.589	3426
674.640	3364
674.690	2918
674.740	3846
674.791	3280
674.841	3249
674.891	3470
674.942	2764
674.992	4029
675.042	3739
675.092	3334
675.142	2025
675.193	4033
675.243	2955
675.293	2889
675.343	3730
675.393	3725
675.443	3158
675.493	2781
675.543	2583
675.593	2745
675.643	2979
675.693	3229
675.743	3226
675.793	3205
675.843	3063
675.893	2815
675.943	2862
675.993	3139
676.043	3097
676.093	3447
676.142	2640
676.192	3255
676.242	3101
676.292	2771
676.341	2956
676.391	3149
676.441	2114
676.491	2947
676.540	2316
676.590	2926
676.640	3311
676.689	2736
676.739	2387
676.789	2803
676.838	1786
676.888	1887
676.937	2915
676.987	2828
677.037	2218
677.086	2041
677.136	2483
677.185	2628
677.235	2212
677.284	2791
677.333	1999
677.383	1722
677.432	2618
677.482	2321
677.531	2992
677.580	1804
677.630	2490
677.679	2131
677.728	2077
677.778	3251
677.827	2442
677.876	2291
677.925	2175
677.975	2109
678.024	2597
678.073	2101
678.122	2752
678.171	2953
678.220	2444
678.269	3053
678.319	3510
678.368	2677
678.417	2782
678.466	3235
678.515	2732
678.564	2823
678.613	2481
678.662	2127
678.711	2440
678.760	2224
678.809	2054
678.857	1682
678.906	2972
678.955	2107
679.004	3015
679.053	2834
679.102	2515
679.151	1511
679.199	2484
679.248	2135
679.297	2126
679.346	2900
679.394	2054
679.443	2688
679.492	2816
679.540	2250
679.589	2256
679.638	1706
679.686	2759
679.735	2726
679.784	2118
679.832	2764
679.881	2628
679.929	2399
679.978	2179
680.026	2898
680.075	2154
680.123	1931
680.172	2749
680.220	2449
680.268	1981
680.317	1787
680.365	1664
680.414	2505
680.462	1924
680.510	2041
680.559	1721
680.607	2247
680.655	1823
680.703	1949
680.752	2558
680.800	2097
680.848	2193
680.896	2360
680.945	1907
680.993	1588
681.041	2432
681.089	2361
681.137	2340
681.185	1669
681.233	2452
681.258	2295
681.281	2132
681.329	2202
681.377	1449
681.380	1479
681.425	1746
681.473	2011
681.502	2726
681.521	3195
681.569	2544
681.617	2149
681.624	2101
681.665	1684
681.713	1723
681.745	2404
681.761	2708
681.809	2670
681.857	2491
681.867	2419
681.904	2090
681.952	2641
681.989	2483
682.000	2418
682.048	2816
682.096	2373
682.111	2437
682.143	2533
682.191	2414
682.233	3137
682.239	3232
682.286	3914
682.334	3214
682.354	2875
682.382	2368
682.430	2176
682.476	2169
682.477	2156
682.525	2134
682.572	2960
682.598	2243
682.620	1628
682.667	3118
682.715	2854
682.720	2846
682.763	2597
682.810	3118
682.841	3192
682.857	3194
682.905	3072
682.952	3080
682.963	2978
683.000	2582
683.047	3166
683.085	3752
683.095	3891
683.142	2814
683.190	3050
683.206	3070
683.237	3102
683.284	3173
683.328	3097
683.332	3079
683.379	2893
683.426	2783
683.449	3012
683.473	3282
683.521	3277
683.568	3067
683.571	3141
683.615	3768
683.662	2997
683.693	3046
683.709	3092
683.757	3134
683.804	3583
683.814	3508
683.851	3242
683.898	3612
683.936	3382
683.945	3304
683.992	3617
684.039	3637
684.057	3535
684.086	3368
684.133	4019
684.179	3945
684.180	3934
684.227	3632
684.274	4214
684.300	4688
684.321	4960
684.368	3550
684.415	3808
684.422	3790
684.462	3741
684.509	3527
684.543	3769
684.556	3833
684.603	3743
684.649	3600
684.665	3638
684.696	3788
684.743	3944
684.786	4556
684.790	4591
684.837	4178
684.883	5324
684.908	4897
684.930	4494
684.977	4914
685.023	5191
685.029	5178
685.070	4886
685.117	4371
685.150	3744
685.164	3546
685.210	4620
685.257	5080
685.272	4936
685.303	4602
685.350	4916
685.393	4769
685.396	4758
685.443	4816
685.490	5249
685.514	5359
685.536	5254
685.583	5051
685.629	4284
685.636	4308
685.675	4698
685.722	4945
685.757	4742
685.768	4627
685.815	4656
685.861	4743
685.878	4589
685.908	4483
685.954	4851
686.000	5114
686.000	5113
686.047	5214
686.093	5194
686.121	5522
686.139	5670
686.185	4826
686.232	4906
686.242	4953
686.278	5060
686.324	4545
686.363	4551
686.370	4592
686.416	4957
686.463	5683
686.484	5456
686.509	5123
686.555	5322
686.601	4737
686.606	4800
686.647	5403
686.693	5148
686.727	5475
686.739	5553
686.785	4802
686.831	5534
686.848	5423
686.877	5291
686.923	4761
686.969	5103
686.969	5105
687.015	4914
687.061	5260
687.090	5460
687.107	5589
687.153	5464
687.199	5627
687.211	5495
687.245	5023
687.291	5358
687.332	5402
687.336	5420
687.382	5406
687.428	5833
687.453	5599
687.474	5312
687.520	5442
687.565	5503
687.574	5411
687.611	5286
687.657	5580
687.695	5651
687.702	5643
687.748	6025
687.794	5886
687.816	5879
687.839	5854
687.885	5478
687.931	5519
687.937	5547
687.976	5747
688.022	5282
688.058	5858
688.067	6018
688.113	5759
688.158	5913
688.179	5966
688.204	5971
688.249	6039
688.295	6008
688.300	6030
688.340	6278
688.386	6346
688.421	5880
688.431	5723
688.477	5907
688.522	5915
688.542	5989
688.567	6274
688.613	6427
688.658	5895
688.663	5986
688.703	6485
688.749	6226
688.784	6134
688.794	6140
688.839	6177
688.884	6734
688.905	6601
688.930	6288
688.975	5928
689.020	5993
689.026	5929
689.065	5934
689.110	6229
689.146	6480
689.155	6479
689.201	6223
689.246	5963
689.267	5766
689.291	5692
689.336	6193
689.381	6034
689.388	6087
689.426	6296
689.471	6505
689.509	6244
689.516	6196
689.561	6121
689.606	6300
689.630	6109
689.651	6015
689.696	5929
689.741	6276
689.750	6273
689.785	6357
689.830	6514
689.871	6693
689.875	6695
689.920	6427
689.965	6251
689.992	6016
690.010	5923
690.054	6124
690.099	6418
690.112	6464
690.144	6635
690.189	6240
690.233	5988
690.233	5996
690.278	7035
690.323	6759
690.354	6513
690.367	6434
690.412	6808
690.457	6670
690.474	6846
690.501	6974
690.546	6761
690.590	6647
690.595	6638
690.635	6789
690.680	6936
690.716	6695
690.724	6716
690.769	7367
690.813	7982
690.836	7968
690.857	8138
690.902	9125
690.946	9757
690.957	10064
690.991	12540
691.035	15679
691.077	18674
691.080	18649
691.124	16448
691.168	14172
691.198	13123
691.213	12646
691.257	10953
691.301	9189
691.318	8700
691.346	8608
691.390	8150
691.434	7364
691.439	7315
691.478	7504
691.522	7666
691.559	7622
691.567	7617
691.611	7808
691.655	7728
691.680	7465
691.699	7328
691.743	7911
691.787	7964
691.800	8074
691.831	8248
691.875	7632
691.919	7675
691.921	7666
691.964	8124
692.008	8228
692.041	8204
692.052	8156
692.096	8394
692.139	8381
692.162	8326
692.183	8310
692.227	8480
692.271	8280
692.282	8226
692.315	8055
692.359	7975
692.402	7961
692.403	7976
692.447	7670
692.490	7854
692.523	7759
692.534	7826
692.578	7803
692.622	8208
692.643	8222
692.666	8101
692.709	7724
692.753	7762
692.763	7765
692.797	7909
692.840	8003
692.884	7741
692.884	7757
692.928	7890
692.971	8535
693.004	8522
693.015	8411
693.059	8169
693.102	8380
693.124	7988
693.146	7897
693.189	8407
693.233	8634
693.245	8775
693.276	8869
693.320	8810
693.363	8372
693.365	8352
693.407	9041
693.450	9783
693.485	10191
693.493	10284
693.537	10757
693.580	11136
693.605	11492
693.624	12578
693.667	14877
693.710	17445
693.725	18379
693.753	22117
693.797	28183
693.840	33852
693.845	34417
693.883	30770
693.926	25671
693.966	21967
693.970	21628
694.013	17502
694.056	13769
694.086	10967
694.099	10775
694.142	10151
694.185	9514
694.206	9192
694.229	9192
694.272	9322
694.315	9248
694.326	9272
694.358	9608
694.401	9727
694.444	10198
694.446	10194
694.487	9953
694.530	9347
694.566	9173
694.573	9185
694.616	8881
694.659	8720
694.686	8646
694.702	8747
694.745	8814
694.787	8804
694.806	8774
694.830	8672
694.873	8557
694.916	8648
694.926	8572
694.959	8566
695.002	8813
695.044	8734
695.046	8724
695.087	9178
695.130	9410
695.166	9495
695.172	9455
695.215	9177
695.258	9085
695.286	8752
695.301	8713
695.343	8828
695.386	8749
695.406	8718
695.428	8907
695.471	9297
695.514	9552
695.526	9627
695.556	9818
695.599	10083
695.641	10480
695.646	10471
695.684	10031
695.726	9748
695.766	9219
695.769	9240
695.811	9469
695.854	9460
695.886	9595
695.896	9626
695.938	9543
695.981	9467
696.005	9348
696.023	9443
696.065	9715
696.108	9926
696.125	10064
696.150	10232
696.192	10482
696.235	10469
696.245	10480
696.277	10614
696.319	10877
696.361	10831
696.365	10819
696.404	10847
696.446	10841
696.485	10704
696.488	10735
696.530	10776
696.572	10997
696.604	11031
696.614	11002
696.656	10831
696.698	10676
696.724	10537
696.740	10585
696.783	10604
696.825	10714
696.844	10704
696.867	10777
696.909	10837
696.951	10992
696.964	10963
696.992	10884
697.034	10853
697.076	10778
697.083	10748
697.118	10969
697.160	11250
697.202	11360
697.203	11337
697.244	11165
697.286	10864
697.323	10626
697.327	10671
697.369	10847
697.411	10953
697.442	11024
697.453	11068
697.494	11167
697.536	11288
697.562	11289
697.578	11280
697.620	11188
697.661	11047
697.682	11017
697.703	11407
697.744	12039
697.786	12788
697.801	12975
697.828	12961
697.869	12918
697.911	12901
697.921	12855
697.952	12619
697.994	12298
698.035	11955
698.040	11888
698.077	11765
698.118	11527
698.160	11339
698.160	11309
698.201	11540
698.243	11692
698.279	11868
698.284	11887
698.325	11725
698.367	11618
698.399	11459
698.408	11489
698.449	11513
698.491	11548
698.518	11523
698.532	11653
698.573	11993
698.614	12304
698.638	12456
698.656	12533
698.697	12652
698.738	12772
698.757	12787
698.779	12766
698.820	12675
698.862	12586
698.877	12524
698.903	12763
698.944	13089
698.985	13419
698.996	13479
699.026	13483
699.067	13441
699.116	13359
699.235	12619
699.354	12385
699.474	11765
699.593	12274
699.713	12838
699.832	12419
699.951	13742
700.070	12185
700.190	12157
700.309	11412
700.428	12730
700.547	11842
700.667	11758
700.786	12166
700.905	11561
701.024	12014
701.143	12039
701.262	11585
701.381	11577
701.500	11759
701.619	13259
701.738	11477
701.857	11676
701.976	11073
702.095	11358
702.214	11910
702.333	12535
702.452	10939
702.571	11364
702.690	10888
702.809	10752
702.928	11115
703.047	10607
703.165	11058
703.284	11310
703.403	11697
703.522	11947
703.640	11777
703.759	13295
703.878	14021
703.997	11261
704.115	10333
704.234	10868
704.353	11095
704.471	10369
704.590	10217
704.708	10841
704.827	10187
704.946	10256
705.064	9766
705.183	10098
705.301	11008
705.420	14405
705.538	12698
705.656	11633
705.775	9991
705.893	13113
706.012	13887
706.130	11899
706.249	12438
706.367	11848
706.485	12099
706.604	12180
706.722	12697
706.840	13003
706.958	14143
707.077	11672
707.195	11228
707.313	12388
707.431	10653
707.549	10713
707.668	10502
707.786	11231
707.904	10899
708.022	11347
708.140	10639
708.258	10373
708.376	11067
708.494	11101
708.612	12323
708.730	15138
708.848	13788
708.966	12805
709.084	12521
709.202	13296
709.320	12072
709.438	13070
709.556	12592
709.674	12671
709.791	12638
709.909	11541
710.027	12126
710.145	12129
710.263	12803
710.380	11518
710.498	11743
710.616	11725
710.733	11603
710.851	11618
710.969	12715
711.086	11380
711.204	11623
711.322	11523
711.439	11110
711.557	11762
711.674	11470
711.792	10938
711.909	10736
712.027	11511
712.144	10389
712.262	11253
712.379	11889
712.497	15401
712.614	14736
712.732	12995
712.849	12489
712.966	14382
713.084	15991
713.201	13680
713.318	13250
713.436	14185
713.553	12983
713.670	14437
713.787	14200
713.905	14422
714.022	14341
714.139	13477
714.256	16610
714.373	20742
714.490	35047
714.608	90829
714.725	375388
714.842	305813
714.959	25967
715.076	16730
715.193	13712
715.310	13898
715.427	12573
715.544	12590
715.661	11353
715.778	11691
715.895	12583
716.011	12950
716.128	12164
716.245	12463
716.362	13176
716.479	13659
716.596	11831
716.713	11229
716.829	11333
716.946	10657
717.063	10217
717.180	10459
717.296	10395
717.413	11122
717.530	10689
717.646	10950
717.763	9544
717.880	10297
717.996	10576
718.113	11366
718.229	10506
718.346	10346
718.462	10694
718.579	13449
718.695	17506
718.812	12682
718.928	12403
719.045	10467
719.161	10491
719.277	9603
719.394	9993
719.510	9978
719.626	10705
719.743	13330
719.859	17635
719.975	31369
720.092	119743
720.208	218737
720.324	26271
720.440	13302
720.557	11847
720.673	16254
720.789	17924
720.905	27292
721.021	12097
721.137	9753
721.253	10333
721.369	10406
721.486	10641
721.602	11667
721.718	9182
721.834	9306
721.950	9167
722.066	8479
722.181	8889
722.297	9973
722.413	8608
722.529	9244
722.645	8732
722.761	8254
722.877	8529
722.993	8469
723.108	9631
723.224	9293
723.340	9145
723.456	8519
723.571	9072
723.687	8021
723.803	8164
723.918	8093
724.034	8013
724.150	8414
724.265	8269
724.381	14081
724.497	15353
724.612	7861
724.728	7952
724.843	8070
724.959	8336
725.074	13997
725.190	12110
725.305	7938
725.421	8000
725.536	7479
725.651	7906
725.767	6698
725.882	7221
725.997	7428
726.113	6638
726.228	7510
726.343	7394
726.459	7081
726.574	7629
726.689	7106
726.804	7261
726.920	6546
727.035	6946
727.150	8064
727.265	8406
727.380	7967
727.495	7252
727.610	7063
727.725	6869
727.841	7782
727.956	8150
728.071	8521
728.186	6821
728.301	6260
728.416	7911
728.531	7052
728.645	7601
728.760	7807
728.875	7369
728.990	7725
729.105	7436
729.220	6432
729.335	7661
729.449	6795
729.564	6999
729.679	7353
729.794	6895
729.908	7001
730.023	6503
730.138	6077
730.253	6047
730.367	6612
730.482	7248
730.596	7076
730.711	7734
730.826	8128
730.940	7285
731.055	7407
731.169	6188
731.284	7148
731.398	6756
731.513	7566
731.627	7080
731.742	9097
731.856	9141
731.970	9035
732.085	8852
732.199	11986
732.313	19509
732.428	50858
732.542	147913
732.656	70890
732.771	14017
732.885	10603
732.999	10148
733.113	10471
733.227	9683
733.342	8564
733.456	9020
733.570	8903
733.684	8269
733.798	8925
733.912	8688
734.026	8946
734.140	8773
734.254	8705
734.368	10956
734.482	11869
734.596	7370
734.710	8443
734.824	8639
734.938	7936
735.052	7378
735.166	8777
735.280	8796
735.393	7716
735.507	8165
735.621	10068
735.735	11735
735.849	9360
735.962	8170
736.076	7850
736.190	7144
736.303	9477
736.417	9590
736.531	7963
736.644	7791
736.758	7729
736.872	7409
736.985	8194
737.099	7372
737.212	7405
737.326	6717
737.439	7906
737.553	6798
737.666	7184
737.780	7037
737.893	6670
738.007	6853
738.120	7256
738.233	6582
738.347	6789
738.460	7053
738.573	7491
738.687	7059
738.800	7687
738.913	8281
739.026	7565
739.140	6401
739.253	6425
739.366	7053
739.479	6621
739.592	5916
739.705	7250
739.818	7352
739.932	6480
740.045	7052
740.158	6525
740.271	6564
740.384	6988
740.497	6034
740.610	6801
740.723	6569
740.836	7248
740.949	6624
741.062	8825
741.174	6769
741.287	6438
741.400	5831
741.513	5904
741.626	7245
741.739	6506
741.851	6485
741.964	6104
742.077	6392
742.189	5871
742.302	7024
742.415	7364
742.527	6011
742.640	6789
742.753	6213
742.865	5632
742.978	6126
743.090	6435
743.203	5122
743.316	5608
743.428	5590
743.541	5640
743.653	5848
743.766	5798
743.878	6455
743.990	7289
744.103	6798
744.215	7193
744.327	6702
744.440	7453
744.552	8609
744.664	5986
744.777	5757
744.889	5510
745.001	5611
745.113	5449
745.226	5012
745.338	5611
745.450	6306
745.562	5728
745.674	5089
745.786	5650
745.898	5408
746.010	5096
746.122	5271
746.234	6032
746.347	5414
746.459	5863
746.570	5389
746.682	6312
746.794	7528
746.906	6607
747.018	5169
747.130	5508
747.242	5467
747.354	6187
747.466	5810
747.577	5910
747.689	4761
747.801	5624
747.913	5170
748.024	5442
748.136	5147
748.248	5188
748.359	5071
748.471	6367
748.583	5070
748.694	5368
748.806	4919
748.918	6042
749.029	5562
749.141	6102
749.252	6050
749.364	6534
749.475	8488
749.587	5880
749.698	4831
749.809	5614
749.921	4795
750.032	5499
750.144	4761
750.255	5236
750.366	4403
750.478	5483
750.589	6036
750.700	5042
750.811	5418
750.923	5986
751.034	10127
751.145	9099
751.256	4773
751.367	5328
751.479	4737
751.590	4105
751.701	4247
751.812	3992
751.923	4827
752.034	5036
752.145	4966
752.256	5678
752.367	4650
752.478	5172
752.589	4880
752.700	4709
752.811	4741
752.922	4174
753.032	4935
753.143	5431
753.254	4408
753.365	5428
753.476	3696
753.586	4527
753.697	4538
753.808	5165
753.919	4177
754.029	4412
754.140	4448
754.251	4625
754.361	4159
754.472	4821
754.582	4515
754.693	4377
754.804	4393
754.914	4010
755.025	5133
755.135	4879
755.246	4542
755.356	3974
755.466	3949
755.577	4260
755.687	4609
755.798	4461
755.908	4552
756.018	4197
756.129	3241
756.239	5089
756.349	4841
756.460	4234
756.570	4894
756.680	5492
756.790	4780
756.900	5377
757.011	4677
757.121	4290
757.231	4265
757.341	4309
757.451	3579
757.561	4366
757.671	3499
757.781	3999
757.891	4697
758.001	4556
758.111	4734
758.221	4918
758.331	5287
758.441	5166
758.551	6383
758.661	6517
758.771	4985
758.880	4605
758.990	4284
759.100	4587
759.210	4785
759.320	5585
759.429	4616
759.539	5530
759.649	4927
759.758	6742
759.868	5470
759.978	6497
760.087	5757
760.197	6154
760.307	5492
760.416	5827
760.526	4858
760.635	6849
760.745	5674
760.854	6170
760.964	6720
761.073	6668
761.182	5842
761.292	5124
761.401	6380
761.511	4902
761.620	5089
761.729	4825
761.839	4986
761.948	6071
762.057	5001
762.166	5796
762.276	5125
762.385	6148
762.494	5594
762.603	5736
762.712	5276
762.822	6522
762.931	6015
763.040	5259
763.149	5750
763.258	5870
763.367	6882
763.476	7262
763.585	6843
763.694	7452
763.803	7575
763.912	7118
764.021	7350
764.130	7861
764.238	7913
764.347	8402
764.456	8129
764.565	9098
764.674	9669
764.783	10857
764.891	9957
765.000	12357
765.109	13423
765.217	14758
765.326	17242
765.435	22387
765.543	24757
765.652	30239
765.761	39536
765.869	58012
765.978	88366
766.086	148190
766.195	283622
766.303	594247
766.412	895233
766.520	738470
766.629	360454
766.737	168660
766.846	100107
766.954	65981
767.062	48466
767.171	36876
767.279	29288
767.387	24344
767.496	19817
767.604	18173
767.712	16078
767.820	15552
767.928	15140
768.037	13845
768.145	12662
768.253	13245
768.361	12000
768.469	12398
768.577	12343
768.685	13359
768.793	13286
768.901	14438
769.009	16286
769.117	19423
769.225	25124
769.333	38785
769.441	59849
769.549	112699
769.657	247528
769.765	590278
769.873	729974
769.981	355011
770.088	127797
770.196	67267
770.304	43986
770.412	31759
770.519	23863
770.627	19647
770.735	16518
770.842	14078
770.950	12159
771.058	11997
771.165	12301
771.273	11337
771.380	8906
771.488	10779
771.595	9613
771.703	9307
771.810	8951
771.918	8379
772.025	9256
772.133	8861
772.240	8696
772.348	8759
772.455	8654
772.562	8171
772.670	7364
772.777	7984
772.884	7043
772.991	7651
773.099	7870
773.206	6873
773.313	6973
773.420	6569
773.528	6498
773.635	6610
773.742	6614
773.849	6610
773.956	7259
774.063	6279
774.170	6773
774.277	7426
774.384	6600
774.491	6426
774.598	5744
774.705	5669
774.812	7072
774.919	7101
775.026	5944
775.133	6222
775.239	6483
775.346	5123
775.453	6171
775.560	5338
775.667	5913
775.773	4741
775.880	6130
775.987	5907
776.093	6322
776.200	6376
776.307	4686
776.413	6655
776.520	5598
776.627	5847
776.733	4252
776.840	4315
776.946	6975
777.053	6611
777.159	9849
777.266	6711
777.372	9398
777.478	8588
777.585	6047
777.691	5719
777.798	5494
777.904	5707
778.010	6335
778.117	6032
778.223	5251
778.329	4246
778.435	3658
778.542	5192
778.648	4576
778.754	4929
778.860	4745
778.966	5267
779.072	4600
779.178	4233
779.284	3807
779.391	4289
779.497	3349
779.603	6472
779.708	4832
779.815	9957
779.920	25431
780.026	28625
780.132	6075
780.238	4462
780.344	3909
780.450	5100
780.556	3545
780.661	3279
780.767	4427
780.873	3713
780.979	4329
781.085	4895
781.190	4078
781.296	4465
781.402	3844
781.507	4394
781.613	3393
781.719	3907
781.824	3891
781.930	4115
782.035	4466
782.141	4424
782.246	2586
782.352	4191
782.457	3753
782.563	3565
782.668	3697
782.773	4179
782.879	3370
782.984	4246
783.090	4342
783.195	5870
783.300	3357
783.405	3492
783.511	2690
783.616	4452
783.721	3892
783.826	3418
783.932	4807
784.037	3771
784.142	3398
784.247	3666
784.352	4158
784.457	3091
784.562	3726
784.667	3729
784.772	2662
784.877	2999
784.982	3969
785.087	3978
785.192	3364
785.297	3001
785.402	2712
785.507	4162
785.611	2596
785.716	2714
785.821	3947
785.926	3315
786.031	3159
786.135	2816
786.240	3682
786.345	2555
786.450	3209
786.554	2813
786.659	2086
786.763	2467
786.868	3027
786.973	4099
787.077	2474
787.182	3287
787.286	3397
787.391	3370
787.495	1570
787.600	2676
787.704	1333
787.809	3396
787.913	2516
788.017	2986
788.122	3374
788.226	2503
788.330	1556
788.435	3467
788.539	2364
788.643	2898
788.747	2770
788.852	2439
788.956	2692
789.060	3090
789.164	2625
789.268	2969
789.372	2558
789.476	3258
789.580	1721
789.684	3032
789.788	2618
789.892	2541
789.996	3882
790.100	3140
790.204	2381
790.308	3089
790.412	1521
790.516	2639
790.620	2813
790.724	3313
790.828	2996
790.931	1980
791.035	3218
791.139	2413
791.242	1381
791.346	3642
791.450	2823
791.554	2479
791.657	1027
791.761	3229
791.864	3215
791.968	3080
792.072	3117
792.175	2476
792.279	2385
792.382	2930
792.486	2557
792.589	2497
792.693	2718
792.796	1688
792.899	2495
793.003	3644
793.106	900
793.209	2137
793.313	2552
793.416	449
793.519	2474
793.623	4210
793.726	4279
793.829	2236
793.932	2448
794.035	2400
794.138	3045
794.242	3407
794.345	2125
794.448	2763
794.551	5048
794.654	11783
794.757	13720
794.860	3666
794.963	2835
795.066	2385
795.169	3581
795.272	2298
795.375	2821
795.477	1742
795.580	1983
795.683	1315
795.786	2218
795.889	1136
795.991	3001
796.094	2948
796.197	825
796.300	3065
796.402	962
796.505	1581
796.608	1684
796.710	2556
796.813	2282
796.915	1540
797.018	2000
797.120	1266
797.223	1265
797.326	2875
797.428	740
797.530	1103
797.633	1481
797.735	3591
797.838	3376
797.940	3424
798.042	2017
798.145	1665
798.247	1437
798.349	1136
798.452	2410
798.554	1784
798.656	1185
798.758	2560
798.860	1974
798.962	2268
799.065	1158
799.167	808
799.269	3163
799.371	2700
799.473	2392
799.575	1879
799.677	1897
799.779	3538
799.881	1887
799.983	3027
800.085	1844
800.187	1839
800.289	559
800.390	1785
800.492	1842
800.594	2707
800.696	1332
800.798	2241
800.899	1650
801.001	2156
801.103	1175
801.205	1587
801.306	1693
801.408	1068
801.509	1570
801.611	2320
801.713	1379
801.814	1224
801.916	1332
802.017	838
802.119	1325
802.220	1508
802.322	799
802.423	2876
802.525	435
802.626	1741
802.727	1140
802.829	2066
802.930	-630
803.031	2969
803.133	1430
803.234	1440
803.335	399
803.436	1401
803.538	990
803.639	629
803.740	1528
803.841	1721
803.942	1124
804.043	1758
804.144	45
804.245	1103
804.346	952
804.447	980
804.548	1896
804.649	3453
804.750	738
804.851	256
804.952	271
805.053	1635
805.154	-340
805.255	2751
805.355	525
805.456	1678
805.557	1237
805.658	693
805.758	1951
805.859	1714
805.960	942
806.061	775
806.161	952
806.262	1406
806.362	839
806.463	149
806.564	899
806.664	1629
806.765	918
806.865	2103
806.966	709
807.066	628
807.166	1803
807.267	1023
807.367	199
807.468	1316
807.568	-41
807.668	1426
807.769	1649
807.869	654
807.969	570
808.069	711
808.170	1280
808.270	1276
808.370	1853
808.470	2582
808.570	281
808.670	1325
808.770	1460
808.870	630
808.970	1588
809.070	468
809.170	785
809.271	1326
809.370	543
809.470	1508
809.570	1452
809.670	275
809.770	397
809.870	1333
809.970	1412
810.070	815
810.169	1761
810.269	114
810.369	1779
810.469	1024
810.568	1083
810.668	68
810.768	-48
810.867	1582
810.967	563
811.066	-1
811.166	152
811.265	2278
811.365	488
811.464	1438
811.564	1910
811.663	1789
811.763	31
811.862	1910
811.962	1322
812.061	1491
812.160	-68
812.260	1888
812.359	877
812.458	1310
812.557	2779
812.657	2227
812.756	1154
812.855	833
812.954	397
813.053	1485
813.153	646
813.252	739
813.351	803
813.450	699
813.549	870
813.648	1366
813.747	629
813.846	1621
813.945	282
814.044	764
814.143	1332
814.242	1500
814.341	101
814.439	2114
814.538	471
814.637	1210
814.736	646
814.835	1822
814.933	1373
815.032	1950
815.131	1357
815.229	2497
815.328	2370
815.427	1758
815.525	3465
815.624	2573
815.722	2316
815.821	2501
815.919	2223
816.018	1869
816.116	3153
816.215	2373
816.313	2168
816.412	3718
816.510	2996
816.609	4764
816.707	3192
816.805	2937
816.904	2919
817.002	2755
817.100	3922
817.198	4108
817.296	2636
817.395	3340
817.493	4669
817.591	3869
817.689	5323
817.787	5489
817.885	8707
817.983	15484
818.081	33423
818.179	81121
818.277	186017
818.375	119738
818.473	26870
818.571	11629
818.669	8148
818.767	8862
818.865	9183
818.963	10529
819.061	15650
819.158	28165
819.256	63640
819.354	152859
819.452	296550
819.549	144498
819.647	34176
819.745	15429
819.842	10406
819.940	7830
820.038	5551
820.135	4825
820.233	4857
820.330	3570
820.428	3066
820.525	3801
820.623	3176
820.720	2762
820.818	3677
820.915	3692
821.012	2535
821.110	2617
821.207	2749
821.304	1890
821.402	2978
821.499	3725
821.596	3914
821.693	3304
821.791	3514
821.888	3941
821.985	5173
822.082	2540
822.179	3105
822.276	2529
822.373	2264
822.470	1559
822.567	1154
822.664	1164
822.761	2263
822.858	2714
822.955	1379
823.052	1608
823.149	2102
823.246	1502
823.343	954
823.440	2663
823.536	1090
823.633	2204
823.730	1143
823.827	1470
823.923	1444
824.020	2195
824.117	2088
824.213	1268
824.310	1671
824.407	1794
824.503	2333
824.600	1740
824.696	1018
824.793	2294
824.889	1449
824.986	1760
825.082	754
825.179	1517
825.275	813
825.371	1957
825.468	1391
825.564	939
825.660	2079
825.757	1612
825.853	1807
825.949	892
826.045	951
826.142	1062
826.238	857
826.334	1698
826.430	1435
826.526	1346
826.622	926
826.718	1271
826.814	1711
826.910	1775
827.006	600
827.102	772
827.198	1977
827.294	972
827.390	956
827.486	1493
827.582	231
827.678	16
827.774	1073
827.869	67
827.965	1649
828.061	433
828.157	1622
828.252	1315
828.348	702
828.444	1033
828.539	144
828.635	1351
828.731	1219
828.826	180
828.922	1644
829.017	1143
829.113	860
829.208	633
829.304	713
829.399	2494
829.495	237
829.590	1128
829.685	188
829.781	1238
829.876	645
829.971	874
830.066	-240
830.162	888
830.257	502
830.352	1542
830.447	860
830.543	1389
830.638	-350
830.733	2033
830.828	791
830.923	864
831.018	1372
831.113	578
831.208	315
831.303	229
831.398	607
831.493	1350
831.588	1443
831.683	-51
831.778	505
831.873	969
831.967	1504
832.062	126
832.157	-407
832.252	2069
832.346	199
832.441	1448
832.536	1987
832.631	3967
832.725	2989
832.820	299
832.914	599
833.009	376
833.104	754
833.198	1301
833.293	-58
833.387	219
833.482	1314
833.576	351
833.670	1231
833.765	890
833.859	684
833.954	1858
834.048	552
834.142	1081
834.237	865
834.331	1093
834.425	380
834.519	629
834.613	1473
834.708	618
834.802	664
834.896	792
834.990	587
835.084	743
835.178	620
835.272	410
835.366	1287
835.460	1495
835.554	1232
835.648	619
835.742	95
835.836	476
835.930	-312
836.024	1223
836.117	1743
836.211	979
836.305	866
836.399	1459
836.493	-364
836.586	1486
836.680	-483
836.774	-82
836.867	1490
836.961	-177
837.055	344
837.148	993
837.242	63
837.335	253
837.429	1247
837.522	87
837.616	805
837.709	2594
837.803	877
837.896	1342
837.989	518
838.083	850
838.176	1682
838.269	1221
838.363	1436
838.456	1396
838.549	1722
838.642	2696
838.735	5025
838.829	3444
838.922	-387
839.015	744
839.108	473
839.201	1471
839.294	989
839.387	295
839.480	763
839.573	728
839.666	77
839.759	493
839.852	153
839.945	873
840.038	-53
840.131	519
840.223	113
840.316	1111
840.409	-15
840.502	-138
840.594	1118
840.687	-324
840.780	336
840.873	430
840.965	946
841.058	559
841.150	1392
841.243	290
841.336	1008
841.428	836
841.521	-35
841.613	-89
841.706	593
841.798	556
841.890	314
841.983	-444
842.075	917
842.167	388
842.260	39
842.352	1940
842.444	955
842.537	1799
842.629	2842
842.721	-273
842.813	-169
842.905	-486
842.997	509
843.090	865
843.182	1633
843.274	1606
843.366	4390
843.458	7914
843.550	4832
843.642	1481
843.734	560
843.826	137
843.918	630
844.009	1107
844.101	206
844.193	848
844.285	634
844.377	1347
844.469	1530
844.560	926
844.652	543
844.744	416
844.835	717
844.927	324
845.019	1151
845.110	48
845.202	732
845.293	837
845.385	-482
845.476	109
845.568	815
845.659	203
845.751	389
845.842	145
845.934	346
846.025	59
846.116	248
846.208	348
846.299	-356
846.390	85
846.482	49
846.573	1454
846.664	1405
846.755	790
846.846	2044
846.937	-41
847.029	-18
847.120	175
847.211	-169
847.302	1612
847.393	-845
847.484	675
847.575	233
847.666	-409
847.757	213
847.847	408
847.938	1084
848.029	1026
848.120	-576
848.211	-186
848.302	-76
848.392	379
848.483	256
848.574	-256
848.664	-251
848.755	565
848.846	-365
848.936	70
849.027	121
849.118	567
849.208	263
849.299	566
849.389	1851
849.480	4948
849.570	9552
849.661	19640
849.751	31499
849.841	10103
849.932	796
850.022	649
850.112	433
850.203	346
850.293	739
850.383	279
850.474	-1155
850.564	346
850.654	271
850.744	-983
850.834	-580
850.924	-235
851.014	565
851.104	-544
851.194	-632
851.284	877
851.374	525
851.464	233
851.554	-131
851.644	373
851.734	1408
851.824	-179
851.914	453
852.004	584
852.094	-397
852.183	680
852.273	311
852.363	-140
852.452	202
852.542	767
852.632	257
852.721	370
852.811	209
852.901	428
852.990	775
853.080	222
853.169	-194
853.259	976
853.348	-206
853.438	1287
853.527	2489
853.617	2350
853.706	6854
853.795	13146
853.885	30147
853.974	54542
854.063	106073
854.152	153063
854.242	50212
854.331	7375
854.420	3381
854.509	2444
854.598	1756
854.687	1400
854.777	1305
854.866	941
854.955	-268
855.044	895
855.133	-69
855.222	437
855.311	-503
855.400	349
855.488	-338
855.577	736
855.666	92
855.755	729
855.844	-196
855.933	284
856.021	-208
856.110	1054
856.199	-775
856.288	-680
856.376	731
856.465	-548
856.554	762
856.642	-163
856.731	-338
856.819	129
856.908	-363
856.996	-444
857.085	-107
857.173	243
857.262	-781
857.350	76
857.438	-518
857.527	731
857.615	-694
857.703	759
857.792	-439
857.880	-38
857.968	224
858.056	-160
858.145	438
858.233	650
858.321	-456
858.409	843
858.497	-619
858.585	72
858.673	997
858.761	-411
858.849	35
858.937	-74
859.025	-83
859.113	688
859.201	-428
859.289	181
859.377	290
859.465	-190
859.552	-23
859.640	23
859.728	-245
859.816	958
859.903	332
859.991	-227
860.079	-457
860.166	478
860.254	49
860.342	209
860.429	172
860.517	-804
860.604	245
860.692	496
860.779	-296
860.867	49
860.954	245
861.042	493
861.129	1023
861.216	-74
861.304	-423
861.391	-96
861.478	19
861.565	175
861.653	1194
861.740	-177
861.827	196
861.914	146
862.001	-78
862.089	-228
862.176	-593
862.263	-682
862.350	-213
862.437	-105
862.524	-839
862.611	-688
862.698	-29
862.785	1204
862.871	948
862.958	191
863.045	-291
863.132	-377
863.219	241
863.306	-603
863.392	400
863.479	312
863.566	-505
863.652	-236
863.739	-64
863.826	-666
863.912	64
863.999	-334
864.086	88
864.172	138
864.259	36
864.345	124
864.432	482
864.518	1
864.604	23
864.691	15
864.777	413
864.863	528
864.950	1168
865.036	807
865.122	2163
865.209	2476
865.295	1602
865.381	2121
865.467	2281
865.553	3728
865.639	4007
865.726	7669
865.812	15479
865.898	30198
865.984	43911
866.070	84416
866.156	83403
866.242	19394
866.328	4929
866.414	2733
866.499	2952
866.585	1591
866.671	2785
866.757	2285
866.843	1864
866.928	1292
867.014	1414
867.100	2144
867.186	1910
867.271	1348
867.357	2418
867.442	2000
867.528	1777
867.614	1754
867.699	1412
867.785	2937
867.870	1613
867.956	1973
868.041	1892
868.127	2477
868.212	2670
868.297	2966
868.383	1623
868.468	2434
868.553	3509
868.639	3549
868.724	6156
868.809	4563
868.894	2006
868.979	1002
869.065	1051
869.150	1338
869.235	727
869.320	904
869.405	286
869.490	1264
869.575	909
869.660	1362
869.745	1302
869.830	1375
869.915	604
870.000	288
870.085	620
870.169	1130
870.254	701
870.339	226
870.424	-242
870.509	1316
870.593	1321
870.678	1038
870.763	492
870.847	598
870.932	953
871.016	1610
871.101	442
871.186	1009
871.270	67
871.355	-499
871.439	988
871.523	708
871.608	831
871.692	1180
871.777	1123
871.861	1284
871.945	932
872.030	1730
872.114	280
872.198	858
872.282	131
872.367	1189
872.451	386
872.535	240
872.619	431
872.703	903
872.787	-150
872.871	702
872.955	403
873.039	746
873.123	622
873.207	1617
873.291	380
873.375	259
873.459	679
873.543	-60
873.627	1648
873.711	-411
873.794	1283
873.878	281
873.962	233
874.045	738
874.129	348
874.137	377
874.213	660
874.245	197
874.296	-547
874.352	-327
874.380	-222
874.460	723
874.464	761
874.547	-318
874.568	93
874.631	1284
874.676	808
874.714	416
874.784	123
874.798	69
874.881	1521
874.892	1308
874.965	-186
874.999	132
875.048	567
875.107	116
875.131	-78
875.215	596
875.215	596
875.298	-530
875.323	-205
875.381	594
875.430	1045
875.465	1341
875.538	349
875.548	207
875.631	78
875.646	86
875.714	161
875.753	613
875.798	1157
875.861	1270
875.881	1297
875.964	197
875.968	228
876.047	767
876.076	802
876.130	935
876.183	1098
876.213	1149
876.291	1478
876.296	1492
876.379	549
876.398	633
876.462	1169
876.506	1148
876.545	1008
876.613	794
876.628	782
876.711	732
876.721	734
876.794	630
876.828	935
876.877	1310
876.935	396
876.960	111
877.043	889
877.043	891
877.125	1467
877.150	1631
877.208	1798
877.258	1557
877.291	1432
877.365	1121
877.374	1088
877.456	1187
877.472	1128
877.539	1014
877.579	1150
877.622	1243
877.687	1571
877.704	1657
877.787	1295
877.794	1339
877.869	1772
877.901	1803
877.952	1825
878.008	1264
878.034	1010
878.115	526
878.117	524
878.199	1129
878.222	1194
878.282	1453
878.329	2252
878.364	2669
878.437	1710
878.447	1573
878.529	787
878.544	890
878.611	1524
878.651	1330
878.694	1380
878.758	2292
878.776	2454
878.858	2239
878.865	2192
878.941	1379
878.972	1264
879.023	1351
879.078	1354
879.105	1438
879.185	2327
879.187	2342
879.269	1923
879.292	1909
879.351	1842
879.399	1619
879.433	1525
879.506	1716
879.516	1746
879.598	1559
879.613	1618
879.680	2056
879.720	1947
879.762	1634
879.827	1450
879.844	1463
879.926	1760
879.933	1813
880.007	2619
880.040	2622
880.089	2486
880.147	3251
880.171	3635
880.253	4276
880.254	4277
880.335	6483
880.360	7029
880.417	10760
880.467	15917
880.499	19249
880.574	23938
880.580	23210
880.662	9099
880.680	6560
880.744	3298
880.787	1966
880.825	1920
880.893	2069
880.907	2133
880.989	1914
881.000	1893
881.070	1602
881.106	1642
881.152	1879
881.213	1730
881.233	1613
881.315	1882
881.319	1846
881.396	1927
881.426	2221
881.478	2535
881.532	2712
881.559	2712
881.639	1831
881.641	1811
881.722	1451
881.745	1431
881.803	2334
881.852	2687
881.885	2342
881.958	1802
881.966	1861
882.047	2211
882.064	2374
882.129	2874
882.171	2916
882.210	3972
882.277	6410
882.291	6352
882.372	4530
882.383	4340
882.454	3389
882.489	2952
882.535	2580
882.596	2183
882.616	2192
882.697	1874
882.702	1876
882.778	2032
882.808	2020
882.859	2018
882.914	1939
882.940	1980
883.020	1958
883.021	1968
883.102	2571
883.127	2686
883.183	2864
883.233	2864
883.264	2651
883.339	2748
883.345	2732
883.426	1401
883.445	1290
883.507	1787
883.551	2065
883.587	2348
883.657	2757
883.668	2845
883.749	3417
883.763	3430
883.830	2376
883.869	1936
883.910	1904
883.975	1921
883.991	1990
884.072	2138
884.081	2133
884.152	2794
884.187	3218
884.233	3271
884.292	2934
884.314	2646
884.394	2434
884.398	2367
884.475	1960
884.504	1984
884.555	2168
884.610	2074
884.636	2004
884.716	2398
884.716	2415
884.797	3340
884.821	3665
884.877	3296
884.927	2793
884.958	2708
885.033	2723
885.038	2706
885.118	1872
885.139	1778
885.199	2468
885.244	2751
885.279	2785
885.350	3282
885.359	3384
885.439	3648
885.456	3728
885.520	3458
885.561	3188
885.600	2925
885.667	2562
885.680	2661
885.760	3265
885.773	3365
885.840	3410
885.878	3176
885.920	2867
885.984	2980
886.000	3132
886.080	3013
886.089	3041
886.160	3378
886.195	3463
886.240	3387
886.300	3202
886.320	3332
886.400	4008
886.406	4033
886.480	3560
886.511	3290
886.560	3450
886.616	3565
886.640	3382
886.720	3164
886.722	3140
886.800	2833
886.827	2747
886.879	3156
886.932	3538
886.959	3706
887.038	4231
887.039	4242
887.119	3897
887.143	3838
887.198	3387
887.248	2937
887.278	2962
887.354	2873
887.358	2918
887.437	3803
887.459	3963
887.517	3653
887.564	3515
887.596	3323
887.669	2722
887.676	2766
887.755	3259
887.774	3327
887.835	2984
887.880	2799
887.914	3246
887.985	4085
887.994	4131
888.073	4393
888.090	4405
888.153	4545
888.195	4745
888.232	4154
888.300	2854
888.311	2921
888.391	3379
888.405	3451
888.470	2868
888.510	2456
888.549	2997
888.615	4019
888.628	4089
888.708	4281
888.720	4304
888.787	4490
888.825	4551
888.866	3872
888.930	2808
888.945	2929
889.024	3540
889.035	3602
889.103	4068
889.140	4319
889.182	4232
889.245	4050
889.261	4083
889.340	4200
889.349	4198
889.419	3652
889.454	3369
889.498	3333
889.559	3262
889.577	3389
889.656	3902
889.664	3944
889.735	4088
889.768	4138
889.814	4556
889.873	5079
889.978	4263
890.083	4085
890.187	4075
890.292	4529
890.397	3651
890.501	3413
890.606	3378
890.710	4483
890.815	5591
890.919	4939
891.024	4896
891.128	4300
891.233	3342
891.337	4795
891.442	3614
891.546	4022
891.650	3211
891.755	3219
891.859	5117
891.963	4363
892.068	4655
892.172	4009
892.276	2907
892.380	3172
892.484	4270
892.589	4299
892.693	4108
892.797	2463
892.901	2415
893.005	2799
893.109	4626
893.213	4330
893.317	4021
893.421	2882
893.525	1971
893.629	3054
893.733	3824
893.837	4159
893.941	2594
894.045	3158
894.148	3057
894.252	3963
894.356	4274
894.460	5521
894.564	3862
894.667	3212
894.771	3321
894.875	2539
894.978	3548
895.082	3404
895.186	4076
895.289	4104
895.393	3309
895.496	4692
895.600	2992
895.703	3291
895.807	2771
895.910	3536
896.014	3964
896.117	3273
896.221	4230
896.324	3151
896.427	3010
896.531	3132
896.634	2728
896.737	3535
896.840	3829
896.944	4245
897.047	3292
897.150	3138
897.253	2760
897.356	2648
897.460	2325
897.563	2725
897.666	3741
897.769	3571
897.872	2470
897.975	2915
898.078	2781
898.181	2917
898.284	1781
898.387	4151
898.490	4030
898.593	3894
898.695	1847
898.798	2901
898.901	2199
899.004	3766
899.107	2955
899.209	3602
899.312	4283
899.415	3174
899.518	2789
899.620	3023
899.723	3503
899.826	6320
899.928	6541
900.031	3683
900.133	3663
900.236	3585
900.338	2240
900.441	2580
900.543	2646
900.646	2465
900.748	3033
900.851	3656
900.953	2342
901.055	3554
901.158	3237
901.260	2670
901.362	3194
901.465	2628
901.567	3415
901.669	3444
901.771	3033
901.873	3285
901.976	2953
902.078	3642
902.180	2384
902.282	2419
902.384	3413
902.486	3723
902.588	3545
902.690	3566
902.792	2583
902.894	2856
902.996	3163
903.098	2821
903.200	2565
903.302	2708
903.404	2221
903.505	2863
903.607	3336
903.709	4500
903.811	3645
903.913	2565
904.014	2081
904.116	2199
904.218	2261
904.319	3228
904.421	3453
904.523	3413
904.624	2337
904.726	3286
904.827	3180
904.929	2558
905.030	2096
905.132	4078
905.233	2945
905.335	2537
905.436	2591
905.537	2460
905.639	3150
905.740	3221
905.841	3404
905.943	3752
906.044	3010
906.145	2850
906.247	1807
906.348	2699
906.449	3104
906.550	3300
906.651	2536
906.752	3099
906.854	1841
906.955	3404
907.056	1769
907.157	3104
907.258	2710
907.359	2607
907.460	2469
907.561	2020
907.662	2941
907.762	3006
907.863	3273
907.964	3735
908.065	3812
908.166	2061
908.267	2813
908.367	2653
908.468	3119
908.569	3502
908.670	3726
908.770	4170
908.871	4297
908.971	4488
909.072	3339
909.173	2551
909.273	2568
909.374	2662
909.474	3150
909.575	2975
909.675	2977
909.776	3259
909.876	2342
909.977	3234
910.077	3229
910.177	3641
910.278	3308
910.378	2323
910.478	2282
910.579	3796
910.679	3562
910.779	3256
910.879	4065
910.980	3196
911.080	2543
911.180	2041
911.280	3029
911.380	2883
911.480	3218
911.580	2620
911.680	2857
911.780	2742
911.880	3843
911.980	3248
912.080	2891
912.180	3096
912.280	2374
912.380	2276
912.480	1562
912.580	2755
912.679	1999
912.779	2737
912.879	2925
912.979	3523
913.078	1959
913.178	3013
913.278	2439
913.377	2499
913.477	2569
913.577	3357
913.676	2889
913.776	2278
913.875	2410
913.975	3175
914.074	2367
914.174	1984
914.273	1427
914.373	3886
914.472	1906
914.572	2484
914.671	2174
914.770	2856
914.870	2191
914.969	2416
915.068	2552
915.167	2785
915.267	3074
915.366	2833
915.465	2272
915.564	3087
915.663	2476
915.763	2779
915.862	3816
915.961	2332
916.060	1479
916.159	2489
916.258	2017
916.357	3171
916.456	3164
916.555	3072
916.654	2642
916.752	3710
916.851	2042
916.950	2483
917.049	1521
917.148	2555
917.247	3110
917.345	2637
917.444	1620
917.543	3264
917.642	2491
917.740	3194
917.839	2775
917.937	2836
918.036	3913
918.135	2943
918.233	3316
918.332	1526
918.430	2433
918.529	2329
918.627	2925
918.726	3112
918.824	3057
918.923	2201
919.021	2060
919.119	2968
919.218	1949
919.316	2810
919.414	2997
919.512	2705
919.611	3267
919.709	2881
919.807	3634
919.905	3657
920.003	3325
920.102	3724
920.200	2543
920.298	4047
920.396	3306
920.494	3474
920.592	2228
920.690	3444
920.788	3249
920.886	3550
920.984	3702
921.082	3055
921.180	4872
921.277	3202
921.375	4508
921.473	5963
921.571	4699
921.669	5423
921.766	3857
921.864	4597
921.962	4447
922.060	4669
922.157	4084
922.255	5327
922.352	4848
922.450	4889
922.548	4726
922.645	6572
922.743	6739
922.840	12069
922.938	11023
923.035	10779
923.133	10242
923.230	10713
923.327	12994
923.425	11633
923.522	11275
923.619	10898
923.717	9471
923.814	10564
923.911	9708
924.008	10779
924.106	9612
924.203	9897
924.300	9767
924.397	9917
924.494	9649
924.591	9768
924.688	10043
924.786	9507
924.883	9390
924.979	9830
925.077	9803
925.173	10293
925.270	9463
925.367	9607
925.464	10959
925.561	10822
925.658	9778
925.755	10065
925.852	10884
925.948	10028
926.045	9926
926.142	10023
926.239	9726
926.335	7914
926.432	10094
926.529	10790
926.625	10698
926.722	8044
926.818	8636
926.915	10069
927.011	8838
927.108	8796
927.204	8366
927.301	8130
927.397	9459
927.494	9713
927.590	6742
927.687	8944
927.783	9453
927.879	9971
927.976	7740
928.072	8655
928.168	8425
928.264	8776
928.361	8492
928.457	9159
928.553	8023
928.649	8837
928.745	7348
928.841	7277
928.937	8692
929.033	7302
929.129	7068
929.225	8751
929.321	6363
929.417	7727
929.513	7921
929.609	7510
929.705	7484
929.801	7678
929.897	6492
929.993	7004
930.089	6892
930.184	7027
930.280	8124
930.376	8451
930.471	6447
930.567	6201
930.663	6947
930.758	6942
930.854	6829
930.950	6323
931.045	5415
931.141	7869
931.236	9189
931.332	6648
931.427	6805
931.523	8402
931.618	6476
931.714	4968
931.809	6749
931.905	7218
932.000	4898
932.095	5499
932.191	7072
932.286	8738
932.381	5730
932.476	5656
932.572	5508
932.667	6030
932.762	5310
932.857	7592
932.952	6962
933.047	6391
933.142	5241
933.237	6853
933.332	6356
933.427	7296
933.522	5438
933.617	5060
933.712	5444
933.807	7536
933.902	6703
933.997	7287
934.092	4304
934.187	6583
934.282	6242
934.376	7203
934.471	6643
934.566	5759
934.661	6176
934.755	6697
934.850	6400
934.945	6491
935.039	5264
935.134	5736
935.228	6689
935.323	8372
935.417	4497
935.512	4648
935.606	3995
935.701	6137
935.795	6766
935.890	6253
935.984	5099
936.079	5550
936.173	5718
936.267	5579
936.362	5349
936.456	5850
936.550	7508
936.644	5006
936.738	4481
936.833	4383
936.927	3969
937.021	5440
937.115	6065
937.209	5555
937.303	6192
937.397	4429
937.491	5443
937.585	5396
937.679	5411
937.773	4861
937.867	3826
937.961	5331
938.055	6120
938.149	5749
938.243	4433
938.337	3823
938.430	5163
938.524	6443
938.618	4651
938.712	5360
938.805	5067
938.899	6462
938.993	5909
939.086	4726
939.180	3538
939.274	5655
939.367	5714
939.461	5779
939.554	4416
939.648	5343
939.741	4766
939.835	5527
939.928	6572
940.022	5817
940.115	5161
940.208	5812
940.302	6960
940.395	6366
940.488	3812
940.582	4527
940.675	3338
940.768	4820
940.861	5314
940.954	6288
941.048	3399
941.141	3532
941.234	4056
941.327	5981
941.420	6944
941.513	5828
941.606	3757
941.699	4732
941.792	5295
941.885	4764
941.978	5299
942.071	4906
942.164	3478
942.257	3813
942.349	4425
942.442	5162
942.535	2808
942.628	3864
942.721	4380
942.813	4357
942.906	4351
942.999	4449
943.091	3363
943.184	3843
943.277	4190
943.369	3587
943.462	3950
943.554	4329
943.647	3382
943.739	4443
943.832	4437
943.924	2044
944.017	3767
944.109	3368
944.201	3376
944.294	3395
944.386	3755
944.478	2717
944.571	2875
944.663	3962
944.755	4526
944.847	4452
944.940	3347
945.032	3318
945.124	2712
945.216	4327
945.308	4143
945.400	4013
945.492	3391
945.584	4924
945.676	4115
945.768	4098
945.860	4878
945.952	4821
946.044	4246
946.136	3116
946.228	3112
946.320	3879
946.412	3385
946.503	5010
946.595	4290
946.687	2014
946.779	2351
946.870	4382
946.962	3555
947.054	4377
947.145	4506
947.237	3535
947.329	2983
947.420	3760
947.512	2728
947.603	2930
947.695	2532
947.786	2174
947.878	2854
947.969	3827
948.061	2752
948.152	2843
948.243	2439
948.335	2802
948.426	2685
948.517	3167
948.609	3595
948.700	2548
948.791	2287
948.882	3005
948.973	2217
949.065	3613
949.156	2592
949.247	2555
949.338	2414
949.429	1993
949.520	2417
949.611	3410
949.702	3236
949.793	3685
949.884	2786
949.975	2006
950.066	1622
950.157	1820
950.247	2560
950.338	1951
950.429	1944
950.520	3167
950.611	2023
950.701	3534
950.792	4144
950.883	3545
950.973	4189
951.064	3163
951.155	3331
951.245	3271
951.336	4111
951.427	2860
951.517	4912
951.608	2839
951.698	2147
951.788	2601
951.879	2188
951.969	2521
952.060	2957
952.150	2679
952.240	4214
952.331	2670
952.421	4282
952.511	2752
952.602	1648
952.692	1721
952.782	1863
952.872	3007
952.962	3377
953.052	2764
953.143	2142
953.233	2771
953.323	2884
953.413	2946
953.503	2677
953.593	3745
953.683	2065
953.773	1484
953.863	1849
953.953	2083
954.042	2438
954.132	3346
954.222	3319
954.312	2266
954.402	1979
954.492	3585
954.581	3328
954.671	3150
954.761	1303
954.850	2712
954.940	948
955.030	1968
955.119	2423
955.209	2337
955.298	2686
955.388	3005
955.477	2242
955.567	1614
955.656	2209
955.746	2716
955.835	1890
955.925	2307
956.014	2486
956.103	2536
956.193	3428
956.282	3249
956.371	1583
956.461	3011
956.550	2010
956.639	2192
956.728	1692
956.817	2407
956.906	2984
956.995	2748
957.085	1963
957.174	2164
957.263	1930
957.352	2531
957.441	2441
957.530	2155
957.619	2096
957.708	2191
957.796	1556
957.885	2659
957.974	1926
958.063	3099
958.152	859
958.241	1876
958.329	1605
958.418	2840
958.507	2017
958.596	2242
958.684	1373
958.773	2882
958.861	1134
958.950	1719
959.039	1760
959.127	2579
959.216	1878
959.304	1835
959.393	2091
959.481	2968
959.570	2469
959.658	2451
959.746	2097
959.835	3624
959.923	3373
960.011	2580
960.100	2184
960.188	2985
960.276	2136
960.365	2898
960.453	1153
960.541	1362
960.629	1933
960.717	1322
960.805	964
960.893	2429
960.981	1888
961.069	3204
961.158	2271
961.245	2740
961.333	2322
961.421	1379
961.509	2122
961.597	2033
961.685	1411
961.773	2120
961.861	1730
961.949	2048
962.036	846
962.124	1551
962.212	908
962.299	1839
962.387	1268
962.475	2945
962.562	1243
962.650	2252
962.738	1468
962.825	1693
962.913	1286
963.000	1081
963.088	1594
963.175	1735
963.263	1452
963.350	2119
963.438	1358
963.525	2236
963.612	3930
963.700	8543
963.787	12095
963.874	5188
963.962	1648
964.049	1856
964.136	390
964.223	1194
964.310	803
964.398	1456
964.485	974
964.572	2901
964.659	2855
964.746	2291
964.833	1756
964.920	1184
965.007	975
965.094	1812
965.181	1821
965.268	1654
965.355	2231
965.441	1953
965.528	539
965.615	1562
965.702	2075
965.789	1399
965.875	1929
965.962	2156
966.049	1576
966.136	1687
966.222	1039
966.309	3009
966.395	1866
966.482	2803
966.569	615
966.655	1400
966.742	933
966.828	2122
966.915	1362
967.001	1365
967.087	-13
967.174	1200
967.260	1753
967.347	2873
967.433	4697
967.519	8090
967.605	2518
967.692	1089
967.778	1165
967.864	930
967.950	1067
968.036	1211
968.123	2075
968.209	1444
968.295	627
968.381	1665
968.467	610
968.553	-331
968.639	1452
968.725	1550
968.811	2186
968.897	3063
968.983	425
969.069	-211
969.154	1324
969.240	2435
969.326	707
969.412	556
969.497	837
969.583	679
969.669	1795
969.755	1561
969.840	1988
969.926	2665
970.012	2587
970.097	4520
970.183	2518
970.268	2657
970.354	2260
970.439	3083
970.525	5279
970.610	1981
970.696	2257
970.781	1040
970.866	-439
970.952	1652
971.037	373
971.122	1139
971.208	878
971.293	865
971.378	234
971.463	1657
971.549	1029
971.634	947
971.719	1197
971.804	1651
971.889	1982
971.974	1707
972.059	943
972.144	1095
972.229	558
972.314	962
972.399	762
972.484	884
972.569	1088
972.654	1470
972.739	3638
972.824	3196
972.908	1287
972.993	1223
973.078	796
973.163	1445
973.247	1557
973.332	-180
973.417	2444
973.501	372
973.586	760
973.671	1091
973.755	1289
973.840	2479
973.924	1550
974.009	1550
974.093	2059
974.178	3266
974.262	2995
974.346	2567
974.431	922
974.515	2395
974.600	660
974.684	1323
974.768	595
974.852	2336
974.937	344
975.021	1233
975.105	880
975.189	1485
975.273	1301
975.358	1288
975.442	20
975.526	2320
975.610	553
975.694	510
975.778	1593
975.862	1596
975.946	-866
976.030	2377
976.114	171
976.198	647
976.281	864
976.365	2313
976.449	301
976.533	1774
976.617	824
976.700	1433
976.784	641
976.868	1199
976.951	1896
977.035	1378
977.119	822
977.202	1579
977.286	1087
977.369	1808
977.453	2067
977.536	2211
977.620	-5
977.703	1326
977.787	740
977.870	2235
977.953	1557
978.037	1098
978.120	2485
978.203	2549
978.287	3758
978.370	2171
978.453	675
978.536	1355
978.620	2143
978.703	3120
978.786	1133
978.869	614
978.952	445
979.035	2118
979.118	1373
979.201	359
979.284	516
979.367	1517
979.450	885
979.533	36
979.616	751
979.699	1003
979.782	1603
979.865	1307
979.948	688
980.030	1113
980.113	544
980.196	789
980.279	536
980.361	-84
980.444	1260
980.526	1724
980.609	2192
980.692	2504
980.774	2289
980.857	786
980.939	921
981.022	909
981.104	1252
981.187	1499
981.269	914
981.352	2223
981.434	512
981.516	1035
981.599	1585
981.681	1009
981.763	1097
981.846	1061
981.928	1257
982.010	1180
982.092	523
982.174	1719
982.256	699
982.339	1409
982.421	-22
982.503	1051
982.585	-81
982.667	763
982.749	657
982.831	521
982.913	104
982.995	1993
983.077	1013
983.158	990
983.240	329
983.322	2698
983.404	2716
983.486	2142
983.568	2356
983.649	1801
983.731	2242
983.813	1126
983.894	1374
983.976	1853
984.058	511
984.139	2457
984.221	475
984.302	2501
984.384	410
984.465	1308
984.547	1588
984.628	1333
984.710	2161
984.791	1951
984.872	668
984.954	1139
985.035	1940
985.116	520
985.198	294
985.279	2272
985.360	716
985.441	1586
985.522	1468
985.604	1665
985.685	-193
985.766	2368
985.847	1549
985.928	942
986.009	1296
986.090	1231
986.171	2233
986.252	1194
986.333	1851
986.414	1112
986.495	2511
986.576	2528
986.656	853
986.737	1745
986.818	1433
986.899	1365
986.980	1245
987.060	1679
987.141	732
987.222	2051
987.302	2410
987.383	2512
987.464	1631
987.544	2147
987.625	1560
987.705	3260
987.786	2236
987.866	3033
987.947	1715
988.027	1941
988.108	1074
988.188	1808
988.268	1621
988.349	2154
988.429	1827
988.509	2635
988.589	965
988.670	781
988.750	2386
988.830	1729
988.910	1857
988.990	2489
989.070	1637
989.151	1675
989.231	278
989.311	2190
989.391	1046
989.471	1492
989.551	1463
989.631	970
989.711	1947
989.791	1548
989.870	379
989.950	2248
990.030	1268
990.110	1835
990.190	373
990.269	1833
990.349	1195
990.429	1683
990.509	1193
990.588	299
990.668	1532
990.747	1380
990.827	1068
990.907	1799
990.986	953
991.066	1462
991.145	749
991.225	619
991.304	1023
991.383	2579
991.463	1619
991.542	1730
991.622	603
991.701	1234
991.780	854
991.859	1099
991.939	391
992.018	846
992.097	1058
992.176	1037
992.256	620
992.335	681
992.414	1333
992.493	572
992.572	307
992.651	1346
992.730	193
992.809	1341
992.888	272
992.967	369
993.046	1277
993.125	59
993.203	952
993.282	1652
993.361	762
993.440	904
993.519	134
993.597	925
993.676	-465
993.755	1307
993.834	633
993.912	-185
993.991	1698
994.069	374
994.148	676
994.226	367
994.305	960
994.384	198
994.462	363
994.540	355
994.619	212
994.697	1067
994.776	-234
994.854	1730
994.932	-787
995.011	-150
995.089	323
995.167	589
995.245	552
995.324	-470
995.402	1249
995.480	272
995.558	-312
995.636	-231
995.714	303
995.792	908
995.870	-715
995.948	-788
996.026	-730
996.104	-671
996.182	498
996.260	-460
996.338	348
996.416	-223
996.494	-429
996.572	763
996.649	-742
996.727	-391
996.805	567
996.883	-7
996.960	-360
997.038	1004
997.116	-378
997.193	-441
997.271	146
997.348	-771
997.426	35
997.504	-181
997.581	302
997.658	370
997.736	-468
997.813	-521
997.891	138
997.968	-285
998.046	-269
998.123	568
998.200	499
998.277	-486
998.355	1017
998.432	-1269
998.509	522
998.586	232
998.663	-301
998.741	-164
998.818	-535
998.895	-398
998.972	140
999.049	352
999.126	-1314
999.203	-506
999.280	-445
999.357	-410
999.434	-325
999.511	346
999.587	-534
999.664	-1212
999.741	-362
999.818	305
999.895	-438
999.971	-184
1000.048	-1217
1000.125	881
1000.202	-1776
1000.278	-350
1000.355	-426
1000.431	-1135
1000.508	-1253
1000.584	390
1000.661	-962
1000.738	-696
1000.814	-494
1000.890	-463
1000.967	-779
1001.043	-167
1001.120	-1213
1001.196	-1180
1001.272	-1096
1001.349	-268
1001.425	-360
1001.501	-220
1001.577	-1266
1001.654	141
1001.730	-526
1001.806	-862
1001.882	-1122
1001.958	-692
1002.034	-987
1002.110	14
1002.186	-1581
1002.262	-913
1002.338	-1503
1002.414	426
1002.490	-536
1002.566	-1248
1002.642	-1699
1002.718	-152
1002.794	-742
1002.870	-490
1002.945	-1107
1003.021	-1046
1003.097	-1038
1003.173	-391
1003.248	-878
1003.324	-512
1003.400	-172
1003.475	-1373
1003.551	-163
1003.626	-803
1003.702	-1417
1003.777	-477
1003.853	-1245
1003.928	-1015
1004.004	-863
1004.079	-274
1004.155	-977
1004.230	-1452
1004.305	-303
1004.381	-1037
1004.456	-1328
1004.531	-1100
1004.607	-763
1004.682	-535
1004.757	12
1004.832	-1153
1004.907	-666
1004.982	-589
1005.057	-611
1005.133	-858
1005.208	-1639
1005.283	-954
1005.358	-1034
1005.433	-1621
1005.508	22
1005.583	-1029
1005.657	-1510
1005.732	-288
1005.807	-1152
1005.882	-744
1005.957	-1535
1006.032	-1631
1006.106	-1028
1006.181	-600
1006.256	-1626
1006.331	-1208
1006.405	-1598
1006.480	-1089
1006.554	-1615
1006.629	-1248
1006.704	-1444
1006.778	-405
1006.853	-1282
1006.927	-1308
1007.002	-1152
1007.076	-827
1007.150	-2078
1007.225	-1976
1007.299	-971
1007.373	-1085
1007.448	-1421
1007.522	-175
1007.596	-995
1007.671	-1262
1007.745	-760
1007.819	-842
1007.893	-877
1007.967	-801
1008.041	-2450
1008.115	-568
1008.190	-1045
1008.264	-1047
1008.338	-2939
1008.412	-1295
1008.486	-408
1008.560	-1163
1008.633	-1589
1008.707	-762
1008.781	-1404
1008.855	-753
1008.929	-1466
1009.003	-1442
1009.076	-2175
1009.150	-1977
1009.224	-1564
1009.298	-980
1009.371	-2067
1009.445	-682
1009.519	-1793
1009.592	-2320
1009.666	-1256
1009.739	-600
1009.813	-2296
1009.886	-1004
1009.960	-2377
1010.033	-821
1010.107	-1819
1010.180	-2599
1010.253	-1632
1010.327	-1305
1010.400	-1255
1010.473	-1575
1010.547	-666
1010.620	-1203
1010.693	-1438
1010.766	-1464
1010.840	-1446
1010.913	-644
1010.986	-2242
1011.059	-2253
1011.132	-2161
1011.205	-1248
1011.278	-1844
1011.351	-1232
1011.424	-1324
1011.497	-1327
1011.570	-1881
1011.643	-1546
1011.716	-1557
1011.789	-2205
1011.862	-1761
1011.934	-1375
1012.007	-2146
1012.080	-914
1012.153	-1705
1012.225	-761
1012.298	-1555
1012.371	-1539
1012.443	-845
1012.516	-1989
1012.588	-582
1012.661	-1220
1012.733	-1685
1012.806	-1313
1012.879	-1385
1012.951	-1402
1013.023	-1224
1013.096	-424
1013.168	-1243
1013.241	-907
1013.313	-1460
1013.385	-1325
1013.458	-1597
1013.530	-973
1013.602	-2177
1013.674	-632
1013.746	-1984
1013.819	-1288
1013.891	-739
1013.963	-2049
1014.035	-1716
1014.107	-1427
1014.179	-1651
1014.251	-2054
1014.323	-2238
1014.395	-1450
1014.467	-1517
1014.539	-496
1014.611	-1619
1014.683	-1256
1014.754	-1413
1014.826	-1756
1014.898	-1608
1014.970	-2537
1015.042	-748
1015.113	-1132
1015.185	-1854
1015.257	-2020
1015.328	-1647
1015.400	-2012
1015.471	-1757
1015.543	-1594
1015.615	-2316
1015.686	-1549
1015.757	-2900
1015.829	-907
1015.901	-1951
1015.972	-1422
1016.043	-2213
1016.115	-1441
1016.186	-2165
1016.257	-1698
1016.328	-1693
1016.400	-742
1016.471	-2406
1016.542	-1621
1016.613	-1418
1016.685	-1745
1016.756	-1343
1016.827	-1077
1016.898	-2481
1016.969	-1561
1017.040	-1919
1017.111	-2098
1017.182	-2608
1017.253	-1265
1017.324	-2002
1017.395	-1740
1017.466	-1660
1017.537	-1591
1017.608	-1012
1017.678	-1935
1017.749	-1433
1017.820	-1194
1017.891	-2620
1017.961	-1760
1018.032	-1934
1018.103	-845
1018.173	-2262
1018.244	-1040
1018.315	-2660
1018.385	-1520
1018.456	-1574
1018.526	-2433
1018.597	-1988
1018.667	-1858
1018.738	-1745
1018.808	-2159
1018.878	-2076
1018.949	-1381
1019.019	-1623
1019.089	-1630
1019.160	-1466
1019.230	-2402
1019.300	-2336
1019.371	-2615
1019.441	-1845
1019.511	-1220
1019.581	-1798
1019.651	-2326
1019.721	-1302
1019.791	-1729
1019.861	-1773
1019.931	-1441
1020.001	-2184
1020.071	-1854
1020.141	-2264
1020.211	-1553
1020.281	-2622
1020.351	-2148
1020.421	-1914
1020.491	-1635
1020.560	-3538
1020.630	-1329
1020.700	-1443
1020.770	-1850
1020.839	-1690
1020.909	-1140
1020.979	-2307
1021.048	-2051
1021.118	-1753
1021.187	-1462
1021.257	-1610
1021.326	-1834
1021.396	-1779
1021.465	-2132
1021.535	-1991
1021.604	-2364
1021.674	-2409
1021.743	-1862
1021.812	-1944
1021.882	-1833
1021.951	-2179
1022.020	-1372
1022.089	-1344
1022.159	-2288
1022.228	-2290
1022.297	-2109
1022.366	-1787
1022.435	-1406
1022.504	-2377
1022.573	-2030
1022.642	-1341
1022.711	-2402
1022.781	-2129
1022.849	-1302
1022.918	-2211
1022.987	-907
1023.056	-2243
1023.125	-1796
1023.194	-1975
1023.263	-1688
1023.331	-1624
1023.400	-2697
1023.469	-2069
1023.538	-687
1023.606	-2773
1023.675	-1492
1023.744	-2512
1023.812	-1978
1023.881	-1487
1023.949	-1419
1024.018	-2316
1024.086	-1962
1024.155	-2225
1024.223	-2134
1024.292	-1655
1024.360	-1022
1024.429	-1515
1024.497	-2367
1024.565	-1699
1024.634	-2814
1024.702	-2210
1024.770	-1660
1024.838	-2428
1024.907	-1617
1024.975	-2273
1025.043	-1138
1025.111	-1808
1025.179	-1870
1025.247	-2823
1025.315	-2240
1025.383	-2389
1025.451	-2416
1025.519	-2738
1025.587	-2440
1025.655	-1952
1025.723	-2401
1025.791	-2377
1025.859	-1344
1025.927	-1459
1025.995	-2773
1026.062	-2407
1026.130	-1446
1026.198	-2773
1026.266	-1714
1026.333	-2626
1026.401	-1752
1026.469	-1819
1026.536	-1699
1026.604	-2187
1026.671	-2698
1026.739	-2383
1026.806	-1627
1026.874	-2569
1026.941	-2258
1027.009	-2714
1027.076	-1828
1027.144	-1692
1027.211	-2540
1027.278	-2089
1027.345	-2109
1027.413	-2034
1027.480	-965
1027.547	-2217
1027.614	-2278
1027.682	-2034
1027.749	-1972
1027.816	-2116
1027.883	-1460
1027.950	-1801
1028.017	-1648
1028.084	-2295
1028.151	-2386
1028.218	-3572
1028.285	-2183
1028.352	-1801
1028.419	-1972
1028.486	-3289
1028.553	-1884
1028.619	-3186
1028.686	-2021
1028.753	-2433
1028.820	-2128
1028.886	-3030
1028.953	-2395
1029.020	-3436
1029.086	-2469
1029.153	-2389
1029.220	-2760
1029.286	-2374
1029.353	-2519
1029.419	-2341
1029.486	-2275
1029.552	-3209
1029.619	-2292
1029.685	-2224
1029.751	-1423
1029.818	-1775
1029.884	-2599
1029.951	-1800
1030.017	-2776
1030.083	-2406
1030.149	-1249
1030.216	-2469
1030.282	-1247
1030.348	-2083
1030.414	-2287
1030.480	-2408
1030.546	-2246
1030.612	-2114
1030.678	-2327
1030.744	-2207
1030.810	-2701
1030.876	-2579
1030.942	-1664
1031.008	-2518
1031.074	-2034
1031.140	-3069
1031.206	-2453
1031.272	-2637
1031.337	-2394
1031.403	-1739
1031.469	-2014
1031.534	-2723
1031.600	-1940
1031.666	-2721
1031.731	-2978
1031.797	-2562
1031.863	-2829
1031.928	-2581
1031.994	-2430
1032.059	-2605
1032.125	-2286
1032.190	-2849
1032.256	-2552
1032.321	-3324
1032.386	-3086
1032.452	-1851
1032.517	-1196
1032.582	-3365
1032.647	-2190
1032.713	-2187
1032.778	-1544
1032.843	-2538
1032.908	-2102
1032.974	-2239
1033.039	-2256
1033.104	-2009
1033.169	-2086
1033.234	-3098
1033.299	-1833
1033.364	-1459
1033.429	-963
1033.494	-1896
1033.559	-2088
1033.624	-2429
1033.688	-1992
1033.753	-2390
1033.818	-1778
1033.883	-2519
1033.948	-963
1034.013	-1501
1034.077	-998
1034.142	-461
1034.207	260
1034.271	1334
1034.336	1714
1034.400	187
1034.465	-47
1034.530	-699
1034.594	-2272
1034.658	-2518
1034.723	-1825
1034.787	-2867
1034.852	-1696
1034.916	-2021
1034.981	-2882
1035.045	-1706
1035.109	-2561
1035.173	-2004
1035.238	-1930
1035.302	-2341
1035.366	-1792
1035.430	-2335
1035.495	-2558
1035.559	-2474
1035.623	-2280
1035.687	-3044
1035.751	-1452
1035.815	-3025
1035.879	-2040
1035.943	-2135
1036.007	-2546
1036.071	-2225
1036.135	-2287
1036.198	-2205
1036.262	-2455
1036.326	-1532
1036.390	-2972
1036.454	-1978
1036.517	-1913
1036.581	-1498
1036.645	-83
1036.709	-1684
1036.772	-1643
1036.836	-2375
1036.900	-1884
1036.963	-2832
1037.026	-2444
1037.090	-2126
1037.154	-2183
1037.217	-2731
1037.280	-2239
1037.344	-2689
1037.407	-2506
1037.471	-2189
1037.534	-2179
1037.597	-2811
1037.661	-2169
1037.724	-2353
1037.787	-3058
1037.850	-2137
1037.913	-2670
1037.977	-2252
1038.040	-2760
1038.103	-3025
1038.166	-1808
1038.229	-1744
1038.292	-2693
1038.355	-2949
1038.418	-2168
1038.481	-2042
1038.544	-2828
1038.607	-2277
1038.670	-2548
1038.732	-2060
1038.795	-3044
1038.858	-3246
1038.921	-2515
1038.984	-2197
1039.046	-2217
1039.109	-2310
1039.172	-2332
1039.234	-2696
1039.297	-2576
1039.360	-3144
1039.422	-3386
1039.485	-2675
1039.547	-2661
1039.610	-2866
1039.672	-2509
1039.734	-2585
1039.797	-2485
1039.859	-2329
1039.922	-1892
1039.984	-2469
1040.046	-2097
1040.109	-2354
1040.171	-3372
1040.233	-2542
1040.295	-1830
1040.358	-2809
1040.420	-2284
1040.482	-2849
1040.544	-2368
1040.606	-2723
1040.668	-2391
1040.730	-2368
1040.792	-2293
1040.854	-2115
1040.916	-1712
1040.978	-2584
1041.040	-1301
1041.102	-2150
1041.164	-2448
1041.225	-2442
1041.287	-1764
1041.349	-2818
1041.411	-2355
1041.472	-2772
1041.534	-2234
1041.596	-2673
1041.657	-2657
1041.719	-2179
1041.781	-2453
1041.842	-2343
1041.904	-2466
1041.965	-2347
1042.027	-1973
1042.088	-2324
1042.150	-2365
1042.211	-2970
1042.272	-1627
1042.334	-3263
1042.395	-1865
1042.456	-2870
1042.518	-1721
1042.579	-2477
1042.640	-2167
1042.701	-2766
1042.763	-2626
1042.824	-1998
1042.885	-1699
1042.946	-2916
1043.007	-2806
1043.068	-2967
1043.129	-1769
1043.190	-2946
1043.251	-1988
1043.312	-2916
1043.373	-2141
1043.434	-2502
1043.495	-2029
1043.556	-1689
1043.616	-2568
1043.677	-2722
1043.738	-2342
1043.799	-2399
1043.859	-2169
1043.920	-2244
1043.981	-1680
1044.041	-2387
1044.102	-2598
1044.162	-2669
1044.223	-1956
1044.284	-2256
1044.344	-2425
1044.405	-2606
1044.465	-2016
1044.525	-2406
1044.586	-1918
1044.646	-1941
1044.707	-1556
1044.767	-2018
1044.827	-1210
1044.887	-2410
1044.948	-2199
1045.008	-2255
1045.068	-1800
1045.128	-2735
1045.188	-2048
1045.249	-1550
1045.309	-2468
1045.369	-1782
1045.429	-1893
1045.489	-3135
1045.549	-2168
1045.609	-3250
1045.669	-2131
1045.729	-2496
1045.789	-2161
1045.848	-1845
1045.908	-1521
1045.968	-1811
1046.028	-2543
1046.088	-1990
1046.147	-1272
1046.207	-2066
1046.267	-1726
1046.326	-2327
1046.386	-1639
1046.446	-1338
1046.505	-936
1046.565	-1376
1046.624	-306
1046.684	-1568
1046.743	-1022
1046.803	-1103
1046.862	-529
1046.922	0
